
time,gFx,gFy,gFz,ax,ay,az,wx,wy,wz,
0.038348,0.0000,0.0000,0.0000,-0.2725,0.3480,-0.5872,0.0000,0.0000,0.0000,
0.040027,0.0000,0.0000,0.0000,-0.0034,-0.0271,0.0003,0.0000,0.0000,0.0000,
0.041044,0.1346,0.9908,-0.0097,-0.0034,-0.0271,0.0003,0.0000,0.0000,0.0000,
0.041629,0.1346,0.9908,-0.0097,-0.0034,-0.0271,0.0003,0.0110,0.0418,0.0071,
0.062577,0.1346,0.9908,-0.0097,0.4770,-0.0697,-0.0169,0.0110,0.0418,0.0071,
0.080045,0.1346,0.9908,-0.0097,0.0329,-0.0850,0.1256,0.0110,0.0418,0.0071,
0.102377,0.1346,0.9908,-0.0097,0.0480,-0.0507,-0.2899,0.0110,0.0418,0.0071,
0.107241,0.1352,0.9830,-0.0394,0.0480,-0.0507,-0.2899,0.0110,0.0418,0.0071,
0.108185,0.1352,0.9830,-0.0394,0.0480,-0.0507,-0.2899,0.0147,0.0088,0.0076,
0.119826,0.1352,0.9830,-0.0394,0.0157,-0.0472,-0.0866,0.0147,0.0088,0.0076,
0.140030,0.1352,0.9830,-0.0394,0.1253,0.1057,-0.1172,0.0147,0.0088,0.0076,
0.161416,0.1352,0.9830,-0.0394,0.0217,0.0902,-0.0204,0.0147,0.0088,0.0076,
0.173699,0.1579,0.9839,-0.0018,0.0217,0.0902,-0.0204,0.0147,0.0088,0.0076,
0.174919,0.1579,0.9839,-0.0018,0.0217,0.0902,-0.0204,0.0296,0.0024,0.0518,
0.180695,0.1579,0.9839,-0.0018,0.1538,-0.0727,0.1462,0.0296,0.0024,0.0518,
0.200106,0.1579,0.9839,-0.0018,-0.0373,-0.0997,-0.0332,0.0296,0.0024,0.0518,
0.219920,0.1579,0.9839,-0.0018,-0.0319,0.0066,-0.0908,0.0296,0.0024,0.0518,
0.240158,0.1760,0.9870,-0.0442,-0.0319,0.0066,-0.0908,0.0296,0.0024,0.0518,
0.242336,0.1760,0.9870,-0.0442,-0.0319,0.0066,-0.0908,0.0163,0.0498,0.0082,
0.243323,0.1760,0.9870,-0.0442,0.2818,-0.0056,-0.1111,0.0163,0.0498,0.0082,
0.263682,0.1760,0.9870,-0.0442,0.0156,0.0002,-0.0420,0.0163,0.0498,0.0082,
0.280829,0.1760,0.9870,-0.0442,-0.1917,0.0190,0.3619,0.0163,0.0498,0.0082,
0.299833,0.1760,0.9870,-0.0442,0.4419,-0.0891,0.0858,0.0163,0.0498,0.0082,
0.306053,0.1737,1.0029,-0.0277,0.4419,-0.0891,0.0858,0.0163,0.0498,0.0082,
0.307765,0.1737,1.0029,-0.0277,0.4419,-0.0891,0.0858,0.0328,0.0823,-0.0147,
0.320692,0.1737,1.0029,-0.0277,-0.0499,-0.0680,0.1438,0.0328,0.0823,-0.0147,
0.340842,0.1737,1.0029,-0.0277,-0.2279,-0.0500,0.1640,0.0328,0.0823,-0.0147,
0.360398,0.1737,1.0029,-0.0277,0.0544,-0.0788,-0.3663,0.0328,0.0823,-0.0147,
0.371836,0.1441,0.9634,-0.0462,0.0544,-0.0788,-0.3663,0.0328,0.0823,-0.0147,
0.374353,0.1441,0.9634,-0.0462,0.0544,-0.0788,-0.3663,-0.0290,0.0088,-0.0073,
0.381694,0.1441,0.9634,-0.0462,-0.0511,-0.0593,-0.2091,-0.0290,0.0088,-0.0073,
0.400296,0.1441,0.9634,-0.0462,-0.2994,-0.1488,0.1001,-0.0290,0.0088,-0.0073,
0.420862,0.1441,0.9634,-0.0462,0.7551,0.0688,0.0388,-0.0290,0.0088,-0.0073,
0.438690,0.1913,0.9872,0.0041,0.7551,0.0688,0.0388,-0.0290,0.0088,-0.0073,
0.441052,0.1913,0.9872,0.0041,0.7551,0.0688,0.0388,-0.0620,-0.0535,-0.1260,
0.442451,0.1913,0.9872,0.0041,0.2503,0.0003,0.3093,-0.0620,-0.0535,-0.1260,
0.460578,0.1913,0.9872,0.0041,0.0827,-0.0114,0.0770,-0.0620,-0.0535,-0.1260,
0.480295,0.1913,0.9872,0.0041,0.1622,-0.0150,-0.3515,-0.0620,-0.0535,-0.1260,
0.500334,0.1913,0.9872,0.0041,0.1698,0.1094,-0.1238,-0.0620,-0.0535,-0.1260,
0.503622,0.1661,0.9987,-0.0490,0.1698,0.1094,-0.1238,-0.0620,-0.0535,-0.1260,
0.505240,0.1661,0.9987,-0.0490,0.1698,0.1094,-0.1238,-0.1471,-0.1120,-0.2489,
0.520134,0.1661,0.9987,-0.0490,0.5138,0.1827,-0.3229,-0.1471,-0.1120,-0.2489,
0.540149,0.1661,0.9987,-0.0490,1.0054,0.3424,0.2068,-0.1471,-0.1120,-0.2489,
0.560484,0.1661,0.9987,-0.0490,-0.1933,0.1145,0.4287,-0.1471,-0.1120,-0.2489,
0.570064,0.1081,0.9790,-0.0268,-0.1933,0.1145,0.4287,-0.1471,-0.1120,-0.2489,
0.572417,0.1081,0.9790,-0.0268,-0.1933,0.1145,0.4287,-0.0950,-0.0785,-0.5199,
0.581619,0.1081,0.9790,-0.0268,-0.0298,-0.0364,-0.1801,-0.0950,-0.0785,-0.5199,
0.600190,0.1081,0.9790,-0.0268,0.1153,0.0683,-0.0118,-0.0950,-0.0785,-0.5199,
0.620508,0.1081,0.9790,-0.0268,0.5895,0.0950,0.5848,-0.0950,-0.0785,-0.5199,
0.635723,0.1173,0.9814,0.0663,0.5895,0.0950,0.5848,-0.0950,-0.0785,-0.5199,
0.638795,0.1173,0.9814,0.0663,0.5895,0.0950,0.5848,0.0301,-0.0157,-0.7525,
0.639882,0.1173,0.9814,0.0663,0.0633,-0.1734,0.6625,0.0301,-0.0157,-0.7525,
0.660654,0.1173,0.9814,0.0663,0.4425,0.0391,0.4002,0.0301,-0.0157,-0.7525,
0.681476,0.1173,0.9814,0.0663,0.2295,0.2328,0.3287,0.0301,-0.0157,-0.7525,
0.700194,0.1173,0.9814,0.0663,-0.2510,-0.0427,-0.0308,0.0301,-0.0157,-0.7525,
0.702518,0.0061,0.9945,-0.0223,-0.2510,-0.0427,-0.0308,0.0301,-0.0157,-0.7525,
0.703717,0.0061,0.9945,-0.0223,-0.2510,-0.0427,-0.0308,0.0541,0.1765,-0.8771,
0.720278,0.0061,0.9945,-0.0223,-1.0695,-0.1984,0.0395,0.0541,0.1765,-0.8771,
0.740255,0.0061,0.9945,-0.0223,-0.9062,-0.0073,0.2630,0.0541,0.1765,-0.8771,
0.760541,0.0061,0.9945,-0.0223,0.7890,0.0300,0.2514,0.0541,0.1765,-0.8771,
0.767688,0.0370,1.0416,0.0415,0.7890,0.0300,0.2514,0.0541,0.1765,-0.8771,
0.770428,0.0370,1.0416,0.0415,0.7890,0.0300,0.2514,0.1600,0.2478,-0.7419,
0.782972,0.0370,1.0416,0.0415,0.0166,0.2264,0.5996,0.1600,0.2478,-0.7419,
0.800928,0.0370,1.0416,0.0415,-0.5318,-0.2611,0.8379,0.1600,0.2478,-0.7419,
0.820740,0.0370,1.0416,0.0415,0.5900,-0.0115,1.4611,0.1600,0.2478,-0.7419,
0.834326,0.0552,1.0189,0.1852,0.5900,-0.0115,1.4611,0.1600,0.2478,-0.7419,
0.836959,0.0552,1.0189,0.1852,0.5900,-0.0115,1.4611,0.3240,1.1506,-0.6402,
0.840181,0.0552,1.0189,0.1852,0.9135,0.2588,1.7702,0.3240,1.1506,-0.6402,
0.860252,0.0552,1.0189,0.1852,0.3273,0.6876,0.9345,0.3240,1.1506,-0.6402,
0.880132,0.0552,1.0189,0.1852,-0.9361,2.5674,1.7819,0.3240,1.1506,-0.6402,
0.901367,0.0947,1.1328,0.1774,-0.9361,2.5674,1.7819,0.3240,1.1506,-0.6402,
0.903912,0.0947,1.1328,0.1774,-0.9361,2.5674,1.7819,-0.0598,3.3326,-0.5151,
0.905564,0.0947,1.1328,0.1774,1.5964,1.3284,2.2594,-0.0598,3.3326,-0.5151,
0.920085,0.0947,1.1328,0.1774,-0.4029,0.7747,0.7031,-0.0598,3.3326,-0.5151,
0.940533,0.0947,1.1328,0.1774,-1.9873,1.3264,1.0762,-0.0598,3.3326,-0.5151,
0.960167,0.0947,1.1328,0.1774,-1.5096,1.3811,1.5696,-0.0598,3.3326,-0.5151,
0.966782,-0.2842,1.1349,0.1060,-1.5096,1.3811,1.5696,-0.0598,3.3326,-0.5151,
0.969010,-0.2842,1.1349,0.1060,-1.5096,1.3811,1.5696,-0.0838,3.5392,-0.8079,
0.980553,-0.2842,1.1349,0.1060,-1.4490,0.9090,1.1909,-0.0838,3.5392,-0.8079,
1.001357,-0.2842,1.1349,0.1060,-0.6117,-0.8724,1.0247,-0.0838,3.5392,-0.8079,
1.020071,-0.2842,1.1349,0.1060,-0.0619,-2.7011,1.0235,-0.0838,3.5392,-0.8079,
1.035142,-0.2373,0.7518,0.0020,-0.0619,-2.7011,1.0235,-0.0838,3.5392,-0.8079,
1.037714,-0.2373,0.7518,0.0020,-0.0619,-2.7011,1.0235,-0.1567,3.6211,-1.5436,
1.040173,-0.2373,0.7518,0.0020,-0.9481,-1.7120,0.3898,-0.1567,3.6211,-1.5436,
1.060485,-0.2373,0.7518,0.0020,-1.9436,-0.1721,-0.1582,-0.1567,3.6211,-1.5436,
1.080195,-0.2373,0.7518,0.0020,-1.5187,-0.9477,-0.4100,-0.1567,3.6211,-1.5436,
1.100262,-0.2356,0.7492,-0.1010,-1.5187,-0.9477,-0.4100,-0.1567,3.6211,-1.5436,
1.103061,-0.2356,0.7492,-0.1010,-1.5187,-0.9477,-0.4100,-0.2930,2.0992,-1.6000,
1.104423,-0.2356,0.7492,-0.1010,0.3163,-2.0703,-0.0672,-0.2930,2.0992,-1.6000,
1.120100,-0.2356,0.7492,-0.1010,1.8740,-2.1409,0.1607,-0.2930,2.0992,-1.6000,
1.140599,-0.2356,0.7492,-0.1010,1.0894,0.1004,-1.0574,-0.2930,2.0992,-1.6000,
1.160322,-0.2356,0.7492,-0.1010,-1.1893,0.6016,-1.4757,-0.2930,2.0992,-1.6000,
1.163401,-0.4834,0.9415,-0.2592,-1.1893,0.6016,-1.4757,-0.2930,2.0992,-1.6000,
1.165036,-0.4834,0.9415,-0.2592,-1.1893,0.6016,-1.4757,-0.5490,1.6750,-1.0256,
1.180325,-0.4834,0.9415,-0.2592,-0.5236,-1.4960,-0.9417,-0.5490,1.6750,-1.0256,
1.200603,-0.4834,0.9415,-0.2592,2.5376,-2.5416,0.0773,-0.5490,1.6750,-1.0256,
1.220502,-0.4834,0.9415,-0.2592,4.8025,-1.8047,0.3264,-0.5490,1.6750,-1.0256,
1.229630,-0.1144,0.8549,-0.1797,4.8025,-1.8047,0.3264,-0.5490,1.6750,-1.0256,
1.231198,-0.1144,0.8549,-0.1797,4.8025,-1.8047,0.3264,-0.5863,1.5115,-0.8169,
1.240128,-0.1144,0.8549,-0.1797,0.9501,0.3043,-1.1540,-0.5863,1.5115,-0.8169,
1.260414,-0.1144,0.8549,-0.1797,-1.9127,0.7752,-1.2054,-0.5863,1.5115,-0.8169,
1.279986,-0.1144,0.8549,-0.1797,-0.0511,-0.1958,-0.9113,-0.5863,1.5115,-0.8169,
1.295620,-0.1155,0.8083,-0.1334,-0.0511,-0.1958,-0.9113,-0.5863,1.5115,-0.8169,
1.298162,-0.1155,0.8083,-0.1334,-0.0511,-0.1958,-0.9113,-0.3925,-0.6459,0.3185,
1.300661,-0.1155,0.8083,-0.1334,3.1075,-1.1196,-0.3524,-0.3925,-0.6459,0.3185,
1.320298,-0.1155,0.8083,-0.1334,4.5188,-1.8392,-0.8171,-0.3925,-0.6459,0.3185,
1.340290,-0.1155,0.8083,-0.1334,2.5619,0.2511,-1.8394,-0.3925,-0.6459,0.3185,
1.360107,-0.1155,0.8083,-0.1334,0.0011,0.5514,-2.5640,-0.3925,-0.6459,0.3185,
1.362512,-0.3477,1.0021,-0.3442,0.0011,0.5514,-2.5640,-0.3925,-0.6459,0.3185,
1.363544,-0.3477,1.0021,-0.3442,0.0011,0.5514,-2.5640,-0.1195,0.3144,0.7641,
1.380345,-0.3477,1.0021,-0.3442,-1.3007,7.2987,-2.4763,-0.1195,0.3144,0.7641,
1.400636,-0.3477,1.0021,-0.3442,-0.9604,-0.5075,-5.4654,-0.1195,0.3144,0.7641,
1.421812,-0.3477,1.0021,-0.3442,-3.9327,-1.1721,-2.8153,-0.1195,0.3144,0.7641,
1.427835,-0.4893,0.9115,-0.2228,-3.9327,-1.1721,-2.8153,-0.1195,0.3144,0.7641,
1.429855,-0.4893,0.9115,-0.2228,-3.9327,-1.1721,-2.8153,0.0908,1.0750,0.5479,
1.440015,-0.4893,0.9115,-0.2228,2.3725,1.1722,0.8475,0.0908,1.0750,0.5479,
1.460281,-0.4893,0.9115,-0.2228,2.0357,1.3484,1.1448,0.0908,1.0750,0.5479,
1.479998,-0.4893,0.9115,-0.2228,-3.0420,-0.8991,0.1138,0.0908,1.0750,0.5479,
1.493989,-0.3428,0.8963,-0.2058,-3.0420,-0.8991,0.1138,0.0908,1.0750,0.5479,
1.496130,-0.3428,0.8963,-0.2058,-3.0420,-0.8991,0.1138,0.4389,-1.1437,0.9206,
1.502043,-0.3428,0.8963,-0.2058,0.7792,-0.0780,-0.4539,0.4389,-1.1437,0.9206,
1.521216,-0.3428,0.8963,-0.2058,2.7583,-0.7805,-1.3068,0.4389,-1.1437,0.9206,
1.540446,-0.3428,0.8963,-0.2058,0.2195,0.8354,0.5142,0.4389,-1.1437,0.9206,
1.559746,-0.3006,0.8913,-0.0482,0.2195,0.8354,0.5142,0.4389,-1.1437,0.9206,
1.561977,-0.3006,0.8913,-0.0482,0.2195,0.8354,0.5142,0.2675,0.5007,0.7710,
1.562875,-0.3006,0.8913,-0.0482,0.1042,-0.3383,1.1811,0.2675,0.5007,0.7710,
1.579973,-0.3006,0.8913,-0.0482,-2.0675,-0.6269,-0.9596,0.2675,0.5007,0.7710,
1.601837,-0.3006,0.8913,-0.0482,1.7474,0.6283,-0.0303,0.2675,0.5007,0.7710,
1.620521,-0.3006,0.8913,-0.0482,3.1144,1.3816,0.6288,0.2675,0.5007,0.7710,
1.625684,0.0150,1.0272,-0.1201,3.1144,1.3816,0.6288,0.2675,0.5007,0.7710,
1.627944,0.0150,1.0272,-0.1201,3.1144,1.3816,0.6288,0.3825,0.2648,0.7401,
1.640160,0.0150,1.0272,-0.1201,2.6163,0.5654,0.0574,0.3825,0.2648,0.7401,
1.660128,0.0150,1.0272,-0.1201,1.3772,0.2000,-0.9708,0.3825,0.2648,0.7401,
1.680113,0.0150,1.0272,-0.1201,-0.6801,-0.2641,-0.3845,0.3825,0.2648,0.7401,
1.691658,-0.2575,0.9404,-0.2178,-0.6801,-0.2641,-0.3845,0.3825,0.2648,0.7401,
1.694203,-0.2575,0.9404,-0.2178,-0.6801,-0.2641,-0.3845,0.2596,0.3122,0.5266,
1.703314,-0.2575,0.9404,-0.2178,-0.3391,-0.1117,-0.0813,0.2596,0.3122,0.5266,
1.721041,-0.2575,0.9404,-0.2178,0.3116,-0.0118,0.0910,0.2596,0.3122,0.5266,
1.741862,-0.2575,0.9404,-0.2178,0.6518,0.1400,-0.4511,0.2596,0.3122,0.5266,
1.758567,-0.1191,0.9669,-0.3313,0.6518,0.1400,-0.4511,0.2596,0.3122,0.5266,
1.761080,-0.1191,0.9669,-0.3313,0.6518,0.1400,-0.4511,0.2398,0.0801,0.5091,
1.762482,-0.1191,0.9669,-0.3313,0.2756,0.0494,-0.9019,0.2398,0.0801,0.5091,
1.780429,-0.1191,0.9669,-0.3313,0.0622,-0.1386,-0.8628,0.2398,0.0801,0.5091,
1.800110,-0.1191,0.9669,-0.3313,-0.4448,-0.3182,-0.0834,0.2398,0.0801,0.5091,
1.821422,-0.1191,0.9669,-0.3313,0.1116,-0.1459,0.2125,0.2398,0.0801,0.5091,
1.823591,-0.0593,0.9568,-0.2503,0.1116,-0.1459,0.2125,0.2398,0.0801,0.5091,
1.824881,-0.0593,0.9568,-0.2503,0.1116,-0.1459,0.2125,0.1920,0.0966,0.6432,
1.840214,-0.0593,0.9568,-0.2503,1.2723,0.2921,-0.2731,0.1920,0.0966,0.6432,
1.860308,-0.0593,0.9568,-0.2503,1.5605,0.2719,-0.5770,0.1920,0.0966,0.6432,
1.880203,-0.0593,0.9568,-0.2503,-1.4729,-0.2851,-0.5961,0.1920,0.0966,0.6432,
1.890065,-0.1218,0.9228,-0.2983,-1.4729,-0.2851,-0.5961,0.1920,0.0966,0.6432,
1.892561,-0.1218,0.9228,-0.2983,-1.4729,-0.2851,-0.5961,0.0743,0.1195,0.5293,
1.903519,-0.1218,0.9228,-0.2983,-0.0242,-0.2186,-0.0724,0.0743,0.1195,0.5293,
1.920380,-0.1218,0.9228,-0.2983,1.8442,0.3780,0.0054,0.0743,0.1195,0.5293,
1.940579,-0.1218,0.9228,-0.2983,-1.2337,0.0453,0.0649,0.0743,0.1195,0.5293,
1.956052,-0.0100,0.9437,-0.2333,-1.2337,0.0453,0.0649,0.0743,0.1195,0.5293,
1.958597,-0.0100,0.9437,-0.2333,-1.2337,0.0453,0.0649,0.1179,0.2233,0.4590,
1.959969,-0.0100,0.9437,-0.2333,0.4717,-0.1593,0.4765,0.1179,0.2233,0.4590,
1.980134,-0.0100,0.9437,-0.2333,1.6929,0.2765,0.1819,0.1179,0.2233,0.4590,
2.000452,-0.0100,0.9437,-0.2333,-0.8593,0.2145,-0.0814,0.1179,0.2233,0.4590,
2.021751,-0.0100,0.9437,-0.2333,-2.6875,-0.0432,-0.4554,0.1179,0.2233,0.4590,
2.024076,-0.3159,0.9470,-0.3116,-2.6875,-0.0432,-0.4554,0.1179,0.2233,0.4590,
2.025444,-0.3159,0.9470,-0.3116,-2.6875,-0.0432,-0.4554,0.1046,0.2702,0.5772,
2.040058,-0.3159,0.9470,-0.3116,-0.1150,-0.2925,-0.0397,0.1046,0.2702,0.5772,
2.060303,-0.3159,0.9470,-0.3116,0.6606,0.2655,0.2038,0.1046,0.2702,0.5772,
2.080223,-0.3159,0.9470,-0.3116,-0.2163,0.2466,-0.2606,0.1046,0.2702,0.5772,
2.088564,-0.0065,0.9816,-0.2996,-0.2163,0.2466,-0.2606,0.1046,0.2702,0.5772,
2.091510,-0.0065,0.9816,-0.2996,-0.2163,0.2466,-0.2606,0.1265,0.3697,0.6714,
2.100512,-0.0065,0.9816,-0.2996,-0.7045,0.3570,-0.0209,0.1265,0.3697,0.6714,
2.120411,-0.0065,0.9816,-0.2996,-0.9400,0.6751,0.3322,0.1265,0.3697,0.6714,
2.140462,-0.0065,0.9816,-0.2996,-1.6576,0.6333,0.0140,0.1265,0.3697,0.6714,
2.154600,-0.0882,1.0091,-0.3262,-1.6576,0.6333,0.0140,0.1265,0.3697,0.6714,
2.157726,-0.0882,1.0091,-0.3262,-1.6576,0.6333,0.0140,0.1148,0.3926,1.1377,
2.160513,-0.0882,1.0091,-0.3262,-2.0793,0.7059,-0.4799,0.1148,0.3926,1.1377,
2.180460,-0.0882,1.0091,-0.3262,-1.4526,2.7091,-0.5851,0.1148,0.3926,1.1377,
2.200103,-0.0882,1.0091,-0.3262,-2.4980,2.6511,0.7953,0.1148,0.3926,1.1377,
2.220818,-0.1202,1.1822,-0.1861,-2.4980,2.6511,0.7953,0.1148,0.3926,1.1377,
2.225673,-0.1202,1.1822,-0.1861,-2.4980,2.6511,0.7953,-0.0332,0.4730,1.4939,
2.227588,-0.1202,1.1822,-0.1861,-2.7725,2.3842,1.0555,-0.0332,0.4730,1.4939,
2.240118,-0.1202,1.1822,-0.1861,-3.2023,2.1018,1.0019,-0.0332,0.4730,1.4939,
2.260767,-0.1202,1.1822,-0.1861,-3.6714,2.2795,0.3473,-0.0332,0.4730,1.4939,
2.280179,-0.1202,1.1822,-0.1861,-4.9323,3.0616,0.1120,-0.0332,0.4730,1.4939,
2.289564,-0.2512,1.2015,-0.2838,-4.9323,3.0616,0.1120,-0.0332,0.4730,1.4939,
2.291959,-0.2512,1.2015,-0.2838,-4.9323,3.0616,0.1120,0.0626,0.4043,2.3195,
2.301318,-0.2512,1.2015,-0.2838,-4.9763,3.6803,0.4702,0.0626,0.4043,2.3195,
2.321028,-0.2512,1.2015,-0.2838,-5.4808,2.6081,0.5280,0.0626,0.4043,2.3195,
2.340542,-0.2512,1.2015,-0.2838,-5.3152,2.4487,0.1058,0.0626,0.4043,2.3195,
2.355665,0.0340,1.1291,-0.3311,-5.3152,2.4487,0.1058,0.0626,0.4043,2.3195,
2.358471,0.0340,1.1291,-0.3311,-5.3152,2.4487,0.1058,0.6535,0.4495,3.3985,
2.359902,0.0340,1.1291,-0.3311,-3.5026,2.3517,-0.6027,0.6535,0.4495,3.3985,
2.380532,0.0340,1.1291,-0.3311,2.7052,3.4183,-0.8379,0.6535,0.4495,3.3985,
2.400162,0.0340,1.1291,-0.3311,2.4495,1.7196,-1.1973,0.6535,0.4495,3.3985,
2.418436,0.5669,0.8631,-0.3406,2.4495,1.7196,-1.1973,0.6535,0.4495,3.3985,
2.421358,0.5669,0.8631,-0.3406,2.4495,1.7196,-1.1973,0.4847,0.4554,1.1601,
2.423348,0.5669,0.8631,-0.3406,-0.4905,1.3592,-0.2667,0.4847,0.4554,1.1601,
2.442524,0.5669,0.8631,-0.3406,-2.1314,-3.5667,-0.8522,0.4847,0.4554,1.1601,
2.460233,0.5669,0.8631,-0.3406,2.9719,2.4112,-0.1835,0.4847,0.4554,1.1601,
2.480417,0.5669,0.8631,-0.3406,-3.0632,0.2814,0.1879,0.4847,0.4554,1.1601,
2.483498,0.2363,0.6709,-0.2340,-3.0632,0.2814,0.1879,0.4847,0.4554,1.1601,
2.485197,0.2363,0.6709,-0.2340,-3.0632,0.2814,0.1879,0.0189,0.8509,-0.6828,
2.500587,0.2363,0.6709,-0.2340,-5.3190,-1.1781,0.7358,0.0189,0.8509,-0.6828,
2.521096,0.2363,0.6709,-0.2340,-6.4138,-2.0876,0.9922,0.0189,0.8509,-0.6828,
2.540265,0.2363,0.6709,-0.2340,-6.6644,-2.2002,1.0037,0.0189,0.8509,-0.6828,
2.549637,0.1628,0.5502,-0.1638,-6.6644,-2.2002,1.0037,0.0189,0.8509,-0.6828,
2.551761,0.1628,0.5502,-0.1638,-6.6644,-2.2002,1.0037,-0.2467,-0.0950,-1.5590,
2.560191,0.1628,0.5502,-0.1638,-3.2107,-1.7244,1.0023,-0.2467,-0.0950,-1.5590,
2.580792,0.1628,0.5502,-0.1638,-1.9154,-1.8888,1.4990,-0.2467,-0.0950,-1.5590,
2.600213,0.1628,0.5502,-0.1638,-1.8991,-2.3281,1.5740,-0.2467,-0.0950,-1.5590,
2.615801,0.3828,0.5990,-0.1195,-1.8991,-2.3281,1.5740,-0.2467,-0.0950,-1.5590,
2.617996,0.3828,0.5990,-0.1195,-1.8991,-2.3281,1.5740,-0.3920,-0.4240,-3.2049,
2.623260,0.3828,0.5990,-0.1195,-0.8764,-2.1544,1.2979,-0.3920,-0.4240,-3.2049,
2.640119,0.3828,0.5990,-0.1195,-1.7076,-2.3147,1.3821,-0.3920,-0.4240,-3.2049,
2.661678,0.3828,0.5990,-0.1195,-2.1514,-1.8174,0.8248,-0.3920,-0.4240,-3.2049,
2.680061,0.3828,0.5990,-0.1195,-0.3193,-1.0505,0.5748,-0.3920,-0.4240,-3.2049,
2.682542,0.2649,0.8328,-0.1734,-0.3193,-1.0505,0.5748,-0.3920,-0.4240,-3.2049,
2.683208,0.2649,0.8328,-0.1734,-0.3193,-1.0505,0.5748,-0.6385,-0.2936,-4.0370,
2.700060,0.2649,0.8328,-0.1734,0.5286,-0.4257,0.8485,-0.6385,-0.2936,-4.0370,
2.722123,0.2649,0.8328,-0.1734,1.5859,0.3477,0.2125,-0.6385,-0.2936,-4.0370,
2.740418,0.2649,0.8328,-0.1734,2.6114,1.0791,-0.4018,-0.6385,-0.2936,-4.0370,
2.747871,0.3261,1.1277,-0.2203,2.6114,1.0791,-0.4018,-0.6385,-0.2936,-4.0370,
2.749462,0.3261,1.1277,-0.2203,2.6114,1.0791,-0.4018,-0.5969,0.6023,-4.1988,
2.760486,0.3261,1.1277,-0.2203,2.9102,1.7520,-0.0947,-0.5969,0.6023,-4.1988,
2.780122,0.3261,1.1277,-0.2203,2.7591,2.3782,-0.2187,-0.5969,0.6023,-4.1988,
2.800054,0.3261,1.1277,-0.2203,4.5227,3.7907,-0.1167,-0.5969,0.6023,-4.1988,
2.813664,0.3263,1.3136,-0.1460,4.5227,3.7907,-0.1167,-0.5969,0.6023,-4.1988,
2.815691,0.3263,1.3136,-0.1460,4.5227,3.7907,-0.1167,-0.1024,0.1690,-3.7884,
2.822161,0.3263,1.3136,-0.1460,4.8854,3.0614,0.4418,-0.1024,0.1690,-3.7884,
2.840124,0.3263,1.3136,-0.1460,3.1528,1.8778,0.1230,-0.1024,0.1690,-3.7884,
2.861814,0.3263,1.3136,-0.1460,3.0100,2.3442,0.0199,-0.1024,0.1690,-3.7884,
2.879705,-0.0535,1.1427,-0.1272,3.0100,2.3442,0.0199,-0.1024,0.1690,-3.7884,
2.881817,-0.0535,1.1427,-0.1272,3.0100,2.3442,0.0199,-0.0955,-1.5813,-1.8257,
2.882954,-0.0535,1.1427,-0.1272,3.5251,2.5253,0.2755,-0.0955,-1.5813,-1.8257,
2.900582,-0.0535,1.1427,-0.1272,4.9579,1.5625,0.0717,-0.0955,-1.5813,-1.8257,
2.922022,-0.0535,1.1427,-0.1272,5.2513,0.6428,-0.5532,-0.0955,-1.5813,-1.8257,
2.941428,-0.0535,1.1427,-0.1272,1.1645,6.8193,-1.1219,-0.0955,-1.5813,-1.8257,
2.946002,-0.5731,1.4619,-0.2130,1.1645,6.8193,-1.1219,-0.0955,-1.5813,-1.8257,
2.947785,-0.5731,1.4619,-0.2130,1.1645,6.8193,-1.1219,0.7381,-0.9339,0.8253,
2.960193,-0.5731,1.4619,-0.2130,0.4553,2.4488,-2.2256,0.7381,-0.9339,0.8253,
2.980241,-0.5731,1.4619,-0.2130,5.7945,-0.1778,-2.6253,0.7381,-0.9339,0.8253,
3.000195,-0.5731,1.4619,-0.2130,-0.2855,1.9699,1.1810,0.7381,-0.9339,0.8253,
3.011833,-0.5427,0.9555,0.0516,-0.2855,1.9699,1.1810,0.7381,-0.9339,0.8253,
3.014276,-0.5427,0.9555,0.0516,-0.2855,1.9699,1.1810,0.1669,-0.2877,0.4202,
3.020195,-0.5427,0.9555,0.0516,0.6255,0.2012,2.0603,0.1669,-0.2877,0.4202,
3.039957,-0.5427,0.9555,0.0516,4.0709,0.4132,2.7928,0.1669,-0.2877,0.4202,
3.061935,-0.5427,0.9555,0.0516,2.2539,2.0116,3.2787,0.1669,-0.2877,0.4202,
3.078628,-0.0376,1.1107,-0.0200,2.2539,2.0116,3.2787,0.1669,-0.2877,0.4202,
3.081141,-0.0376,1.1107,-0.0200,2.2539,2.0116,3.2787,0.4256,0.7551,1.1883,
3.082608,-0.0376,1.1107,-0.0200,3.5771,2.0021,1.1957,0.4256,0.7551,1.1883,
3.100087,-0.0376,1.1107,-0.0200,2.4938,1.4170,-4.5678,0.4256,0.7551,1.1883,
3.120364,-0.0376,1.1107,-0.0200,-1.6986,-0.8454,-3.1803,0.4256,0.7551,1.1883,
3.140455,-0.0376,1.1107,-0.0200,2.8320,0.9606,-1.1666,0.4256,0.7551,1.1883,
3.144279,0.1004,1.0178,-0.2471,2.8320,0.9606,-1.1666,0.4256,0.7551,1.1883,
3.146126,0.1004,1.0178,-0.2471,2.8320,0.9606,-1.1666,0.4203,-0.0732,1.3198,
3.163715,0.1004,1.0178,-0.2471,3.8511,1.2666,0.9583,0.4203,-0.0732,1.3198,
3.180385,0.1004,1.0178,-0.2471,3.1011,1.2260,0.5856,0.4203,-0.0732,1.3198,
3.199962,0.1004,1.0178,-0.2471,0.9822,0.2500,-0.4530,0.4203,-0.0732,1.3198,
3.209951,-0.2513,0.9400,-0.3037,0.9822,0.2500,-0.4530,0.4203,-0.0732,1.3198,
3.211862,-0.2513,0.9400,-0.3037,0.9822,0.2500,-0.4530,0.3378,0.2632,0.4553,
3.220622,-0.2513,0.9400,-0.3037,-0.3915,-0.1837,-0.8013,0.3378,0.2632,0.4553,
3.240328,-0.2513,0.9400,-0.3037,-1.5712,-0.3052,-0.2306,0.3378,0.2632,0.4553,
3.260420,-0.2513,0.9400,-0.3037,-0.1328,0.0058,-0.1051,0.3378,0.2632,0.4553,
3.276089,-0.1854,0.9561,-0.2515,-0.1328,0.0058,-0.1051,0.3378,0.2632,0.4553,
3.278117,-0.1854,0.9561,-0.2515,-0.1328,0.0058,-0.1051,0.2574,0.2829,0.7625,
3.279685,-0.1854,0.9561,-0.2515,0.3275,0.0698,-0.2679,0.2574,0.2829,0.7625,
3.300447,-0.1854,0.9561,-0.2515,1.6840,0.3137,-0.1893,0.2574,0.2829,0.7625,
3.320230,-0.1854,0.9561,-0.2515,0.0817,0.0572,0.0291,0.2574,0.2829,0.7625,
3.340479,-0.1854,0.9561,-0.2515,0.1974,0.0453,0.3224,0.2574,0.2829,0.7625,
3.342933,-0.0793,0.9750,-0.2333,0.1974,0.0453,0.3224,0.2574,0.2829,0.7625,
3.343912,-0.0793,0.9750,-0.2333,0.1974,0.0453,0.3224,0.2191,0.2143,0.5517,
3.360393,-0.0793,0.9750,-0.2333,1.8947,0.3597,-0.1386,0.2191,0.2143,0.5517,
3.380536,-0.0793,0.9750,-0.2333,-0.3540,0.0743,-0.5441,0.2191,0.2143,0.5517,
3.400046,-0.0793,0.9750,-0.2333,-0.3275,-0.2121,-0.5154,0.2191,0.2143,0.5517,
3.407717,-0.0587,0.9443,-0.2960,-0.3275,-0.2121,-0.5154,0.2191,0.2143,0.5517,
3.410846,-0.0587,0.9443,-0.2960,-0.3275,-0.2121,-0.5154,0.1259,0.1738,0.4936,
3.420170,-0.0587,0.9443,-0.2960,1.1293,0.0845,-0.3170,0.1259,0.1738,0.4936,
3.440875,-0.0587,0.9443,-0.2960,0.3643,0.0980,-0.0569,0.1259,0.1738,0.4936,
3.460966,-0.0587,0.9443,-0.2960,0.3189,0.1233,0.0924,0.1259,0.1738,0.4936,
3.474869,-0.0623,0.9684,-0.2603,0.3189,0.1233,0.0924,0.1259,0.1738,0.4936,
3.477803,-0.0623,0.9684,-0.2603,0.3189,0.1233,0.0924,0.0977,0.1749,0.3047,
3.480140,-0.0623,0.9684,-0.2603,0.4765,0.1006,0.1424,0.0977,0.1749,0.3047,
3.500049,-0.0623,0.9684,-0.2603,-0.7506,-0.0471,-0.1677,0.0977,0.1749,0.3047,
3.520385,-0.0623,0.9684,-0.2603,-1.1798,-0.1960,-0.4488,0.0977,0.1749,0.3047,
3.540002,-0.2402,0.9485,-0.3286,-1.1798,-0.1960,-0.4488,0.0977,0.1749,0.3047,
3.543528,-0.2402,0.9485,-0.3286,-1.1798,-0.1960,-0.4488,0.0461,0.3106,0.6528,
3.544771,-0.2402,0.9485,-0.3286,-1.3107,-0.1117,-0.5175,0.0461,0.3106,0.6528,
3.560312,-0.2402,0.9485,-0.3286,-1.1849,0.1273,-0.5230,0.0461,0.3106,0.6528,
3.580540,-0.2402,0.9485,-0.3286,-0.1861,-0.0470,0.4365,0.0461,0.3106,0.6528,
3.599951,-0.2402,0.9485,-0.3286,-0.1897,0.3511,-0.1314,0.0461,0.3106,0.6528,
3.605473,-0.0259,0.9742,-0.2690,-0.1897,0.3511,-0.1314,0.0461,0.3106,0.6528,
3.608013,-0.0259,0.9742,-0.2690,-0.1897,0.3511,-0.1314,0.0685,0.2473,0.9631,
3.620718,-0.0259,0.9742,-0.2690,-2.4660,0.2840,0.3260,0.0685,0.2473,0.9631,
3.640038,-0.0259,0.9742,-0.2690,-1.2569,0.4056,0.4320,0.0685,0.2473,0.9631,
3.660336,-0.0259,0.9742,-0.2690,0.3083,0.1633,1.0034,0.0685,0.2473,0.9631,
3.671648,-0.0034,1.0021,-0.2538,0.3083,0.1633,1.0034,0.0685,0.2473,0.9631,
3.673641,-0.0034,1.0021,-0.2538,0.3083,0.1633,1.0034,0.0961,0.4506,1.4146,
3.679975,-0.0034,1.0021,-0.2538,-0.8253,0.5919,-0.1359,0.0961,0.4506,1.4146,
3.700661,-0.0034,1.0021,-0.2538,-0.4840,1.9955,-0.4999,0.0961,0.4506,1.4146,
3.720136,-0.0034,1.0021,-0.2538,-3.9419,2.4465,-0.0214,0.0961,0.4506,1.4146,
3.737977,-0.0180,1.1842,-0.2680,-3.9419,2.4465,-0.0214,0.0961,0.4506,1.4146,
3.741893,-0.0180,1.1842,-0.2680,-3.9419,2.4465,-0.0214,-0.1178,0.3825,1.7914,
3.744068,-0.0180,1.1842,-0.2680,-1.8403,2.3479,0.1971,-0.1178,0.3825,1.7914,
3.760485,-0.0180,1.1842,-0.2680,-1.7824,2.2533,0.1640,-0.1178,0.3825,1.7914,
3.780498,-0.0180,1.1842,-0.2680,-3.3590,2.4911,0.4586,-0.1178,0.3825,1.7914,
3.800019,-0.0180,1.1842,-0.2680,-5.0307,2.3658,0.4018,-0.1178,0.3825,1.7914,
3.803222,-0.2043,1.1961,-0.2334,-5.0307,2.3658,0.4018,-0.1178,0.3825,1.7914,
3.804408,-0.2043,1.1961,-0.2334,-5.0307,2.3658,0.4018,-0.2610,0.3905,2.3775,
3.820173,-0.2043,1.1961,-0.2334,-5.3469,2.9650,0.3147,-0.2610,0.3905,2.3775,
3.839807,-0.2043,1.1961,-0.2334,-5.4784,5.0438,0.4653,-0.2610,0.3905,2.3775,
3.860493,-0.2043,1.1961,-0.2334,-5.8158,1.0061,-0.9506,-0.2610,0.3905,2.3775,
3.869853,-0.0224,0.8720,-0.4483,-5.8158,1.0061,-0.9506,-0.2610,0.3905,2.3775,
3.871440,-0.0224,0.8720,-0.4483,-5.8158,1.0061,-0.9506,0.2974,0.1057,3.3549,
3.880081,-0.0224,0.8720,-0.4483,-2.5486,2.1086,-1.9603,0.2974,0.1057,3.3549,
3.900090,-0.0224,0.8720,-0.4483,0.0565,2.9455,-2.4212,0.2974,0.1057,3.3549,
3.920206,-0.0224,0.8720,-0.4483,0.8095,0.6753,-1.4444,0.2974,0.1057,3.3549,
3.935705,0.5218,0.7443,-0.4134,0.8095,0.6753,-1.4444,0.2974,0.1057,3.3549,
3.938707,0.5218,0.7443,-0.4134,0.8095,0.6753,-1.4444,-0.0162,-0.1317,1.9996,
3.940155,0.5218,0.7443,-0.4134,-1.1335,0.0726,-1.3464,-0.0162,-0.1317,1.9996,
3.961424,0.5218,0.7443,-0.4134,-3.2851,0.4111,-0.5406,-0.0162,-0.1317,1.9996,
3.980551,0.5218,0.7443,-0.4134,-0.4198,-2.6116,-1.3421,-0.0162,-0.1317,1.9996,
4.000311,0.5218,0.7443,-0.4134,-0.2995,-0.5450,-0.8428,-0.0162,-0.1317,1.9996,
4.003196,0.5612,0.6131,-0.3524,-0.2995,-0.5450,-0.8428,-0.0162,-0.1317,1.9996,
4.004084,0.5612,0.6131,-0.3524,-0.2995,-0.5450,-0.8428,-0.6454,-0.3085,0.2764,
4.020740,0.5612,0.6131,-0.3524,-3.9798,-1.2345,0.0606,-0.6454,-0.3085,0.2764,
4.039973,0.5612,0.6131,-0.3524,-5.6304,-1.1694,0.1786,-0.6454,-0.3085,0.2764,
4.060267,0.5612,0.6131,-0.3524,-6.0746,-1.3956,-0.2950,-0.6454,-0.3085,0.2764,
4.067430,0.1451,0.5851,-0.3044,-6.0746,-1.3956,-0.2950,-0.6454,-0.3085,0.2764,
4.069177,0.1451,0.5851,-0.3044,-6.0746,-1.3956,-0.2950,-1.1133,-1.1155,-0.9718,
4.080038,0.1451,0.5851,-0.3044,-3.6033,-1.2490,-0.3987,-1.1133,-1.1155,-0.9718,
4.100477,0.1451,0.5851,-0.3044,-2.0985,-1.5634,-0.0780,-1.1133,-1.1155,-0.9718,
4.120216,0.1451,0.5851,-0.3044,-1.3809,-1.8500,-0.1308,-1.1133,-1.1155,-0.9718,
4.133854,0.4288,0.6269,-0.2904,-1.3809,-1.8500,-0.1308,-1.1133,-1.1155,-0.9718,
4.136536,0.4288,0.6269,-0.2904,-1.3809,-1.8500,-0.1308,-1.5120,-1.4216,-2.3756,
4.139702,0.4288,0.6269,-0.2904,-1.2036,-1.6868,-0.4886,-1.5120,-1.4216,-2.3756,
4.160143,0.4288,0.6269,-0.2904,-0.5747,-1.1785,-1.0033,-1.5120,-1.4216,-2.3756,
4.180598,0.4288,0.6269,-0.2904,-0.4769,-0.7763,-1.4058,-1.5120,-1.4216,-2.3756,
4.200056,0.3146,0.8863,-0.3363,-0.4769,-0.7763,-1.4058,-1.5120,-1.4216,-2.3756,
4.202949,0.3146,0.8863,-0.3363,-0.4769,-0.7763,-1.4058,-1.8335,-1.8549,-3.1890,
4.204071,0.3146,0.8863,-0.3363,-0.5084,-0.2903,-1.3716,-1.8335,-1.8549,-3.1890,
4.221210,0.3146,0.8863,-0.3363,-1.2646,0.3033,-1.4445,-1.8335,-1.8549,-3.1890,
4.240052,0.3146,0.8863,-0.3363,0.4774,1.0715,-2.2396,-1.8335,-1.8549,-3.1890,
4.261189,0.3146,0.8863,-0.3363,0.9637,1.3496,-2.1752,-1.8335,-1.8549,-3.1890,
4.266365,0.1964,1.1199,-0.3607,0.9637,1.3496,-2.1752,-1.8335,-1.8549,-3.1890,
4.268270,0.1964,1.1199,-0.3607,0.9637,1.3496,-2.1752,-1.5684,-3.6078,-2.7977,
4.280185,0.1964,1.1199,-0.3607,0.6959,0.9942,-2.9252,-1.5684,-3.6078,-2.7977,
4.300090,0.1964,1.1199,-0.3607,0.8261,1.1492,-3.9629,-1.5684,-3.6078,-2.7977,
4.320089,0.1964,1.1199,-0.3607,1.7294,1.0107,-4.5451,-1.5684,-3.6078,-2.7977,
4.331718,0.2028,1.0873,-0.5315,1.7294,1.0107,-4.5451,-1.5684,-3.6078,-2.7977,
4.334692,0.2028,1.0873,-0.5315,1.7294,1.0107,-4.5451,-1.4801,-5.0925,-2.0232,
4.339947,0.2028,1.0873,-0.5315,2.5353,1.1683,-4.9141,-1.4801,-5.0925,-2.0232,
4.359979,0.2028,1.0873,-0.5315,2.5512,1.4890,-5.0386,-1.4801,-5.0925,-2.0232,
4.380055,0.2028,1.0873,-0.5315,2.5370,1.4172,-5.5526,-1.4801,-5.0925,-2.0232,
4.398780,0.1462,1.0273,-0.4866,2.5370,1.4172,-5.5526,-1.4801,-5.0925,-2.0232,
4.401626,0.1462,1.0273,-0.4866,2.5370,1.4172,-5.5526,-0.5544,-4.7678,-1.1997,
4.402977,0.1462,1.0273,-0.4866,2.9516,0.4070,-5.5435,-0.5544,-4.7678,-1.1997,
4.420853,0.1462,1.0273,-0.4866,4.0840,-0.7757,-5.7796,-0.5544,-4.7678,-1.1997,
4.440030,0.1462,1.0273,-0.4866,3.3633,0.5530,-6.1309,-0.5544,-4.7678,-1.1997,
4.460314,0.1462,1.0273,-0.4866,0.6441,-0.0158,-5.3009,-0.5544,-4.7678,-1.1997,
4.463332,-0.1316,0.9500,-0.3639,0.6441,-0.0158,-5.3009,-0.5544,-4.7678,-1.1997,
4.464696,-0.1316,0.9500,-0.3639,0.6441,-0.0158,-5.3009,0.3836,-3.4268,0.2951,
4.480613,-0.1316,0.9500,-0.3639,1.0364,-0.7864,-3.8073,0.3836,-3.4268,0.2951,
4.500826,-0.1316,0.9500,-0.3639,2.4944,-0.2887,-3.6566,0.3836,-3.4268,0.2951,
4.520232,-0.1316,0.9500,-0.3639,2.7967,-1.4523,-5.5845,0.3836,-3.4268,0.2951,
4.531006,0.1345,0.9211,-0.4509,2.7967,-1.4523,-5.5845,0.3836,-3.4268,0.2951,
4.533609,0.1345,0.9211,-0.4509,2.7967,-1.4523,-5.5845,0.7860,-3.3502,0.9174,
4.539870,0.1345,0.9211,-0.4509,2.2707,-0.1851,-5.8975,0.7860,-3.3502,0.9174,
4.560150,0.1345,0.9211,-0.4509,2.1517,0.8096,-5.0507,0.7860,-3.3502,0.9174,
4.583474,0.1345,0.9211,-0.4509,1.2733,1.9686,-1.7841,0.7860,-3.3502,0.9174,
4.595616,0.1194,1.2016,0.0482,1.2733,1.9686,-1.7841,0.7860,-3.3502,0.9174,
4.600184,0.1194,1.2016,0.0482,1.2733,1.9686,-1.7841,0.7791,-3.1644,0.7481,
4.601859,0.1194,1.2016,0.0482,1.4022,1.9600,-0.6233,0.7791,-3.1644,0.7481,
4.620235,0.1194,1.2016,0.0482,4.3736,1.0432,-0.2835,0.7791,-3.1644,0.7481,
4.639857,0.1194,1.2016,0.0482,8.5202,1.2896,-0.1780,0.7791,-3.1644,0.7481,
4.660755,0.1194,1.2016,0.0482,5.9212,0.7968,1.2718,0.7791,-3.1644,0.7481,
4.663824,0.4438,1.0683,0.1151,5.9212,0.7968,1.2718,0.7791,-3.1644,0.7481,
4.664920,0.4438,1.0683,0.1151,5.9212,0.7968,1.2718,0.6077,0.2781,-0.2575,
4.681477,0.4438,1.0683,0.1151,-1.1874,-0.0703,-1.1269,0.6077,0.2781,-0.2575,
4.700306,0.4438,1.0683,0.1151,0.4394,0.3778,-0.9907,0.6077,0.2781,-0.2575,
4.720244,0.4438,1.0683,0.1151,0.1664,-0.0340,-0.6335,0.6077,0.2781,-0.2575,
4.729695,-0.0215,1.0117,-0.1277,0.1664,-0.0340,-0.6335,0.6077,0.2781,-0.2575,
4.732941,-0.0215,1.0117,-0.1277,0.1664,-0.0340,-0.6335,0.6812,-0.0199,-0.2697,
4.740238,-0.0215,1.0117,-0.1277,-1.0566,-0.1110,-1.4014,0.6812,-0.0199,-0.2697,
4.761033,-0.0215,1.0117,-0.1277,-0.4568,-0.1561,-1.5638,0.6812,-0.0199,-0.2697,
4.780948,-0.0215,1.0117,-0.1277,-0.4180,0.0752,-1.3656,0.6812,-0.0199,-0.2697,
4.797807,0.1079,0.9954,-0.1531,-0.4180,0.0752,-1.3656,0.6812,-0.0199,-0.2697,
4.800769,0.1079,0.9954,-0.1531,-0.4180,0.0752,-1.3656,0.4906,-0.2185,-0.0791,
4.802425,0.1079,0.9954,-0.1531,0.7676,-0.0458,-0.8151,0.4906,-0.2185,-0.0791,
4.820668,0.1079,0.9954,-0.1531,-0.3490,-0.0682,-0.1831,0.4906,-0.2185,-0.0791,
4.840190,0.1079,0.9954,-0.1531,0.2586,-0.0994,-0.4250,0.4906,-0.2185,-0.0791,
4.859891,-0.0601,0.9828,-0.2175,0.2586,-0.0994,-0.4250,0.4906,-0.2185,-0.0791,
4.864180,-0.0601,0.9828,-0.2175,0.2586,-0.0994,-0.4250,0.4187,-0.1818,-0.0435,
4.865867,-0.0601,0.9828,-0.2175,-0.7975,-0.1198,-1.1084,0.4187,-0.1818,-0.0435,
4.880307,-0.0601,0.9828,-0.2175,0.4016,-0.0518,-0.6548,0.4187,-0.1818,-0.0435,
4.900672,-0.0601,0.9828,-0.2175,-0.8102,-0.1901,0.1995,0.4187,-0.1818,-0.0435,
4.920323,-0.0601,0.9828,-0.2175,-1.4728,-0.0826,-0.4951,0.4187,-0.1818,-0.0435,
4.925517,-0.0880,0.9845,-0.2375,-1.4728,-0.0826,-0.4951,0.4187,-0.1818,-0.0435,
4.926915,-0.0880,0.9845,-0.2375,-1.4728,-0.0826,-0.4951,0.3543,-0.3702,0.2408,
4.940116,-0.0880,0.9845,-0.2375,0.1947,-0.0623,-1.6609,0.3543,-0.3702,0.2408,
4.960736,-0.0880,0.9845,-0.2375,-0.1549,0.0650,-1.9560,0.3543,-0.3702,0.2408,
4.980887,-0.0880,0.9845,-0.2375,0.4957,-0.0356,-0.5350,0.3543,-0.3702,0.2408,
4.991706,0.0712,0.9881,-0.1464,0.4957,-0.0356,-0.5350,0.3543,-0.3702,0.2408,
4.994130,0.0712,0.9881,-0.1464,0.4957,-0.0356,-0.5350,0.0961,-0.0955,0.1226,
5.000048,0.0712,0.9881,-0.1464,0.2033,-0.0697,0.3103,0.0961,-0.0955,0.1226,
5.020302,0.0712,0.9881,-0.1464,-0.0818,0.0719,-0.9481,0.0961,-0.0955,0.1226,
5.039911,0.0712,0.9881,-0.1464,-0.0981,-0.0230,-1.4516,0.0961,-0.0955,0.1226,
5.058517,-0.0216,0.9879,-0.2517,-0.0981,-0.0230,-1.4516,0.0961,-0.0955,0.1226,
5.062143,-0.0216,0.9879,-0.2517,-0.0981,-0.0230,-1.4516,-0.0987,0.0583,0.1641,
5.063884,-0.0216,0.9879,-0.2517,-0.4874,-0.0226,-0.9831,-0.0987,0.0583,0.1641,
5.080354,-0.0216,0.9879,-0.2517,0.2966,-0.0332,-0.1415,-0.0987,0.0583,0.1641,
5.101824,-0.0216,0.9879,-0.2517,0.5267,0.0333,-0.4666,-0.0987,0.0583,0.1641,
5.120878,-0.0216,0.9879,-0.2517,-0.3726,-0.0777,-0.4565,-0.0987,0.0583,0.1641,
5.124671,-0.0187,0.9846,-0.2029,-0.3726,-0.0777,-0.4565,-0.0987,0.0583,0.1641,
5.125769,-0.0187,0.9846,-0.2029,-0.3726,-0.0777,-0.4565,-0.2254,-0.0178,0.1870,
5.140634,-0.0187,0.9846,-0.2029,-0.4723,-0.0521,-0.7568,-0.2254,-0.0178,0.1870,
5.162124,-0.0187,0.9846,-0.2029,-0.1936,0.0027,-0.3872,-0.2254,-0.0178,0.1870,
5.180680,-0.0187,0.9846,-0.2029,-0.3118,-0.1388,0.6022,-0.2254,-0.0178,0.1870,
5.189687,0.0112,0.9932,-0.1052,-0.3118,-0.1388,0.6022,-0.2254,-0.0178,0.1870,
5.191279,0.0112,0.9932,-0.1052,-0.3118,-0.1388,0.6022,-0.2456,-0.0694,0.3488,
5.200071,0.0112,0.9932,-0.1052,-0.3790,0.0352,-0.3524,-0.2456,-0.0694,0.3488,
5.220563,0.0112,0.9932,-0.1052,-1.5771,0.0046,-1.1709,-0.2456,-0.0694,0.3488,
5.239763,0.0112,0.9932,-0.1052,-0.8099,0.0929,-0.7061,-0.2456,-0.0694,0.3488,
5.255760,0.0238,1.0400,-0.1580,-0.8099,0.0929,-0.7061,-0.2456,-0.0694,0.3488,
5.258476,0.0238,1.0400,-0.1580,-0.8099,0.0929,-0.7061,-0.4420,-0.1434,0.7295,
5.260518,0.0238,1.0400,-0.1580,-0.2927,0.4582,-0.3581,-0.4420,-0.1434,0.7295,
5.280745,0.0238,1.0400,-0.1580,1.4814,0.1193,-0.9196,-0.4420,-0.1434,0.7295,
5.300400,0.0238,1.0400,-0.1580,-0.2722,0.3389,-1.1462,-0.4420,-0.1434,0.7295,
5.320472,0.0238,1.0400,-0.1580,-1.0357,0.3602,-0.7560,-0.4420,-0.1434,0.7295,
5.323710,-0.0133,1.0526,-0.1369,-1.0357,0.3602,-0.7560,-0.4420,-0.1434,0.7295,
5.324644,-0.0133,1.0526,-0.1369,-1.0357,0.3602,-0.7560,-0.7747,-0.1722,0.7555,
5.339883,-0.0133,1.0526,-0.1369,-1.9485,0.8882,-0.6109,-0.7747,-0.1722,0.7555,
5.360011,-0.0133,1.0526,-0.1369,-1.3533,1.2806,-0.4381,-0.7747,-0.1722,0.7555,
5.382049,-0.0133,1.0526,-0.1369,-1.7559,2.4142,-0.9939,-0.7747,-0.1722,0.7555,
5.387419,-0.0364,1.1412,-0.2109,-1.7559,2.4142,-0.9939,-0.7747,-0.1722,0.7555,
5.388171,-0.0364,1.1412,-0.2109,-1.7559,2.4142,-0.9939,-1.0803,-0.1770,1.0973,
5.399921,-0.0364,1.1412,-0.2109,-1.6300,1.4821,-1.5826,-1.0803,-0.1770,1.0973,
5.420832,-0.0364,1.1412,-0.2109,-1.2221,2.8277,-1.3767,-1.0803,-0.1770,1.0973,
5.439943,-0.0364,1.1412,-0.2109,-2.5840,3.1707,-1.9237,-1.0803,-0.1770,1.0973,
5.454428,-0.0663,1.2194,-0.2484,-2.5840,3.1707,-1.9237,-1.0803,-0.1770,1.0973,
5.456322,-0.0663,1.2194,-0.2484,-2.5840,3.1707,-1.9237,-1.3001,-0.5634,1.1181,
5.460383,-0.0663,1.2194,-0.2484,-3.2039,2.0199,-3.2592,-1.3001,-0.5634,1.1181,
5.480979,-0.0663,1.2194,-0.2484,-2.9218,0.2927,-3.7403,-1.3001,-0.5634,1.1181,
5.500102,-0.0663,1.2194,-0.2484,-0.9969,1.5523,-4.6899,-1.3001,-0.5634,1.1181,
5.519685,0.3208,1.2018,-0.4613,-0.9969,1.5523,-4.6899,-1.3001,-0.5634,1.1181,
5.522968,0.3208,1.2018,-0.4613,-0.9969,1.5523,-4.6899,-0.4676,-1.5680,2.0310,
5.524132,0.3208,1.2018,-0.4613,-0.4894,2.3572,-5.3194,-0.4676,-1.5680,2.0310,
5.540189,0.3208,1.2018,-0.4613,-0.0861,1.5309,-6.2700,-0.4676,-1.5680,2.0310,
5.560999,0.3208,1.2018,-0.4613,-0.0499,-4.4575,-3.8720,-0.4676,-1.5680,2.0310,
5.580068,0.3208,1.2018,-0.4613,-0.0782,-0.8569,-3.8656,-0.4676,-1.5680,2.0310,
5.585913,0.2840,0.9051,-0.3475,-0.0782,-0.8569,-3.8656,-0.4676,-1.5680,2.0310,
5.587653,0.2840,0.9051,-0.3475,-0.0782,-0.8569,-3.8656,-0.7343,-3.4274,1.4838,
5.600107,0.2840,0.9051,-0.3475,-3.9807,1.0219,-4.3109,-0.7343,-3.4274,1.4838,
5.620928,0.2840,0.9051,-0.3475,-7.0727,0.4169,-3.9266,-0.7343,-3.4274,1.4838,
5.640401,0.2840,0.9051,-0.3475,-7.3272,-1.3691,-4.2674,-0.7343,-3.4274,1.4838,
5.652019,0.1957,0.7699,-0.4492,-7.3272,-1.3691,-4.2674,-0.7343,-3.4274,1.4838,
5.655901,0.1957,0.7699,-0.4492,-7.3272,-1.3691,-4.2674,-0.2898,-4.2956,1.3150,
5.660757,0.1957,0.7699,-0.4492,-2.3477,-0.3165,-3.7440,-0.2898,-4.2956,1.3150,
5.680243,0.1957,0.7699,-0.4492,-1.5395,0.3305,-2.7634,-0.2898,-4.2956,1.3150,
5.700630,0.1957,0.7699,-0.4492,-2.3356,-0.3084,-2.1828,-0.2898,-4.2956,1.3150,
5.718645,0.4119,0.7887,-0.3483,-2.3356,-0.3084,-2.1828,-0.2898,-4.2956,1.3150,
5.722119,0.4119,0.7887,-0.3483,-2.3356,-0.3084,-2.1828,-0.3036,-2.9408,-0.3315,
5.723692,0.4119,0.7887,-0.3483,-1.4099,-0.2530,-1.7058,-0.3036,-2.9408,-0.3315,
5.740168,0.4119,0.7887,-0.3483,-0.4534,-0.3187,-1.1752,-0.3036,-2.9408,-0.3315,
5.760797,0.4119,0.7887,-0.3483,-0.6900,-0.4460,-0.9554,-0.3036,-2.9408,-0.3315,
5.781414,0.4119,0.7887,-0.3483,-1.5523,-0.6928,-0.7056,-0.3036,-2.9408,-0.3315,
5.784391,0.2973,0.7907,-0.3038,-1.5523,-0.6928,-0.7056,-0.3036,-2.9408,-0.3315,
5.785866,0.2973,0.7907,-0.3038,-1.5523,-0.6928,-0.7056,-0.5613,-1.5530,-2.0775,
5.800215,0.2973,0.7907,-0.3038,-1.5759,-0.3305,-0.7492,-0.5613,-1.5530,-2.0775,
5.820456,0.2973,0.7907,-0.3038,-0.2938,0.0941,-0.7692,-0.5613,-1.5530,-2.0775,
5.840231,0.2973,0.7907,-0.3038,0.9002,0.2007,-0.7038,-0.5613,-1.5530,-2.0775,
5.850211,0.4083,0.9554,-0.2899,0.9002,0.2007,-0.7038,-0.5613,-1.5530,-2.0775,
5.853137,0.4083,0.9554,-0.2899,0.9002,0.2007,-0.7038,-0.7082,-1.6680,-2.9191,
5.860326,0.4083,0.9554,-0.2899,1.0700,0.2965,-0.5843,-0.7082,-1.6680,-2.9191,
5.880219,0.4083,0.9554,-0.2899,0.7961,0.2583,-0.8386,-0.7082,-1.6680,-2.9191,
5.901445,0.4083,0.9554,-0.2899,0.8954,0.3237,-0.8594,-0.7082,-1.6680,-2.9191,
5.918123,0.3341,1.0940,-0.3117,0.8954,0.3237,-0.8594,-0.7082,-1.6680,-2.9191,
5.920958,0.3341,1.0940,-0.3117,0.8954,0.3237,-0.8594,-0.7311,-1.2251,-3.2651,
5.922664,0.3341,1.0940,-0.3117,2.7118,1.2164,-0.9878,-0.7311,-1.2251,-3.2651,
5.940652,0.3341,1.0940,-0.3117,4.2662,1.4183,-1.1066,-0.7311,-1.2251,-3.2651,
5.960143,0.3341,1.0940,-0.3117,4.2597,0.4068,-1.1789,-0.7311,-1.2251,-3.2651,
5.980332,0.3341,1.0940,-0.3117,4.1588,-0.0810,-0.7864,-0.7311,-1.2251,-3.2651,
5.984177,0.2720,0.9703,-0.2432,4.1588,-0.0810,-0.7864,-0.7311,-1.2251,-3.2651,
5.985386,0.2720,0.9703,-0.2432,4.1588,-0.0810,-0.7864,-0.3845,-0.2371,-3.1741,
6.000383,0.2720,0.9703,-0.2432,4.0654,0.3372,-0.4218,-0.3845,-0.2371,-3.1741,
6.020903,0.2720,0.9703,-0.2432,3.8851,0.6025,-0.1967,-0.3845,-0.2371,-3.1741,
6.040523,0.2720,0.9703,-0.2432,3.8535,0.7245,-0.1716,-0.3845,-0.2371,-3.1741,
6.047414,0.0543,1.0155,-0.1664,3.8535,0.7245,-0.1716,-0.3845,-0.2371,-3.1741,
6.049893,0.0543,1.0155,-0.1664,3.8535,0.7245,-0.1716,-0.0721,-0.1488,-2.1541,
6.060469,0.0543,1.0155,-0.1664,3.7889,0.9874,0.0544,-0.0721,-0.1488,-2.1541,
6.080033,0.0543,1.0155,-0.1664,4.1698,0.9146,0.2022,-0.0721,-0.1488,-2.1541,
6.100991,0.0543,1.0155,-0.1664,4.8451,0.4280,0.2928,-0.0721,-0.1488,-2.1541,
6.113605,0.1261,0.9316,-0.1306,4.8451,0.4280,0.2928,-0.0721,-0.1488,-2.1541,
6.115432,0.1261,0.9316,-0.1306,4.8451,0.4280,0.2928,0.0802,-1.1171,-0.0685,
6.120402,0.1261,0.9316,-0.1306,5.4781,0.3640,0.0162,0.0802,-1.1171,-0.0685,
6.140246,0.1261,0.9316,-0.1306,-0.8307,8.6772,-0.4493,0.0802,-1.1171,-0.0685,
6.160249,0.1261,0.9316,-0.1306,1.9872,2.3062,-2.3631,0.0802,-1.1171,-0.0685,
6.180541,0.3744,0.5898,-0.3363,1.9872,2.3062,-2.3631,0.0802,-1.1171,-0.0685,
6.184076,0.3744,0.5898,-0.3363,1.9872,2.3062,-2.3631,0.6114,-0.9457,0.5857,
6.186746,0.3744,0.5898,-0.3363,7.9700,-3.4521,-1.9694,0.6114,-0.9457,0.5857,
6.199949,0.3744,0.5898,-0.3363,-1.7273,2.5227,-2.3026,0.6114,-0.9457,0.5857,
6.220371,0.3744,0.5898,-0.3363,-2.9425,0.6176,0.1851,0.6114,-0.9457,0.5857,
6.240758,0.3744,0.5898,-0.3363,1.9353,-1.1707,3.1794,0.6114,-0.9457,0.5857,
6.245651,-0.0937,0.9283,0.2432,1.9353,-1.1707,3.1794,0.6114,-0.9457,0.5857,
6.247240,-0.0937,0.9283,0.2432,1.9353,-1.1707,3.1794,0.2111,-0.6071,0.9935,
6.261022,-0.0937,0.9283,0.2432,3.4635,0.9388,4.2452,0.2111,-0.6071,0.9935,
6.280152,-0.0937,0.9283,0.2432,0.3929,1.1649,4.0788,0.2111,-0.6071,0.9935,
6.300011,-0.0937,0.9283,0.2432,1.6383,0.3833,1.3909,0.2111,-0.6071,0.9935,
6.311509,0.0288,1.0842,-0.6198,1.6383,0.3833,1.3909,0.2111,-0.6071,0.9935,
6.313238,0.0288,1.0842,-0.6198,1.6383,0.3833,1.3909,0.6242,0.8216,1.4582,
6.322540,0.0288,1.0842,-0.6198,3.8808,0.1489,-6.2890,0.6242,0.8216,1.4582,
6.340781,0.0288,1.0842,-0.6198,-0.9643,-0.1949,-4.0450,0.6242,0.8216,1.4582,
6.360823,0.0288,1.0842,-0.6198,1.8512,-0.8300,-1.0946,0.6242,0.8216,1.4582,
6.378279,0.2507,1.1119,0.0081,1.8512,-0.8300,-1.0946,0.6242,0.8216,1.4582,
6.380752,0.2507,1.1119,0.0081,1.8512,-0.8300,-1.0946,0.3756,0.3287,1.3278,
6.381941,0.2507,1.1119,0.0081,4.6082,1.5011,1.9276,0.3756,0.3287,1.3278,
6.399943,0.2507,1.1119,0.0081,2.2294,0.5819,-0.1039,0.3756,0.3287,1.3278,
6.422343,0.2507,1.1119,0.0081,0.0790,-0.2324,-1.9206,0.3756,0.3287,1.3278,
6.440360,0.2507,1.1119,0.0081,0.1967,-0.2994,-1.8500,0.3756,0.3287,1.3278,
6.443316,-0.1385,0.9349,-0.3446,0.1967,-0.2994,-1.8500,0.3756,0.3287,1.3278,
6.444429,-0.1385,0.9349,-0.3446,0.1967,-0.2994,-1.8500,0.1259,0.3532,0.9190,
6.460037,-0.1385,0.9349,-0.3446,0.4251,-0.1334,-0.3510,0.1259,0.3532,0.9190,
6.480336,-0.1385,0.9349,-0.3446,0.2569,-0.1113,0.7298,0.1259,0.3532,0.9190,
6.501107,-0.1385,0.9349,-0.3446,-0.0277,-0.0629,0.1938,0.1259,0.3532,0.9190,
6.509549,0.0416,0.9787,-0.3089,-0.0277,-0.0629,0.1938,0.1259,0.3532,0.9190,
6.510738,0.0416,0.9787,-0.3089,-0.0277,-0.0629,0.1938,0.2590,0.0748,0.9424,
6.519957,0.0416,0.9787,-0.3089,1.4799,0.1776,-0.3521,0.2590,0.0748,0.9424,
6.541682,0.0416,0.9787,-0.3089,-1.2979,-0.2037,-0.7270,0.2590,0.0748,0.9424,
6.560180,0.0416,0.9787,-0.3089,0.8509,-0.4878,-0.6048,0.2590,0.0748,0.9424,
6.575958,0.0914,1.0141,-0.2156,0.8509,-0.4878,-0.6048,0.2590,0.0748,0.9424,
6.578709,0.0914,1.0141,-0.2156,0.8509,-0.4878,-0.6048,0.1760,0.2302,0.7183,
6.581076,0.0914,1.0141,-0.2156,1.1270,0.4761,0.1384,0.1760,0.2302,0.7183,
6.600310,0.0914,1.0141,-0.2156,0.2721,-0.0375,-0.1414,0.1760,0.2302,0.7183,
6.620237,0.0914,1.0141,-0.2156,0.9339,-0.2541,-1.0176,0.1760,0.2302,0.7183,
6.640192,0.0914,1.0141,-0.2156,-0.4147,0.4429,-0.3945,0.1760,0.2302,0.7183,
6.643347,-0.0760,1.0034,-0.3087,-0.4147,0.4429,-0.3945,0.1760,0.2302,0.7183,
6.644383,-0.0760,1.0034,-0.3087,-0.4147,0.4429,-0.3945,0.1238,0.4229,0.4670,
6.660642,-0.0760,1.0034,-0.3087,-0.5704,-0.2734,-0.0554,0.1238,0.4229,0.4670,
6.680133,-0.0760,1.0034,-0.3087,-0.0093,-0.0952,-0.1770,0.1238,0.4229,0.4670,
6.700444,-0.0760,1.0034,-0.3087,0.5857,-0.4147,-0.2089,0.1238,0.4229,0.4670,
6.708309,0.2413,0.9425,-0.2392,0.5857,-0.4147,-0.2089,0.1238,0.4229,0.4670,
6.710192,0.2413,0.9425,-0.2392,0.5857,-0.4147,-0.2089,0.2186,-0.1099,0.5479,
6.720460,0.2413,0.9425,-0.2392,-0.3572,0.4270,-0.2714,0.2186,-0.1099,0.5479,
6.740520,0.2413,0.9425,-0.2392,-1.7497,-0.2030,-0.5018,0.2186,-0.1099,0.5479,
6.760632,0.2413,0.9425,-0.2392,-1.1404,-0.1528,-0.7850,0.2186,-0.1099,0.5479,
6.773943,0.0365,0.9692,-0.3496,-1.1404,-0.1528,-0.7850,0.2186,-0.1099,0.5479,
6.777239,0.0365,0.9692,-0.3496,-1.1404,-0.1528,-0.7850,0.1270,0.2829,0.8721,
6.779916,0.0365,0.9692,-0.3496,-0.5924,0.0875,-0.6920,0.1270,0.2829,0.8721,
6.800131,0.0365,0.9692,-0.3496,-0.1674,0.3798,-0.2735,0.1270,0.2829,0.8721,
6.820868,0.0365,0.9692,-0.3496,-0.7288,0.4291,0.2593,0.1270,0.2829,0.8721,
6.839895,-0.1012,1.0245,-0.2658,-0.7288,0.4291,0.2593,0.1270,0.2829,0.8721,
6.843303,-0.1012,1.0245,-0.2658,-0.7288,0.4291,0.2593,0.1600,0.5608,1.0057,
6.844529,-0.1012,1.0245,-0.2658,-2.4687,0.7192,0.2819,0.1600,0.5608,1.0057,
6.860221,-0.1012,1.0245,-0.2658,-1.1041,0.1252,0.0970,0.1600,0.5608,1.0057,
6.880177,-0.1012,1.0245,-0.2658,-0.5293,1.8106,0.6584,0.1600,0.5608,1.0057,
6.900953,-0.1012,1.0245,-0.2658,-1.9239,2.0348,-0.0234,0.1600,0.5608,1.0057,
6.906380,-0.0253,1.1871,-0.2675,-1.9239,2.0348,-0.0234,0.1600,0.5608,1.0057,
6.908128,-0.0253,1.1871,-0.2675,-1.9239,2.0348,-0.0234,0.1478,0.4831,1.3746,
6.921547,-0.0253,1.1871,-0.2675,-3.4395,1.3938,-0.5127,0.1478,0.4831,1.3746,
6.940216,-0.0253,1.1871,-0.2675,-2.5889,2.6324,-0.5832,0.1478,0.4831,1.3746,
6.960451,-0.0253,1.1871,-0.2675,-3.0145,3.3696,-0.8895,0.1478,0.4831,1.3746,
6.972237,-0.0428,1.2835,-0.3744,-3.0145,3.3696,-0.8895,0.1478,0.4831,1.3746,
6.975736,-0.0428,1.2835,-0.3744,-3.0145,3.3696,-0.8895,0.0243,0.3505,2.2269,
6.980287,-0.0428,1.2835,-0.3744,-4.5157,3.8332,-0.7957,0.0243,0.3505,2.2269,
7.000224,-0.0428,1.2835,-0.3744,-5.4966,3.3746,-0.3933,0.0243,0.3505,2.2269,
7.020886,-0.0428,1.2835,-0.3744,-4.9690,4.8590,0.3028,0.0243,0.3505,2.2269,
7.038499,-0.0269,1.5471,-0.2489,-4.9690,4.8590,0.3028,0.0243,0.3505,2.2269,
7.041044,-0.0269,1.5471,-0.2489,-4.9690,4.8590,0.3028,0.4416,0.9712,2.7337,
7.042672,-0.0269,1.5471,-0.2489,-5.3298,7.1845,0.2036,0.4416,0.9712,2.7337,
7.060945,-0.0269,1.5471,-0.2489,-3.5793,5.7955,-0.7677,0.4416,0.9712,2.7337,
7.080239,-0.0269,1.5471,-0.2489,-4.3640,2.5410,-2.8884,0.4416,0.9712,2.7337,
7.100212,-0.0269,1.5471,-0.2489,-2.7414,3.1980,-2.6431,0.4416,0.9712,2.7337,
7.104040,0.5224,1.0346,-0.4903,-2.7414,3.1980,-2.6431,0.4416,0.9712,2.7337,
7.105696,0.5224,1.0346,-0.4903,-2.7414,3.1980,-2.6431,0.5790,0.2036,3.3166,
7.121001,0.5224,1.0346,-0.4903,0.9933,2.2899,-1.6229,0.5790,0.2036,3.3166,
7.140683,0.5224,1.0346,-0.4903,1.4838,1.8765,-0.0673,0.5790,0.2036,3.3166,
7.160206,0.5224,1.0346,-0.4903,-1.6348,-4.5518,-0.2820,0.5790,0.2036,3.3166,
7.171800,0.7525,-0.1908,-0.3846,-1.6348,-4.5518,-0.2820,0.5790,0.2036,3.3166,
7.174785,0.7525,-0.1908,-0.3846,-1.6348,-4.5518,-0.2820,0.2569,0.7732,0.3361,
7.180553,0.7525,-0.1908,-0.3846,0.4507,-6.3827,-0.3497,0.2569,0.7732,0.3361,
7.202313,0.7525,-0.1908,-0.3846,-2.0268,-2.9563,1.0500,0.2569,0.7732,0.3361,
7.221945,0.7525,-0.1908,-0.3846,-5.1492,-0.0721,1.5718,0.2569,0.7732,0.3361,
7.235710,0.1436,0.6292,-0.0945,-5.1492,-0.0721,1.5718,0.2569,0.7732,0.3361,
7.237839,0.1436,0.6292,-0.0945,-5.1492,-0.0721,1.5718,-0.1578,-0.3627,-1.1928,
7.242309,0.1436,0.6292,-0.0945,-6.0461,0.0798,1.3983,-0.1578,-0.3627,-1.1928,
7.260682,0.1436,0.6292,-0.0945,-5.9000,-1.0438,1.2751,-0.1578,-0.3627,-1.1928,
7.281419,0.1436,0.6292,-0.0945,-2.8552,-1.6568,1.7881,-0.1578,-0.3627,-1.1928,
7.300700,0.1436,0.6292,-0.0945,-0.0950,-1.9158,2.4298,-0.1578,-0.3627,-1.1928,
7.303840,0.6847,0.5015,-0.0247,-0.0950,-1.9158,2.4298,-0.1578,-0.3627,-1.1928,
7.304964,0.6847,0.5015,-0.0247,-0.0950,-1.9158,2.4298,-0.3382,-0.8365,-2.8669,
7.321933,0.6847,0.5015,-0.0247,0.1713,-1.7638,1.9657,-0.3382,-0.8365,-2.8669,
7.340517,0.6847,0.5015,-0.0247,-0.6264,-1.6458,1.2598,-0.3382,-0.8365,-2.8669,
7.360200,0.6847,0.5015,-0.0247,-0.4073,-1.2731,0.6280,-0.3382,-0.8365,-2.8669,
7.368171,0.4992,0.7231,-0.2219,-0.4073,-1.2731,0.6280,-0.3382,-0.8365,-2.8669,
7.369533,0.4992,0.7231,-0.2219,-0.4073,-1.2731,0.6280,-0.5331,0.2403,-4.3367,
7.380287,0.4992,0.7231,-0.2219,0.0310,-0.5741,0.5945,-0.5331,0.2403,-4.3367,
7.399899,0.4992,0.7231,-0.2219,-1.1289,0.0376,0.6875,-0.5331,0.2403,-4.3367,
7.421451,0.4992,0.7231,-0.2219,0.2510,0.8155,0.0590,-0.5331,0.2403,-4.3367,
7.433458,0.3445,1.1849,-0.2395,0.2510,0.8155,0.0590,-0.5331,0.2403,-4.3367,
7.434990,0.3445,1.1849,-0.2395,0.2510,0.8155,0.0590,-0.6464,-0.1307,-4.3926,
7.440773,0.3445,1.1849,-0.2395,1.4838,2.5665,-0.0034,-0.6464,-0.1307,-4.3926,
7.462415,0.3445,1.1849,-0.2395,3.3774,3.0388,0.1333,-0.6464,-0.1307,-4.3926,
7.479873,0.3445,1.1849,-0.2395,4.9304,3.6178,-0.3046,-0.6464,-0.1307,-4.3926,
7.499521,0.3591,1.2748,-0.2412,4.9304,3.6178,-0.3046,-0.6464,-0.1307,-4.3926,
7.502008,0.3591,1.2748,-0.2412,4.9304,3.6178,-0.3046,-0.5394,-0.6923,-4.1898,
7.503631,0.3591,1.2748,-0.2412,3.9972,2.9591,-0.5273,-0.5394,-0.6923,-4.1898,
7.520221,0.3591,1.2748,-0.2412,6.2213,1.5411,-0.8013,-0.5394,-0.6923,-4.1898,
7.539806,0.3591,1.2748,-0.2412,3.7942,2.8609,-0.9220,-0.5394,-0.6923,-4.1898,
7.560127,0.3591,1.2748,-0.2412,4.4028,-0.2920,-0.9298,-0.5394,-0.6923,-4.1898,
7.565018,0.1903,0.8033,-0.2376,4.4028,-0.2920,-0.9298,-0.5394,-0.6923,-4.1898,
7.566289,0.1903,0.8033,-0.2376,4.4028,-0.2920,-0.9298,-0.4452,-1.1261,-2.1909,
7.579968,0.1903,0.8033,-0.2376,5.3413,0.2408,-0.2787,-0.4452,-1.1261,-2.1909,
7.600004,0.1903,0.8033,-0.2376,4.2995,1.5692,-0.5373,-0.4452,-1.1261,-2.1909,
7.620843,0.1903,0.8033,-0.2376,3.1122,0.4302,-0.9667,-0.4452,-1.1261,-2.1909,
7.631493,-0.0591,0.9985,-0.2329,3.1122,0.4302,-0.9667,-0.4452,-1.1261,-2.1909,
7.632645,-0.0591,0.9985,-0.2329,3.1122,0.4302,-0.9667,0.2218,-0.8882,0.5948,
7.639832,-0.0591,0.9985,-0.2329,3.6319,1.0887,-1.6008,0.2218,-0.8882,0.5948,
7.660309,-0.0591,0.9985,-0.2329,6.9018,2.8724,-2.9779,0.2218,-0.8882,0.5948,
7.680134,-0.0591,0.9985,-0.2329,2.0333,2.0352,-0.5048,0.2218,-0.8882,0.5948,
7.698761,-0.5622,0.8660,-0.1840,2.0333,2.0352,-0.5048,0.2218,-0.8882,0.5948,
7.701758,-0.5622,0.8660,-0.1840,2.0333,2.0352,-0.5048,0.0541,0.7572,-0.2910,
7.703183,-0.5622,0.8660,-0.1840,-1.8336,-0.5515,-0.7465,0.0541,0.7572,-0.2910,
7.720217,-0.5622,0.8660,-0.1840,1.1182,-0.3264,1.6471,0.0541,0.7572,-0.2910,
7.740542,-0.5622,0.8660,-0.1840,3.3396,1.5905,2.8680,0.0541,0.7572,-0.2910,
7.761361,-0.5622,0.8660,-0.1840,2.8598,1.6279,1.4843,0.0541,0.7572,-0.2910,
7.764282,-0.1033,1.0613,-0.0404,2.8598,1.6279,1.4843,0.0541,0.7572,-0.2910,
7.765032,-0.1033,1.0613,-0.0404,2.8598,1.6279,1.4843,0.3623,0.3819,0.7209,
7.780521,-0.1033,1.0613,-0.0404,1.9142,0.9885,-1.1967,0.3623,0.3819,0.7209,
7.800167,-0.1033,1.0613,-0.0404,0.3320,0.2531,-3.5920,0.3623,0.3819,0.7209,
7.820269,-0.1033,1.0613,-0.0404,-1.3676,-0.9015,-2.0107,0.3623,0.3819,0.7209,
7.829912,-0.2246,0.9216,-0.1899,-1.3676,-0.9015,-2.0107,0.3623,0.3819,0.7209,
7.831535,-0.2246,0.9216,-0.1899,-1.3676,-0.9015,-2.0107,0.3229,0.3143,1.0297,
7.840635,-0.2246,0.9216,-0.1899,1.3609,0.2206,0.6461,0.3229,0.3143,1.0297,
7.860645,-0.2246,0.9216,-0.1899,1.2053,0.1598,0.2178,0.3229,0.3143,1.0297,
7.880122,-0.2246,0.9216,-0.1899,0.7840,0.2727,0.3630,0.3229,0.3143,1.0297,
7.895671,-0.1150,0.9939,-0.2423,0.7840,0.2727,0.3630,0.3229,0.3143,1.0297,
7.898158,-0.1150,0.9939,-0.2423,0.7840,0.2727,0.3630,0.4427,0.3532,0.9493,
7.899894,-0.1150,0.9939,-0.2423,1.0033,0.3491,-0.6569,0.4427,0.3532,0.9493,
7.920161,-0.1150,0.9939,-0.2423,0.1145,0.0331,-1.1383,0.4427,0.3532,0.9493,
7.941976,-0.1150,0.9939,-0.2423,0.6496,-0.4264,-0.4897,0.4427,0.3532,0.9493,
7.960366,-0.1150,0.9939,-0.2423,1.1022,0.5182,-0.1316,0.4427,0.3532,0.9493,
7.963180,-0.0643,1.0148,-0.2412,1.1022,0.5182,-0.1316,0.4427,0.3532,0.9493,
7.964544,-0.0643,1.0148,-0.2412,1.1022,0.5182,-0.1316,0.3000,0.3910,0.7561,
7.980322,-0.0643,1.0148,-0.2412,0.2301,-0.0117,-0.2384,0.3000,0.3910,0.7561,
8.000249,-0.0643,1.0148,-0.2412,-0.1092,-0.0962,-0.4280,0.3000,0.3910,0.7561,
8.020631,-0.0643,1.0148,-0.2412,-0.1635,-0.0719,-0.3215,0.3000,0.3910,0.7561,
8.027624,-0.0608,0.9571,-0.2742,-0.1635,-0.0719,-0.3215,0.3000,0.3910,0.7561,
8.029161,-0.0608,0.9571,-0.2742,-0.1635,-0.0719,-0.3215,0.2415,0.2531,0.7108,
8.040230,-0.0608,0.9571,-0.2742,0.5851,-0.1247,-0.3385,0.2415,0.2531,0.7108,
8.060429,-0.0608,0.9571,-0.2742,0.3315,0.0420,-0.4123,0.2415,0.2531,0.7108,
8.080412,-0.0608,0.9571,-0.2742,-0.2152,-0.2603,-0.7675,0.2415,0.2531,0.7108,
8.093718,0.0037,0.9685,-0.3070,-0.2152,-0.2603,-0.7675,0.2415,0.2531,0.7108,
8.096898,0.0037,0.9685,-0.3070,-0.2152,-0.2603,-0.7675,0.1856,0.1275,0.6406,
8.100249,0.0037,0.9685,-0.3070,0.8296,0.1545,-0.4770,0.1856,0.1275,0.6406,
8.120144,0.0037,0.9685,-0.3070,0.6542,0.0986,-0.3644,0.1856,0.1275,0.6406,
8.141598,0.0037,0.9685,-0.3070,-0.0974,-0.2793,-0.2650,0.1856,0.1275,0.6406,
8.160119,-0.0158,0.9638,-0.2766,-0.0974,-0.2793,-0.2650,0.1856,0.1275,0.6406,
8.163065,-0.0158,0.9638,-0.2766,-0.0974,-0.2793,-0.2650,0.1281,0.1706,0.5085,
8.164579,-0.0158,0.9638,-0.2766,0.0920,0.0103,-0.1084,0.1281,0.1706,0.5085,
8.180883,-0.0158,0.9638,-0.2766,-0.7701,-0.1608,-0.2699,0.1281,0.1706,0.5085,
8.200174,-0.0158,0.9638,-0.2766,0.1257,0.1105,-0.2941,0.1281,0.1706,0.5085,
8.220249,-0.0158,0.9638,-0.2766,-1.0841,-0.0385,-0.3394,0.1281,0.1706,0.5085,
8.225717,-0.0920,0.9394,-0.2950,-1.0841,-0.0385,-0.3394,0.1281,0.1706,0.5085,
8.227528,-0.0920,0.9394,-0.2950,-1.0841,-0.0385,-0.3394,0.1063,0.1813,0.7172,
8.241601,-0.0920,0.9394,-0.2950,-1.1305,-0.3247,0.1488,0.1063,0.1813,0.7172,
8.260700,-0.0920,0.9394,-0.2950,0.3268,0.0599,-0.2524,0.1063,0.1813,0.7172,
8.280197,-0.0920,0.9394,-0.2950,0.0679,0.0053,-0.7645,0.1063,0.1813,0.7172,
8.292993,0.2029,0.9097,-0.3713,0.0679,0.0053,-0.7645,0.1063,0.1813,0.7172,
8.296264,0.2029,0.9097,-0.3713,0.0679,0.0053,-0.7645,0.0711,-0.1727,0.8178,
8.300013,0.2029,0.9097,-0.3713,0.6370,-0.2745,-0.1853,0.0711,-0.1727,0.8178,
8.320343,0.2029,0.9097,-0.3713,-2.0570,0.4579,0.3110,0.0711,-0.1727,0.8178,
8.342234,0.2029,0.9097,-0.3713,-1.1896,0.0369,0.7797,0.0711,-0.1727,0.8178,
8.358840,0.1416,0.9062,-0.2506,-1.1896,0.0369,0.7797,0.0711,-0.1727,0.8178,
8.362636,0.1416,0.9062,-0.2506,-1.1896,0.0369,0.7797,0.1707,-0.1605,1.2974,
8.363669,0.1416,0.9062,-0.2506,0.0876,-0.4306,0.3631,0.1707,-0.1605,1.2974,
8.380304,0.1416,0.9062,-0.2506,-1.3763,0.5519,0.0230,0.1707,-0.1605,1.2974,
8.400104,0.1416,0.9062,-0.2506,-2.5785,0.8710,-0.5908,0.1707,-0.1605,1.2974,
8.420646,0.1416,0.9062,-0.2506,-1.1983,0.3240,-0.6067,0.1707,-0.1605,1.2974,
8.426630,0.1744,0.9669,-0.3588,-1.1983,0.3240,-0.6067,0.1707,-0.1605,1.2974,
8.429033,0.1744,0.9669,-0.3588,-1.1983,0.3240,-0.6067,0.0637,-0.1924,1.9911,
8.442668,0.1744,0.9669,-0.3588,0.4226,0.8088,-0.4875,0.0637,-0.1924,1.9911,
8.461598,0.1744,0.9669,-0.3588,0.2606,2.7338,-0.0918,0.0637,-0.1924,1.9911,
8.480601,0.1744,0.9669,-0.3588,-1.0818,1.1578,-0.6135,0.0637,-0.1924,1.9911,
8.489555,0.1766,1.0309,-0.3082,-1.0818,1.1578,-0.6135,0.0637,-0.1924,1.9911,
8.491435,0.1766,1.0309,-0.3082,-1.0818,1.1578,-0.6135,-0.1865,0.1951,1.6605,
8.500485,0.1766,1.0309,-0.3082,-1.5269,1.7480,-0.0162,-0.1865,0.1951,1.6605,
8.520267,0.1766,1.0309,-0.3082,-1.9833,2.6270,-0.3075,-0.1865,0.1951,1.6605,
8.540041,0.1766,1.0309,-0.3082,-2.8575,2.3648,-0.1040,-0.1865,0.1951,1.6605,
8.555872,0.1248,1.1303,-0.2568,-2.8575,2.3648,-0.1040,-0.1865,0.1951,1.6605,
8.557581,0.1248,1.1303,-0.2568,-2.8575,2.3648,-0.1040,-0.1988,0.5603,1.8505,
8.561147,0.1248,1.1303,-0.2568,-2.9786,2.7035,0.2020,-0.1988,0.5603,1.8505,
8.580626,0.1248,1.1303,-0.2568,-2.9257,3.5236,0.5701,-0.1988,0.5603,1.8505,
8.600255,0.1248,1.1303,-0.2568,-3.3023,4.5112,0.1857,-0.1988,0.5603,1.8505,
8.620451,0.1248,1.1303,-0.2568,-3.9828,3.0430,-0.2085,-0.1988,0.5603,1.8505,
8.623228,0.1488,1.0878,-0.3120,-3.9828,3.0430,-0.2085,-0.1988,0.5603,1.8505,
8.624599,0.1488,1.0878,-0.3120,-3.9828,3.0430,-0.2085,0.0605,0.6241,2.0491,
8.640834,0.1488,1.0878,-0.3120,-3.3084,1.9002,-1.5762,0.0605,0.6241,2.0491,
8.661422,0.1488,1.0878,-0.3120,-1.2271,4.6414,-2.6508,0.0605,0.6241,2.0491,
8.680295,0.1488,1.0878,-0.3120,-0.8633,2.8582,-1.8036,0.0605,0.6241,2.0491,
8.687553,0.5350,0.8987,-0.4106,-0.8633,2.8582,-1.8036,0.0605,0.6241,2.0491,
8.689127,0.5350,0.8987,-0.4106,-0.8633,2.8582,-1.8036,-0.1876,-0.3675,2.3243,
8.700180,0.5350,0.8987,-0.4106,-1.7947,0.9687,-1.7738,-0.1876,-0.3675,2.3243,
8.720280,0.5350,0.8987,-0.4106,-3.8399,1.9776,-2.7002,-0.1876,-0.3675,2.3243,
8.740530,0.5350,0.8987,-0.4106,-4.1317,-1.1282,-0.5389,-0.1876,-0.3675,2.3243,
8.753746,0.7296,-0.4219,-0.4402,-4.1317,-1.1282,-0.5389,-0.1876,-0.3675,2.3243,
8.755627,0.7296,-0.4219,-0.4402,-4.1317,-1.1282,-0.5389,-0.8386,-0.5975,0.7353,
8.760525,0.7296,-0.4219,-0.4402,0.8860,-11.3580,-1.8123,-0.8386,-0.5975,0.7353,
8.786626,0.7296,-0.4219,-0.4402,-0.4809,-4.3195,-0.2957,-0.8386,-0.5975,0.7353,
8.803383,0.7296,-0.4219,-0.4402,-1.9589,-2.2197,-0.3013,-0.8386,-0.5975,0.7353,
8.820515,0.3580,0.4474,-0.2485,-1.9589,-2.2197,-0.3013,-0.8386,-0.5975,0.7353,
8.823930,0.3580,0.4474,-0.2485,-1.9589,-2.2197,-0.3013,-1.8500,-1.0761,-0.6040,
8.825581,0.3580,0.4474,-0.2485,-3.4634,-2.0153,-0.1265,-1.8500,-1.0761,-0.6040,
8.840336,0.3580,0.4474,-0.2485,-3.9830,-1.6936,-1.2572,-1.8500,-1.0761,-0.6040,
8.861777,0.3580,0.4474,-0.2485,-3.2173,-1.6470,-1.0705,-1.8500,-1.0761,-0.6040,
8.881512,0.3580,0.4474,-0.2485,-3.0746,-0.8067,-0.2782,-1.8500,-1.0761,-0.6040,
8.885737,0.4028,0.6539,-0.2535,-3.0746,-0.8067,-0.2782,-1.8500,-1.0761,-0.6040,
8.887255,0.4028,0.6539,-0.2535,-3.0746,-0.8067,-0.2782,-2.1646,-1.8506,-1.6564,
8.900567,0.4028,0.6539,-0.2535,-1.3399,-0.8537,-1.4290,-2.1646,-1.8506,-1.6564,
8.920655,0.4028,0.6539,-0.2535,-1.1014,0.3255,-1.5101,-2.1646,-1.8506,-1.6564,
8.940243,0.4028,0.6539,-0.2535,-1.2606,0.5644,-2.2195,-2.1646,-1.8506,-1.6564,
8.951727,0.4281,0.8849,-0.4490,-1.2606,0.5644,-2.2195,-2.1646,-1.8506,-1.6564,
8.953585,0.4281,0.8849,-0.4490,-1.2606,0.5644,-2.2195,-2.3760,-3.1149,-2.3229,
8.960883,0.4281,0.8849,-0.4490,-1.0528,0.7271,-2.9454,-2.3760,-3.1149,-2.3229,
8.980573,0.4281,0.8849,-0.4490,-0.3490,1.1415,-3.2348,-2.3760,-3.1149,-2.3229,
9.000516,0.4281,0.8849,-0.4490,-0.0108,1.2732,-3.3738,-2.3760,-3.1149,-2.3229,
9.018482,0.2958,1.0151,-0.5859,-0.0108,1.2732,-3.3738,-2.3760,-3.1149,-2.3229,
9.021702,0.2958,1.0151,-0.5859,-0.0108,1.2732,-3.3738,-2.4037,-5.0323,-1.7650,
9.023096,0.2958,1.0151,-0.5859,-0.6185,0.8797,-4.3387,-2.4037,-5.0323,-1.7650,
9.040032,0.2958,1.0151,-0.5859,-0.4026,0.6581,-4.8376,-2.4037,-5.0323,-1.7650,
9.060660,0.2958,1.0151,-0.5859,-0.2622,0.7970,-5.6898,-2.4037,-5.0323,-1.7650,
9.081369,0.2958,1.0151,-0.5859,0.8721,0.5699,-5.9496,-2.4037,-5.0323,-1.7650,
9.084134,0.3685,1.0223,-0.7322,0.8721,0.5699,-5.9496,-2.4037,-5.0323,-1.7650,
9.085127,0.3685,1.0223,-0.7322,0.8721,0.5699,-5.9496,-2.2615,-6.9758,-0.7563,
9.101154,0.3685,1.0223,-0.7322,2.4806,-0.0268,-6.4177,-2.2615,-6.9758,-0.7563,
9.120113,0.3685,1.0223,-0.7322,3.3044,-1.3938,-5.9288,-2.2615,-6.9758,-0.7563,
9.140606,0.3685,1.0223,-0.7322,4.7728,-2.6445,-6.2823,-2.2615,-6.9758,-0.7563,
9.149858,0.6906,0.7814,-0.6590,4.7728,-2.6445,-6.2823,-2.2615,-6.9758,-0.7563,
9.151706,0.6906,0.7814,-0.6590,4.7728,-2.6445,-6.2823,-0.6433,-2.8290,-0.6359,
9.161727,0.6906,0.7814,-0.6590,4.7676,-1.1194,-6.0254,-0.6433,-2.8290,-0.6359,
9.180093,0.6906,0.7814,-0.6590,1.5788,-0.4709,-5.4557,-0.6433,-2.8290,-0.6359,
9.200449,0.6906,0.7814,-0.6590,0.7857,-1.1117,-3.1698,-0.6433,-2.8290,-0.6359,
9.215716,0.3005,0.6911,-0.4219,0.7857,-1.1117,-3.1698,-0.6433,-2.8290,-0.6359,
9.219035,0.3005,0.6911,-0.4219,0.7857,-1.1117,-3.1698,0.0700,-2.5916,0.4569,
9.220358,0.3005,0.6911,-0.4219,1.7611,-2.9882,-3.4427,0.0700,-2.5916,0.4569,
9.239967,0.3005,0.6911,-0.4219,3.0855,-2.3178,-4.1160,0.0700,-2.5916,0.4569,
9.260616,0.3005,0.6911,-0.4219,3.5290,-1.6005,-4.9412,0.0700,-2.5916,0.4569,
9.279865,0.3005,0.6911,-0.4219,1.5760,0.8869,-3.4764,0.0700,-2.5916,0.4569,
9.282737,0.2567,1.2070,-0.3926,1.5760,0.8869,-3.4764,0.0700,-2.5916,0.4569,
9.284067,0.2567,1.2070,-0.3926,1.5760,0.8869,-3.4764,0.3064,-2.5554,0.6150,
9.301915,0.2567,1.2070,-0.3926,0.3535,4.0239,0.1987,0.3064,-2.5554,0.6150,
9.320234,0.2567,1.2070,-0.3926,3.2183,-0.3893,3.0693,0.3064,-2.5554,0.6150,
9.339894,0.2567,1.2070,-0.3926,4.3627,0.1542,3.0603,0.3064,-2.5554,0.6150,
9.347535,0.5805,1.0532,0.0727,4.3627,0.1542,3.0603,0.3064,-2.5554,0.6150,
9.351538,0.5805,1.0532,0.0727,4.3627,0.1542,3.0603,0.3367,-0.6486,0.1285,
9.362312,0.5805,1.0532,0.0727,4.3038,1.1999,1.2385,0.3367,-0.6486,0.1285,
9.380839,0.5805,1.0532,0.0727,2.4868,0.3437,-0.4595,0.3367,-0.6486,0.1285,
9.400204,0.5805,1.0532,0.0727,-1.5282,-0.6025,-1.0926,0.3367,-0.6486,0.1285,
9.413463,0.0348,0.9046,-0.3417,-1.5282,-0.6025,-1.0926,0.3367,-0.6486,0.1285,
9.416333,0.0348,0.9046,-0.3417,-1.5282,-0.6025,-1.0926,0.4022,-0.2169,-0.1861,
9.419870,0.0348,0.9046,-0.3417,-1.0347,-0.4763,-1.6934,0.4022,-0.2169,-0.1861,
9.440570,0.0348,0.9046,-0.3417,-1.4808,0.2066,-0.2802,0.4022,-0.2169,-0.1861,
9.461646,0.0348,0.9046,-0.3417,-1.0793,-0.0685,0.0204,0.4022,-0.2169,-0.1861,
9.479831,0.0947,0.9564,-0.2883,-1.0793,-0.0685,0.0204,0.4022,-0.2169,-0.1861,
9.482582,0.0947,0.9564,-0.2883,-1.0793,-0.0685,0.0204,0.4235,-0.1397,0.0614,
9.483786,0.0947,0.9564,-0.2883,-0.5929,-0.1438,-0.8386,0.4235,-0.1397,0.0614,
9.503551,0.0947,0.9564,-0.2883,0.1099,0.0402,-1.9581,0.4235,-0.1397,0.0614,
9.520054,0.0947,0.9564,-0.2883,0.1189,-0.0540,-1.1374,0.4235,-0.1397,0.0614,
9.540029,0.0947,0.9564,-0.2883,0.3513,0.1794,-0.1991,0.4235,-0.1397,0.0614,
9.547265,0.1637,0.9832,-0.2479,0.3513,0.1794,-0.1991,0.4235,-0.1397,0.0614,
9.548935,0.1637,0.9832,-0.2479,0.3513,0.1794,-0.1991,0.1148,-0.1003,-0.0195,
9.559692,0.1637,0.9832,-0.2479,0.1129,0.1453,-0.3372,0.1148,-0.1003,-0.0195,
9.580083,0.1637,0.9832,-0.2479,-0.2015,-0.1652,-0.0806,0.1148,-0.1003,-0.0195,
9.600216,0.1637,0.9832,-0.2479,-0.2688,-0.1814,-0.8121,0.1148,-0.1003,-0.0195,
9.612775,0.0877,0.9657,-0.2891,-0.2688,-0.1814,-0.8121,0.1148,-0.1003,-0.0195,
9.615514,0.0877,0.9657,-0.2891,-0.2688,-0.1814,-0.8121,0.0173,-0.1402,0.0289,
9.620559,0.0877,0.9657,-0.2891,-0.7704,0.0181,-0.2515,0.0173,-0.1402,0.0289,
9.639941,0.0877,0.9657,-0.2891,-1.1786,0.0397,0.2238,0.0173,-0.1402,0.0289,
9.659835,0.0877,0.9657,-0.2891,-1.2757,-0.0337,0.2726,0.0173,-0.1402,0.0289,
9.678947,0.0788,0.9711,-0.2920,-1.2757,-0.0337,0.2726,0.0173,-0.1402,0.0289,
9.681494,0.0788,0.9711,-0.2920,-1.2757,-0.0337,0.2726,0.0780,-0.0881,0.3350,
9.683165,0.0788,0.9711,-0.2920,-0.7154,0.0469,-0.7161,0.0780,-0.0881,0.3350,
9.700420,0.0788,0.9711,-0.2920,-1.5143,-0.1174,-0.5828,0.0780,-0.0881,0.3350,
9.720112,0.0788,0.9711,-0.2920,0.0033,-0.1210,-0.9446,0.0780,-0.0881,0.3350,
9.739906,0.0788,0.9711,-0.2920,2.3276,0.4354,-0.5940,0.0780,-0.0881,0.3350,
9.743368,0.4104,0.9897,-0.1996,2.3276,0.4354,-0.5940,0.0780,-0.0881,0.3350,
9.744813,0.4104,0.9897,-0.1996,2.3276,0.4354,-0.5940,-0.0886,0.0657,0.1924,
9.760312,0.4104,0.9897,-0.1996,0.0188,0.0392,0.0361,-0.0886,0.0657,0.1924,
9.780500,0.4104,0.9897,-0.1996,-1.6970,0.1968,0.0050,-0.0886,0.0657,0.1924,
9.799970,0.4104,0.9897,-0.1996,0.4910,0.1845,0.2040,-0.0886,0.0657,0.1924,
9.809385,0.3286,0.9726,-0.3037,0.4910,0.1845,0.2040,-0.0886,0.0657,0.1924,
9.810284,0.3286,0.9726,-0.3037,0.4910,0.1845,0.2040,-0.1397,0.0524,0.2238,
9.819633,0.3286,0.9726,-0.3037,1.0888,-0.2192,-0.5577,-0.1397,0.0524,0.2238,
9.839843,0.3286,0.9726,-0.3037,-0.3077,-0.0233,-0.4425,-0.1397,0.0524,0.2238,
9.860380,0.3286,0.9726,-0.3037,-0.9878,0.0629,-0.3654,-0.1397,0.0524,0.2238,
9.875415,0.1817,0.9682,-0.2095,-0.9878,0.0629,-0.3654,-0.1397,0.0524,0.2238,
9.877024,0.1817,0.9682,-0.2095,-0.9878,0.0629,-0.3654,-0.2536,-0.1525,0.3510,
9.880693,0.1817,0.9682,-0.2095,-0.4191,0.3679,0.1885,-0.2536,-0.1525,0.3510,
9.900068,0.1817,0.9682,-0.2095,-1.1545,0.3324,-0.2665,-0.2536,-0.1525,0.3510,
9.920429,0.1817,0.9682,-0.2095,-0.4940,-0.8873,-0.8296,-0.2536,-0.1525,0.3510,
9.940260,0.1817,0.9682,-0.2095,0.0459,0.4436,0.7855,-0.2536,-0.1525,0.3510,
9.943005,0.2388,0.9777,-0.1615,0.0459,0.4436,0.7855,-0.2536,-0.1525,0.3510,
9.944252,0.2388,0.9777,-0.1615,0.0459,0.4436,0.7855,-0.2786,-0.0556,0.5453,
9.960140,0.2388,0.9777,-0.1615,-0.7803,-0.1981,-0.9699,-0.2786,-0.0556,0.5453,
9.980590,0.2388,0.9777,-0.1615,-0.7399,0.1842,-0.9475,-0.2786,-0.0556,0.5453,
10.001908,0.2388,0.9777,-0.1615,-2.1932,0.6993,-1.0395,-0.2786,-0.0556,0.5453,
10.007707,0.1623,0.9937,-0.2439,-2.1932,0.6993,-1.0395,-0.2786,-0.0556,0.5453,
10.008821,0.1623,0.9937,-0.2439,-2.1932,0.6993,-1.0395,-0.5437,-0.2818,1.0260,
10.022244,0.1623,0.9937,-0.2439,-0.0886,-0.0898,-0.3020,-0.5437,-0.2818,1.0260,
10.040174,0.1623,0.9937,-0.2439,0.8464,0.0072,-0.1602,-0.5437,-0.2818,1.0260,
10.060184,0.1623,0.9937,-0.2439,0.1417,0.4187,-0.7881,-0.5437,-0.2818,1.0260,
10.073770,0.2879,1.0177,-0.2250,0.1417,0.4187,-0.7881,-0.5437,-0.2818,1.0260,
10.075670,0.2879,1.0177,-0.2250,0.1417,0.4187,-0.7881,-0.8221,-0.3159,0.9009,
10.081094,0.2879,1.0177,-0.2250,-0.4248,0.9655,-0.9029,-0.8221,-0.3159,0.9009,
10.100830,0.2879,1.0177,-0.2250,-0.8564,1.5740,-0.3693,-0.8221,-0.3159,0.9009,
10.120207,0.2879,1.0177,-0.2250,-0.8760,1.6026,-0.2077,-0.8221,-0.3159,0.9009,
10.139678,0.2716,1.1686,-0.1214,-0.8760,1.6026,-0.2077,-0.8221,-0.3159,0.9009,
10.142908,0.2716,1.1686,-0.1214,-0.8760,1.6026,-0.2077,-0.9041,0.2015,0.8444,
10.143919,0.2716,1.1686,-0.1214,-1.0508,2.4036,-0.2429,-0.9041,0.2015,0.8444,
10.160116,0.2716,1.1686,-0.1214,-1.3920,1.7677,-0.9104,-0.9041,0.2015,0.8444,
10.181166,0.2716,1.1686,-0.1214,-1.5932,1.9345,-1.1816,-0.9041,0.2015,0.8444,
10.200239,0.2716,1.1686,-0.1214,-2.0166,2.5778,-1.8836,-0.9041,0.2015,0.8444,
10.205617,0.1872,1.1687,-0.2365,-2.0166,2.5778,-1.8836,-0.9041,0.2015,0.8444,
10.207397,0.1872,1.1687,-0.2365,-2.0166,2.5778,-1.8836,-1.1750,0.5283,0.8082,
10.222215,0.1872,1.1687,-0.2365,-3.0131,2.4870,-2.7215,-1.1750,0.5283,0.8082,
10.239971,0.1872,1.1687,-0.2365,-3.5839,2.0265,-4.3008,-1.1750,0.5283,0.8082,
10.260640,0.1872,1.1687,-0.2365,-4.1533,1.2666,-4.2579,-1.1750,0.5283,0.8082,
10.271608,0.0890,0.9538,-0.4918,-4.1533,1.2666,-4.2579,-1.1750,0.5283,0.8082,
10.273519,0.0890,0.9538,-0.4918,-4.1533,1.2666,-4.2579,-1.1921,-1.6079,1.5327,
10.281919,0.0890,0.9538,-0.4918,-3.1944,0.6282,-5.3565,-1.1921,-1.6079,1.5327,
10.300139,0.0890,0.9538,-0.4918,-1.4561,1.4770,-5.0356,-1.1921,-1.6079,1.5327,
10.321103,0.0890,0.9538,-0.4918,1.0123,4.3871,-4.5418,-1.1921,-1.6079,1.5327,
10.338794,0.4123,0.3934,-0.3060,1.0123,4.3871,-4.5418,-1.1921,-1.6079,1.5327,
10.341765,0.4123,0.3934,-0.3060,1.0123,4.3871,-4.5418,-1.1053,-2.1588,1.6525,
10.343433,0.4123,0.3934,-0.3060,-1.9451,-3.9243,-3.3248,-1.1053,-2.1588,1.6525,
10.360251,0.4123,0.3934,-0.3060,1.1200,-2.7761,-3.7996,-1.1053,-2.1588,1.6525,
10.380202,0.4123,0.3934,-0.3060,-3.7001,0.6831,-4.0094,-1.1053,-2.1588,1.6525,
10.400411,0.4123,0.3934,-0.3060,-5.9921,1.4139,-3.5836,-1.1053,-2.1588,1.6525,
10.404006,0.0420,0.8491,-0.3892,-5.9921,1.4139,-3.5836,-1.1053,-2.1588,1.6525,
10.406137,0.0420,0.8491,-0.3892,-5.9921,1.4139,-3.5836,-1.1873,-4.7997,1.2144,
10.420849,0.0420,0.8491,-0.3892,-7.2482,-0.0461,-3.0113,-1.1873,-4.7997,1.2144,
10.440069,0.0420,0.8491,-0.3892,-4.0293,-0.5257,-3.0161,-1.1873,-4.7997,1.2144,
10.460101,0.0420,0.8491,-0.3892,-1.8086,0.5044,-2.6362,-1.1873,-4.7997,1.2144,
10.469728,0.5598,0.7801,-0.4320,-1.8086,0.5044,-2.6362,-1.1873,-4.7997,1.2144,
10.472432,0.5598,0.7801,-0.4320,-1.8086,0.5044,-2.6362,-1.0457,-3.5785,0.1806,
10.482356,0.5598,0.7801,-0.4320,-1.4003,0.9939,-1.8818,-1.0457,-3.5785,0.1806,
10.500416,0.5598,0.7801,-0.4320,-1.3489,0.5154,-0.8630,-1.0457,-3.5785,0.1806,
10.520695,0.5598,0.7801,-0.4320,-1.1282,-0.0971,-0.0116,-1.0457,-3.5785,0.1806,
10.535604,0.4866,0.7272,-0.3012,-1.1282,-0.0971,-0.0116,-1.0457,-3.5785,0.1806,
10.538727,0.4866,0.7272,-0.3012,-1.1282,-0.0971,-0.0116,-0.8951,-1.6265,-1.7884,
10.540449,0.4866,0.7272,-0.3012,-1.5193,0.0876,-0.1979,-0.8951,-1.6265,-1.7884,
10.560795,0.4866,0.7272,-0.3012,-1.5556,0.7198,-0.3326,-0.8951,-1.6265,-1.7884,
10.580646,0.4866,0.7272,-0.3012,-0.2453,0.4397,-0.1966,-0.8951,-1.6265,-1.7884,
10.600748,0.4866,0.7272,-0.3012,0.0312,0.0814,0.5222,-0.8951,-1.6265,-1.7884,
10.604614,0.4854,0.8279,-0.2332,0.0312,0.0814,0.5222,-0.8951,-1.6265,-1.7884,
10.606243,0.4854,0.8279,-0.2332,0.0312,0.0814,0.5222,-1.0100,-1.2730,-2.9574,
10.620515,0.4854,0.8279,-0.2332,-0.2552,0.0887,0.4274,-1.0100,-1.2730,-2.9574,
10.640646,0.4854,0.8279,-0.2332,0.3831,0.7606,-0.1701,-1.0100,-1.2730,-2.9574,
10.660585,0.4854,0.8279,-0.2332,0.5653,1.1885,0.0263,-1.0100,-1.2730,-2.9574,
10.668072,0.4003,1.0899,-0.2510,0.5653,1.1885,0.0263,-1.0100,-1.2730,-2.9574,
10.671362,0.4003,1.0899,-0.2510,0.5653,1.1885,0.0263,-0.9877,-0.7348,-3.2917,
10.680283,0.4003,1.0899,-0.2510,2.3836,2.0899,0.0629,-0.9877,-0.7348,-3.2917,
10.701404,0.4003,1.0899,-0.2510,4.7310,1.4403,0.0940,-0.9877,-0.7348,-3.2917,
10.721362,0.4003,1.0899,-0.2510,4.2322,0.1143,0.2565,-0.9877,-0.7348,-3.2917,
10.735166,0.4641,0.9267,-0.1897,4.2322,0.1143,0.2565,-0.9877,-0.7348,-3.2917,
10.738185,0.4641,0.9267,-0.1897,4.2322,0.1143,0.2565,-0.6704,0.0221,-3.8006,
10.740357,0.4641,0.9267,-0.1897,4.0647,-0.5046,0.2457,-0.6704,0.0221,-3.8006,
10.760434,0.4641,0.9267,-0.1897,4.1906,-0.2782,0.1286,-0.6704,0.0221,-3.8006,
10.780241,0.4641,0.9267,-0.1897,4.1028,0.0335,-0.5628,-0.6704,0.0221,-3.8006,
10.800476,0.2953,0.9584,-0.2485,4.1028,0.0335,-0.5628,-0.6704,0.0221,-3.8006,
10.803067,0.2953,0.9584,-0.2485,4.1028,0.0335,-0.5628,-0.4245,-0.1530,-2.8563,
10.805041,0.2953,0.9584,-0.2485,4.5558,-0.1097,-0.7090,-0.4245,-0.1530,-2.8563,
10.820635,0.2953,0.9584,-0.2485,5.3942,-0.1092,-0.5706,-0.4245,-0.1530,-2.8563,
10.840395,0.2953,0.9584,-0.2485,4.9110,0.5878,-0.2819,-0.4245,-0.1530,-2.8563,
10.860021,0.2953,0.9584,-0.2485,4.5436,-0.8720,-0.1777,-0.4245,-0.1530,-2.8563,
10.867719,0.0654,0.8978,-0.1613,4.5436,-0.8720,-0.1777,-0.4245,-0.1530,-2.8563,
10.870295,0.0654,0.8978,-0.1613,4.5436,-0.8720,-0.1777,-0.2584,-0.2366,-1.2247,
10.880074,0.0654,0.8978,-0.1613,3.9361,-0.6945,-0.5226,-0.2584,-0.2366,-1.2247,
10.900467,0.0654,0.8978,-0.1613,3.7244,0.0175,-0.9684,-0.2584,-0.2366,-1.2247,
10.921226,0.0654,0.8978,-0.1613,2.3122,6.5416,-2.4861,-0.2584,-0.2366,-1.2247,
10.935744,-0.2343,1.9441,-0.4156,2.3122,6.5416,-2.4861,-0.2584,-0.2366,-1.2247,
10.938994,-0.2343,1.9441,-0.4156,2.3122,6.5416,-2.4861,0.3868,-0.3537,0.9797,
10.940560,-0.2343,1.9441,-0.4156,3.7189,5.8014,-1.0417,0.3868,-0.3537,0.9797,
10.960120,-0.2343,1.9441,-0.4156,4.7989,-4.8793,-2.1355,0.3868,-0.3537,0.9797,
10.980306,-0.2343,1.9441,-0.4156,-6.1816,3.7619,-1.0428,0.3868,-0.3537,0.9797,
10.998098,-0.8660,0.5996,0.1456,-6.1816,3.7619,-1.0428,0.3868,-0.3537,0.9797,
11.000140,-0.8660,0.5996,0.1456,-6.1816,3.7619,-1.0428,-0.0737,-0.0859,0.3430,
11.001716,-0.8660,0.5996,0.1456,-5.1393,-3.2145,3.0135,-0.0737,-0.0859,0.3430,
11.020113,-0.8660,0.5996,0.1456,0.1026,0.2245,3.9966,-0.0737,-0.0859,0.3430,
11.040328,-0.8660,0.5996,0.1456,2.3103,1.8721,4.0429,-0.0737,-0.0859,0.3430,
11.060558,-0.8660,0.5996,0.1456,2.8194,0.3029,-1.1289,-0.0737,-0.0859,0.3430,
11.063417,0.0705,0.9307,-0.4864,2.8194,0.3029,-1.1289,-0.0737,-0.0859,0.3430,
11.064903,0.0705,0.9307,-0.4864,2.8194,0.3029,-1.1289,0.7200,0.4650,1.9256,
11.080051,0.0705,0.9307,-0.4864,1.6487,0.6020,-4.4262,0.7200,0.4650,1.9256,
11.101245,0.0705,0.9307,-0.4864,-0.5287,-0.7822,-3.7902,0.7200,0.4650,1.9256,
11.120283,0.0705,0.9307,-0.4864,1.9812,-0.1266,0.7831,0.7200,0.4650,1.9256,
11.129649,0.1225,1.0180,-0.0710,1.9812,-0.1266,0.7831,0.7200,0.4650,1.9256,
11.131974,0.1225,1.0180,-0.0710,1.9812,-0.1266,0.7831,0.2995,0.4565,1.6738,
11.140829,0.1225,1.0180,-0.0710,2.6967,0.3253,1.8381,0.2995,0.4565,1.6738,
11.159969,0.1225,1.0180,-0.0710,1.7880,0.4131,0.7444,0.2995,0.4565,1.6738,
11.180124,0.1225,1.0180,-0.0710,0.3456,-0.1015,-0.7302,0.2995,0.4565,1.6738,
11.195719,0.0514,0.9551,-0.4277,0.3456,-0.1015,-0.7302,0.2995,0.4565,1.6738,
11.198982,0.0514,0.9551,-0.4277,0.3456,-0.1015,-0.7302,0.3133,0.2036,1.2107,
11.200404,0.0514,0.9551,-0.4277,0.7843,-0.1854,-1.4549,0.3133,0.2036,1.2107,
11.220437,0.0514,0.9551,-0.4277,1.1388,0.0278,-0.3365,0.3133,0.2036,1.2107,
11.240316,0.0514,0.9551,-0.4277,1.0926,0.2538,0.8088,0.3133,0.2036,1.2107,
11.260267,0.0514,0.9551,-0.4277,-0.3955,0.0753,0.0633,0.3133,0.2036,1.2107,
11.263069,-0.0001,0.9675,-0.2868,-0.3955,0.0753,0.0633,0.3133,0.2036,1.2107,
11.263844,-0.0001,0.9675,-0.2868,-0.3955,0.0753,0.0633,0.3144,0.3415,0.8982,
11.279980,-0.0001,0.9675,-0.2868,1.2308,-0.2562,-1.5462,0.3144,0.3415,0.8982,
11.300361,-0.0001,0.9675,-0.2868,0.4532,0.3173,-0.2752,0.3144,0.3415,0.8982,
11.320230,-0.0001,0.9675,-0.2868,0.6577,0.0256,-0.2036,0.3144,0.3415,0.8982,
11.327687,0.1006,0.9523,-0.2864,0.6577,0.0256,-0.2036,0.3144,0.3415,0.8982,
11.329079,0.1006,0.9523,-0.2864,0.6577,0.0256,-0.2036,0.2143,0.3745,0.5256,
11.340125,0.1006,0.9523,-0.2864,-0.1423,-0.2477,0.0781,0.2143,0.3745,0.5256,
11.360145,0.1006,0.9523,-0.2864,0.3059,0.4716,0.3234,0.2143,0.3745,0.5256,
11.380549,0.1006,0.9523,-0.2864,-0.0979,0.1007,-0.4023,0.2143,0.3745,0.5256,
11.393697,0.0579,0.9413,-0.3382,-0.0979,0.1007,-0.4023,0.2143,0.3745,0.5256,
11.396263,0.0579,0.9413,-0.3382,-0.0979,0.1007,-0.4023,0.1621,0.4033,0.3898,
11.403007,0.0579,0.9413,-0.3382,-0.6094,-0.0869,-0.4551,0.1621,0.4033,0.3898,
11.420422,0.0579,0.9413,-0.3382,-0.8550,-0.9607,-0.4355,0.1621,0.4033,0.3898,
11.440133,0.0579,0.9413,-0.3382,-0.9738,0.5327,0.3726,0.1621,0.4033,0.3898,
11.460511,0.1239,0.9370,-0.2510,-0.9738,0.5327,0.3726,0.1621,0.4033,0.3898,
11.463161,0.1239,0.9370,-0.2510,-0.9738,0.5327,0.3726,0.2138,0.3889,0.6225,
11.464529,0.1239,0.9370,-0.2510,-0.3307,-0.0103,0.4297,0.2138,0.3889,0.6225,
11.480132,0.1239,0.9370,-0.2510,-0.8992,-0.2832,-0.0730,0.2138,0.3889,0.6225,
11.500049,0.1239,0.9370,-0.2510,0.2413,-0.0012,-0.1142,0.2138,0.3889,0.6225,
11.520854,0.1239,0.9370,-0.2510,-1.4074,0.7334,-0.0743,0.2138,0.3889,0.6225,
11.525772,0.0456,0.9833,-0.3328,-1.4074,0.7334,-0.0743,0.2138,0.3889,0.6225,
11.527978,0.0456,0.9833,-0.3328,-1.4074,0.7334,-0.0743,0.1946,0.5901,0.7146,
11.540318,0.0456,0.9833,-0.3328,-1.1587,0.0750,0.1562,0.1946,0.5901,0.7146,
11.560172,0.0456,0.9833,-0.3328,-0.1884,-0.7409,-0.4744,0.1946,0.5901,0.7146,
11.580344,0.0456,0.9833,-0.3328,-0.8458,0.7733,-0.2408,0.1946,0.5901,0.7146,
11.591616,0.0858,0.9984,-0.3666,-0.8458,0.7733,-0.2408,0.1946,0.5901,0.7146,
11.594526,0.0858,0.9984,-0.3666,-0.8458,0.7733,-0.2408,0.2106,0.2372,1.0888,
11.600196,0.0858,0.9984,-0.3666,-2.0915,0.4741,-0.5504,0.2106,0.2372,1.0888,
11.620844,0.0858,0.9984,-0.3666,-1.4029,0.1486,-0.4573,0.2106,0.2372,1.0888,
11.640564,0.0858,0.9984,-0.3666,-0.2159,0.6380,0.4196,0.2106,0.2372,1.0888,
11.659052,0.3190,1.0067,-0.2676,-0.2159,0.6380,0.4196,0.2106,0.2372,1.0888,
11.662547,0.3190,1.0067,-0.2676,-0.2159,0.6380,0.4196,0.2707,0.3761,1.3778,
11.663634,0.3190,1.0067,-0.2676,-0.2676,1.2109,0.5493,0.2707,0.3761,1.3778,
11.680126,0.3190,1.0067,-0.2676,-1.6790,2.8528,0.4007,0.2707,0.3761,1.3778,
11.700412,0.3190,1.0067,-0.2676,-2.6978,1.4077,-0.3860,0.2707,0.3761,1.3778,
11.720353,0.3190,1.0067,-0.2676,-1.8606,1.7638,-0.3024,0.2707,0.3761,1.3778,
11.723624,0.2653,1.0711,-0.3519,-1.8606,1.7638,-0.3024,0.2707,0.3761,1.3778,
11.725578,0.2653,1.0711,-0.3519,-1.8606,1.7638,-0.3024,0.1525,0.0924,1.9980,
11.740274,0.2653,1.0711,-0.3519,-1.5612,3.2981,0.1971,0.1525,0.0924,1.9980,
11.760721,0.2653,1.0711,-0.3519,-2.3466,4.1233,0.1940,0.1525,0.0924,1.9980,
11.780613,0.2653,1.0711,-0.3519,-3.9799,4.3938,-0.0821,0.1525,0.0924,1.9980,
11.790039,0.1279,1.3085,-0.3432,-3.9799,4.3938,-0.0821,0.1525,0.0924,1.9980,
11.793007,0.1279,1.3085,-0.3432,-3.9799,4.3938,-0.0821,0.2633,1.0814,1.9182,
11.799805,0.1279,1.3085,-0.3432,-4.1707,5.7268,-0.3404,0.2633,1.0814,1.9182,
11.821865,0.1279,1.3085,-0.3432,-4.2228,6.9951,-0.9242,0.2633,1.0814,1.9182,
11.841872,0.1279,1.3085,-0.3432,-4.7005,7.4374,-0.2168,0.2633,1.0814,1.9182,
11.855615,0.2783,1.2821,-0.4122,-4.7005,7.4374,-0.2168,0.2633,1.0814,1.9182,
11.858986,0.2783,1.2821,-0.4122,-4.7005,7.4374,-0.2168,0.5747,0.9537,2.2658,
11.860804,0.2783,1.2821,-0.4122,-3.6955,5.5091,-1.3226,0.5747,0.9537,2.2658,
11.880172,0.2783,1.2821,-0.4122,-3.0022,5.3608,-3.1804,0.5747,0.9537,2.2658,
11.899897,0.2783,1.2821,-0.4122,-2.1099,4.7351,-1.5249,0.5747,0.9537,2.2658,
11.922215,0.2783,1.2821,-0.4122,-2.3097,2.6712,-1.1144,0.5747,0.9537,2.2658,
11.925120,0.5411,0.8239,-0.3899,-2.3097,2.6712,-1.1144,0.5747,0.9537,2.2658,
11.926562,0.5411,0.8239,-0.3899,-2.3097,2.6712,-1.1144,0.1946,0.5060,1.4225,
11.941232,0.5411,0.8239,-0.3899,-3.3549,4.9125,0.2418,0.1946,0.5060,1.4225,
11.961225,0.5411,0.8239,-0.3899,-2.5214,-8.7147,-1.7099,0.1946,0.5060,1.4225,
11.980218,0.5411,0.8239,-0.3899,2.2437,-10.1994,0.4696,0.1946,0.5060,1.4225,
11.998194,0.8905,-0.0678,-0.1136,2.2437,-10.1994,0.4696,0.1946,0.5060,1.4225,
12.001356,0.8905,-0.0678,-0.1136,2.2437,-10.1994,0.4696,-0.2658,0.9686,-0.0812,
12.003919,0.8905,-0.0678,-0.1136,-0.2372,-2.5725,0.8639,-0.2658,0.9686,-0.0812,
12.020927,0.8905,-0.0678,-0.1136,-3.3070,-0.8196,0.7383,-0.2658,0.9686,-0.0812,
12.043447,0.8905,-0.0678,-0.1136,-5.6855,-0.9948,0.5131,-0.2658,0.9686,-0.0812,
12.054874,0.0934,0.4669,-0.1648,-5.6855,-0.9948,0.5131,-0.2658,0.9686,-0.0812,
12.057686,0.0934,0.4669,-0.1648,-5.6855,-0.9948,0.5131,-0.5916,-1.0553,-1.8219,
12.060079,0.0934,0.4669,-0.1648,-6.9258,-1.0354,0.6608,-0.5916,-1.0553,-1.8219,
12.080118,0.0934,0.4669,-0.1648,-4.8471,-0.3736,0.6021,-0.5916,-1.0553,-1.8219,
12.101716,0.0934,0.4669,-0.1648,-1.2851,-0.8085,0.5969,-0.5916,-1.0553,-1.8219,
12.121726,0.6625,0.5717,-0.1960,-1.2851,-0.8085,0.5969,-0.5916,-1.0553,-1.8219,
12.124417,0.6625,0.5717,-0.1960,-1.2851,-0.8085,0.5969,-0.6843,-0.8402,-3.3024,
12.126053,0.6625,0.5717,-0.1960,-0.1555,-1.3552,0.5451,-0.6843,-0.8402,-3.3024,
12.140166,0.6625,0.5717,-0.1960,0.2416,-0.9030,0.0289,-0.6843,-0.8402,-3.3024,
12.161454,0.6625,0.5717,-0.1960,0.2455,-0.5178,-0.5424,-0.6843,-0.8402,-3.3024,
12.180592,0.6625,0.5717,-0.1960,0.2477,-0.0087,-0.2232,-0.6843,-0.8402,-3.3024,
12.185609,0.4845,0.8313,-0.2320,0.2477,-0.0087,-0.2232,-0.6843,-0.8402,-3.3024,
12.187645,0.4845,0.8313,-0.2320,0.2477,-0.0087,-0.2232,-0.5490,-0.0641,-4.2552,
12.200273,0.4845,0.8313,-0.2320,0.1338,0.1603,-0.0980,-0.5490,-0.0641,-4.2552,
12.220118,0.4845,0.8313,-0.2320,0.2439,1.4309,-0.8206,-0.5490,-0.0641,-4.2552,
12.240077,0.4845,0.8313,-0.2320,3.1119,2.4214,-0.6962,-0.5490,-0.0641,-4.2552,
12.251906,0.6826,1.1769,-0.2769,3.1119,2.4214,-0.6962,-0.5490,-0.0641,-4.2552,
12.254051,0.6826,1.1769,-0.2769,3.1119,2.4214,-0.6962,-0.3308,-1.1122,-4.1865,
12.260982,0.6826,1.1769,-0.2769,4.9536,1.9471,-0.7514,-0.3308,-1.1122,-4.1865,
12.280112,0.6826,1.1769,-0.2769,4.0590,1.0834,-1.0177,-0.3308,-1.1122,-4.1865,
12.300266,0.6826,1.1769,-0.2769,3.5635,0.8483,-0.8621,-0.3308,-1.1122,-4.1865,
12.318220,0.4052,1.1149,-0.2829,3.5635,0.8483,-0.8621,-0.3308,-1.1122,-4.1865,
12.321896,0.4052,1.1149,-0.2829,3.5635,0.8483,-0.8621,-0.6204,-1.1011,-3.4136,
12.325054,0.4052,1.1149,-0.2829,4.6660,1.3033,-0.9506,-0.6204,-1.1011,-3.4136,
12.340493,0.4052,1.1149,-0.2829,3.7604,1.0029,-0.8131,-0.6204,-1.1011,-3.4136,
12.362071,0.4052,1.1149,-0.2829,2.4112,2.5131,-0.9730,-0.6204,-1.1011,-3.4136,
12.380149,0.4052,1.1149,-0.2829,3.2542,-0.3049,-0.8992,-0.6204,-1.1011,-3.4136,
12.383423,0.1180,0.8842,-0.2223,3.2542,-0.3049,-0.8992,-0.6204,-1.1011,-3.4136,
12.385040,0.1180,0.8842,-0.2223,3.2542,-0.3049,-0.8992,-0.1988,-1.3603,-1.3599,
12.399656,0.1180,0.8842,-0.2223,4.7178,-0.8687,-0.5499,-0.1988,-1.3603,-1.3599,
12.421468,0.1180,0.8842,-0.2223,3.8469,1.3026,-0.2290,-0.1988,-1.3603,-1.3599,
12.439930,0.1180,0.8842,-0.2223,2.3641,1.3610,-1.1129,-0.1988,-1.3603,-1.3599,
12.449571,-0.1616,1.2494,-0.2339,2.3641,1.3610,-1.1129,-0.1988,-1.3603,-1.3599,
12.451002,-0.1616,1.2494,-0.2339,2.3641,1.3610,-1.1129,0.3713,-1.2315,0.9009,
12.460411,-0.1616,1.2494,-0.2339,1.7411,3.8869,-1.0536,0.3713,-1.2315,0.9009,
12.480069,-0.1616,1.2494,-0.2339,3.7801,-0.2614,-0.8685,0.3713,-1.2315,0.9009,
12.499976,-0.1616,1.2494,-0.2339,0.3781,-0.2973,-0.0716,0.3713,-1.2315,0.9009,
12.515606,-0.4672,0.9999,-0.0982,0.3781,-0.2973,-0.0716,0.3713,-1.2315,0.9009,
12.518313,-0.4672,0.9999,-0.0982,0.3781,-0.2973,-0.0716,0.1334,-0.6268,0.3435,
12.520226,-0.4672,0.9999,-0.0982,-1.7480,0.2813,0.4644,0.1334,-0.6268,0.3435,
12.540468,-0.4672,0.9999,-0.0982,1.5605,-0.6804,2.8640,0.1334,-0.6268,0.3435,
12.560526,-0.4672,0.9999,-0.0982,3.5696,1.3221,4.1515,0.1334,-0.6268,0.3435,
12.581037,-0.4672,0.9999,-0.0982,2.4990,1.1928,1.7096,0.1334,-0.6268,0.3435,
12.583831,0.0016,1.0758,-0.0570,2.4990,1.1928,1.7096,0.1334,-0.6268,0.3435,
12.585007,0.0016,1.0758,-0.0570,2.4990,1.1928,1.7096,0.7578,0.4038,1.4768,
12.599891,0.0016,1.0758,-0.0570,2.4678,-0.1430,-3.8921,0.7578,0.4038,1.4768,
12.620083,0.0016,1.0758,-0.0570,-0.4234,0.0222,-3.7279,0.7578,0.4038,1.4768,
12.641541,0.0016,1.0758,-0.0570,0.0271,-0.5976,-1.4717,0.7578,0.4038,1.4768,
12.647848,0.0283,0.9571,-0.3151,0.0271,-0.5976,-1.4717,0.7578,0.4038,1.4768,
12.649497,0.0283,0.9571,-0.3151,0.0271,-0.5976,-1.4717,0.4251,0.2111,1.5477,
12.660889,0.0283,0.9571,-0.3151,2.4390,-0.3362,0.2088,0.4251,0.2111,1.5477,
12.680255,0.0283,0.9571,-0.3151,1.6165,0.5028,1.3697,0.4251,0.2111,1.5477,
12.700095,0.0283,0.9571,-0.3151,0.3767,-0.3326,0.6354,0.4251,0.2111,1.5477,
12.713620,-0.0216,0.9890,-0.2933,0.3767,-0.3326,0.6354,0.4251,0.2111,1.5477,
12.716212,-0.0216,0.9890,-0.2933,0.3767,-0.3326,0.6354,0.4448,0.2058,1.1915,
12.720114,-0.0216,0.9890,-0.2933,0.3762,0.2237,-1.1325,0.4448,0.2058,1.1915,
12.741717,-0.0216,0.9890,-0.2933,-0.2012,-0.4712,-0.8346,0.4448,0.2058,1.1915,
12.760505,-0.0216,0.9890,-0.2933,0.7512,0.2682,-1.0919,0.4448,0.2058,1.1915,
12.780023,-0.0184,0.9674,-0.2665,0.7512,0.2682,-1.0919,0.4448,0.2058,1.1915,
12.782730,-0.0184,0.9674,-0.2665,0.7512,0.2682,-1.0919,0.2478,0.2691,1.1223,
12.783999,-0.0184,0.9674,-0.2665,-0.5608,-0.0579,-0.3817,0.2478,0.2691,1.1223,
12.800309,-0.0184,0.9674,-0.2665,0.4195,-0.1254,0.0069,0.2478,0.2691,1.1223,
12.821072,-0.0184,0.9674,-0.2665,1.4461,0.1848,0.1114,0.2478,0.2691,1.1223,
12.841702,-0.0184,0.9674,-0.2665,0.6372,0.1132,-0.0366,0.2478,0.2691,1.1223,
12.845668,0.1649,0.9696,-0.2880,0.6372,0.1132,-0.0366,0.2478,0.2691,1.1223,
12.847172,0.1649,0.9696,-0.2880,0.6372,0.1132,-0.0366,0.1861,0.1179,0.7997,
12.860136,0.1649,0.9696,-0.2880,0.5345,-0.0659,-0.1963,0.1861,0.1179,0.7997,
12.880117,0.1649,0.9696,-0.2880,0.7221,0.0295,-0.2608,0.1861,0.1179,0.7997,
12.900108,0.1649,0.9696,-0.2880,0.4234,-0.2594,-0.4521,0.1861,0.1179,0.7997,
12.911882,0.1603,0.9578,-0.2481,0.4234,-0.2594,-0.4521,0.1861,0.1179,0.7997,
12.915090,0.1603,0.9578,-0.2481,0.4234,-0.2594,-0.4521,0.1472,-0.0598,0.5607,
12.920111,0.1603,0.9578,-0.2481,-0.5610,0.3250,-0.0634,0.1472,-0.0598,0.5607,
12.942414,0.1603,0.9578,-0.2481,0.3720,0.0445,-0.0614,0.1472,-0.0598,0.5607,
12.960225,0.1603,0.9578,-0.2481,-0.3225,-0.1395,0.1325,0.1472,-0.0598,0.5607,
12.979065,0.1439,0.9581,-0.2196,-0.3225,-0.1395,0.1325,0.1472,-0.0598,0.5607,
12.982959,0.1439,0.9581,-0.2196,-0.3225,-0.1395,0.1325,0.1398,-0.0625,0.5208,
12.984024,0.1439,0.9581,-0.2196,-0.4142,0.0929,0.4174,0.1398,-0.0625,0.5208,
12.999932,0.1439,0.9581,-0.2196,-0.7336,0.2345,-0.0572,0.1398,-0.0625,0.5208,
13.020166,0.1439,0.9581,-0.2196,-0.0880,-0.8245,-0.4246,0.1398,-0.0625,0.5208,
13.040535,0.1439,0.9581,-0.2196,-0.2455,0.3810,-0.1536,0.1398,-0.0625,0.5208,
13.044789,0.1610,1.0053,-0.2754,-0.2455,0.3810,-0.1536,0.1398,-0.0625,0.5208,
13.046367,0.1610,1.0053,-0.2754,-0.2455,0.3810,-0.1536,0.1376,0.2787,0.6475,
13.060181,0.1610,1.0053,-0.2754,-0.3638,0.3000,-0.5259,0.1376,0.2787,0.6475,
13.080249,0.1610,1.0053,-0.2754,0.4252,-1.0168,-1.2634,0.1376,0.2787,0.6475,
13.099928,0.1610,1.0053,-0.2754,-0.1083,0.7924,0.1576,0.1376,0.2787,0.6475,
13.109556,0.3237,1.0345,-0.3269,-0.1083,0.7924,0.1576,0.1376,0.2787,0.6475,
13.112111,0.3237,1.0345,-0.3269,-0.1083,0.7924,0.1576,0.0924,0.4778,0.5501,
13.119999,0.3237,1.0345,-0.3269,-0.0040,0.5667,0.3280,0.0924,0.4778,0.5501,
13.140821,0.3237,1.0345,-0.3269,-1.3627,-0.2311,0.7239,0.0924,0.4778,0.5501,
13.159904,0.3237,1.0345,-0.3269,-0.6552,-0.3497,0.2968,0.0924,0.4778,0.5501,
13.176000,0.2181,0.9993,-0.3663,-0.6552,-0.3497,0.2968,0.0924,0.4778,0.5501,
13.178431,0.2181,0.9993,-0.3663,-0.6552,-0.3497,0.2968,0.1121,0.2489,0.8375,
13.180119,0.2181,0.9993,-0.3663,-1.0345,0.8541,-0.9037,0.1121,0.2489,0.8375,
13.200118,0.2181,0.9993,-0.3663,-1.9735,0.4530,-0.3614,0.1121,0.2489,0.8375,
13.220358,0.2181,0.9993,-0.3663,-0.4639,-0.2074,-0.2640,0.1121,0.2489,0.8375,
13.240587,0.2181,0.9993,-0.3663,-0.0423,0.4986,0.6281,0.1121,0.2489,0.8375,
13.243207,0.3704,0.9569,-0.1983,-0.0423,0.4986,0.6281,0.1121,0.2489,0.8375,
13.244190,0.3704,0.9569,-0.1983,-0.0423,0.4986,0.6281,0.1392,0.2627,1.1537,
13.260230,0.3704,0.9569,-0.1983,-0.1171,0.8979,0.4488,0.1392,0.2627,1.1537,
13.280050,0.3704,0.9569,-0.1983,-0.8786,0.8763,-1.5624,0.1392,0.2627,1.1537,
13.300436,0.3704,0.9569,-0.1983,-1.9413,3.5128,-0.2584,0.1392,0.2627,1.1537,
13.309541,0.1963,1.1240,-0.2909,-1.9413,3.5128,-0.2584,0.1392,0.2627,1.1537,
13.312311,0.1963,1.1240,-0.2909,-1.9413,3.5128,-0.2584,-0.0077,0.4054,1.3608,
13.320134,0.1963,1.1240,-0.2909,-1.9446,1.9832,0.1172,-0.0077,0.4054,1.3608,
13.340734,0.1963,1.1240,-0.2909,-1.8320,2.4193,0.2075,-0.0077,0.4054,1.3608,
13.360783,0.1963,1.1240,-0.2909,-2.4322,3.4620,-0.4610,-0.0077,0.4054,1.3608,
13.375846,0.2200,1.2180,-0.3563,-2.4322,3.4620,-0.4610,-0.0077,0.4054,1.3608,
13.378660,0.2200,1.2180,-0.3563,-2.4322,3.4620,-0.4610,-0.1652,0.3985,1.8537,
13.380543,0.2200,1.2180,-0.3563,-3.3058,4.2900,-1.0175,-0.1652,0.3985,1.8537,
13.400061,0.2200,1.2180,-0.3563,-3.9108,5.2044,-1.3012,-0.1652,0.3985,1.8537,
13.420493,0.2200,1.2180,-0.3563,-4.0253,6.0474,-0.5872,-0.1652,0.3985,1.8537,
13.440139,0.3284,1.3514,-0.2453,-4.0253,6.0474,-0.5872,-0.1652,0.3985,1.8537,
13.443283,0.3284,1.3514,-0.2453,-4.0253,6.0474,-0.5872,0.1792,1.2220,2.0134,
13.444891,0.3284,1.3514,-0.2453,-3.2629,6.1537,-0.0989,0.1792,1.2220,2.0134,
13.461032,0.3284,1.3514,-0.2453,-2.5087,5.3048,-1.3717,0.1792,1.2220,2.0134,
13.480299,0.3284,1.3514,-0.2453,-2.8257,2.7847,-3.1532,0.1792,1.2220,2.0134,
13.500260,0.3284,1.3514,-0.2453,-1.7771,3.9925,-3.8105,0.1792,1.2220,2.0134,
13.505563,0.5502,1.1053,-0.4808,-1.7771,3.9925,-3.8105,0.1792,1.2220,2.0134,
13.507811,0.5502,1.1053,-0.4808,-1.7771,3.9925,-3.8105,-0.1147,-0.4176,2.4435,
13.521732,0.5502,1.1053,-0.4808,-2.2615,4.3964,-2.2975,-0.1147,-0.4176,2.4435,
13.543357,0.5502,1.1053,-0.4808,-2.5301,2.9201,-1.9632,-0.1147,-0.4176,2.4435,
13.560953,0.5502,1.1053,-0.4808,-4.2901,-2.4900,-0.4507,-0.1147,-0.4176,2.4435,
13.571579,0.7606,-0.6643,-0.4412,-4.2901,-2.4900,-0.4507,-0.1147,-0.4176,2.4435,
13.573697,0.7606,-0.6643,-0.4412,-4.2901,-2.4900,-0.4507,-0.6890,-0.0476,0.3121,
13.580290,0.7606,-0.6643,-0.4412,0.9476,-13.1905,-1.7788,-0.6890,-0.0476,0.3121,
13.603429,0.7606,-0.6643,-0.4412,-0.2049,-5.3143,0.3466,-0.6890,-0.0476,0.3121,
13.621433,0.7606,-0.6643,-0.4412,-2.7341,-2.0850,-0.3136,-0.6890,-0.0476,0.3121,
13.638456,0.2784,0.4381,-0.2370,-2.7341,-2.0850,-0.3136,-0.6890,-0.0476,0.3121,
13.642776,0.2784,0.4381,-0.2370,-2.7341,-2.0850,-0.3136,-1.3896,-0.9110,-0.9063,
13.644387,0.2784,0.4381,-0.2370,-5.1641,-1.2676,-0.5172,-1.3896,-0.9110,-0.9063,
13.660599,0.2784,0.4381,-0.2370,-5.7782,-1.2341,-0.6967,-1.3896,-0.9110,-0.9063,
13.680283,0.2784,0.4381,-0.2370,-4.5804,-0.5593,-0.1410,-1.3896,-0.9110,-0.9063,
13.700753,0.2784,0.4381,-0.2370,-1.6490,-1.2041,-0.7883,-1.3896,-0.9110,-0.9063,
13.703535,0.6260,0.5069,-0.2879,-1.6490,-1.2041,-0.7883,-1.3896,-0.9110,-0.9063,
13.706253,0.6260,0.5069,-0.2879,-1.6490,-1.2041,-0.7883,-1.7920,-1.9278,-2.2324,
13.720271,0.6260,0.5069,-0.2879,-0.0742,-1.6917,-0.7610,-1.7920,-1.9278,-2.2324,
13.740568,0.6260,0.5069,-0.2879,0.1751,-1.4182,-0.7874,-1.7920,-1.9278,-2.2324,
13.760492,0.6260,0.5069,-0.2879,-0.3269,-1.4201,-1.2690,-1.7920,-1.9278,-2.2324,
13.769774,0.5638,0.6888,-0.3338,-0.3269,-1.4201,-1.2690,-1.7920,-1.9278,-2.2324,
13.771702,0.5638,0.6888,-0.3338,-0.3269,-1.4201,-1.2690,-2.1130,-2.0561,-3.0543,
13.781348,0.5638,0.6888,-0.3338,-0.0688,-0.7052,-1.4688,-2.1130,-2.0561,-3.0543,
13.800495,0.5638,0.6888,-0.3338,0.3437,0.5017,-1.5103,-2.1130,-2.0561,-3.0543,
13.820186,0.5638,0.6888,-0.3338,0.7876,2.1779,-1.5615,-2.1130,-2.0561,-3.0543,
13.835756,0.4677,1.1520,-0.3902,0.7876,2.1779,-1.5615,-2.1130,-2.0561,-3.0543,
13.838648,0.4677,1.1520,-0.3902,0.7876,2.1779,-1.5615,-2.3382,-3.9075,-2.6087,
13.840126,0.4677,1.1520,-0.3902,0.7111,2.3349,-2.5097,-2.3382,-3.9075,-2.6087,
13.860596,0.4677,1.1520,-0.3902,0.9522,1.9895,-3.0766,-2.3382,-3.9075,-2.6087,
13.880210,0.4677,1.1520,-0.3902,2.1598,0.2674,-3.2903,-2.3382,-3.9075,-2.6087,
13.900254,0.4677,1.1520,-0.3902,1.8401,-0.0793,-3.5685,-2.3382,-3.9075,-2.6087,
13.903085,0.3870,0.9680,-0.4667,1.8401,-0.0793,-3.5685,-2.3382,-3.9075,-2.6087,
13.904395,0.3870,0.9680,-0.4667,1.8401,-0.0793,-3.5685,-2.3840,-5.1441,-1.5606,
13.920100,0.3870,0.9680,-0.4667,0.8351,0.3971,-4.6328,-2.3840,-5.1441,-1.5606,
13.940866,0.3870,0.9680,-0.4667,0.7640,0.8275,-4.8913,-2.3840,-5.1441,-1.5606,
13.960363,0.3870,0.9680,-0.4667,3.0664,-0.5729,-5.0278,-2.3840,-5.1441,-1.5606,
13.967906,0.5536,0.8561,-0.6011,3.0664,-0.5729,-5.0278,-2.3840,-5.1441,-1.5606,
13.969594,0.5536,0.8561,-0.6011,3.0664,-0.5729,-5.0278,-1.5477,-5.8191,-0.4613,
13.980060,0.5536,0.8561,-0.6011,4.4245,-1.9430,-5.3710,-1.5477,-5.8191,-0.4613,
14.000068,0.5536,0.8561,-0.6011,5.8698,-0.3097,-4.9159,-1.5477,-5.8191,-0.4613,
14.020543,0.5536,0.8561,-0.6011,2.9296,-1.9335,-5.5780,-1.5477,-5.8191,-0.4613,
14.033806,0.2730,0.7997,-0.4769,2.9296,-1.9335,-5.5780,-1.5477,-5.8191,-0.4613,
14.036271,0.2730,0.7997,-0.4769,2.9296,-1.9335,-5.5780,-0.0423,-2.5596,0.7955,
14.040390,0.2730,0.7997,-0.4769,1.5033,-1.6226,-4.7451,-0.0423,-2.5596,0.7955,
14.060974,0.2730,0.7997,-0.4769,3.4537,-1.1537,-2.4076,-0.0423,-2.5596,0.7955,
14.080718,0.2730,0.7997,-0.4769,1.9472,-1.7395,-2.9434,-0.0423,-2.5596,0.7955,
14.102195,0.2178,0.9309,-0.3882,1.9472,-1.7395,-2.9434,-0.0423,-2.5596,0.7955,
14.105122,0.2178,0.9309,-0.3882,1.9472,-1.7395,-2.9434,0.0040,-2.8562,0.9759,
14.106592,0.2178,0.9309,-0.3882,0.0798,-0.5923,-3.6888,0.0040,-2.8562,0.9759,
14.120224,0.2178,0.9309,-0.3882,0.5249,0.9980,-2.5975,0.0040,-2.8562,0.9759,
14.139941,0.2178,0.9309,-0.3882,0.5895,0.8431,-1.6327,0.0040,-2.8562,0.9759,
14.161816,0.2178,0.9309,-0.3882,1.8390,0.9153,0.9122,0.0040,-2.8562,0.9759,
14.165841,0.5081,1.1011,0.1036,1.8390,0.9153,0.9122,0.0040,-2.8562,0.9759,
14.167918,0.5081,1.1011,0.1036,1.8390,0.9153,0.9122,0.0062,-2.5234,0.4165,
14.182023,0.5081,1.1011,0.1036,3.5657,1.2601,1.6064,0.0062,-2.5234,0.4165,
14.200689,0.5081,1.1011,0.1036,4.1182,-0.0046,0.6035,0.0062,-2.5234,0.4165,
14.220346,0.5081,1.1011,0.1036,4.3691,-0.3735,0.8474,0.0062,-2.5234,0.4165,
14.231777,0.6952,0.9973,-0.0244,4.3691,-0.3735,0.8474,0.0062,-2.5234,0.4165,
14.234846,0.6952,0.9973,-0.0244,4.3691,-0.3735,0.8474,0.3985,-0.0700,-0.4326,
14.240095,0.6952,0.9973,-0.0244,3.5907,0.5651,0.5349,0.3985,-0.0700,-0.4326,
14.260785,0.6952,0.9973,-0.0244,-0.8911,0.0844,-0.7267,0.3985,-0.0700,-0.4326,
14.280023,0.6952,0.9973,-0.0244,-0.3185,-0.9968,-1.1330,0.3985,-0.0700,-0.4326,
14.298535,0.2278,1.0249,-0.1628,-0.3185,-0.9968,-1.1330,0.3985,-0.0700,-0.4326,
14.301236,0.2278,1.0249,-0.1628,-0.3185,-0.9968,-1.1330,0.3506,-0.2611,-0.4177,
14.302835,0.2278,1.0249,-0.1628,0.0959,0.5295,-0.4345,0.3506,-0.2611,-0.4177,
14.320194,0.2278,1.0249,-0.1628,-0.5134,0.3153,-0.1195,0.3506,-0.2611,-0.4177,
14.340353,0.2278,1.0249,-0.1628,-0.7807,0.2958,0.2044,0.3506,-0.2611,-0.4177,
14.361832,0.2278,1.0249,-0.1628,-1.1077,-0.9484,-1.9057,0.3506,-0.2611,-0.4177,
14.365643,0.0681,0.8294,-0.3671,-1.1077,-0.9484,-1.9057,0.3506,-0.2611,-0.4177,
14.367146,0.0681,0.8294,-0.3671,-1.1077,-0.9484,-1.9057,0.3330,-0.5576,-0.1425,
14.380027,0.0681,0.8294,-0.3671,0.0693,-0.0557,-0.9730,0.3330,-0.5576,-0.1425,
14.400318,0.0681,0.8294,-0.3671,-0.3509,0.0859,-0.3323,0.3330,-0.5576,-0.1425,
14.420826,0.0681,0.8294,-0.3671,-0.7457,0.2438,0.6862,0.3330,-0.5576,-0.1425,
14.430411,0.1348,1.0139,-0.0581,-0.7457,0.2438,0.6862,0.3330,-0.5576,-0.1425,
14.433497,0.1348,1.0139,-0.0581,-0.7457,0.2438,0.6862,0.2414,-0.2776,-0.0903,
14.440130,0.1348,1.0139,-0.0581,-0.4720,0.2559,0.7498,0.2414,-0.2776,-0.0903,
14.460048,0.1348,1.0139,-0.0581,-0.8847,-0.8175,-0.6620,0.2414,-0.2776,-0.0903,
14.480419,0.1348,1.0139,-0.0581,0.6523,0.0664,-0.0920,0.2414,-0.2776,-0.0903,
14.496184,0.0520,0.9664,-0.2713,0.6523,0.0664,-0.0920,0.2414,-0.2776,-0.0903,
14.498746,0.0520,0.9664,-0.2713,0.6523,0.0664,-0.0920,0.1967,-0.0758,0.1237,
14.500902,0.0520,0.9664,-0.2713,-1.2894,-0.0705,-0.7729,0.1967,-0.0758,0.1237,
14.520286,0.0520,0.9664,-0.2713,-1.6099,-0.1763,-0.6370,0.1967,-0.0758,0.1237,
14.540338,0.0520,0.9664,-0.2713,-0.5413,0.1347,-0.6548,0.1967,-0.0758,0.1237,
14.560052,0.0520,0.9664,-0.2713,0.3835,-0.1396,-0.6082,0.1967,-0.0758,0.1237,
14.563715,0.2552,0.9475,-0.2723,0.3835,-0.1396,-0.6082,0.1967,-0.0758,0.1237,
14.564810,0.2552,0.9475,-0.2723,0.3835,-0.1396,-0.6082,0.0493,-0.2754,0.4335,
14.582704,0.2552,0.9475,-0.2723,0.9756,-0.0812,-0.8905,0.0493,-0.2754,0.4335,
14.600167,0.2552,0.9475,-0.2723,0.2097,0.0403,-0.4035,0.0493,-0.2754,0.4335,
14.620109,0.2552,0.9475,-0.2723,-1.4290,-0.2334,-0.7176,0.0493,-0.2754,0.4335,
14.630952,0.0865,0.9734,-0.2761,-1.4290,-0.2334,-0.7176,0.0493,-0.2754,0.4335,
14.634168,0.0865,0.9734,-0.2761,-1.4290,-0.2334,-0.7176,-0.0864,-0.3723,0.5905,
14.640095,0.0865,0.9734,-0.2761,-1.4848,-0.3355,0.0128,-0.0864,-0.3723,0.5905,
14.660738,0.0865,0.9734,-0.2761,0.8013,0.3151,-0.4156,-0.0864,-0.3723,0.5905,
14.681146,0.0865,0.9734,-0.2761,0.7739,-0.1334,-0.4057,-0.0864,-0.3723,0.5905,
14.694021,0.3286,0.9607,-0.2658,0.7739,-0.1334,-0.4057,-0.0864,-0.3723,0.5905,
14.696232,0.3286,0.9607,-0.2658,0.7739,-0.1334,-0.4057,-0.2509,-0.2387,0.4452,
14.701211,0.3286,0.9607,-0.2658,0.9698,0.0289,-0.6057,-0.2509,-0.2387,0.4452,
14.719995,0.3286,0.9607,-0.2658,0.5203,-0.1370,1.3788,-0.2509,-0.2387,0.4452,
14.740514,0.3286,0.9607,-0.2658,-1.6910,-0.4033,-0.5167,-0.2509,-0.2387,0.4452,
14.760212,0.1464,1.0152,-0.2904,-1.6910,-0.4033,-0.5167,-0.2509,-0.2387,0.4452,
14.764223,0.1464,1.0152,-0.2904,-1.6910,-0.4033,-0.5167,-0.3132,-0.2504,0.6485,
14.765674,0.1464,1.0152,-0.2904,-1.4570,0.6372,-0.9204,-0.3132,-0.2504,0.6485,
14.780809,0.1464,1.0152,-0.2904,-0.5679,-0.0153,-1.4043,-0.3132,-0.2504,0.6485,
14.800881,0.1464,1.0152,-0.2904,-0.4500,0.3906,0.6001,-0.3132,-0.2504,0.6485,
14.820470,0.1464,1.0152,-0.2904,-1.4736,0.5695,-0.3085,-0.3132,-0.2504,0.6485,
14.825649,0.1513,0.9856,-0.2543,-1.4736,0.5695,-0.3085,-0.3132,-0.2504,0.6485,
14.826985,0.1513,0.9856,-0.2543,-1.4736,0.5695,-0.3085,-0.5789,-0.5544,0.8359,
14.840156,0.1513,0.9856,-0.2543,-0.8359,0.5700,-1.3103,-0.5789,-0.5544,0.8359,
14.860223,0.1513,0.9856,-0.2543,-0.2569,0.4898,-1.2444,-0.5789,-0.5544,0.8359,
14.881574,0.1513,0.9856,-0.2543,-0.2861,0.9724,-1.0041,-0.5789,-0.5544,0.8359,
14.891726,0.3527,1.0132,-0.2208,-0.2861,0.9724,-1.0041,-0.5789,-0.5544,0.8359,
14.893548,0.3527,1.0132,-0.2208,-0.2861,0.9724,-1.0041,-0.9062,-0.4277,1.0153,
14.900392,0.3527,1.0132,-0.2208,-0.1937,1.0798,-0.4329,-0.9062,-0.4277,1.0153,
14.920286,0.3527,1.0132,-0.2208,0.3242,1.4292,0.2565,-0.9062,-0.4277,1.0153,
14.940439,0.3527,1.0132,-0.2208,-0.5366,1.5744,-0.6941,-0.9062,-0.4277,1.0153,
14.958430,0.3207,1.1264,-0.2254,-0.5366,1.5744,-0.6941,-0.9062,-0.4277,1.0153,
14.962487,0.3207,1.1264,-0.2254,-0.5366,1.5744,-0.6941,-1.0313,0.2111,1.1447,
14.964057,0.3207,1.1264,-0.2254,-1.0156,2.1787,-1.4704,-1.0313,0.2111,1.1447,
14.980532,0.3207,1.1264,-0.2254,-1.0820,3.7450,-0.7285,-1.0313,0.2111,1.1447,
15.000107,0.3207,1.1264,-0.2254,-1.6854,3.1247,-1.4283,-1.0313,0.2111,1.1447,
15.020429,0.3207,1.1264,-0.2254,-2.6966,2.1106,-1.9279,-1.0313,0.2111,1.1447,
15.024231,0.1728,1.0826,-0.2662,-2.6966,2.1106,-1.9279,-1.0313,0.2111,1.1447,
15.025551,0.1728,1.0826,-0.2662,-2.6966,2.1106,-1.9279,-1.2315,0.5081,1.2203,
15.040127,0.1728,1.0826,-0.2662,-3.8682,1.7144,-3.8934,-1.2315,0.5081,1.2203,
15.060552,0.1728,1.0826,-0.2662,-4.9767,1.1803,-4.2018,-1.2315,0.5081,1.2203,
15.080695,0.1728,1.0826,-0.2662,-3.3430,0.3668,-5.8472,-1.2315,0.5081,1.2203,
15.089772,0.4550,0.8994,-0.5488,-3.3430,0.3668,-5.8472,-1.2315,0.5081,1.2203,
15.091265,0.4550,0.8994,-0.5488,-3.3430,0.3668,-5.8472,-0.9946,-2.5463,1.7526,
15.100179,0.4550,0.8994,-0.5488,-0.6740,1.3214,-6.1330,-0.9946,-2.5463,1.7526,
15.119845,0.4550,0.8994,-0.5488,-1.1506,5.2607,-3.2332,-0.9946,-2.5463,1.7526,
15.140780,0.4550,0.8994,-0.5488,-0.1768,-2.7671,-2.1443,-0.9946,-2.5463,1.7526,
15.155771,0.5473,0.4880,-0.3253,-0.1768,-2.7671,-2.1443,-0.9946,-2.5463,1.7526,
15.158494,0.5473,0.4880,-0.3253,-0.1768,-2.7671,-2.1443,-1.0595,-2.5490,1.9251,
15.159642,0.5473,0.4880,-0.3253,-1.8412,-2.1027,-3.2367,-1.0595,-2.5490,1.9251,
15.180515,0.5473,0.4880,-0.3253,-5.3117,1.4211,-4.9422,-1.0595,-2.5490,1.9251,
15.200470,0.5473,0.4880,-0.3253,-7.3120,2.4158,-3.7246,-1.0595,-2.5490,1.9251,
15.220973,0.5473,0.4880,-0.3253,-5.2646,-0.6498,-3.4876,-1.0595,-2.5490,1.9251,
15.223671,0.2814,0.5773,-0.4568,-5.2646,-0.6498,-3.4876,-1.0595,-2.5490,1.9251,
15.224548,0.2814,0.5773,-0.4568,-5.2646,-0.6498,-3.4876,-1.1303,-4.1614,1.1133,
15.240266,0.2814,0.5773,-0.4568,-1.9677,-0.1943,-2.7076,-1.1303,-4.1614,1.1133,
15.260733,0.2814,0.5773,-0.4568,-1.0024,1.1268,-2.1719,-1.1303,-4.1614,1.1133,
15.280445,0.2814,0.5773,-0.4568,-1.6224,0.7859,-1.3963,-1.1303,-4.1614,1.1133,
15.287800,0.5436,0.6990,-0.3226,-1.6224,0.7859,-1.3963,-1.1303,-4.1614,1.1133,
15.289318,0.5436,0.6990,-0.3226,-1.6224,0.7859,-1.3963,-0.9360,-2.1636,-0.8302,
15.300684,0.5436,0.6990,-0.3226,-1.5992,0.2322,-0.4986,-0.9360,-2.1636,-0.8302,
15.320834,0.5436,0.6990,-0.3226,-1.4824,-0.1316,0.0717,-0.9360,-2.1636,-0.8302,
15.342482,0.5436,0.6990,-0.3226,-1.5179,0.3675,0.0650,-0.9360,-2.1636,-0.8302,
15.354383,0.5001,0.7923,-0.2473,-1.5179,0.3675,0.0650,-0.9360,-2.1636,-0.8302,
15.357421,0.5001,0.7923,-0.2473,-1.5179,0.3675,0.0650,-0.8881,-1.5355,-2.4677,
15.361155,0.5001,0.7923,-0.2473,-1.0685,0.5544,0.3404,-0.8881,-1.5355,-2.4677,
15.381135,0.5001,0.7923,-0.2473,-0.5473,0.4480,0.7070,-0.8881,-1.5355,-2.4677,
15.400653,0.5001,0.7923,-0.2473,0.0756,0.1691,0.9321,-0.8881,-1.5355,-2.4677,
15.420420,0.5464,0.8811,-0.2058,0.0756,0.1691,0.9321,-0.8881,-1.5355,-2.4677,
15.424151,0.5464,0.8811,-0.2058,0.0756,0.1691,0.9321,-0.9637,-1.0180,-3.5621,
15.426054,0.5464,0.8811,-0.2058,0.9611,0.2260,0.6990,-0.9637,-1.0180,-3.5621,
15.440252,0.5464,0.8811,-0.2058,1.3938,0.6713,0.6895,-0.9637,-1.0180,-3.5621,
15.460523,0.5464,0.8811,-0.2058,2.0607,1.4584,0.2883,-0.9637,-1.0180,-3.5621,
15.480195,0.5464,0.8811,-0.2058,2.9575,1.4543,0.1012,-0.9637,-1.0180,-3.5621,
15.485723,0.5105,1.0577,-0.2212,2.9575,1.4543,0.1012,-0.9637,-1.0180,-3.5621,
15.487690,0.5105,1.0577,-0.2212,2.9575,1.4543,0.1012,-0.6630,0.0903,-4.0950,
15.500032,0.5105,1.0577,-0.2212,3.2337,0.6755,0.1160,-0.6630,0.0903,-4.0950,
15.520480,0.5105,1.0577,-0.2212,3.8630,0.5907,-0.1024,-0.6630,0.0903,-4.0950,
15.540263,0.5105,1.0577,-0.2212,4.6338,0.8184,-0.2939,-0.6630,0.0903,-4.0950,
15.552127,0.4141,1.1080,-0.2231,4.6338,0.8184,-0.2939,-0.6630,0.0903,-4.0950,
15.555266,0.4141,1.1080,-0.2231,4.6338,0.8184,-0.2939,-0.4708,0.1754,-3.9869,
15.559939,0.4141,1.1080,-0.2231,4.2755,1.3764,-0.4285,-0.4708,0.1754,-3.9869,
15.580201,0.4141,1.1080,-0.2231,4.5180,-0.1586,-0.8002,-0.4708,0.1754,-3.9869,
15.601839,0.4141,1.1080,-0.2231,5.0014,0.3969,-1.0040,-0.4708,0.1754,-3.9869,
15.618911,0.3302,0.9077,-0.2464,5.0014,0.3969,-1.0040,-0.4708,0.1754,-3.9869,
15.622432,0.3302,0.9077,-0.2464,5.0014,0.3969,-1.0040,-0.3563,-0.1189,-2.2904,
15.623962,0.3302,0.9077,-0.2464,6.0298,-0.3563,-0.7059,-0.3563,-0.1189,-2.2904,
15.640233,0.3302,0.9077,-0.2464,6.1179,-1.4302,-0.1731,-0.3563,-0.1189,-2.2904,
15.659973,0.3302,0.9077,-0.2464,5.6062,-1.6559,0.2231,-0.3563,-0.1189,-2.2904,
15.680019,0.3302,0.9077,-0.2464,4.0457,3.7529,-0.0057,-0.3563,-0.1189,-2.2904,
15.683385,-0.1146,1.6801,-0.2689,4.0457,3.7529,-0.0057,-0.3563,-0.1189,-2.2904,
15.684966,-0.1146,1.6801,-0.2689,4.0457,3.7529,-0.0057,0.4283,-0.3313,0.5852,
15.701775,-0.1146,1.6801,-0.2689,0.0838,8.4681,-1.5169,0.4283,-0.3313,0.5852,
15.720185,-0.1146,1.6801,-0.2689,4.3231,-2.0549,-1.8787,0.4283,-0.3313,0.5852,
15.740091,-0.1146,1.6801,-0.2689,2.4449,-1.6147,-3.5994,0.4283,-0.3313,0.5852,
15.750806,-0.6207,1.4054,-0.3174,2.4449,-1.6147,-3.5994,0.4283,-0.3313,0.5852,
15.753670,-0.6207,1.4054,-0.3174,2.4449,-1.6147,-3.5994,0.0131,0.0929,-0.2213,
15.759972,-0.6207,1.4054,-0.3174,-3.6943,4.0539,1.6478,0.0131,0.0929,-0.2213,
15.780482,-0.6207,1.4054,-0.3174,1.1789,-1.2366,5.2918,0.0131,0.0929,-0.2213,
15.801051,-0.6207,1.4054,-0.3174,2.7051,1.7474,4.4079,0.0131,0.0929,-0.2213,
15.818197,-0.0466,1.0178,-0.0711,2.7051,1.7474,4.4079,0.0131,0.0929,-0.2213,
15.821021,-0.0466,1.0178,-0.0711,2.7051,1.7474,4.4079,0.4267,0.3660,1.2634,
15.822583,-0.0466,1.0178,-0.0711,2.5662,0.8438,0.5922,0.4267,0.3660,1.2634,
15.841501,-0.0466,1.0178,-0.0711,3.9558,0.4662,-4.9533,0.4267,0.3660,1.2634,
15.860518,-0.0466,1.0178,-0.0711,-0.0026,-0.0375,-3.8473,0.4267,0.3660,1.2634,
15.882095,-0.0466,1.0178,-0.0711,1.0167,-0.4409,0.2159,0.4267,0.3660,1.2634,
15.885214,-0.0640,0.9377,-0.1280,1.0167,-0.4409,0.2159,0.4267,0.3660,1.2634,
15.886683,-0.0640,0.9377,-0.1280,1.0167,-0.4409,0.2159,0.2329,0.4528,1.2613,
15.901798,-0.0640,0.9377,-0.1280,2.5638,0.5852,1.7872,0.2329,0.4528,1.2613,
15.920254,-0.0640,0.9377,-0.1280,0.9472,0.2957,0.6503,0.2329,0.4528,1.2613,
15.940782,-0.0640,0.9377,-0.1280,-0.0361,-0.1291,-0.8895,0.2329,0.4528,1.2613,
15.947404,-0.2083,0.9398,-0.3312,-0.0361,-0.1291,-0.8895,0.2329,0.4528,1.2613,
15.948858,-0.2083,0.9398,-0.3312,-0.0361,-0.1291,-0.8895,0.3564,0.4033,1.0643,
15.959978,-0.2083,0.9398,-0.3312,-0.3537,-0.5419,-0.8939,0.3564,0.4033,1.0643,
15.980116,-0.2083,0.9398,-0.3312,0.2359,-0.1681,-0.5866,0.3564,0.4033,1.0643,
16.000188,-0.2083,0.9398,-0.3312,0.5492,-0.1233,-0.1303,0.3564,0.4033,1.0643,
16.013847,-0.0063,0.9645,-0.2372,0.5492,-0.1233,-0.1303,0.3564,0.4033,1.0643,
16.015242,-0.0063,0.9645,-0.2372,0.5492,-0.1233,-0.1303,0.3117,0.5193,0.9424,
16.020630,-0.0063,0.9645,-0.2372,0.5718,0.0245,0.1199,0.3117,0.5193,0.9424,
16.040188,-0.0063,0.9645,-0.2372,0.7407,0.0220,-0.4925,0.3117,0.5193,0.9424,
16.060027,-0.0063,0.9645,-0.2372,0.9884,0.1602,-0.5020,0.3117,0.5193,0.9424,
16.079593,0.0743,0.9418,-0.3493,0.9884,0.1602,-0.5020,0.3117,0.5193,0.9424,
16.082105,0.0743,0.9418,-0.3493,0.9884,0.1602,-0.5020,0.2308,0.4480,0.7268,
16.083612,0.0743,0.9418,-0.3493,0.7844,-0.1704,-0.5802,0.2308,0.4480,0.7268,
16.100410,0.0743,0.9418,-0.3493,-0.1234,0.0006,-0.1350,0.2308,0.4480,0.7268,
16.120230,0.0743,0.9418,-0.3493,-0.1592,-0.2586,-0.9111,0.2308,0.4480,0.7268,
16.140335,0.0743,0.9418,-0.3493,0.3504,0.0325,-0.3488,0.2308,0.4480,0.7268,
16.145526,0.1635,0.9644,-0.3291,0.3504,0.0325,-0.3488,0.2308,0.4480,0.7268,
16.146828,0.1635,0.9644,-0.3291,0.3504,0.0325,-0.3488,0.1701,0.3053,0.7417,
16.160572,0.1635,0.9644,-0.3291,1.0101,0.0805,-0.2903,0.1701,0.3053,0.7417,
16.180563,0.1635,0.9644,-0.3291,-0.0063,-0.1551,-0.0283,0.1701,0.3053,0.7417,
16.200422,0.1635,0.9644,-0.3291,-0.0874,-0.3696,-0.2672,0.1701,0.3053,0.7417,
16.211695,-0.0377,0.9735,-0.3218,-0.0874,-0.3696,-0.2672,0.1701,0.3053,0.7417,
16.213355,-0.0377,0.9735,-0.3218,-0.0874,-0.3696,-0.2672,0.1499,0.1637,0.8237,
16.220045,-0.0377,0.9735,-0.3218,-0.8030,0.3505,-0.2969,0.1499,0.1637,0.8237,
16.240166,-0.0377,0.9735,-0.3218,-0.4042,-0.2496,-0.2765,0.1499,0.1637,0.8237,
16.260692,-0.0377,0.9735,-0.3218,-0.2163,-0.6405,0.7521,0.1499,0.1637,0.8237,
16.278261,0.0814,1.0223,-0.3087,-0.2163,-0.6405,0.7521,0.1499,0.1637,0.8237,
16.280501,0.0814,1.0223,-0.3087,-0.2163,-0.6405,0.7521,0.1808,0.1712,1.0749,
16.281959,0.0814,1.0223,-0.3087,-0.7830,0.8547,0.1224,0.1808,0.1712,1.0749,
16.300051,0.0814,1.0223,-0.3087,0.2759,0.4363,-0.6669,0.1808,0.1712,1.0749,
16.320156,0.0814,1.0223,-0.3087,0.6018,-0.8017,-1.5396,0.1808,0.1712,1.0749,
16.340689,0.0814,1.0223,-0.3087,-0.6625,0.4741,-0.0264,0.1808,0.1712,1.0749,
16.343596,0.2263,0.9609,-0.3506,-0.6625,0.4741,-0.0264,0.1808,0.1712,1.0749,
16.344917,0.2263,0.9609,-0.3506,-0.6625,0.4741,-0.0264,0.1483,0.3229,1.0105,
16.360282,0.2263,0.9609,-0.3506,0.0859,-0.0492,0.2022,0.1483,0.3229,1.0105,
16.380161,0.2263,0.9609,-0.3506,-0.8654,-0.2152,-0.3994,0.1483,0.3229,1.0105,
16.400390,0.2263,0.9609,-0.3506,-1.1937,0.6827,0.3083,0.1483,0.3229,1.0105,
16.409762,0.3096,0.9315,-0.3371,-1.1937,0.6827,0.3083,0.1483,0.3229,1.0105,
16.411455,0.3096,0.9315,-0.3371,-1.1937,0.6827,0.3083,0.2446,0.3282,1.2660,
16.420670,0.3096,0.9315,-0.3371,-0.3426,-0.4028,-0.3702,0.2446,0.3282,1.2660,
16.440516,0.3096,0.9315,-0.3371,-0.5097,0.5206,-0.0852,0.2446,0.3282,1.2660,
16.460226,0.3096,0.9315,-0.3371,-0.1554,0.4037,0.0446,0.2446,0.3282,1.2660,
16.475762,0.3896,0.9054,-0.3185,-0.1554,0.4037,0.0446,0.2446,0.3282,1.2660,
16.478626,0.3896,0.9054,-0.3185,-0.1554,0.4037,0.0446,0.1632,0.4368,1.5477,
16.479740,0.3896,0.9054,-0.3185,0.1071,0.6006,0.1401,0.1632,0.4368,1.5477,
16.500624,0.3896,0.9054,-0.3185,-0.5813,2.7623,0.0235,0.1632,0.4368,1.5477,
16.520531,0.3896,0.9054,-0.3185,-1.9593,2.0538,-1.1166,0.1632,0.4368,1.5477,
16.540162,0.3896,0.9054,-0.3185,-1.5368,2.4658,-0.9215,0.1632,0.4368,1.5477,
16.543651,0.3285,1.0965,-0.4090,-1.5368,2.4658,-0.9215,0.1632,0.4368,1.5477,
16.544972,0.3285,1.0965,-0.4090,-1.5368,2.4658,-0.9215,-0.0838,0.2723,1.5807,
16.560713,0.3285,1.0965,-0.4090,-1.8152,3.1402,-0.2412,-0.0838,0.2723,1.5807,
16.580759,0.3285,1.0965,-0.4090,-2.8277,3.7613,0.0758,-0.0838,0.2723,1.5807,
16.600254,0.3285,1.0965,-0.4090,-4.0120,4.7320,0.3237,-0.0838,0.2723,1.5807,
16.607839,0.1080,1.2834,-0.2817,-4.0120,4.7320,0.3237,-0.0838,0.2723,1.5807,
16.609644,0.1080,1.2834,-0.2817,-4.0120,4.7320,0.3237,-0.0258,0.7934,1.8867,
16.621345,0.1080,1.2834,-0.2817,-4.4049,5.8250,0.3907,-0.0258,0.7934,1.8867,
16.640245,0.1080,1.2834,-0.2817,-4.2288,7.8438,0.3323,-0.0258,0.7934,1.8867,
16.660771,0.1080,1.2834,-0.2817,-3.0433,5.2745,-0.0070,-0.0258,0.7934,1.8867,
16.673687,0.5533,0.8660,-0.4004,-3.0433,5.2745,-0.0070,-0.0258,0.7934,1.8867,
16.676601,0.5533,0.8660,-0.4004,-3.0433,5.2745,-0.0070,0.8148,0.3117,2.2892,
16.679916,0.5533,0.8660,-0.4004,-1.0524,1.4152,-1.6869,0.8148,0.3117,2.2892,
16.700227,0.5533,0.8660,-0.4004,0.9811,3.5848,-0.9969,0.8148,0.3117,2.2892,
16.721107,0.5533,0.8660,-0.4004,-2.7244,4.4357,-0.6804,0.8148,0.3117,2.2892,
16.740373,0.3659,0.8264,-0.3765,-2.7244,4.4357,-0.6804,0.8148,0.3117,2.2892,
16.744049,0.3659,0.8264,-0.3765,-2.7244,4.4357,-0.6804,0.5896,0.7684,1.2213,
16.745706,0.3659,0.8264,-0.3765,-4.0138,2.6336,-0.7432,0.5896,0.7684,1.2213,
16.761490,0.3659,0.8264,-0.3765,-6.5505,4.3675,0.8001,0.5896,0.7684,1.2213,
16.780210,0.3659,0.8264,-0.3765,-2.4044,-7.3480,-1.5464,0.5896,0.7684,1.2213,
16.800249,0.3659,0.8264,-0.3765,1.7997,-5.5642,0.5098,0.5896,0.7684,1.2213,
16.805691,0.9377,0.1610,-0.1623,1.7997,-5.5642,0.5098,0.5896,0.7684,1.2213,
16.807203,0.9377,0.1610,-0.1623,1.7997,-5.5642,0.5098,0.0461,0.7264,0.2674,
16.822312,0.9377,0.1610,-0.1623,0.6423,-1.3148,0.6532,0.0461,0.7264,0.2674,
16.841172,0.9377,0.1610,-0.1623,-3.1884,-0.9582,0.7625,0.0461,0.7264,0.2674,
16.861510,0.9377,0.1610,-0.1623,-6.1989,-1.4017,0.0243,0.0461,0.7264,0.2674,
16.871886,0.0947,0.4367,-0.2763,-6.1989,-1.4017,0.0243,0.0461,0.7264,0.2674,
16.874970,0.0947,0.4367,-0.2763,-6.1989,-1.4017,0.0243,-0.4170,-0.3617,-1.6505,
16.880172,0.0947,0.4367,-0.2763,-7.0801,-0.7542,-0.5235,-0.4170,-0.3617,-1.6505,
16.900736,0.0947,0.4367,-0.2763,-4.4462,0.4678,-0.3960,-0.4170,-0.3617,-1.6505,
16.921492,0.0947,0.4367,-0.2763,-1.6486,-0.2194,0.1441,-0.4170,-0.3617,-1.6505,
16.940046,0.6500,0.5628,-0.2399,-1.6486,-0.2194,0.1441,-0.4170,-0.3617,-1.6505,
16.943690,0.6500,0.5628,-0.2399,-1.6486,-0.2194,0.1441,-0.7758,-1.0627,-3.0479,
16.945608,0.6500,0.5628,-0.2399,-0.5642,-0.9844,0.1248,-0.7758,-1.0627,-3.0479,
16.960303,0.6500,0.5628,-0.2399,-0.3261,-1.1036,-0.3890,-0.7758,-1.0627,-3.0479,
16.980722,0.6500,0.5628,-0.2399,-0.3705,-0.9984,-0.8055,-0.7758,-1.0627,-3.0479,
17.001158,0.6500,0.5628,-0.2399,-0.1196,-0.3389,-0.7960,-0.7758,-1.0627,-3.0479,
17.004959,0.5450,0.8248,-0.3247,-0.1196,-0.3389,-0.7960,-0.7758,-1.0627,-3.0479,
17.006831,0.5450,0.8248,-0.3247,-0.1196,-0.3389,-0.7960,-0.9424,-1.0633,-3.8395,
17.022130,0.5450,0.8248,-0.3247,0.9485,0.7176,-0.5861,-0.9424,-1.0633,-3.8395,
17.040152,0.5450,0.8248,-0.3247,0.8082,1.0517,-0.9758,-0.9424,-1.0633,-3.8395,
17.060837,0.5450,0.8248,-0.3247,2.4495,2.5340,-0.8657,-0.9424,-1.0633,-3.8395,
17.072366,0.7070,1.1934,-0.3207,2.4495,2.5340,-0.8657,-0.9424,-1.0633,-3.8395,
17.075275,0.7070,1.1934,-0.3207,2.4495,2.5340,-0.8657,-0.6246,-1.1586,-4.3068,
17.080233,0.7070,1.1934,-0.3207,4.6613,2.1185,-0.7981,-0.6246,-1.1586,-4.3068,
17.100164,0.7070,1.1934,-0.3207,4.4822,1.2668,-0.7169,-0.6246,-1.1586,-4.3068,
17.120099,0.7070,1.1934,-0.3207,5.1330,0.9597,-0.8265,-0.6246,-1.1586,-4.3068,
17.135223,0.5288,1.0517,-0.2912,5.1330,0.9597,-0.8265,-0.6246,-1.1586,-4.3068,
17.136907,0.5288,1.0517,-0.2912,5.1330,0.9597,-0.8265,-0.5320,-0.4751,-4.0189,
17.141183,0.5288,1.0517,-0.2912,5.1127,0.6991,-0.7721,-0.5320,-0.4751,-4.0189,
17.160776,0.5288,1.0517,-0.2912,3.8014,2.1568,-1.0168,-0.5320,-0.4751,-4.0189,
17.182648,0.5288,1.0517,-0.2912,3.3666,0.6635,-0.0540,-0.5320,-0.4751,-4.0189,
17.199919,0.5288,1.0517,-0.2912,4.3044,-1.0662,0.0610,-0.5320,-0.4751,-4.0189,
17.202578,0.2160,0.8463,-0.1716,4.3044,-1.0662,0.0610,-0.5320,-0.4751,-4.0189,
17.203371,0.2160,0.8463,-0.1716,4.3044,-1.0662,0.0610,-0.2142,-0.7338,-1.7921,
17.220834,0.2160,0.8463,-0.1716,4.5845,-1.4910,-0.1935,-0.2142,-0.7338,-1.7921,
17.240206,0.2160,0.8463,-0.1716,4.3029,2.5998,-0.4298,-0.2142,-0.7338,-1.7921,
17.260718,0.2160,0.8463,-0.1716,2.6670,1.9286,-1.2645,-0.2142,-0.7338,-1.7921,
17.267362,0.0022,1.0186,-0.2598,2.6670,1.9286,-1.2645,-0.2142,-0.7338,-1.7921,
17.268409,0.0022,1.0186,-0.2598,2.6670,1.9286,-1.2645,0.1467,-1.3369,0.8349,
17.279928,0.0022,1.0186,-0.2598,3.9634,0.9074,-1.3526,0.1467,-1.3369,0.8349,
17.300401,0.0022,1.0186,-0.2598,5.8462,0.2886,-1.4351,0.1467,-1.3369,0.8349,
17.320221,0.0022,1.0186,-0.2598,3.2487,0.6297,-0.3507,0.1467,-1.3369,0.8349,
17.333119,-0.3093,1.0349,-0.1824,3.2487,0.6297,-0.3507,0.1467,-1.3369,0.8349,
17.334743,-0.3093,1.0349,-0.1824,3.2487,0.6297,-0.3507,0.1510,0.1563,0.0853,
17.339831,-0.3093,1.0349,-0.1824,-1.2153,0.4696,0.0461,0.1510,0.1563,0.0853,
17.359989,-0.3093,1.0349,-0.1824,-0.4172,-0.4088,2.3737,0.1510,0.1563,0.0853,
17.380484,-0.3093,1.0349,-0.1824,1.6099,0.6050,3.2408,0.1510,0.1563,0.0853,
17.399518,0.0079,1.1212,-0.1474,1.6099,0.6050,3.2408,0.1510,0.1563,0.0853,
17.401785,0.0079,1.1212,-0.1474,1.6099,0.6050,3.2408,0.6439,0.1094,1.6254,
17.402357,0.0079,1.1212,-0.1474,2.0164,1.5339,0.7556,0.6439,0.1094,1.6254,
17.420168,0.0079,1.1212,-0.1474,3.3182,0.0183,-3.4574,0.6439,0.1094,1.6254,
17.439918,0.0079,1.1212,-0.1474,-0.5794,-0.4141,-2.4349,0.6439,0.1094,1.6254,
17.460581,0.0079,1.1212,-0.1474,1.1170,-0.6928,-0.5829,0.6439,0.1094,1.6254,
17.465567,-0.0084,0.9643,-0.1535,1.1170,-0.6928,-0.5829,0.6439,0.1094,1.6254,
17.466964,-0.0084,0.9643,-0.1535,1.1170,-0.6928,-0.5829,0.3202,0.2388,1.3597,
17.480085,-0.0084,0.9643,-0.1535,1.7905,0.3362,0.5148,0.3202,0.2388,1.3597,
17.500159,-0.0084,0.9643,-0.1535,1.7361,-0.3211,1.2186,0.3202,0.2388,1.3597,
17.520284,-0.0084,0.9643,-0.1535,1.0697,0.4258,-0.1612,0.3202,0.2388,1.3597,
17.531561,-0.0124,0.9547,-0.2815,1.0697,0.4258,-0.1612,0.3202,0.2388,1.3597,
17.533217,-0.0124,0.9547,-0.2815,1.0697,0.4258,-0.1612,0.3910,0.4208,1.0212,
17.540224,-0.0124,0.9547,-0.2815,0.2705,-0.2218,-0.9884,0.3910,0.4208,1.0212,
17.562061,-0.0124,0.9547,-0.2815,0.1648,-0.1995,-1.2983,0.3910,0.4208,1.0212,
17.580320,-0.0124,0.9547,-0.2815,-0.3514,-0.1459,0.4070,0.3910,0.4208,1.0212,
17.598612,0.0389,0.9714,-0.2847,-0.3514,-0.1459,0.4070,0.3910,0.4208,1.0212,
17.601428,0.0389,0.9714,-0.2847,-0.3514,-0.1459,0.4070,0.2553,0.3500,1.0872,
17.602518,0.0389,0.9714,-0.2847,-0.0147,-0.0278,-0.5071,0.2553,0.3500,1.0872,
17.620561,0.0389,0.9714,-0.2847,-0.5881,-0.2921,-0.2114,0.2553,0.3500,1.0872,
17.640725,0.0389,0.9714,-0.2847,1.5307,-0.1581,-0.6235,0.2553,0.3500,1.0872,
17.660232,0.0389,0.9714,-0.2847,1.1440,0.1743,0.3990,0.2553,0.3500,1.0872,
17.663601,0.2482,0.9822,-0.2187,1.1440,0.1743,0.3990,0.2553,0.3500,1.0872,
17.664956,0.2482,0.9822,-0.2187,1.1440,0.1743,0.3990,0.1989,0.3564,0.7710,
17.680202,0.2482,0.9822,-0.2187,1.0325,-0.0525,-0.0202,0.1989,0.3564,0.7710,
17.700605,0.2482,0.9822,-0.2187,-0.1391,-0.0532,0.1193,0.1989,0.3564,0.7710,
17.719992,0.2482,0.9822,-0.2187,1.7692,0.0314,-0.4791,0.1989,0.3564,0.7710,
17.729685,0.3005,0.9465,-0.3327,1.7692,0.0314,-0.4791,0.1989,0.3564,0.7710,
17.731324,0.3005,0.9465,-0.3327,1.7692,0.0314,-0.4791,0.1345,0.2010,0.4074,
17.740839,0.3005,0.9465,-0.3327,1.2455,-0.2504,-0.8112,0.1345,0.2010,0.4074,
17.760616,0.3005,0.9465,-0.3327,-0.0139,0.0016,-0.0108,0.1345,0.2010,0.4074,
17.780611,0.3005,0.9465,-0.3327,-0.6544,0.0184,0.0229,0.1345,0.2010,0.4074,
17.795950,0.1187,0.9163,-0.3349,-0.6544,0.0184,0.0229,0.1345,0.2010,0.4074,
17.799096,0.1187,0.9163,-0.3349,-0.6544,0.0184,0.0229,0.1243,0.1105,0.5277,
17.800255,0.1187,0.9163,-0.3349,-0.3440,-0.3826,-0.8997,0.1243,0.1105,0.5277,
17.820150,0.1187,0.9163,-0.3349,-1.4660,0.2802,-0.0765,0.1243,0.1105,0.5277,
17.840201,0.1187,0.9163,-0.3349,-0.1241,-0.2279,0.1821,0.1243,0.1105,0.5277,
17.863309,0.1187,0.9163,-0.3349,-0.2141,-0.0151,0.2379,0.1243,0.1105,0.5277,
17.866006,0.1860,0.9625,-0.2636,-0.2141,-0.0151,0.2379,0.1243,0.1105,0.5277,
17.867102,0.1860,0.9625,-0.2636,-0.2141,-0.0151,0.2379,0.1339,0.0679,0.7651,
17.880486,0.1860,0.9625,-0.2636,0.4989,0.4280,-0.3257,0.1339,0.0679,0.7651,
17.900105,0.1860,0.9625,-0.2636,-0.6462,-0.5418,-0.9447,0.1339,0.0679,0.7651,
17.920005,0.1860,0.9625,-0.2636,-1.0565,-0.0958,0.1266,0.1339,0.0679,0.7651,
17.927706,0.1516,0.9782,-0.2388,-1.0565,-0.0958,0.1266,0.1339,0.0679,0.7651,
17.931469,0.1516,0.9782,-0.2388,-1.0565,-0.0958,0.1266,0.1100,0.2878,0.9030,
17.942515,0.1516,0.9782,-0.2388,-0.6654,0.7867,0.0066,0.1100,0.2878,0.9030,
17.960250,0.1516,0.9782,-0.2388,-0.4481,0.1406,0.1975,0.1100,0.2878,0.9030,
17.980552,0.1516,0.9782,-0.2388,-0.8086,0.1408,-0.3717,0.1100,0.2878,0.9030,
17.993883,0.1892,0.9654,-0.2393,-0.8086,0.1408,-0.3717,0.1100,0.2878,0.9030,
17.997109,0.1892,0.9654,-0.2393,-0.8086,0.1408,-0.3717,0.1323,0.2308,1.2176,
18.000012,0.1892,0.9654,-0.2393,-1.4763,0.6890,0.2812,0.1323,0.2308,1.2176,
18.020498,0.1892,0.9654,-0.2393,-0.0528,-0.1283,-0.4565,0.1323,0.2308,1.2176,
18.040088,0.1892,0.9654,-0.2393,0.7335,0.1862,-0.3821,0.1323,0.2308,1.2176,
18.060582,0.4108,0.9667,-0.3173,0.7335,0.1862,-0.3821,0.1323,0.2308,1.2176,
18.063260,0.4108,0.9667,-0.3173,0.7335,0.1862,-0.3821,0.1616,0.5321,1.1729,
18.064988,0.4108,0.9667,-0.3173,-0.0015,0.8754,-0.3548,0.1616,0.5321,1.1729,
18.080198,0.4108,0.9667,-0.3173,-0.7190,2.2572,-0.2243,0.1616,0.5321,1.1729,
18.100717,0.4108,0.9667,-0.3173,-1.3076,1.9358,-0.2718,0.1616,0.5321,1.1729,
18.120212,0.4108,0.9667,-0.3173,-1.4500,2.5550,-0.2414,0.1616,0.5321,1.1729,
18.126660,0.3176,1.1169,-0.2809,-1.4500,2.5550,-0.2414,0.1616,0.5321,1.1729,
18.130222,0.3176,1.1169,-0.2809,-1.4500,2.5550,-0.2414,0.0365,0.5102,1.4742,
18.144759,0.3176,1.1169,-0.2809,-2.3154,3.0894,-0.4799,0.0365,0.5102,1.4742,
18.160143,0.3176,1.1169,-0.2809,-2.6134,3.9012,-0.6881,0.0365,0.5102,1.4742,
18.182186,0.3176,1.1169,-0.2809,-2.9956,4.3203,-1.0978,0.0365,0.5102,1.4742,
18.192982,0.3579,1.3835,-0.3033,-2.9956,4.3203,-1.0978,0.0365,0.5102,1.4742,
18.196180,0.3579,1.3835,-0.3033,-2.9956,4.3203,-1.0978,0.0711,1.1336,1.7079,
18.200165,0.3579,1.3835,-0.3033,-2.1676,6.7716,-0.3707,0.0711,1.1336,1.7079,
18.220412,0.3579,1.3835,-0.3033,-2.3882,6.8093,-0.0721,0.0711,1.1336,1.7079,
18.240539,0.3579,1.3835,-0.3033,-1.8741,6.6048,-1.2535,0.0711,1.1336,1.7079,
18.260393,0.4244,1.2195,-0.4275,-1.8741,6.6048,-1.2535,0.0711,1.1336,1.7079,
18.263904,0.4244,1.2195,-0.4275,-1.8741,6.6048,-1.2535,0.1116,1.3141,1.5668,
18.265116,0.4244,1.2195,-0.4275,-2.6897,5.1507,-2.3360,0.1116,1.3141,1.5668,
18.280308,0.4244,1.2195,-0.4275,-3.0964,1.8788,-3.8894,0.1116,1.3141,1.5668,
18.300690,0.4244,1.2195,-0.4275,-2.8771,4.2588,-2.0373,0.1116,1.3141,1.5668,
18.320343,0.4244,1.2195,-0.4275,-3.8163,4.6552,-2.7222,0.1116,1.3141,1.5668,
18.323606,0.4391,1.1008,-0.4985,-3.8163,4.6552,-2.7222,0.1116,1.3141,1.5668,
18.325741,0.4391,1.1008,-0.4985,-3.8163,4.6552,-2.7222,-0.4644,-0.4197,1.0020,
18.340466,0.4391,1.1008,-0.4985,-1.2004,3.0190,-2.4556,-0.4644,-0.4197,1.0020,
18.361081,0.4391,1.1008,-0.4985,-0.9350,-13.3682,-3.3366,-0.4644,-0.4197,1.0020,
18.387293,0.4391,1.1008,-0.4985,-0.8810,-13.6348,1.6862,-0.4644,-0.4197,1.0020,
18.390879,0.7530,0.0333,-0.2043,-0.8810,-13.6348,1.6862,-0.4644,-0.4197,1.0020,
18.392851,0.7530,0.0333,-0.2043,-0.8810,-13.6348,1.6862,-0.9238,-0.4479,0.1466,
18.400118,0.7530,0.0333,-0.2043,0.5446,-4.2853,-0.6551,-0.9238,-0.4479,0.1466,
18.420796,0.7530,0.0333,-0.2043,-0.2896,-3.9407,0.2604,-0.9238,-0.4479,0.1466,
18.440786,0.7530,0.0333,-0.2043,-2.9095,-3.1894,-0.1186,-0.9238,-0.4479,0.1466,
18.455346,0.2680,0.4389,-0.1412,-2.9095,-3.1894,-0.1186,-0.9238,-0.4479,0.1466,
18.456843,0.2680,0.4389,-0.1412,-2.9095,-3.1894,-0.1186,-1.4833,-1.4311,-1.3993,
18.462128,0.2680,0.4389,-0.1412,-4.5869,-2.2052,0.1469,-1.4833,-1.4311,-1.3993,
18.480183,0.2680,0.4389,-0.1412,-4.5814,-1.2950,0.4599,-1.4833,-1.4311,-1.3993,
18.500560,0.2680,0.4389,-0.1412,-2.4678,-1.0266,-0.2696,-1.4833,-1.4311,-1.3993,
18.520175,0.2680,0.4389,-0.1412,-0.3763,-1.0982,-0.6548,-1.4833,-1.4311,-1.3993,
18.522862,0.6108,0.6547,-0.2310,-0.3763,-1.0982,-0.6548,-1.4833,-1.4311,-1.3993,
18.523910,0.6108,0.6547,-0.2310,-0.3763,-1.0982,-0.6548,-1.9815,-2.3190,-2.3330,
18.540229,0.6108,0.6547,-0.2310,0.4647,-0.7841,-0.7629,-1.9815,-2.3190,-2.3330,
18.560793,0.6108,0.6547,-0.2310,0.6956,0.0321,-0.9502,-1.9815,-2.3190,-2.3330,
18.580642,0.6108,0.6547,-0.2310,0.5854,0.8451,-1.5799,-1.9815,-2.3190,-2.3330,
18.587722,0.5099,0.9667,-0.3454,0.5854,0.8451,-1.5799,-1.9815,-2.3190,-2.3330,
18.589113,0.5099,0.9667,-0.3454,0.5854,0.8451,-1.5799,-2.0800,-3.0052,-2.3921,
18.600152,0.5099,0.9667,-0.3454,0.3599,0.9765,-2.1473,-2.0800,-3.0052,-2.3921,
18.620128,0.5099,0.9667,-0.3454,1.4065,1.5081,-2.5081,-2.0800,-3.0052,-2.3921,
18.640218,0.5099,0.9667,-0.3454,2.2019,0.1978,-2.7243,-2.0800,-3.0052,-2.3921,
18.653462,0.4466,0.9310,-0.3618,2.2019,0.1978,-2.7243,-2.0800,-3.0052,-2.3921,
18.655246,0.4466,0.9310,-0.3618,2.2019,0.1978,-2.7243,-2.1993,-4.8726,-1.3865,
18.661051,0.4466,0.9310,-0.3618,1.1039,-0.0360,-2.9129,-2.1993,-4.8726,-1.3865,
18.680272,0.4466,0.9310,-0.3618,0.9410,0.4788,-4.2733,-2.1993,-4.8726,-1.3865,
18.700764,0.4466,0.9310,-0.3618,2.0961,-0.0551,-4.3765,-2.1993,-4.8726,-1.3865,
18.719994,0.5857,0.9220,-0.4974,2.0961,-0.0551,-4.3765,-2.1993,-4.8726,-1.3865,
18.722432,0.5857,0.9220,-0.4974,2.0961,-0.0551,-4.3765,-2.3094,-5.4129,-0.5438,
18.723487,0.5857,0.9220,-0.4974,3.5512,-0.4861,-4.6122,-2.3094,-5.4129,-0.5438,
18.740647,0.5857,0.9220,-0.4974,3.1228,0.1187,-4.6675,-2.3094,-5.4129,-0.5438,
18.761869,0.5857,0.9220,-0.4974,2.5431,0.0145,-4.6129,-2.3094,-5.4129,-0.5438,
18.780048,0.5857,0.9220,-0.4974,2.4079,-1.2078,-4.0515,-2.3094,-5.4129,-0.5438,
18.785906,0.4907,0.8098,-0.4060,2.4079,-1.2078,-4.0515,-2.3094,-5.4129,-0.5438,
18.787527,0.4907,0.8098,-0.4060,2.4079,-1.2078,-4.0515,-0.6752,-3.6429,0.4968,
18.800617,0.4907,0.8098,-0.4060,3.4925,-2.1234,-3.9426,-0.6752,-3.6429,0.4968,
18.820857,0.4907,0.8098,-0.4060,2.8074,-1.7825,-3.9553,-0.6752,-3.6429,0.4968,
18.840197,0.4907,0.8098,-0.4060,1.0180,-0.8079,-3.4338,-0.6752,-3.6429,0.4968,
18.851967,0.2641,0.9297,-0.4147,1.0180,-0.8079,-3.4338,-0.6752,-3.6429,0.4968,
18.854586,0.2641,0.9297,-0.4147,1.0180,-0.8079,-3.4338,-0.1743,-2.7321,0.6683,
18.863087,0.2641,0.9297,-0.4147,-0.0069,-0.4313,-3.9755,-0.1743,-2.7321,0.6683,
18.880342,0.2641,0.9297,-0.4147,1.6627,-1.0828,-4.0997,-0.1743,-2.7321,0.6683,
18.900469,0.2641,0.9297,-0.4147,3.5095,-0.5067,-2.6285,-0.1743,-2.7321,0.6683,
18.918630,0.5209,0.8989,-0.1274,3.5095,-0.5067,-2.6285,-0.1743,-2.7321,0.6683,
18.921642,0.5209,0.8989,-0.1274,3.5095,-0.5067,-2.6285,0.1483,-1.9065,0.2344,
18.922742,0.5209,0.8989,-0.1274,2.2163,-0.5517,-0.5126,0.1483,-1.9065,0.2344,
18.940110,0.5209,0.8989,-0.1274,0.5465,0.9726,1.6313,0.1483,-1.9065,0.2344,
18.960656,0.5209,0.8989,-0.1274,-0.0403,1.7562,0.7994,0.1483,-1.9065,0.2344,
18.980403,0.5209,0.8989,-0.1274,4.6229,0.8990,3.4602,0.1483,-1.9065,0.2344,
18.983659,0.9947,0.9776,0.1855,4.6229,0.8990,3.4602,0.1483,-1.9065,0.2344,
18.985357,0.9947,0.9776,0.1855,4.6229,0.8990,3.4602,0.3697,-1.1852,0.2871,
19.000055,0.9947,0.9776,0.1855,6.1308,-0.8651,1.1546,0.3697,-1.1852,0.2871,
19.020131,0.9947,0.9776,0.1855,-0.3516,0.2425,-0.9249,0.3697,-1.1852,0.2871,
19.040036,0.9947,0.9776,0.1855,-1.9618,-0.0241,-2.2983,0.3697,-1.1852,0.2871,
19.050046,0.1480,0.9270,-0.3599,-1.9618,-0.0241,-2.2983,0.3697,-1.1852,0.2871,
19.052615,0.1480,0.9270,-0.3599,-1.9618,-0.0241,-2.2983,0.3926,-0.2802,-0.3687,
19.062771,0.1480,0.9270,-0.3599,-0.5355,-0.1916,-1.6949,0.3926,-0.2802,-0.3687,
19.079991,0.1480,0.9270,-0.3599,0.3917,-0.0212,-0.6919,0.3926,-0.2802,-0.3687,
19.100202,0.1480,0.9270,-0.3599,-0.4805,0.0486,0.2476,0.3926,-0.2802,-0.3687,
19.115602,0.0936,0.9764,-0.2338,-0.4805,0.0486,0.2476,0.3926,-0.2802,-0.3687,
19.118333,0.0936,0.9764,-0.2338,-0.4805,0.0486,0.2476,0.2414,-0.2653,-0.2218,
19.120458,0.0936,0.9764,-0.2338,-1.3153,0.1685,-0.5905,0.2414,-0.2653,-0.2218,
19.140497,0.0936,0.9764,-0.2338,0.2228,-0.1363,-0.7894,0.2414,-0.2653,-0.2218,
19.159632,0.0936,0.9764,-0.2338,1.4710,0.1568,-0.8706,0.2414,-0.2653,-0.2218,
19.179950,0.0936,0.9764,-0.2338,0.6692,-0.1569,-0.2683,0.2414,-0.2653,-0.2218,
19.182959,0.2561,0.9333,-0.2047,0.6692,-0.1569,-0.2683,0.2414,-0.2653,-0.2218,
19.184048,0.2561,0.9333,-0.2047,0.6692,-0.1569,-0.2683,0.1302,-0.1019,-0.4959,
19.202262,0.2561,0.9333,-0.2047,-0.5195,-0.1430,0.1626,0.1302,-0.1019,-0.4959,
19.220484,0.2561,0.9333,-0.2047,-0.9069,0.0691,-0.5809,0.1302,-0.1019,-0.4959,
19.240017,0.2561,0.9333,-0.2047,-0.3632,0.0206,-0.8880,0.1302,-0.1019,-0.4959,
19.247550,0.1342,0.9653,-0.3127,-0.3632,0.0206,-0.8880,0.1302,-0.1019,-0.4959,
