
time,gFx,gFy,gFz,ax,ay,az,wx,wy,wz,
0.040680,-0.1455,0.9906,0.0831,0.0000,0.0000,0.0000,0.0000,0.0000,0.0000,
0.041481,-0.1455,0.9906,0.0831,0.0000,0.0000,0.0000,-0.0054,0.0155,-0.0360,
0.041869,-0.1455,0.9906,0.0831,0.2402,-0.2394,0.2234,-0.0054,0.0155,-0.0360,
0.047192,-0.1455,0.9906,0.0831,0.2402,-0.2394,0.2234,-0.0054,0.0155,-0.0360,
0.068511,-0.1455,0.9906,0.0831,0.0383,-0.1857,-0.0131,-0.0054,0.0155,-0.0360,
0.086834,-0.1396,0.9751,0.1092,0.0383,-0.1857,-0.0131,-0.0054,0.0155,-0.0360,
0.088443,-0.1396,0.9751,0.1092,0.0383,-0.1857,-0.0131,-0.0448,0.0320,0.0550,
0.090009,-0.1396,0.9751,0.1092,0.6032,-0.0424,0.3642,-0.0448,0.0320,0.0550,
0.108528,-0.1396,0.9751,0.1092,0.7670,0.3308,0.3587,-0.0448,0.0320,0.0550,
0.128902,-0.1396,0.9751,0.1092,0.1670,0.1038,0.0058,-0.0448,0.0320,0.0550,
0.148205,-0.1396,0.9751,0.1092,-0.4527,-0.1424,-0.1994,-0.0448,0.0320,0.0550,
0.152157,-0.2291,0.9610,0.0620,-0.4527,-0.1424,-0.1994,-0.0448,0.0320,0.0550,
0.153474,-0.2291,0.9610,0.0620,-0.4527,-0.1424,-0.1994,-0.0512,0.0113,0.0528,
0.170573,-0.2291,0.9610,0.0620,-0.2594,-0.1430,-0.3454,-0.0512,0.0113,0.0528,
0.188742,-0.2291,0.9610,0.0620,0.4650,-0.0284,0.4173,-0.0512,0.0113,0.0528,
0.208670,-0.2291,0.9610,0.0620,0.6137,0.3159,0.2419,-0.0512,0.0113,0.0528,
0.218423,-0.1148,1.0252,0.0615,0.6137,0.3159,0.2419,-0.0512,0.0113,0.0528,
0.220654,-0.1148,1.0252,0.0615,0.6137,0.3159,0.2419,-0.0304,0.0278,-0.0291,
0.228304,-0.1148,1.0252,0.0615,0.0387,0.2833,-0.4763,-0.0304,0.0278,-0.0291,
0.249317,-0.1148,1.0252,0.0615,-0.4943,-0.2777,-0.0507,-0.0304,0.0278,-0.0291,
0.268964,-0.1148,1.0252,0.0615,-0.2237,-1.1476,0.1938,-0.0304,0.0278,-0.0291,
0.284496,-0.2111,1.0237,0.1497,-0.2237,-1.1476,0.1938,-0.0304,0.0278,-0.0291,
0.286861,-0.2111,1.0237,0.1497,-0.2237,-1.1476,0.1938,-0.0363,0.0549,0.0507,
0.288456,-0.2111,1.0237,0.1497,-0.6268,0.3822,0.4606,-0.0363,0.0549,0.0507,
0.308714,-0.2111,1.0237,0.1497,-0.0322,-0.0009,0.1456,-0.0363,0.0549,0.0507,
0.328692,-0.2111,1.0237,0.1497,-0.1439,0.3114,-0.6166,-0.0363,0.0549,0.0507,
0.349280,-0.2111,1.0237,0.1497,0.2290,0.3893,-0.0440,-0.0363,0.0549,0.0507,
0.352811,-0.1418,1.0107,0.1074,0.2290,0.3893,-0.0440,-0.0363,0.0549,0.0507,
0.354273,-0.1418,1.0107,0.1074,0.2290,0.3893,-0.0440,-0.0757,0.0491,0.1769,
0.368876,-0.1418,1.0107,0.1074,0.1215,0.0275,0.2048,-0.0757,0.0491,0.1769,
0.388694,-0.1418,1.0107,0.1074,0.0309,-0.1348,-0.4329,-0.0757,0.0491,0.1769,
0.408999,-0.1418,1.0107,0.1074,0.2687,-0.1994,-0.2805,-0.0757,0.0491,0.1769,
0.416619,-0.1358,0.9927,0.0890,0.2687,-0.1994,-0.2805,-0.0757,0.0491,0.1769,
0.419287,-0.1358,0.9927,0.0890,0.2687,-0.1994,-0.2805,-0.1502,0.0789,0.1982,
0.428455,-0.1358,0.9927,0.0890,0.3646,0.2933,0.0130,-0.1502,0.0789,0.1982,
0.450199,-0.1358,0.9927,0.0890,0.5095,0.3125,0.5062,-0.1502,0.0789,0.1982,
0.468910,-0.1358,0.9927,0.0890,0.0061,-0.4551,0.8083,-0.1502,0.0789,0.1982,
0.486279,-0.1344,0.9768,0.1718,0.0061,-0.4551,0.8083,-0.1502,0.0789,0.1982,
0.489197,-0.1344,0.9768,0.1718,0.0061,-0.4551,0.8083,0.1053,0.0224,0.1891,
0.490958,-0.1344,0.9768,0.1718,0.1390,-0.0276,0.4641,0.1053,0.0224,0.1891,
0.508641,-0.1344,0.9768,0.1718,0.0375,-0.0922,0.4218,0.1053,0.0224,0.1891,
0.528258,-0.1344,0.9768,0.1718,-0.0715,-0.0600,0.6306,0.1053,0.0224,0.1891,
0.550865,-0.0972,0.9946,0.0740,-0.0715,-0.0600,0.6306,0.1053,0.0224,0.1891,
0.552898,-0.0972,0.9946,0.0740,-0.0715,-0.0600,0.6306,0.3283,-0.0254,0.1971,
0.553997,-0.0972,0.9946,0.0740,0.3173,0.0943,-0.3238,0.3283,-0.0254,0.1971,
0.568871,-0.0972,0.9946,0.0740,0.0657,-0.0458,-0.3895,0.3283,-0.0254,0.1971,
0.588676,-0.0972,0.9946,0.0740,0.1495,0.1482,-0.5328,0.3283,-0.0254,0.1971,
0.608591,-0.0972,0.9946,0.0740,0.3510,0.1954,0.1098,0.3283,-0.0254,0.1971,
0.613884,-0.0838,1.0005,0.1245,0.3510,0.1954,0.1098,0.3283,-0.0254,0.1971,
0.616096,-0.0838,1.0005,0.1245,0.3510,0.1954,0.1098,0.2842,-0.0515,0.1795,
0.628678,-0.0838,1.0005,0.1245,0.0401,-0.0096,0.5431,0.2842,-0.0515,0.1795,
0.648953,-0.0838,1.0005,0.1245,0.0843,0.0594,0.1350,0.2842,-0.0515,0.1795,
0.668385,-0.0838,1.0005,0.1245,0.4395,0.1849,-0.2530,0.2842,-0.0515,0.1795,
0.680059,-0.0228,1.0114,0.0185,0.4395,0.1849,-0.2530,0.2842,-0.0515,0.1795,
0.681702,-0.0228,1.0114,0.0185,0.4395,0.1849,-0.2530,0.3464,-0.1175,0.1604,
0.688366,-0.0228,1.0114,0.0185,0.7120,0.0945,-0.5033,0.3464,-0.1175,0.1604,
0.708594,-0.0228,1.0114,0.0185,0.9614,0.2418,-0.3140,0.3464,-0.1175,0.1604,
0.729327,-0.0228,1.0114,0.0185,2.3912,1.2154,-1.1052,0.3464,-0.1175,0.1604,
0.747016,0.1478,1.1377,-0.1565,2.3912,1.2154,-1.1052,0.3464,-0.1175,0.1604,
0.748947,0.1478,1.1377,-0.1565,2.3912,1.2154,-1.1052,0.0617,-0.4045,-0.3698,
0.750458,0.1478,1.1377,-0.1565,2.2415,1.3782,-2.0102,0.0617,-0.4045,-0.3698,
0.769637,0.1478,1.1377,-0.1565,5.8549,4.5184,-1.0238,0.0617,-0.4045,-0.3698,
0.788628,0.1478,1.1377,-0.1565,3.9555,0.1789,0.8914,0.0617,-0.4045,-0.3698,
0.809300,0.1478,1.1377,-0.1565,0.4085,-2.0188,1.4895,0.0617,-0.4045,-0.3698,
0.812613,-0.0229,0.8439,0.1989,0.4085,-2.0188,1.4895,0.0617,-0.4045,-0.3698,
0.814269,-0.0229,0.8439,0.1989,0.4085,-2.0188,1.4895,0.2735,-0.3896,-0.2996,
0.830250,-0.0229,0.8439,0.1989,3.1037,-0.0083,1.3279,0.2735,-0.3896,-0.2996,
0.850402,-0.0229,0.8439,0.1989,4.6896,0.0488,2.0916,0.2735,-0.3896,-0.2996,
0.870111,-0.0229,0.8439,0.1989,2.4346,-0.7766,2.1222,0.2735,-0.3896,-0.2996,
0.878211,0.2240,0.8750,0.2071,2.4346,-0.7766,2.1222,0.2735,-0.3896,-0.2996,
0.880093,0.2240,0.8750,0.2071,2.4346,-0.7766,2.1222,0.3353,-0.1841,0.6001,
0.889109,0.2240,0.8750,0.2071,2.6407,-0.5557,1.2019,0.3353,-0.1841,0.6001,
0.908763,0.2240,0.8750,0.2071,3.2135,2.6881,0.2351,0.3353,-0.1841,0.6001,
0.928662,0.2240,0.8750,0.2071,3.0605,2.1905,0.8996,0.3353,-0.1841,0.6001,
0.944247,0.1769,0.9296,0.2270,3.0605,2.1905,0.8996,0.3353,-0.1841,0.6001,
0.946582,0.1769,0.9296,0.2270,3.0605,2.1905,0.8996,0.0819,-0.4359,1.3278,
0.948569,0.1769,0.9296,0.2270,1.5493,-0.9869,2.0065,0.0819,-0.4359,1.3278,
0.968770,0.1769,0.9296,0.2270,1.1237,-2.8191,1.4343,0.0819,-0.4359,1.3278,
0.988971,0.1769,0.9296,0.2270,0.5276,-1.6223,0.2873,0.0819,-0.4359,1.3278,
1.008722,0.1769,0.9296,0.2270,0.3144,1.1300,-0.6851,0.0819,-0.4359,1.3278,
1.011246,0.1508,1.1332,-0.0455,0.3144,1.1300,-0.6851,0.0819,-0.4359,1.3278,
1.012220,0.1508,1.1332,-0.0455,0.3144,1.1300,-0.6851,0.1005,-1.1279,1.8297,
1.028975,0.1508,1.1332,-0.0455,-0.7613,0.9641,0.0192,0.1005,-1.1279,1.8297,
1.051271,0.1508,1.1332,-0.0455,-0.6421,-1.0500,0.5766,0.1005,-1.1279,1.8297,
1.070170,0.1508,1.1332,-0.0455,-1.3916,-2.1864,0.2564,0.1005,-1.1279,1.8297,
1.076566,0.0479,0.7243,0.0175,-1.3916,-2.1864,0.2564,0.1005,-1.1279,1.8297,
1.078582,0.0479,0.7243,0.0175,-1.3916,-2.1864,0.2564,-0.0230,0.0682,1.6147,
1.088634,0.0479,0.7243,0.0175,-3.0815,-2.4528,-0.0409,-0.0230,0.0682,1.6147,
1.108757,0.0479,0.7243,0.0175,-4.3589,-2.0116,-0.2402,-0.0230,0.0682,1.6147,
1.129364,0.0479,0.7243,0.0175,-4.6081,-0.6199,-1.0845,-0.0230,0.0682,1.6147,
1.142669,-0.0289,0.9726,-0.1829,-4.6081,-0.6199,-1.0845,-0.0230,0.0682,1.6147,
1.144807,-0.0289,0.9726,-0.1829,-4.6081,-0.6199,-1.0845,0.1122,-0.3347,0.9014,
1.149035,-0.0289,0.9726,-0.1829,-3.5285,0.4396,-1.8794,0.1122,-0.3347,0.9014,
1.168992,-0.0289,0.9726,-0.1829,-3.6896,0.2752,-1.6401,0.1122,-0.3347,0.9014,
1.188942,-0.0289,0.9726,-0.1829,-4.6883,0.0807,-1.7277,0.1122,-0.3347,0.9014,
1.208664,-0.1427,0.9695,-0.2034,-4.6883,0.0807,-1.7277,0.1122,-0.3347,0.9014,
1.211318,-0.1427,0.9695,-0.2034,-4.6883,0.0807,-1.7277,0.3922,-1.0379,-0.7238,
1.212412,-0.1427,0.9695,-0.2034,-4.9945,0.2715,-1.7191,0.3922,-1.0379,-0.7238,
1.228733,-0.1427,0.9695,-0.2034,7.6467,17.2861,-2.8089,0.3922,-1.0379,-0.7238,
1.248757,-0.1427,0.9695,-0.2034,-0.6915,-3.8924,-2.1008,0.3922,-1.0379,-0.7238,
1.268800,-0.1427,0.9695,-0.2034,2.8414,2.9572,2.4252,0.3922,-1.0379,-0.7238,
1.274348,0.4018,0.9389,0.3827,2.8414,2.9572,2.4252,0.3922,-1.0379,-0.7238,
1.275480,0.4018,0.9389,0.3827,2.8414,2.9572,2.4252,0.1048,1.4970,-1.6596,
1.288998,0.4018,0.9389,0.3827,-1.3146,-1.6227,3.3208,0.1048,1.4970,-1.6596,
1.308778,0.4018,0.9389,0.3827,-1.2025,-0.4913,-1.7844,0.1048,1.4970,-1.6596,
1.329104,0.4018,0.9389,0.3827,-3.3100,-0.1675,0.6817,0.1048,1.4970,-1.6596,
1.340199,-0.1892,1.1229,0.0193,-3.3100,-0.1675,0.6817,0.1048,1.4970,-1.6596,
1.342793,-0.1892,1.1229,0.0193,-3.3100,-0.1675,0.6817,0.1527,0.8097,-1.9263,
1.348387,-0.1892,1.1229,0.0193,-6.2162,1.4546,0.9308,0.1527,0.8097,-1.9263,
1.369437,-0.1892,1.1229,0.0193,-14.7113,0.3264,1.7539,0.1527,0.8097,-1.9263,
1.398526,-0.1892,1.1229,0.0193,-5.3260,1.8405,-3.1491,0.1527,0.8097,-1.9263,
1.415161,0.1112,0.9469,-0.1675,-5.3260,1.8405,-3.1491,0.1527,0.8097,-1.9263,
1.417133,0.1112,0.9469,-0.1675,-5.3260,1.8405,-3.1491,0.4380,-0.4151,-0.1766,
1.418652,0.1112,0.9469,-0.1675,0.2764,-0.4706,-0.7917,0.4380,-0.4151,-0.1766,
1.429217,0.1112,0.9469,-0.1675,-0.4604,0.1111,-2.1863,0.4380,-0.4151,-0.1766,
1.448908,0.1112,0.9469,-0.1675,-2.4153,0.0607,0.3437,0.4380,-0.4151,-0.1766,
1.468730,0.1112,0.9469,-0.1675,-1.5271,-0.0076,0.2594,0.4380,-0.4151,-0.1766,
1.472015,-0.0528,0.9959,-0.1286,-1.5271,-0.0076,0.2594,0.4380,-0.4151,-0.1766,
1.473611,-0.0528,0.9959,-0.1286,-1.5271,-0.0076,0.2594,0.2730,-0.0350,-0.0371,
1.488357,-0.0528,0.9959,-0.1286,-0.2896,-0.0424,-0.6726,0.2730,-0.0350,-0.0371,
1.508449,-0.0528,0.9959,-0.1286,-0.1315,-0.0088,-0.7181,0.2730,-0.0350,-0.0371,
1.528960,-0.0528,0.9959,-0.1286,-0.6676,0.0134,0.2257,0.2730,-0.0350,-0.0371,
1.537935,-0.0394,0.9973,-0.0707,-0.6676,0.0134,0.2257,0.2730,-0.0350,-0.0371,
1.539703,-0.0394,0.9973,-0.0707,-0.6676,0.0134,0.2257,0.2171,0.0209,-0.1148,
1.548536,-0.0394,0.9973,-0.0707,-0.5899,-0.0232,0.5304,0.2171,0.0209,-0.1148,
1.568870,-0.0394,0.9973,-0.0707,-0.2082,-0.0188,-0.0687,0.2171,0.0209,-0.1148,
1.588622,-0.0394,0.9973,-0.0707,0.2165,0.0350,-0.1076,0.2171,0.0209,-0.1148,
1.604382,0.0085,0.9870,-0.1644,0.2165,0.0350,-0.1076,0.2171,0.0209,-0.1148,
1.606197,0.0085,0.9870,-0.1644,0.2165,0.0350,-0.1076,0.2352,-0.0031,-0.2346,
1.608940,0.0085,0.9870,-0.1644,-0.3074,-0.0582,-0.3830,0.2352,-0.0031,-0.2346,
1.628478,0.0085,0.9870,-0.1644,-0.9297,-0.1022,-0.7557,0.2352,-0.0031,-0.2346,
1.648282,0.0085,0.9870,-0.1644,-1.1042,-0.0582,-0.0963,0.2352,-0.0031,-0.2346,
1.669923,0.0085,0.9870,-0.1644,-0.0556,0.0254,-0.2234,0.2352,-0.0031,-0.2346,
1.671689,0.0305,0.9930,-0.1762,-0.0556,0.0254,-0.2234,0.2352,-0.0031,-0.2346,
1.672923,0.0305,0.9930,-0.1762,-0.0556,0.0254,-0.2234,0.1756,-0.0430,-0.1489,
1.689433,0.0305,0.9930,-0.1762,0.1837,0.0503,-0.2053,0.1756,-0.0430,-0.1489,
1.708586,0.0305,0.9930,-0.1762,-0.6776,-0.0816,-0.1207,0.1756,-0.0430,-0.1489,
1.728556,0.0305,0.9930,-0.1762,-0.5424,0.0315,-0.8823,0.1756,-0.0430,-0.1489,
1.738614,0.0126,1.0060,-0.2648,-0.5424,0.0315,-0.8823,0.1756,-0.0430,-0.1489,
1.741401,0.0126,1.0060,-0.2648,-0.5424,0.0315,-0.8823,0.0691,-0.0835,-0.2101,
1.748334,0.0126,1.0060,-0.2648,0.8068,0.2219,-0.8995,0.0691,-0.0835,-0.2101,
1.770415,0.0126,1.0060,-0.2648,0.9565,0.1858,-0.0036,0.0691,-0.0835,-0.2101,
1.788709,0.0126,1.0060,-0.2648,0.6706,0.3274,0.4494,0.0691,-0.0835,-0.2101,
1.804819,-0.0204,1.0350,-0.1776,0.6706,0.3274,0.4494,0.0691,-0.0835,-0.2101,
1.807475,-0.0204,1.0350,-0.1776,0.6706,0.3274,0.4494,0.0691,-0.0787,-0.6626,
1.808608,-0.0204,1.0350,-0.1776,0.1567,0.4627,-0.1401,0.0691,-0.0787,-0.6626,
1.829205,-0.0204,1.0350,-0.1776,0.3293,0.0997,-0.8115,0.0691,-0.0787,-0.6626,
1.848810,-0.0204,1.0350,-0.1776,-0.9317,-0.0730,-0.0776,0.0691,-0.0787,-0.6626,
1.868772,-0.0570,1.0271,-0.1255,-0.9317,-0.0730,-0.0776,0.0691,-0.0787,-0.6626,
1.871160,-0.0570,1.0271,-0.1255,-0.9317,-0.0730,-0.0776,0.1309,-0.0627,-0.7589,
1.873022,-0.0570,1.0271,-0.1255,0.3057,0.3739,0.6184,0.1309,-0.0627,-0.7589,
1.888752,-0.0570,1.0271,-0.1255,1.0022,0.6390,-0.8359,0.1309,-0.0627,-0.7589,
1.908563,-0.0570,1.0271,-0.1255,0.5348,0.6431,-0.5251,0.1309,-0.0627,-0.7589,
1.929112,-0.0570,1.0271,-0.1255,0.4292,2.2235,-0.4320,0.1309,-0.0627,-0.7589,
1.933808,0.0554,1.2822,-0.2183,0.4292,2.2235,-0.4320,0.1309,-0.0627,-0.7589,
1.935792,0.0554,1.2822,-0.2183,0.4292,2.2235,-0.4320,0.0393,-0.2448,-0.8750,
1.948738,0.0554,1.2822,-0.2183,3.6896,3.2636,1.1560,0.0393,-0.2448,-0.8750,
1.971027,0.0554,1.2822,-0.2183,2.8538,2.1101,1.2408,0.0393,-0.2448,-0.8750,
1.989059,0.0554,1.2822,-0.2183,4.7703,2.9722,1.2158,0.0393,-0.2448,-0.8750,
2.000039,0.3200,1.3312,-0.0696,4.7703,2.9722,1.2158,0.0393,-0.2448,-0.8750,
2.002217,0.3200,1.3312,-0.0696,4.7703,2.9722,1.2158,0.1793,-0.1410,-1.9753,
2.010691,0.3200,1.3312,-0.0696,5.5079,4.2288,1.4830,0.1793,-0.1410,-1.9753,
2.028604,0.3200,1.3312,-0.0696,4.0098,2.4619,0.6223,0.1793,-0.1410,-1.9753,
2.048760,0.3200,1.3312,-0.0696,2.9430,4.7169,0.1634,0.1793,-0.1410,-1.9753,
2.067142,0.3064,1.4315,-0.3343,2.9430,4.7169,0.1634,0.1793,-0.1410,-1.9753,
2.071408,0.3064,1.4315,-0.3343,2.9430,4.7169,0.1634,0.3374,0.6197,-2.8132,
2.074676,0.3064,1.4315,-0.3343,6.7099,5.1595,-1.2797,0.3374,0.6197,-2.8132,
2.090245,0.3064,1.4315,-0.3343,7.3170,3.7187,-1.3302,0.3374,0.6197,-2.8132,
2.112060,0.3064,1.4315,-0.3343,-3.2217,-0.9351,1.1304,0.3374,0.6197,-2.8132,
2.128889,0.3064,1.4315,-0.3343,-2.4078,-4.5362,0.3912,0.3374,0.6197,-2.8132,
2.132080,-0.7737,0.3216,-0.1956,-2.4078,-4.5362,0.3912,0.3374,0.6197,-2.8132,
2.133393,-0.7737,0.3216,-0.1956,-2.4078,-4.5362,0.3912,0.0984,0.1800,-2.1265,
2.148838,-0.7737,0.3216,-0.1956,2.5023,-3.1551,-0.5940,0.0984,0.1800,-2.1265,
2.169692,-0.7737,0.3216,-0.1956,-1.8545,0.1444,-0.0111,0.0984,0.1800,-2.1265,
2.188806,-0.7737,0.3216,-0.1956,2.0619,-1.8316,0.0391,0.0984,0.1800,-2.1265,
2.198353,-0.3390,0.5546,-0.0678,2.0619,-1.8316,0.0391,0.0984,0.1800,-2.1265,
2.200251,-0.3390,0.5546,-0.0678,2.0619,-1.8316,0.0391,-0.2449,-0.3241,1.0376,
2.208937,-0.3390,0.5546,-0.0678,2.2392,-2.4044,1.4747,-0.2449,-0.3241,1.0376,
2.229627,-0.3390,0.5546,-0.0678,3.8236,-2.6455,0.6417,-0.2449,-0.3241,1.0376,
2.249396,-0.3390,0.5546,-0.0678,7.2328,-2.2643,1.3225,-0.2449,-0.3241,1.0376,
2.264316,0.2621,0.6557,0.0008,7.2328,-2.2643,1.3225,-0.2449,-0.3241,1.0376,
2.266608,0.2621,0.6557,0.0008,7.2328,-2.2643,1.3225,-0.3301,-0.5157,2.3211,
2.268377,0.2621,0.6557,0.0008,7.4670,-1.7772,1.9561,-0.3301,-0.5157,2.3211,
2.288795,0.2621,0.6557,0.0008,5.5348,-1.4696,2.6378,-0.3301,-0.5157,2.3211,
2.308689,0.2621,0.6557,0.0008,3.1187,-0.9603,1.7942,-0.3301,-0.5157,2.3211,
2.329446,0.2621,0.6557,0.0008,2.7335,0.0402,1.0303,-0.3301,-0.5157,2.3211,
2.331747,-0.0699,0.9404,-0.0696,2.7335,0.0402,1.0303,-0.3301,-0.5157,2.3211,
2.332492,-0.0699,0.9404,-0.0696,2.7335,0.0402,1.0303,-0.6676,0.7805,2.9183,
2.348628,-0.0699,0.9404,-0.0696,3.1051,1.0326,0.4056,-0.6676,0.7805,2.9183,
2.368980,-0.0699,0.9404,-0.0696,2.2003,2.1608,-1.0186,-0.6676,0.7805,2.9183,
2.390504,-0.0699,0.9404,-0.0696,0.7981,2.8091,-1.2069,-0.6676,0.7805,2.9183,
2.396435,-0.2055,1.2470,-0.2328,0.7981,2.8091,-1.2069,-0.6676,0.7805,2.9183,
2.398209,-0.2055,1.2470,-0.2328,0.7981,2.8091,-1.2069,-0.9774,0.6884,2.5255,
2.410440,-0.2055,1.2470,-0.2328,-0.8026,2.3886,-0.9201,-0.9774,0.6884,2.5255,
2.429324,-0.2055,1.2470,-0.2328,-0.1994,2.2553,-1.0230,-0.9774,0.6884,2.5255,
2.449059,-0.2055,1.2470,-0.2328,-0.7803,2.3693,-1.1792,-0.9774,0.6884,2.5255,
2.462222,-0.1614,1.2345,-0.2558,-0.7803,2.3693,-1.1792,-0.9774,0.6884,2.5255,
2.464334,-0.1614,1.2345,-0.2558,-0.7803,2.3693,-1.1792,-0.9002,1.5156,2.0794,
2.468871,-0.1614,1.2345,-0.2558,-1.6096,2.1685,-1.8805,-0.9002,1.5156,2.0794,
2.489050,-0.1614,1.2345,-0.2558,-2.3401,1.7156,-2.0245,-0.9002,1.5156,2.0794,
2.508629,-0.1614,1.2345,-0.2558,-3.0927,1.6639,-3.0903,-0.9002,1.5156,2.0794,
2.528142,-0.3284,1.1202,-0.3501,-3.0927,1.6639,-3.0903,-0.9002,1.5156,2.0794,
2.530318,-0.3284,1.1202,-0.3501,-3.0927,1.6639,-3.0903,-0.8140,1.9196,1.5780,
2.531336,-0.3284,1.1202,-0.3501,-4.2166,1.3129,-3.2705,-0.8140,1.9196,1.5780,
2.548673,-0.3284,1.1202,-0.3501,-6.0732,0.6390,-2.8380,-0.8140,1.9196,1.5780,
2.568941,-0.3284,1.1202,-0.3501,-5.6571,-0.0172,-2.6863,-0.8140,1.9196,1.5780,
2.591251,-0.3284,1.1202,-0.3501,-3.3828,0.0419,-3.3160,-0.8140,1.9196,1.5780,
2.593966,-0.1456,0.9592,-0.3043,-3.3828,0.0419,-3.3160,-0.8140,1.9196,1.5780,
2.595258,-0.1456,0.9592,-0.3043,-3.3828,0.0419,-3.3160,-0.4957,2.4062,0.9871,
2.609179,-0.1456,0.9592,-0.3043,-3.2400,-0.2581,-3.6533,-0.4957,2.4062,0.9871,
2.629569,-0.1456,0.9592,-0.3043,-5.8582,-0.1828,-3.9860,-0.4957,2.4062,0.9871,
2.649012,-0.1456,0.9592,-0.3043,-5.3742,-0.0468,-4.1522,-0.4957,2.4062,0.9871,
2.660005,-0.1086,0.9887,-0.3354,-5.3742,-0.0468,-4.1522,-0.4957,2.4062,0.9871,
2.662210,-0.1086,0.9887,-0.3354,-5.3742,-0.0468,-4.1522,0.1649,2.6404,-0.0345,
2.668527,-0.1086,0.9887,-0.3354,-3.0404,0.3795,-4.4761,0.1649,2.6404,-0.0345,
2.690146,-0.1086,0.9887,-0.3354,-3.2043,0.3647,-4.1012,0.1649,2.6404,-0.0345,
2.708369,-0.1086,0.9887,-0.3354,-3.2239,-0.0185,-4.1055,0.1649,2.6404,-0.0345,
2.726954,-0.1321,1.1574,-0.2174,-3.2239,-0.0185,-4.1055,0.1649,2.6404,-0.0345,
2.728775,-0.1321,1.1574,-0.2174,-3.2239,-0.0185,-4.1055,0.4758,3.4788,-0.4997,
2.730656,-0.1321,1.1574,-0.2174,-3.0230,1.7741,-3.4256,0.4758,3.4788,-0.4997,
2.748589,-0.1321,1.1574,-0.2174,1.2600,-0.8047,-2.0300,0.4758,3.4788,-0.4997,
2.768678,-0.1321,1.1574,-0.2174,-1.1971,0.0101,0.7632,0.4758,3.4788,-0.4997,
2.791918,-0.1321,1.1574,-0.2174,-0.7062,0.0456,-0.1536,0.4758,3.4788,-0.4997,
2.794107,0.0543,1.0265,-0.0229,-0.7062,0.0456,-0.1536,0.4758,3.4788,-0.4997,
2.795041,0.0543,1.0265,-0.0229,-0.7062,0.0456,-0.1536,0.4183,2.7661,-0.9543,
2.809893,0.0543,1.0265,-0.0229,-3.2211,0.8778,-1.4136,0.4183,2.7661,-0.9543,
2.829846,0.0543,1.0265,-0.0229,-7.1056,1.7335,0.2505,0.4183,2.7661,-0.9543,
2.848452,0.0543,1.0265,-0.0229,-4.1356,1.3193,-2.4164,0.4183,2.7661,-0.9543,
2.858909,-0.7372,1.0814,0.1590,-4.1356,1.3193,-2.4164,0.4183,2.7661,-0.9543,
2.860929,-0.7372,1.0814,0.1590,-4.1356,1.3193,-2.4164,0.5951,-0.4864,-0.7286,
2.868276,-0.7372,1.0814,0.1590,-7.2450,0.2626,1.4461,0.5951,-0.4864,-0.7286,
2.890349,-0.7372,1.0814,0.1590,-0.0638,0.8853,-1.8697,0.5951,-0.4864,-0.7286,
2.908886,-0.7372,1.0814,0.1590,1.1475,-0.4912,-0.2407,0.5951,-0.4864,-0.7286,
2.925899,-0.2101,1.0779,-0.1105,1.1475,-0.4912,-0.2407,0.5951,-0.4864,-0.7286,
2.927756,-0.2101,1.0779,-0.1105,1.1475,-0.4912,-0.2407,0.7760,0.0224,-0.3081,
2.928711,-0.2101,1.0779,-0.1105,-2.4060,0.6966,-1.7894,0.7760,0.0224,-0.3081,
2.948521,-0.2101,1.0779,-0.1105,-0.6110,-0.1523,-1.7379,0.7760,0.0224,-0.3081,
2.968983,-0.2101,1.0779,-0.1105,0.0102,0.1195,-1.0681,0.7760,0.0224,-0.3081,
2.989473,-0.2101,1.0779,-0.1105,-0.5394,0.1187,-0.8410,0.7760,0.0224,-0.3081,
2.991299,-0.0702,1.0155,-0.0851,-0.5394,0.1187,-0.8410,0.7760,0.0224,-0.3081,
2.992036,-0.0702,1.0155,-0.0851,-0.5394,0.1187,-0.8410,0.5376,0.0384,-0.1063,
3.010101,-0.0702,1.0155,-0.0851,0.0092,-0.0178,-0.4397,0.5376,0.0384,-0.1063,
3.028586,-0.0702,1.0155,-0.0851,0.1432,-0.1040,-0.9822,0.5376,0.0384,-0.1063,
3.049154,-0.0702,1.0155,-0.0851,-0.4973,-0.0421,-0.0937,0.5376,0.0384,-0.1063,
3.060501,-0.0702,1.0063,-0.0679,-0.4973,-0.0421,-0.0937,0.5376,0.0384,-0.1063,
3.062332,-0.0702,1.0063,-0.0679,-0.4973,-0.0421,-0.0937,0.4210,0.0496,-0.1170,
3.068382,-0.0702,1.0063,-0.0679,0.1645,-0.0282,-0.2365,0.4210,0.0496,-0.1170,
3.088475,-0.0702,1.0063,-0.0679,0.0769,-0.0038,-0.7524,0.4210,0.0496,-0.1170,
3.108455,-0.0702,1.0063,-0.0679,-0.3029,-0.0567,-0.2636,0.4210,0.0496,-0.1170,
3.121983,-0.1056,0.9906,-0.1355,-0.3029,-0.0567,-0.2636,0.4210,0.0496,-0.1170,
3.124895,-0.1056,0.9906,-0.1355,-0.3029,-0.0567,-0.2636,0.3331,0.1151,-0.1601,
3.130196,-0.1056,0.9906,-0.1355,-0.7237,-0.0699,-0.6739,0.3331,0.1151,-0.1601,
3.149670,-0.1056,0.9906,-0.1355,-0.3158,-0.1023,0.4241,0.3331,0.1151,-0.1601,
3.168202,-0.1056,0.9906,-0.1355,-0.4196,0.0601,0.6707,0.3331,0.1151,-0.1601,
3.188024,-0.0672,0.9875,-0.1651,-0.4196,0.0601,0.6707,0.3331,0.1151,-0.1601,
3.190586,-0.0672,0.9875,-0.1651,-0.4196,0.0601,0.6707,0.2799,0.0544,-0.0499,
3.191635,-0.0672,0.9875,-0.1651,-0.2769,-0.0696,-0.7439,0.2799,0.0544,-0.0499,
3.208862,-0.0672,0.9875,-0.1651,0.1782,-0.1317,-0.9250,0.2799,0.0544,-0.0499,
3.228541,-0.0672,0.9875,-0.1651,-1.3004,-0.0178,-0.1386,0.2799,0.0544,-0.0499,
3.248604,-0.0672,0.9875,-0.1651,-0.0474,-0.0036,0.1809,0.2799,0.0544,-0.0499,
3.253900,-0.0339,0.9899,-0.0826,-0.0474,-0.0036,0.1809,0.2799,0.0544,-0.0499,
3.255026,-0.0339,0.9899,-0.0826,-0.0474,-0.0036,0.1809,0.1857,0.0182,0.0555,
3.268641,-0.0339,0.9899,-0.0826,0.4056,0.0202,-0.0497,0.1857,0.0182,0.0555,
3.289316,-0.0339,0.9899,-0.0826,0.5450,0.0351,-0.7899,0.1857,0.0182,0.0555,
3.309177,-0.0339,0.9899,-0.0826,-0.4094,-0.0290,-0.9151,0.1857,0.0182,0.0555,
3.320193,-0.1017,0.9858,-0.1910,-0.4094,-0.0290,-0.9151,0.1857,0.0182,0.0555,
3.322071,-0.1017,0.9858,-0.1910,-0.4094,-0.0290,-0.9151,0.0042,0.0661,-0.0541,
3.328988,-0.1017,0.9858,-0.1910,-0.3123,-0.0555,-0.5357,0.0042,0.0661,-0.0541,
3.348714,-0.1017,0.9858,-0.1910,-0.3494,0.0830,-0.4125,0.0042,0.0661,-0.0541,
3.369143,-0.1017,0.9858,-0.1910,0.0118,0.0144,-0.5143,0.0042,0.0661,-0.0541,
3.387133,-0.0418,0.9882,-0.0415,0.0118,0.0144,-0.5143,0.0042,0.0661,-0.0541,
3.390205,-0.0418,0.9882,-0.0415,0.0118,0.0144,-0.5143,-0.0948,0.0656,-0.0701,
3.391258,-0.0418,0.9882,-0.0415,0.1461,-0.0462,0.7320,-0.0948,0.0656,-0.0701,
3.408535,-0.0418,0.9882,-0.0415,-1.2120,-0.0466,-0.2689,-0.0948,0.0656,-0.0701,
3.428639,-0.0418,0.9882,-0.0415,0.3106,-0.0281,-1.0551,-0.0948,0.0656,-0.0701,
3.449433,-0.0418,0.9882,-0.0415,-0.2825,0.0478,-0.5154,-0.0948,0.0656,-0.0701,
3.452817,-0.1050,0.9963,-0.1225,-0.2825,0.0478,-0.5154,-0.0948,0.0656,-0.0701,
3.454361,-0.1050,0.9963,-0.1225,-0.2825,0.0478,-0.5154,-0.1965,0.0421,-0.0179,
3.468482,-0.1050,0.9963,-0.1225,-0.4602,-0.1121,0.8348,-0.1965,0.0421,-0.0179,
3.488595,-0.1050,0.9963,-0.1225,-0.4304,0.0415,0.1185,-0.1965,0.0421,-0.0179,
3.510058,-0.1050,0.9963,-0.1225,-0.1538,0.0189,-1.1313,-0.1965,0.0421,-0.0179,
3.518191,-0.0857,0.9946,-0.2052,-0.1538,0.0189,-1.1313,-0.1965,0.0421,-0.0179,
3.519851,-0.0857,0.9946,-0.2052,-0.1538,0.0189,-1.1313,-0.2806,0.0725,0.0731,
3.529209,-0.0857,0.9946,-0.2052,-0.1939,0.0143,-0.7394,-0.2806,0.0725,0.0731,
3.548680,-0.0857,0.9946,-0.2052,0.0073,0.0082,-0.0981,-0.2806,0.0725,0.0731,
3.568589,-0.0857,0.9946,-0.2052,0.2191,-0.0766,-0.1125,-0.2806,0.0725,0.0731,
3.584869,-0.0845,1.0030,-0.1194,0.2191,-0.0766,-0.1125,-0.2806,0.0725,0.0731,
3.587354,-0.0845,1.0030,-0.1194,0.2191,-0.0766,-0.1125,-0.4009,0.0618,0.0528,
3.588677,-0.0845,1.0030,-0.1194,-0.2880,0.0841,-0.3942,-0.4009,0.0618,0.0528,
3.609459,-0.0845,1.0030,-0.1194,-0.0337,-0.1379,-0.3126,-0.4009,0.0618,0.0528,
3.631231,-0.0845,1.0030,-0.1194,-0.2996,-0.0854,-0.1044,-0.4009,0.0618,0.0528,
3.648676,-0.0845,1.0030,-0.1194,-0.0395,0.0456,-0.5497,-0.4009,0.0618,0.0528,
3.651567,-0.0446,1.0053,-0.1042,-0.0395,0.0456,-0.5497,-0.4009,0.0618,0.0528,
3.652597,-0.0446,1.0053,-0.1042,-0.0395,0.0456,-0.5497,-0.5670,0.0176,0.0848,
3.670034,-0.0446,1.0053,-0.1042,0.2387,-0.0190,-0.2920,-0.5670,0.0176,0.0848,
3.693572,-0.0446,1.0053,-0.1042,0.0532,-0.0140,-0.4192,-0.5670,0.0176,0.0848,
3.710369,-0.0446,1.0053,-0.1042,0.2181,0.0316,-1.0542,-0.5670,0.0176,0.0848,
3.716256,-0.0554,0.9812,-0.1208,0.2181,0.0316,-1.0542,-0.5670,0.0176,0.0848,
3.717656,-0.0554,0.9812,-0.1208,0.2181,0.0316,-1.0542,-0.8523,-0.0478,-0.0600,
3.728811,-0.0554,0.9812,-0.1208,0.1593,0.2365,-0.8917,-0.8523,-0.0478,-0.0600,
3.748859,-0.0554,0.9812,-0.1208,-0.0640,0.5814,-0.9721,-0.8523,-0.0478,-0.0600,
3.768963,-0.0554,0.9812,-0.1208,0.1871,0.3416,-0.2596,-0.8523,-0.0478,-0.0600,
3.782089,-0.0534,1.2696,-0.2233,0.1871,0.3416,-0.2596,-0.8523,-0.0478,-0.0600,
3.784411,-0.0534,1.2696,-0.2233,0.1871,0.3416,-0.2596,-1.1206,0.5436,-0.0632,
3.788295,-0.0534,1.2696,-0.2233,-0.5447,3.7048,-3.2446,-1.1206,0.5436,-0.0632,
3.808837,-0.0534,1.2696,-0.2233,2.0593,5.3177,-4.5980,-1.1206,0.5436,-0.0632,
3.828924,-0.0534,1.2696,-0.2233,6.5412,4.6845,-0.5002,-1.1206,0.5436,-0.0632,
3.848782,0.5751,0.8121,0.0806,6.5412,4.6845,-0.5002,-1.1206,0.5436,-0.0632,
3.851264,0.5751,0.8121,0.0806,6.5412,4.6845,-0.5002,-0.6820,3.4762,-1.2306,
3.852292,0.5751,0.8121,0.0806,7.4733,-1.4536,0.0249,-0.6820,3.4762,-1.2306,
3.868528,0.5751,0.8121,0.0806,-1.6028,-0.6473,-1.9771,-0.6820,3.4762,-1.2306,
3.888543,0.5751,0.8121,0.0806,3.4019,0.5000,-4.3034,-0.6820,3.4762,-1.2306,
3.908438,0.5751,0.8121,0.0806,6.4452,-0.2625,-3.8593,-0.6820,3.4762,-1.2306,
3.913982,0.4932,0.8988,-0.3639,6.4452,-0.2625,-3.8593,-0.6820,3.4762,-1.2306,
3.915613,0.4932,0.8988,-0.3639,6.4452,-0.2625,-3.8593,0.1240,6.6302,-0.9857,
3.928833,0.4932,0.8988,-0.3639,6.2742,-1.4052,-4.9197,0.1240,6.6302,-0.9857,
3.948696,0.4932,0.8988,-0.3639,5.7947,-1.7832,-5.5366,0.1240,6.6302,-0.9857,
3.968548,0.4932,0.8988,-0.3639,3.2854,-1.9879,-6.0041,0.1240,6.6302,-0.9857,
3.979874,-0.0026,0.7584,-0.6047,3.2854,-1.9879,-6.0041,0.1240,6.6302,-0.9857,
3.982302,-0.0026,0.7584,-0.6047,3.2854,-1.9879,-6.0041,0.1500,6.1862,-0.5231,
3.988690,-0.0026,0.7584,-0.6047,2.5418,-2.1583,-5.7921,0.1500,6.1862,-0.5231,
4.009207,-0.0026,0.7584,-0.6047,3.1048,-1.6121,-5.5036,0.1500,6.1862,-0.5231,
4.028483,-0.0026,0.7584,-0.6047,1.9061,-1.6511,-5.4144,0.1500,6.1862,-0.5231,
4.046672,-0.1036,0.8441,-0.5811,1.9061,-1.6511,-5.4144,0.1500,6.1862,-0.5231,
4.049556,-0.1036,0.8441,-0.5811,1.9061,-1.6511,-5.4144,-0.1986,3.8499,0.7060,
4.051011,-0.1036,0.8441,-0.5811,1.1683,-1.2583,-4.7276,-0.1986,3.8499,0.7060,
4.068616,-0.1036,0.8441,-0.5811,1.4145,-0.2116,-4.3179,-0.1986,3.8499,0.7060,
4.088942,-0.1036,0.8441,-0.5811,0.9046,0.3589,-3.7673,-0.1986,3.8499,0.7060,
4.108645,-0.1036,0.8441,-0.5811,0.1613,-0.1913,-2.5054,-0.1986,3.8499,0.7060,
4.113155,-0.1037,0.9511,-0.3380,0.1613,-0.1913,-2.5054,-0.1986,3.8499,0.7060,
4.114810,-0.1037,0.9511,-0.3380,0.1613,-0.1913,-2.5054,-0.3599,2.7165,1.7100,
4.128340,-0.1037,0.9511,-0.3380,0.3969,-0.3268,-1.3722,-0.3599,2.7165,1.7100,
4.148674,-0.1037,0.9511,-0.3380,0.8094,0.0114,-0.9788,-0.3599,2.7165,1.7100,
4.169110,-0.1037,0.9511,-0.3380,0.9455,0.5368,-1.0802,-0.3599,2.7165,1.7100,
4.178946,0.1330,1.0740,-0.2383,0.9455,0.5368,-1.0802,-0.3599,2.7165,1.7100,
4.181389,0.1330,1.0740,-0.2383,0.9455,0.5368,-1.0802,0.0106,2.8810,2.0943,
4.188724,0.1330,1.0740,-0.2383,0.9650,0.9581,-1.4476,0.0106,2.8810,2.0943,
4.208777,0.1330,1.0740,-0.2383,0.9533,1.2911,-2.0942,0.0106,2.8810,2.0943,
4.229537,0.1330,1.0740,-0.2383,-0.2252,1.8863,-3.1878,0.0106,2.8810,2.0943,
4.246067,0.0462,1.2553,-0.4708,-0.2252,1.8863,-3.1878,0.0106,2.8810,2.0943,
4.249574,0.0462,1.2553,-0.4708,-0.2252,1.8863,-3.1878,-0.2471,1.7046,1.3703,
4.251522,0.0462,1.2553,-0.4708,-1.3738,2.7304,-3.6096,-0.2471,1.7046,1.3703,
4.270122,0.0462,1.2553,-0.4708,-3.1148,2.4971,-3.4948,-0.2471,1.7046,1.3703,
4.289883,0.0462,1.2553,-0.4708,-4.9845,1.6078,-2.6058,-0.2471,1.7046,1.3703,
4.308681,0.0462,1.2553,-0.4708,-6.6008,0.5460,-1.2879,-0.2471,1.7046,1.3703,
4.312209,-0.4481,1.0075,-0.1768,-6.6008,0.5460,-1.2879,-0.2471,1.7046,1.3703,
4.314002,-0.4481,1.0075,-0.1768,-6.6008,0.5460,-1.2879,-0.1715,0.5228,0.8998,
4.329030,-0.4481,1.0075,-0.1768,-8.3378,-0.1556,-0.7916,-0.1715,0.5228,0.8998,
4.349044,-0.4481,1.0075,-0.1768,-10.1347,-1.0171,-0.2191,-0.1715,0.5228,0.8998,
4.374156,-0.4481,1.0075,-0.1768,-6.2788,-0.5090,-0.4202,-0.1715,0.5228,0.8998,
4.378382,-0.1520,0.9536,-0.1345,-6.2788,-0.5090,-0.4202,-0.1715,0.5228,0.8998,
4.379701,-0.1520,0.9536,-0.1345,-6.2788,-0.5090,-0.4202,0.1399,0.5968,0.9248,
4.395442,-0.1520,0.9536,-0.1345,-4.0660,0.4734,-0.7521,0.1399,0.5968,0.9248,
4.409289,-0.1520,0.9536,-0.1345,-4.1878,0.4663,-0.8551,0.1399,0.5968,0.9248,
4.429594,-0.1520,0.9536,-0.1345,-5.0134,-0.0479,-0.8865,0.1399,0.5968,0.9248,
4.442432,-0.2091,0.9553,-0.1465,-5.0134,-0.0479,-0.8865,0.1399,0.5968,0.9248,
4.444591,-0.2091,0.9553,-0.1465,-5.0134,-0.0479,-0.8865,0.2203,1.1180,-0.6546,
4.449345,-0.2091,0.9553,-0.1465,-5.3723,0.2999,-0.9949,0.2203,1.1180,-0.6546,
4.468884,-0.2091,0.9553,-0.1465,4.0356,7.5785,-3.6066,0.2203,1.1180,-0.6546,
4.489049,-0.2091,0.9553,-0.1465,-2.5898,-3.9071,-3.8940,0.2203,1.1180,-0.6546,
4.508333,0.2793,1.2829,-0.0656,-2.5898,-3.9071,-3.8940,0.2203,1.1180,-0.6546,
4.511978,0.2793,1.2829,-0.0656,-2.5898,-3.9071,-3.8940,0.4455,1.5875,-1.2593,
4.514656,0.2793,1.2829,-0.0656,-0.0105,3.0630,-0.1176,0.4455,1.5875,-1.2593,
4.529584,0.2793,1.2829,-0.0656,-1.4952,-0.4963,3.6845,0.4455,1.5875,-1.2593,
4.549395,0.2793,1.2829,-0.0656,-3.9751,0.0251,1.7727,0.4455,1.5875,-1.2593,
4.569172,0.2793,1.2829,-0.0656,-4.9629,0.7105,2.3415,0.4455,1.5875,-1.2593,
4.574248,-0.3467,1.0166,0.2738,-4.9629,0.7105,2.3415,0.4455,1.5875,-1.2593,
4.575710,-0.3467,1.0166,0.2738,-4.9629,0.7105,2.3415,0.3534,0.5521,-1.0405,
4.588420,-0.3467,1.0166,0.2738,-4.1966,0.6918,2.9322,0.3534,0.5521,-1.0405,
4.608747,-0.3467,1.0166,0.2738,-5.7761,1.3815,0.7645,0.3534,0.5521,-1.0405,
4.630062,-0.3467,1.0166,0.2738,-1.1766,-0.2008,-4.4633,0.3534,0.5521,-1.0405,
4.640260,0.2569,1.0099,-0.5677,-1.1766,-0.2008,-4.4633,0.3534,0.5521,-1.0405,
4.642204,0.2569,1.0099,-0.5677,-1.1766,-0.2008,-4.4633,0.3800,-0.1346,-0.5849,
4.649895,0.2569,1.0099,-0.5677,0.7957,0.1300,-4.0544,0.3800,-0.1346,-0.5849,
4.668526,0.2569,1.0099,-0.5677,-1.5140,0.0030,-0.9937,0.3800,-0.1346,-0.5849,
4.689604,0.2569,1.0099,-0.5677,-0.7844,0.0346,1.6523,0.3800,-0.1346,-0.5849,
4.706498,0.1080,0.9641,0.0796,-0.7844,0.0346,1.6523,0.3800,-0.1346,-0.5849,
4.708056,0.1080,0.9641,0.0796,-0.7844,0.0346,1.6523,0.3688,-0.0281,-0.4529,
4.709414,0.1080,0.9641,0.0796,0.1724,-0.2703,1.8820,0.3688,-0.0281,-0.4529,
4.729174,0.1080,0.9641,0.0796,-2.3203,0.2106,-0.1395,0.3688,-0.0281,-0.4529,
4.748348,0.1080,0.9641,0.0796,-2.7398,-0.0010,-0.8358,0.3688,-0.0281,-0.4529,
4.768496,0.1080,0.9641,0.0796,1.2085,-0.0421,-1.4202,0.3688,-0.0281,-0.4529,
4.771921,0.2383,0.9868,-0.2890,1.2085,-0.0421,-1.4202,0.3688,-0.0281,-0.4529,
4.772866,0.2383,0.9868,-0.2890,1.2085,-0.0421,-1.4202,0.2395,-0.1197,-0.1548,
4.790192,0.2383,0.9868,-0.2890,0.8507,-0.0162,-0.6574,0.2395,-0.1197,-0.1548,
4.809409,0.2383,0.9868,-0.2890,-0.2828,-0.0242,0.3629,0.2395,-0.1197,-0.1548,
4.829059,0.2383,0.9868,-0.2890,-0.3960,0.0970,0.2348,0.2395,-0.1197,-0.1548,
4.838445,-0.0477,0.9965,-0.1741,-0.3960,0.0970,0.2348,0.2395,-0.1197,-0.1548,
4.841030,-0.0477,0.9965,-0.1741,-0.3960,0.0970,0.2348,0.2432,-0.1782,-0.2367,
4.848843,-0.0477,0.9965,-0.1741,-1.0678,0.0336,-0.2994,0.2432,-0.1782,-0.2367,
4.869728,-0.0477,0.9965,-0.1741,0.4008,-0.0389,-0.0541,0.2432,-0.1782,-0.2367,
4.889662,-0.0477,0.9965,-0.1741,0.1418,0.0463,0.1843,0.2432,-0.1782,-0.2367,
4.905536,-0.0068,0.9947,-0.1915,0.1418,0.0463,0.1843,0.2432,-0.1782,-0.2367,
4.908253,-0.0068,0.9947,-0.1915,0.1418,0.0463,0.1843,0.2916,-0.1250,-0.2240,
4.909596,-0.0068,0.9947,-0.1915,-0.3085,0.0637,-0.2791,0.2916,-0.1250,-0.2240,
4.928745,-0.0068,0.9947,-0.1915,-0.0413,-0.0548,-0.4462,0.2916,-0.1250,-0.2240,
4.948747,-0.0068,0.9947,-0.1915,-0.5931,0.0121,-0.4141,0.2916,-0.1250,-0.2240,
4.970115,-0.0068,0.9947,-0.1915,-0.7062,-0.0192,-0.7800,0.2916,-0.1250,-0.2240,
4.972133,-0.0453,0.9813,-0.2736,-0.7062,-0.0192,-0.7800,0.2916,-0.1250,-0.2240,
4.973374,-0.0453,0.9813,-0.2736,-0.7062,-0.0192,-0.7800,0.1522,-0.0132,-0.1808,
4.989009,-0.0453,0.9813,-0.2736,0.1878,0.0161,-0.5011,0.1522,-0.0132,-0.1808,
5.010243,-0.0453,0.9813,-0.2736,0.8060,0.0598,-0.2214,0.1522,-0.0132,-0.1808,
5.030922,-0.0453,0.9813,-0.2736,0.3612,0.0343,-0.5145,0.1522,-0.0132,-0.1808,
5.037565,-0.0404,0.9777,-0.2388,0.3612,0.0343,-0.5145,0.1522,-0.0132,-0.1808,
5.039531,-0.0404,0.9777,-0.2388,0.3612,0.0343,-0.5145,0.1096,-0.0121,-0.3778,
5.049052,-0.0404,0.9777,-0.2388,-0.9478,-0.2154,-0.4998,0.1096,-0.0121,-0.3778,
5.068426,-0.0404,0.9777,-0.2388,-0.8438,-0.2110,-0.7564,0.1096,-0.0121,-0.3778,
5.088151,-0.0404,0.9777,-0.2388,0.4085,0.0563,-0.5815,0.1096,-0.0121,-0.3778,
5.105335,0.0485,0.9904,-0.1378,0.4085,0.0563,-0.5815,0.1096,-0.0121,-0.3778,
5.107723,0.0485,0.9904,-0.1378,0.4085,0.0563,-0.5815,0.0063,-0.0553,-0.3730,
5.108827,0.0485,0.9904,-0.1378,0.5844,0.1163,0.7513,0.0063,-0.0553,-0.3730,
5.128722,0.0485,0.9904,-0.1378,-0.8555,0.2569,0.2062,0.0063,-0.0553,-0.3730,
5.148924,0.0485,0.9904,-0.1378,0.3950,0.3980,-0.4853,0.0063,-0.0553,-0.3730,
5.167935,0.0946,1.0314,-0.2352,0.3950,0.3980,-0.4853,0.0063,-0.0553,-0.3730,
5.170516,0.0946,1.0314,-0.2352,0.3950,0.3980,-0.4853,-0.1214,0.0097,-0.4784,
5.170846,0.0946,1.0314,-0.2352,1.3912,0.4773,-0.3876,-0.1214,0.0097,-0.4784,
5.188144,0.0946,1.0314,-0.2352,1.2163,0.2719,0.2386,-0.1214,0.0097,-0.4784,
5.208707,0.0946,1.0314,-0.2352,-0.4353,0.3071,0.9042,-0.1214,0.0097,-0.4784,
5.228152,0.0946,1.0314,-0.2352,-0.5612,-0.1718,-1.4412,-0.1214,0.0097,-0.4784,
5.233791,-0.0647,1.0249,-0.3854,-0.5612,-0.1718,-1.4412,-0.1214,0.0097,-0.4784,
5.235232,-0.0647,1.0249,-0.3854,-0.5612,-0.1718,-1.4412,-0.0884,-0.0723,-0.6833,
5.248256,-0.0647,1.0249,-0.3854,0.5601,0.6730,-1.4852,-0.0884,-0.0723,-0.6833,
5.268134,-0.0647,1.0249,-0.3854,0.8173,1.5952,-1.2443,-0.0884,-0.0723,-0.6833,
5.288359,-0.0647,1.0249,-0.3854,3.0342,2.2504,0.3380,-0.0884,-0.0723,-0.6833,
5.299629,0.1129,1.1598,-0.1635,3.0342,2.2504,0.3380,-0.0884,-0.0723,-0.6833,
5.300638,0.1129,1.1598,-0.1635,3.0342,2.2504,0.3380,-0.2758,-0.2123,-1.0368,
5.308164,0.1129,1.1598,-0.1635,2.7413,2.0585,0.5079,-0.2758,-0.2123,-1.0368,
5.328867,0.1129,1.1598,-0.1635,4.5298,2.4951,0.4718,-0.2758,-0.2123,-1.0368,
5.348480,0.1129,1.1598,-0.1635,5.4376,3.0602,-0.0293,-0.2758,-0.2123,-1.0368,
5.366637,0.4062,1.4199,-0.1881,5.4376,3.0602,-0.0293,-0.2758,-0.2123,-1.0368,
5.369296,0.4062,1.4199,-0.1881,5.4376,3.0602,-0.0293,-0.1065,-0.2911,-2.3767,
5.371193,0.4062,1.4199,-0.1881,6.3047,4.5160,-0.1772,-0.1065,-0.2911,-2.3767,
5.388426,0.4062,1.4199,-0.1881,6.4428,5.0614,0.2136,-0.1065,-0.2911,-2.3767,
5.408554,0.4062,1.4199,-0.1881,3.9554,4.7207,-0.1666,-0.1065,-0.2911,-2.3767,
5.432278,0.4062,1.4199,-0.1881,1.9515,3.3932,-0.6212,-0.1065,-0.2911,-2.3767,
5.434294,-0.1929,1.2627,-0.2917,1.9515,3.3932,-0.6212,-0.1065,-0.2911,-2.3767,
5.435096,-0.1929,1.2627,-0.2917,1.9515,3.3932,-0.6212,0.2357,-0.3507,-3.1214,
5.449082,-0.1929,1.2627,-0.2917,2.4389,1.8932,-1.5348,0.2357,-0.3507,-3.1214,
5.468562,-0.1929,1.2627,-0.2917,3.1768,-2.3496,0.2146,0.2357,-0.3507,-3.1214,
5.489651,-0.1929,1.2627,-0.2917,7.3708,-1.3243,1.0708,0.2357,-0.3507,-3.1214,
5.497982,-0.6291,0.7917,-0.0467,7.3708,-1.3243,1.0708,0.2357,-0.3507,-3.1214,
5.499530,-0.6291,0.7917,-0.0467,7.3708,-1.3243,1.0708,0.1362,0.6341,-1.8987,
5.509177,-0.6291,0.7917,-0.0467,-1.1652,-2.4733,-0.2415,0.1362,0.6341,-1.8987,
5.528873,-0.6291,0.7917,-0.0467,3.8847,-3.5943,1.1504,0.1362,0.6341,-1.8987,
5.548512,-0.6291,0.7917,-0.0467,5.1639,-3.4898,0.8260,0.1362,0.6341,-1.8987,
5.563940,-0.0758,0.4638,-0.1512,5.1639,-3.4898,0.8260,0.1362,0.6341,-1.8987,
5.565673,-0.0758,0.4638,-0.1512,5.1639,-3.4898,0.8260,0.0771,0.3738,0.4590,
5.568468,-0.0758,0.4638,-0.1512,5.0368,-2.9982,0.4414,0.0771,0.3738,0.4590,
5.588554,-0.0758,0.4638,-0.1512,2.4391,-1.8133,0.3637,0.0771,0.3738,0.4590,
5.609082,-0.0758,0.4638,-0.1512,-2.9712,-1.9079,0.6006,0.0771,0.3738,0.4590,
5.628511,-0.0758,0.4638,-0.1512,-3.3375,-2.3998,1.1258,0.0771,0.3738,0.4590,
5.630827,-0.8559,0.5632,-0.0949,-3.3375,-2.3998,1.1258,0.0771,0.3738,0.4590,
5.631618,-0.8559,0.5632,-0.0949,-3.3375,-2.3998,1.1258,0.0186,0.3402,3.1611,
5.648544,-0.8559,0.5632,-0.0949,-1.0438,-3.1278,0.8367,0.0186,0.3402,3.1611,
5.668486,-0.8559,0.5632,-0.0949,5.8534,-2.5570,0.6922,0.0186,0.3402,3.1611,
5.689348,-0.8559,0.5632,-0.0949,7.8575,-0.0982,0.8259,0.0186,0.3402,3.1611,
5.696209,0.0799,0.9614,-0.1634,7.8575,-0.0982,0.8259,0.0186,0.3402,3.1611,
5.697430,0.0799,0.9614,-0.1634,7.8575,-0.0982,0.8259,-0.2423,-0.3747,3.5279,
5.708620,0.0799,0.9614,-0.1634,2.4354,0.4271,0.2912,-0.2423,-0.3747,3.5279,
5.729511,0.0799,0.9614,-0.1634,1.9217,2.1309,0.1246,-0.2423,-0.3747,3.5279,
5.748491,0.0799,0.9614,-0.1634,-1.4227,2.0062,0.2396,-0.2423,-0.3747,3.5279,
5.762067,-0.1923,1.1740,-0.0812,-1.4227,2.0062,0.2396,-0.2423,-0.3747,3.5279,
5.764648,-0.1923,1.1740,-0.0812,-1.4227,2.0062,0.2396,-0.3780,-0.5722,3.0189,
5.768748,-0.1923,1.1740,-0.0812,-0.3379,1.9979,0.9826,-0.3780,-0.5722,3.0189,
5.788713,-0.1923,1.1740,-0.0812,2.3824,3.2904,0.4007,-0.3780,-0.5722,3.0189,
5.810042,-0.1923,1.1740,-0.0812,-1.7753,4.3867,0.6609,-0.3780,-0.5722,3.0189,
5.828889,-0.9749,1.1995,-0.0729,-1.7753,4.3867,0.6609,-0.3780,-0.5722,3.0189,
5.831874,-0.9749,1.1995,-0.0729,-1.7753,4.3867,0.6609,-0.4350,-0.1293,2.0134,
5.832879,-0.9749,1.1995,-0.0729,-9.4521,2.3419,0.7004,-0.4350,-0.1293,2.0134,
5.849457,-0.9749,1.1995,-0.0729,-11.6204,0.2948,1.5546,-0.4350,-0.1293,2.0134,
5.868717,-0.9749,1.1995,-0.0729,-6.1619,0.5234,0.6320,-0.4350,-0.1293,2.0134,
5.896160,-0.9749,1.1995,-0.0729,-3.0310,0.9647,-0.2446,-0.4350,-0.1293,2.0134,
5.899107,-0.0998,1.0728,-0.1389,-3.0310,0.9647,-0.2446,-0.4350,-0.1293,2.0134,
5.900110,-0.0998,1.0728,-0.1389,-3.0310,0.9647,-0.2446,-0.1906,0.1779,2.0539,
5.910226,-0.0998,1.0728,-0.1389,-2.7597,0.8661,0.0265,-0.1906,0.1779,2.0539,
5.929856,-0.0998,1.0728,-0.1389,-3.1507,0.2462,-0.2195,-0.1906,0.1779,2.0539,
5.948691,-0.0998,1.0728,-0.1389,-4.5769,-0.2153,-0.1893,-0.1906,0.1779,2.0539,
5.960172,-0.2587,0.9197,-0.1435,-4.5769,-0.2153,-0.1893,-0.1906,0.1779,2.0539,
5.962906,-0.2587,0.9197,-0.1435,-4.5769,-0.2153,-0.1893,-0.0336,-0.0201,-0.1116,
5.968680,-0.2587,0.9197,-0.1435,-5.4243,-0.2217,-0.3299,-0.0336,-0.0201,-0.1116,
5.989483,-0.2587,0.9197,-0.1435,-0.3887,8.2645,-1.3196,-0.0336,-0.0201,-0.1116,
6.009309,-0.2587,0.9197,-0.1435,-3.3844,-2.9907,-3.8272,-0.0336,-0.0201,-0.1116,
6.026846,-0.0956,1.0885,-0.2453,-3.3844,-2.9907,-3.8272,-0.0336,-0.0201,-0.1116,
6.030172,-0.0956,1.0885,-0.2453,-3.3844,-2.9907,-3.8272,0.3954,-0.2304,-1.0501,
6.031708,-0.0956,1.0885,-0.2453,-3.2020,1.2098,-1.0310,0.3954,-0.2304,-1.0501,
6.048675,-0.0956,1.0885,-0.2453,2.9187,3.2175,3.5659,0.3954,-0.2304,-1.0501,
6.068521,-0.0956,1.0885,-0.2453,-0.8888,-1.6765,1.8035,0.3954,-0.2304,-1.0501,
6.088735,-0.0956,1.0885,-0.2453,-3.5780,1.1008,2.2805,0.3954,-0.2304,-1.0501,
6.092316,-0.2375,1.2078,0.1332,-3.5780,1.1008,2.2805,0.3954,-0.2304,-1.0501,
6.094159,-0.2375,1.2078,0.1332,-3.5780,1.1008,2.2805,0.2059,0.0602,-1.4728,
6.108699,-0.2375,1.2078,0.1332,-8.5981,1.6835,1.7974,0.2059,0.0602,-1.4728,
6.128678,-0.2375,1.2078,0.1332,-5.2014,0.7475,-3.2482,0.2059,0.0602,-1.4728,
6.148865,-0.2375,1.2078,0.1332,0.3914,-0.4197,-4.4025,0.2059,0.0602,-1.4728,
6.158216,0.2636,0.9760,-0.5387,0.3914,-0.4197,-4.4025,0.2059,0.0602,-1.4728,
6.160949,0.2636,0.9760,-0.5387,0.3914,-0.4197,-4.4025,0.1458,0.1092,-0.5460,
6.169243,0.2636,0.9760,-0.5387,1.3753,0.1103,-2.1240,0.1458,0.1092,-0.5460,
6.188627,0.2636,0.9760,-0.5387,-1.5483,-0.4186,1.0595,0.1458,0.1092,-0.5460,
6.210632,0.2636,0.9760,-0.5387,-2.8522,0.3745,2.9895,0.1458,0.1092,-0.5460,
6.224140,-0.2339,0.9909,-0.0321,-2.8522,0.3745,2.9895,0.1458,0.1092,-0.5460,
6.227601,-0.2339,0.9909,-0.0321,-2.8522,0.3745,2.9895,0.4007,-0.3853,-0.0749,
6.228910,-0.2339,0.9909,-0.0321,-2.7093,0.0814,1.2336,0.4007,-0.3853,-0.0749,
6.248946,-0.2339,0.9909,-0.0321,0.0355,0.0370,-1.5951,0.4007,-0.3853,-0.0749,
6.268567,-0.2339,0.9909,-0.0321,1.5111,-0.0170,-1.0909,0.4007,-0.3853,-0.0749,
6.288657,-0.2339,0.9909,-0.0321,-0.2458,0.0891,-1.0506,0.4007,-0.3853,-0.0749,
6.292668,0.0021,0.9896,-0.3001,-0.2458,0.0891,-1.0506,0.4007,-0.3853,-0.0749,
6.294102,0.0021,0.9896,-0.3001,-0.2458,0.0891,-1.0506,0.1319,-0.1489,-0.2149,
6.308502,0.0021,0.9896,-0.3001,-0.7801,-0.0350,0.5391,0.1319,-0.1489,-0.2149,
6.329326,0.0021,0.9896,-0.3001,-0.3180,-0.1385,-0.0506,0.1319,-0.1489,-0.2149,
6.348985,0.0021,0.9896,-0.3001,-0.0932,0.0337,0.0995,0.1319,-0.1489,-0.2149,
6.358233,0.0312,0.9795,-0.2207,-0.0932,0.0337,0.0995,0.1319,-0.1489,-0.2149,
6.361006,0.0312,0.9795,-0.2207,-0.0932,0.0337,0.0995,0.1857,-0.1325,-0.1132,
6.368662,0.0312,0.9795,-0.2207,-0.0809,0.0011,0.0180,0.1857,-0.1325,-0.1132,
6.388823,0.0312,0.9795,-0.2207,0.2820,-0.0116,-0.2205,0.1857,-0.1325,-0.1132,
6.409026,0.0312,0.9795,-0.2207,-0.4078,0.0247,-0.4485,0.1857,-0.1325,-0.1132,
6.424841,-0.1006,0.9669,-0.2703,-0.4078,0.0247,-0.4485,0.1857,-0.1325,-0.1132,
6.427572,-0.1006,0.9669,-0.2703,-0.4078,0.0247,-0.4485,0.1351,-0.0712,-0.0818,
6.429364,-0.1006,0.9669,-0.2703,-1.2592,-0.0476,-0.2690,0.1351,-0.0712,-0.0818,
6.448703,-0.1006,0.9669,-0.2703,-0.0571,-0.1303,-0.1454,0.1351,-0.0712,-0.0818,
6.468787,-0.1006,0.9669,-0.2703,0.5876,0.0912,-0.0613,0.1351,-0.0712,-0.0818,
6.488743,0.0101,0.9712,-0.2099,0.5876,0.0912,-0.0613,0.1351,-0.0712,-0.0818,
6.491448,0.0101,0.9712,-0.2099,0.5876,0.0912,-0.0613,0.1639,-0.1064,-0.0946,
6.493033,0.0101,0.9712,-0.2099,-0.2035,-0.0209,0.3859,0.1639,-0.1064,-0.0946,
6.508470,0.0101,0.9712,-0.2099,0.0484,0.0646,-0.1020,0.1639,-0.1064,-0.0946,
6.529439,0.0101,0.9712,-0.2099,-0.0364,-0.0068,-0.5229,0.1639,-0.1064,-0.0946,
6.548834,0.0101,0.9712,-0.2099,-0.3406,-0.0797,-0.5370,0.1639,-0.1064,-0.0946,
6.554236,0.0304,0.9718,-0.2978,-0.3406,-0.0797,-0.5370,0.1639,-0.1064,-0.0946,
6.556259,0.0304,0.9718,-0.2978,-0.3406,-0.0797,-0.5370,0.0824,-0.0627,-0.0770,
6.570492,0.0304,0.9718,-0.2978,0.4945,0.0328,-0.0559,0.0824,-0.0627,-0.0770,
6.588651,0.0304,0.9718,-0.2978,0.0982,0.0360,0.0271,0.0824,-0.0627,-0.0770,
6.608909,0.0304,0.9718,-0.2978,-0.5211,-0.1069,0.0845,0.0824,-0.0627,-0.0770,
6.620261,-0.0533,0.9674,-0.2393,-0.5211,-0.1069,0.0845,0.0824,-0.0627,-0.0770,
6.622056,-0.0533,0.9674,-0.2393,-0.5211,-0.1069,0.0845,0.1106,-0.1170,-0.1047,
6.628669,-0.0533,0.9674,-0.2393,-0.6438,0.0060,0.0568,0.1106,-0.1170,-0.1047,
6.648812,-0.0533,0.9674,-0.2393,0.0957,0.0410,-0.8233,0.1106,-0.1170,-0.1047,
6.668651,-0.0533,0.9674,-0.2393,1.2873,0.1130,-0.9475,0.1106,-0.1170,-0.1047,
6.686859,0.0472,0.9857,-0.2562,1.2873,0.1130,-0.9475,0.1106,-0.1170,-0.1047,
6.689917,0.0472,0.9857,-0.2562,1.2873,0.1130,-0.9475,-0.0623,-0.1175,-0.2862,
6.691396,0.0472,0.9857,-0.2562,0.4079,0.1809,0.0509,-0.0623,-0.1175,-0.2862,
6.708865,0.0472,0.9857,-0.2562,-1.0852,-0.0768,0.4916,-0.0623,-0.1175,-0.2862,
6.729170,0.0472,0.9857,-0.2562,-0.8179,-0.1373,-0.6820,-0.0623,-0.1175,-0.2862,
6.748697,0.0472,0.9857,-0.2562,0.7937,0.1333,-0.3540,-0.0623,-0.1175,-0.2862,
6.752109,0.1049,0.9963,-0.3019,0.7937,0.1333,-0.3540,-0.0623,-0.1175,-0.2862,
6.752854,0.1049,0.9963,-0.3019,0.7937,0.1333,-0.3540,-0.1326,-0.0036,-0.1824,
6.768632,0.1049,0.9963,-0.3019,1.0301,0.4708,-0.4751,-0.1326,-0.0036,-0.1824,
6.788726,0.1049,0.9963,-0.3019,0.4591,0.3354,-0.3421,-0.1326,-0.0036,-0.1824,
6.809152,0.1049,0.9963,-0.3019,0.8337,0.3660,0.1382,-0.1326,-0.0036,-0.1824,
6.818506,0.0886,1.0093,-0.1690,0.8337,0.3660,0.1382,-0.1326,-0.0036,-0.1824,
6.820082,0.0886,1.0093,-0.1690,0.8337,0.3660,0.1382,-0.1938,-0.0867,-0.4997,
6.829045,0.0886,1.0093,-0.1690,1.3487,0.5344,0.6843,-0.1938,-0.0867,-0.4997,
6.848722,0.0886,1.0093,-0.1690,1.9543,0.8638,0.3454,-0.1938,-0.0867,-0.4997,
6.868649,0.0886,1.0093,-0.1690,4.0517,1.6099,0.0095,-0.1938,-0.0867,-0.4997,
6.884178,0.5262,1.2689,-0.1413,4.0517,1.6099,0.0095,-0.1938,-0.0867,-0.4997,
6.886901,0.5262,1.2689,-0.1413,4.0517,1.6099,0.0095,-0.0256,0.2561,-1.8832,
6.888839,0.5262,1.2689,-0.1413,6.0807,2.9931,0.6556,-0.0256,0.2561,-1.8832,
6.909570,0.5262,1.2689,-0.1413,3.3706,4.1203,-0.6771,-0.0256,0.2561,-1.8832,
6.930226,0.5262,1.2689,-0.1413,3.1742,2.5684,0.0785,-0.0256,0.2561,-1.8832,
6.949242,0.5262,1.2689,-0.1413,3.5324,2.4939,0.0378,-0.0256,0.2561,-1.8832,
6.951897,0.1782,1.2135,-0.2492,3.5324,2.4939,0.0378,-0.0256,0.2561,-1.8832,
6.952853,0.1782,1.2135,-0.2492,3.5324,2.4939,0.0378,-0.0528,-0.0963,-2.1142,
6.969265,0.1782,1.2135,-0.2492,3.1875,1.8826,0.4152,-0.0528,-0.0963,-2.1142,
6.988677,0.1782,1.2135,-0.2492,2.8694,2.4058,0.0810,-0.0528,-0.0963,-2.1142,
7.009535,0.1782,1.2135,-0.2492,2.8111,0.6453,1.0237,-0.0528,-0.0963,-2.1142,
7.016064,-0.0989,0.9798,-0.2021,2.8111,0.6453,1.0237,-0.0528,-0.0963,-2.1142,
7.017659,-0.0989,0.9798,-0.2021,2.8111,0.6453,1.0237,0.0547,0.3264,-1.9801,
7.028592,-0.0989,0.9798,-0.2021,2.1770,0.8684,-0.6998,0.0547,0.3264,-1.9801,
7.049394,-0.0989,0.9798,-0.2021,4.2755,-0.0918,1.0153,0.0547,0.3264,-1.9801,
7.068642,-0.0989,0.9798,-0.2021,2.3474,-0.8281,0.0485,0.0547,0.3264,-1.9801,
7.082393,-0.1369,0.6528,-0.1850,2.3474,-0.8281,0.0485,0.0547,0.3264,-1.9801,
7.085135,-0.1369,0.6528,-0.1850,2.3474,-0.8281,0.0485,-0.2875,0.5329,-0.4380,
7.088740,-0.1369,0.6528,-0.1850,3.1332,-2.3364,0.6648,-0.2875,0.5329,-0.4380,
7.109007,-0.1369,0.6528,-0.1850,3.9934,-2.3071,0.8977,-0.2875,0.5329,-0.4380,
7.129286,-0.1369,0.6528,-0.1850,4.1348,-1.9032,0.8067,-0.2875,0.5329,-0.4380,
7.148283,-0.0414,0.7338,-0.1237,4.1348,-1.9032,0.8067,-0.2875,0.5329,-0.4380,
7.151073,-0.0414,0.7338,-0.1237,4.1348,-1.9032,0.8067,-0.7725,0.8651,0.9950,
7.152459,-0.0414,0.7338,-0.1237,3.6608,-1.5192,0.9322,-0.7725,0.8651,0.9950,
7.168392,-0.0414,0.7338,-0.1237,3.3260,-1.6185,1.1581,-0.7725,0.8651,0.9950,
7.188462,-0.0414,0.7338,-0.1237,3.1176,-1.4981,1.0878,-0.7725,0.8651,0.9950,
7.208979,-0.0414,0.7338,-0.1237,2.9061,-0.7638,0.4376,-0.7725,0.8651,0.9950,
7.215032,0.0020,0.9055,-0.1777,2.9061,-0.7638,0.4376,-0.7725,0.8651,0.9950,
7.216664,0.0020,0.9055,-0.1777,2.9061,-0.7638,0.4376,-1.0514,1.9122,1.9969,
7.228940,0.0020,0.9055,-0.1777,3.2474,0.3972,-0.1047,-1.0514,1.9122,1.9969,
7.249415,0.0020,0.9055,-0.1777,3.6935,0.9782,-0.7551,-1.0514,1.9122,1.9969,
7.268459,0.0020,0.9055,-0.1777,4.3433,1.4516,-1.2815,-1.0514,1.9122,1.9969,
7.280198,0.2036,1.1670,-0.3434,4.3433,1.4516,-1.2815,-1.0514,1.9122,1.9969,
7.283516,0.2036,1.1670,-0.3434,4.3433,1.4516,-1.2815,-1.2707,2.6697,1.6482,
7.289285,0.2036,1.1670,-0.3434,2.6429,1.8628,-2.1856,-1.2707,2.6697,1.6482,
7.309148,0.2036,1.1670,-0.3434,-0.5551,1.5648,-3.3518,-1.2707,2.6697,1.6482,
7.329281,0.2036,1.1670,-0.3434,-2.6827,0.9102,-3.1012,-1.2707,2.6697,1.6482,
7.349690,-0.3653,1.0859,-0.3725,-2.6827,0.9102,-3.1012,-1.2707,2.6697,1.6482,
7.352435,-0.3653,1.0859,-0.3725,-2.6827,0.9102,-3.1012,-1.3080,2.9848,1.9724,
7.353493,-0.3653,1.0859,-0.3725,-3.4194,0.8574,-2.8496,-1.3080,2.9848,1.9724,
7.368943,-0.3653,1.0859,-0.3725,-1.2764,0.8821,-3.2686,-1.3080,2.9848,1.9724,
7.388259,-0.3653,1.0859,-0.3725,-0.0211,0.9004,-3.9370,-1.3080,2.9848,1.9724,
7.409615,-0.3653,1.0859,-0.3725,-0.4668,0.8003,-4.9653,-1.3080,2.9848,1.9724,
7.413864,0.0588,1.0680,-0.5326,-0.4668,0.8003,-4.9653,-1.3080,2.9848,1.9724,
7.414907,0.0588,1.0680,-0.5326,-0.4668,0.8003,-4.9653,-0.7730,3.2664,1.3746,
7.428376,0.0588,1.0680,-0.5326,-0.8609,0.4245,-5.2700,-0.7730,3.2664,1.3746,
7.449173,0.0588,1.0680,-0.5326,-2.4442,-0.0104,-5.4341,-0.7730,3.2664,1.3746,
7.468602,0.0588,1.0680,-0.5326,-5.2766,-0.0108,-5.4162,-0.7730,3.2664,1.3746,
7.481179,-0.4496,0.9514,-0.4182,-5.2766,-0.0108,-5.4162,-0.7730,3.2664,1.3746,
7.483711,-0.4496,0.9514,-0.4182,-5.2766,-0.0108,-5.4162,-0.0288,3.1472,0.6320,
7.494067,-0.4496,0.9514,-0.4182,-5.1840,-0.3016,-4.4757,-0.0288,3.1472,0.6320,
7.509114,-0.4496,0.9514,-0.4182,-0.9527,0.2876,-4.9295,-0.0288,3.1472,0.6320,
7.528941,-0.4496,0.9514,-0.4182,-0.4170,0.2598,-4.6882,-0.0288,3.1472,0.6320,
7.543812,-0.1060,0.8883,-0.3211,-0.4170,0.2598,-4.6882,-0.0288,3.1472,0.6320,
7.546176,-0.1060,0.8883,-0.3211,-0.4170,0.2598,-4.6882,0.8458,3.4794,-0.5380,
7.548516,-0.1060,0.8883,-0.3211,-2.8279,-1.0284,-3.8838,0.8458,3.4794,-0.5380,
7.568479,-0.1060,0.8883,-0.3211,-1.7662,0.2447,-4.0014,0.8458,3.4794,-0.5380,
7.588457,-0.1060,0.8883,-0.3211,-0.9040,-0.5216,-2.8264,0.8458,3.4794,-0.5380,
7.609914,-0.1060,0.8883,-0.3211,-2.0010,0.7867,-3.9527,0.8458,3.4794,-0.5380,
7.612274,-0.1146,1.1044,-0.2567,-2.0010,0.7867,-3.9527,0.8458,3.4794,-0.5380,
7.613231,-0.1146,1.1044,-0.2567,-2.0010,0.7867,-3.9527,0.9272,3.4836,-1.0432,
7.628602,-0.1146,1.1044,-0.2567,-1.2949,1.0113,-0.5108,0.9272,3.4836,-1.0432,
7.649036,-0.1146,1.1044,-0.2567,0.0974,2.6858,-2.2491,0.9272,3.4836,-1.0432,
7.668541,-0.1146,1.1044,-0.2567,-2.0481,1.2274,-2.7511,0.9272,3.4836,-1.0432,
7.678778,-0.4708,1.0273,0.0469,-2.0481,1.2274,-2.7511,0.9272,3.4836,-1.0432,
7.680530,-0.4708,1.0273,0.0469,-2.0481,1.2274,-2.7511,0.6579,1.2367,-1.6868,
7.688902,-0.4708,1.0273,0.0469,-7.6043,0.0109,0.2600,0.6579,1.2367,-1.6868,
7.709570,-0.4708,1.0273,0.0469,-9.6096,-0.4868,-2.1810,0.6579,1.2367,-1.6868,
7.728759,-0.4708,1.0273,0.0469,-2.2496,0.0657,0.2009,0.6579,1.2367,-1.6868,
7.742255,0.0028,0.9981,-0.1555,-2.2496,0.0657,0.2009,0.6579,1.2367,-1.6868,
7.743942,0.0028,0.9981,-0.1555,-2.2496,0.0657,0.2009,0.4460,-0.3097,0.1524,
7.748990,0.0028,0.9981,-0.1555,0.7303,-0.0386,-0.7252,0.4460,-0.3097,0.1524,
7.768905,0.0028,0.9981,-0.1555,1.8524,1.2393,-0.7191,0.4460,-0.3097,0.1524,
7.788606,0.0028,0.9981,-0.1555,-1.6319,-0.4800,-1.5542,0.4460,-0.3097,0.1524,
7.807823,0.0378,1.0306,-0.0536,-1.6319,-0.4800,-1.5542,0.4460,-0.3097,0.1524,
7.810676,0.0378,1.0306,-0.0536,-1.6319,-0.4800,-1.5542,0.4870,0.0107,0.0363,
7.812260,0.0378,1.0306,-0.0536,0.4512,0.3289,0.3743,0.4870,0.0107,0.0363,
7.829159,0.0378,1.0306,-0.0536,0.1990,-0.0465,-1.0182,0.4870,0.0107,0.0363,
7.849059,0.0378,1.0306,-0.0536,-1.2319,-0.0206,0.4582,0.4870,0.0107,0.0363,
7.868719,0.0378,1.0306,-0.0536,0.2344,0.0153,-0.3396,0.4870,0.0107,0.0363,
7.874445,0.0451,1.0069,-0.1430,0.2344,0.0153,-0.3396,0.4870,0.0107,0.0363,
7.876069,0.0451,1.0069,-0.1430,0.2344,0.0153,-0.3396,0.3699,0.0326,0.0518,
7.888636,0.0451,1.0069,-0.1430,0.5019,0.0028,-0.5172,0.3699,0.0326,0.0518,
7.908258,0.0451,1.0069,-0.1430,-0.1035,-0.0679,-0.5125,0.3699,0.0326,0.0518,
7.929229,0.0451,1.0069,-0.1430,-0.1564,0.0284,-0.1668,0.3699,0.0326,0.0518,
7.940329,-0.0558,0.9944,-0.1141,-0.1564,0.0284,-0.1668,0.3699,0.0326,0.0518,
7.942357,-0.0558,0.9944,-0.1141,-0.1564,0.0284,-0.1668,0.3102,0.0421,-0.0238,
7.948590,-0.0558,0.9944,-0.1141,-0.3291,-0.0421,-0.0720,0.3102,0.0421,-0.0238,
7.968879,-0.0558,0.9944,-0.1141,0.5865,0.0636,-0.3053,0.3102,0.0421,-0.0238,
7.988895,-0.0558,0.9944,-0.1141,-0.0350,0.0507,0.4880,0.3102,0.0421,-0.0238,
8.014283,0.0366,0.9832,-0.1860,-0.0350,0.0507,0.4880,0.3102,0.0421,-0.0238,
8.017456,0.0366,0.9832,-0.1860,-0.0350,0.0507,0.4880,0.2464,0.0363,-0.1617,
8.018964,0.0366,0.9832,-0.1860,0.6226,-0.0787,-0.4591,0.2464,0.0363,-0.1617,
8.029270,0.0366,0.9832,-0.1860,-1.3792,-0.1106,-0.0017,0.2464,0.0363,-0.1617,
8.048576,0.0366,0.9832,-0.1860,-0.2663,0.0033,-0.9335,0.2464,0.0363,-0.1617,
8.068469,0.0366,0.9832,-0.1860,-0.0970,-0.0208,-1.2427,0.2464,0.0363,-0.1617,
8.072273,-0.0662,0.9889,-0.2566,-0.0970,-0.0208,-1.2427,0.2464,0.0363,-0.1617,
8.073705,-0.0662,0.9889,-0.2566,-0.0970,-0.0208,-1.2427,-0.0043,0.0528,-0.0297,
8.088765,-0.0662,0.9889,-0.2566,-0.4246,0.0295,-0.5191,-0.0043,0.0528,-0.0297,
8.108314,-0.0662,0.9889,-0.2566,0.6325,0.0089,0.0238,-0.0043,0.0528,-0.0297,
8.128773,-0.0662,0.9889,-0.2566,0.4579,0.1151,0.7087,-0.0043,0.0528,-0.0297,
8.138048,0.0022,1.0099,-0.1844,0.4579,0.1151,0.7087,-0.0043,0.0528,-0.0297,
8.138877,0.0022,1.0099,-0.1844,0.4579,0.1151,0.7087,-0.0352,-0.0382,-0.1292,
8.148346,0.0022,1.0099,-0.1844,0.2223,0.0961,-0.8020,-0.0352,-0.0382,-0.1292,
8.169510,0.0022,1.0099,-0.1844,-0.9146,-0.1494,-0.2335,-0.0352,-0.0382,-0.1292,
8.188790,0.0022,1.0099,-0.1844,-0.2014,0.0938,-0.0838,-0.0352,-0.0382,-0.1292,
8.204145,0.0274,0.9964,-0.1483,-0.2014,0.0938,-0.0838,-0.0352,-0.0382,-0.1292,
8.206773,0.0274,0.9964,-0.1483,-0.2014,0.0938,-0.0838,-0.1443,0.0043,-0.0856,
8.208376,0.0274,0.9964,-0.1483,0.7573,0.0620,0.0646,-0.1443,0.0043,-0.0856,
8.228589,0.0274,0.9964,-0.1483,0.1388,0.1668,0.1658,-0.1443,0.0043,-0.0856,
8.249179,0.0274,0.9964,-0.1483,-0.9718,-0.0718,-0.3992,-0.1443,0.0043,-0.0856,
8.269012,0.0274,0.9964,-0.1483,-0.4185,-0.1839,-0.6637,-0.1443,0.0043,-0.0856,
8.271699,-0.0811,0.9715,-0.2054,-0.4185,-0.1839,-0.6637,-0.1443,0.0043,-0.0856,
8.272679,-0.0811,0.9715,-0.2054,-0.4185,-0.1839,-0.6637,-0.2604,-0.0207,-0.0424,
8.288519,-0.0811,0.9715,-0.2054,-0.0951,-0.0626,-0.0562,-0.2604,-0.0207,-0.0424,
8.308491,-0.0811,0.9715,-0.2054,0.0180,0.0479,0.5824,-0.2604,-0.0207,-0.0424,
8.329029,-0.0811,0.9715,-0.2054,-0.4811,0.0121,0.1134,-0.2604,-0.0207,-0.0424,
8.336261,-0.0996,0.9994,-0.1919,-0.4811,0.0121,0.1134,-0.2604,-0.0207,-0.0424,
8.337608,-0.0996,0.9994,-0.1919,-0.4811,0.0121,0.1134,-0.3738,0.0533,-0.0052,
8.348450,-0.0996,0.9994,-0.1919,-0.1724,0.0344,-1.0586,-0.3738,0.0533,-0.0052,
8.368611,-0.0996,0.9994,-0.1919,0.2274,-0.0432,-1.0535,-0.3738,0.0533,-0.0052,
8.388583,-0.0996,0.9994,-0.1919,0.2117,0.0653,-0.4128,-0.3738,0.0533,-0.0052,
8.402134,-0.0496,0.9966,-0.1013,0.2117,0.0653,-0.4128,-0.3738,0.0533,-0.0052,
8.404751,-0.0496,0.9966,-0.1013,0.2117,0.0653,-0.4128,-0.6133,-0.0127,-0.0770,
8.408806,-0.0496,0.9966,-0.1013,-0.0215,0.0463,-0.1711,-0.6133,-0.0127,-0.0770,
8.428648,-0.0496,0.9966,-0.1013,0.3367,0.1066,-0.5284,-0.6133,-0.0127,-0.0770,
8.448494,-0.0496,0.9966,-0.1013,0.9701,0.2267,-0.4633,-0.6133,-0.0127,-0.0770,
8.468267,-0.0356,1.0576,-0.0509,0.9701,0.2267,-0.4633,-0.6133,-0.0127,-0.0770,
8.470840,-0.0356,1.0576,-0.0509,0.9701,0.2267,-0.4633,-0.7980,0.0358,-0.2192,
8.472136,-0.0356,1.0576,-0.0509,0.1044,0.3592,-0.1438,-0.7980,0.0358,-0.2192,
8.489040,-0.0356,1.0576,-0.0509,0.0677,0.0232,-0.0819,-0.7980,0.0358,-0.2192,
8.508859,-0.0356,1.0576,-0.0509,-0.4849,0.6229,-0.8091,-0.7980,0.0358,-0.2192,
8.530086,-0.0356,1.0576,-0.0509,0.1540,1.1264,-0.1990,-0.7980,0.0358,-0.2192,
8.534228,0.0483,1.2483,0.0605,0.1540,1.1264,-0.1990,-0.7980,0.0358,-0.2192,
8.536191,0.0483,1.2483,0.0605,0.1540,1.1264,-0.1990,-1.0839,0.5622,-0.0962,
8.548344,0.0483,1.2483,0.0605,4.0652,3.8502,-0.6831,-1.0839,0.5622,-0.0962,
8.568978,0.0483,1.2483,0.0605,4.8850,1.5180,-1.4525,-1.0839,0.5622,-0.0962,
8.588471,0.0483,1.2483,0.0605,2.6745,2.2797,-1.4718,-1.0839,0.5622,-0.0962,
8.601068,-0.0994,1.3347,-0.2112,2.6745,2.2797,-1.4718,-1.0839,0.5622,-0.0962,
8.603525,-0.0994,1.3347,-0.2112,2.6745,2.2797,-1.4718,-0.7805,0.5511,-1.2348,
8.608306,-0.0994,1.3347,-0.2112,-0.2451,4.0173,-3.7175,-0.7805,0.5511,-1.2348,
8.628445,-0.0994,1.3347,-0.2112,0.0629,4.9657,-4.3797,-0.7805,0.5511,-1.2348,
8.649373,-0.0994,1.3347,-0.2112,6.5473,0.1415,-0.2562,-0.7805,0.5511,-1.2348,
8.666813,-0.2187,0.8779,0.0234,6.5473,0.1415,-0.2562,-0.7805,0.5511,-1.2348,
8.670080,-0.2187,0.8779,0.0234,6.5473,0.1415,-0.2562,-0.4302,4.9198,-1.1108,
8.671665,-0.2187,0.8779,0.0234,-0.1700,-0.9556,-0.8823,-0.4302,4.9198,-1.1108,
8.688543,-0.2187,0.8779,0.0234,4.5748,-1.7194,-1.7997,-0.4302,4.9198,-1.1108,
8.708522,-0.2187,0.8779,0.0234,11.3788,-1.3720,-2.5215,-0.4302,4.9198,-1.1108,
8.729099,-0.2187,0.8779,0.0234,7.4093,-2.6457,-4.8759,-0.4302,4.9198,-1.1108,
8.732991,0.2863,0.6587,-0.4829,7.4093,-2.6457,-4.8759,-0.4302,4.9198,-1.1108,
8.734414,0.2863,0.6587,-0.4829,7.4093,-2.6457,-4.8759,0.3289,5.9770,-1.2923,
8.748561,0.2863,0.6587,-0.4829,3.8477,-3.0917,-5.1847,0.3289,5.9770,-1.2923,
8.768597,0.2863,0.6587,-0.4829,2.9223,-2.7235,-5.0763,0.3289,5.9770,-1.2923,
8.788641,0.2863,0.6587,-0.4829,2.4906,-1.7208,-5.4198,0.3289,5.9770,-1.2923,
8.798527,-0.1080,0.8270,-0.6487,2.4906,-1.7208,-5.4198,0.3289,5.9770,-1.2923,
8.801546,-0.1080,0.8270,-0.6487,2.4906,-1.7208,-5.4198,-0.1880,4.2390,0.0065,
8.809164,-0.1080,0.8270,-0.6487,2.0512,-0.7267,-5.1674,-0.1880,4.2390,0.0065,
8.828726,-0.1080,0.8270,-0.6487,1.7907,-0.4815,-4.4302,-0.1880,4.2390,0.0065,
8.849627,-0.1080,0.8270,-0.6487,1.2355,-0.8316,-3.3133,-0.1880,4.2390,0.0065,
8.865381,-0.1408,0.8983,-0.4026,1.2355,-0.8316,-3.3133,-0.1880,4.2390,0.0065,
8.867871,-0.1408,0.8983,-0.4026,1.2355,-0.8316,-3.3133,-0.4531,1.8467,1.2330,
8.869547,-0.1408,0.8983,-0.4026,1.3054,-0.5171,-2.4441,-0.4531,1.8467,1.2330,
8.888858,-0.1408,0.8983,-0.4026,1.6315,-0.1627,-1.8799,-0.4531,1.8467,1.2330,
8.908565,-0.1408,0.8983,-0.4026,2.4447,0.0013,-1.1843,-0.4531,1.8467,1.2330,
8.928591,-0.1408,0.8983,-0.4026,3.4557,0.2301,-0.6499,-0.4531,1.8467,1.2330,
8.934260,0.2203,1.0084,-0.2112,3.4557,0.2301,-0.6499,-0.4531,1.8467,1.2330,
8.936020,0.2203,1.0084,-0.2112,3.4557,0.2301,-0.6499,-0.2402,1.5502,1.7749,
8.949239,0.2203,1.0084,-0.2112,4.3327,0.6420,-0.5861,-0.2402,1.5502,1.7749,
8.969030,0.2203,1.0084,-0.2112,3.8898,1.8888,-0.7533,-0.2402,1.5502,1.7749,
8.988853,0.2203,1.0084,-0.2112,-1.8612,1.7722,-2.1852,-0.2402,1.5502,1.7749,
9.000826,-0.5642,1.0728,-0.4023,-1.8612,1.7722,-2.1852,-0.2402,1.5502,1.7749,
9.003908,-0.5642,1.0728,-0.4023,-1.8612,1.7722,-2.1852,-0.0757,2.0533,1.4443,
9.008533,-0.5642,1.0728,-0.4023,-6.7666,0.0656,-2.0448,-0.0757,2.0533,1.4443,
9.028366,-0.5642,1.0728,-0.4023,-2.5083,0.6245,-1.0564,-0.0757,2.0533,1.4443,
9.049431,-0.5642,1.0728,-0.4023,1.3433,1.6801,-2.3814,-0.0757,2.0533,1.4443,
9.062320,0.2748,1.1992,-0.3489,1.3433,1.6801,-2.3814,-0.0757,2.0533,1.4443,
9.065290,0.2748,1.1992,-0.3489,1.3433,1.6801,-2.3814,-0.4877,0.9732,1.3640,
9.070275,0.2748,1.1992,-0.3489,1.6046,2.1490,-1.9353,-0.4877,0.9732,1.3640,
9.088923,0.2748,1.1992,-0.3489,-1.8959,2.9588,-2.0875,-0.4877,0.9732,1.3640,
9.108566,0.2748,1.1992,-0.3489,-7.7469,1.7635,-2.1664,-0.4877,0.9732,1.3640,
9.128479,-0.8561,0.8678,-0.0491,-7.7469,1.7635,-2.1664,-0.4877,0.9732,1.3640,
9.131769,-0.8561,0.8678,-0.0491,-7.7469,1.7635,-2.1664,-0.1316,0.6857,1.2282,
9.133354,-0.8561,0.8678,-0.0491,-9.9503,-0.9560,0.3600,-0.1316,0.6857,1.2282,
9.149896,-0.8561,0.8678,-0.0491,-8.9363,-1.6938,0.0224,-0.1316,0.6857,1.2282,
9.169641,-0.8561,0.8678,-0.0491,-4.6309,-0.5746,-0.0754,-0.1316,0.6857,1.2282,
9.189426,-0.8561,0.8678,-0.0491,-2.8410,0.1948,-0.4668,-0.1316,0.6857,1.2282,
9.193992,0.0213,1.0235,-0.1331,-2.8410,0.1948,-0.4668,-0.1316,0.6857,1.2282,
9.195934,0.0213,1.0235,-0.1331,-2.8410,0.1948,-0.4668,0.0265,0.4638,0.8566,
9.208901,0.0213,1.0235,-0.1331,-2.6700,0.5508,-0.2493,0.0265,0.4638,0.8566,
9.228765,0.0213,1.0235,-0.1331,-4.2106,0.0281,-0.0860,0.0265,0.4638,0.8566,
9.249897,0.0213,1.0235,-0.1331,-4.4989,1.2580,-0.2095,0.0265,0.4638,0.8566,
9.260028,0.3627,1.5395,-0.2450,-4.4989,1.2580,-0.2095,0.0265,0.4638,0.8566,
9.261984,0.3627,1.5395,-0.2450,-4.4989,1.2580,-0.2095,0.4891,1.0482,-0.9149,
9.269129,0.3627,1.5395,-0.2450,0.3136,2.9924,-2.4891,0.4891,1.0482,-0.9149,
9.289178,0.3627,1.5395,-0.2450,-4.6106,-3.5281,-3.3984,0.4891,1.0482,-0.9149,
9.308840,0.3627,1.5395,-0.2450,-5.9924,0.8871,-2.9708,0.4891,1.0482,-0.9149,
9.326852,0.3550,1.4657,0.0612,-5.9924,0.8871,-2.9708,0.4891,1.0482,-0.9149,
9.330292,0.3550,1.4657,0.0612,-5.9924,0.8871,-2.9708,0.0984,1.1015,-0.7946,
9.331993,0.3550,1.4657,0.0612,1.6815,4.7535,1.5520,0.0984,1.1015,-0.7946,
9.348941,0.3550,1.4657,0.0612,-1.7990,-1.8302,3.1135,0.0984,1.1015,-0.7946,
9.369026,0.3550,1.4657,0.0612,-4.2491,0.5375,1.8837,0.0984,1.1015,-0.7946,
9.388696,0.3550,1.4657,0.0612,-6.9464,1.8570,0.9596,0.0984,1.1015,-0.7946,
9.392004,-0.5654,1.0723,-0.0742,-6.9464,1.8570,0.9596,0.0984,1.1015,-0.7946,
9.394548,-0.5654,1.0723,-0.0742,-6.9464,1.8570,0.9596,0.6424,-0.3038,-1.3818,
9.409013,-0.5654,1.0723,-0.0742,-3.4365,0.5903,1.3661,0.6424,-0.3038,-1.3818,
9.428634,-0.5654,1.0723,-0.0742,-2.5941,0.1373,-3.8112,0.6424,-0.3038,-1.3818,
9.449197,-0.5654,1.0723,-0.0742,-2.4244,-0.1018,-4.0624,0.6424,-0.3038,-1.3818,
9.458270,-0.0019,1.0139,-0.3978,-2.4244,-0.1018,-4.0624,0.6424,-0.3038,-1.3818,
9.459603,-0.0019,1.0139,-0.3978,-2.4244,-0.1018,-4.0624,0.1846,0.0917,-0.2202,
9.470064,-0.0019,1.0139,-0.3978,0.1489,0.0220,-0.7891,0.1846,0.0917,-0.2202,
9.488581,-0.0019,1.0139,-0.3978,0.6020,-0.2019,1.4834,0.1846,0.0917,-0.2202,
9.508530,-0.0019,1.0139,-0.3978,-0.9898,0.2130,0.5555,0.1846,0.0917,-0.2202,
9.523700,-0.1183,0.9993,-0.2107,-0.9898,0.2130,0.5555,0.1846,0.0917,-0.2202,
9.526153,-0.1183,0.9993,-0.2107,-0.9898,0.2130,0.5555,0.2544,0.0624,-0.1473,
9.528429,-0.1183,0.9993,-0.2107,-1.4730,0.1118,-0.4914,0.2544,0.0624,-0.1473,
9.548858,-0.1183,0.9993,-0.2107,-0.4879,-0.0872,-0.5022,0.2544,0.0624,-0.1473,
9.568598,-0.1183,0.9993,-0.2107,-0.1629,0.0274,-0.3607,0.2544,0.0624,-0.1473,
9.589027,-0.1183,0.9993,-0.2107,-0.2569,0.0534,-0.1241,0.2544,0.0624,-0.1473,
9.592028,0.0139,0.9990,-0.1732,-0.2569,0.0534,-0.1241,0.2544,0.0624,-0.1473,
9.592811,0.0139,0.9990,-0.1732,-0.2569,0.0534,-0.1241,0.1931,-0.1287,-0.0451,
9.609061,0.0139,0.9990,-0.1732,0.3641,-0.1073,-0.3235,0.1931,-0.1287,-0.0451,
9.628458,0.0139,0.9990,-0.1732,0.6400,-0.0825,-0.0472,0.1931,-0.1287,-0.0451,
9.648487,0.0139,0.9990,-0.1732,-0.2155,0.0213,0.4996,0.1931,-0.1287,-0.0451,
9.656165,-0.0283,0.9868,-0.1546,-0.2155,0.0213,0.4996,0.1931,-0.1287,-0.0451,
9.657674,-0.0283,0.9868,-0.1546,-0.2155,0.0213,0.4996,0.2277,-0.1601,-0.1239,
9.668685,-0.0283,0.9868,-0.1546,-0.8289,-0.0307,-0.4890,0.2277,-0.1601,-0.1239,
9.689440,-0.0283,0.9868,-0.1546,-0.0234,-0.0526,-0.6627,0.2277,-0.1601,-0.1239,
9.708556,-0.0283,0.9868,-0.1546,0.7037,-0.0078,-0.7012,0.2277,-0.1601,-0.1239,
9.723668,0.0051,0.9811,-0.2270,0.7037,-0.0078,-0.7012,0.2277,-0.1601,-0.1239,
9.726621,0.0051,0.9811,-0.2270,0.7037,-0.0078,-0.7012,0.0760,-0.0563,-0.1787,
9.730389,0.0051,0.9811,-0.2270,-0.3880,-0.0244,-0.4083,0.0760,-0.0563,-0.1787,
9.749030,0.0051,0.9811,-0.2270,-0.5690,-0.0127,-0.2971,0.0760,-0.0563,-0.1787,
9.768705,0.0051,0.9811,-0.2270,0.5784,0.0275,-0.6037,0.0760,-0.0563,-0.1787,
9.788259,0.0007,0.9837,-0.2156,0.5784,0.0275,-0.6037,0.0760,-0.0563,-0.1787,
9.791055,0.0007,0.9837,-0.2156,0.5784,0.0275,-0.6037,0.0132,-0.1543,-0.1771,
9.791739,0.0007,0.9837,-0.2156,0.0069,0.0374,-0.1306,0.0132,-0.1543,-0.1771,
9.808362,0.0007,0.9837,-0.2156,-1.5513,-0.1094,-0.5002,0.0132,-0.1543,-0.1771,
9.829011,0.0007,0.9837,-0.2156,-0.2496,-0.2872,-1.0059,0.0132,-0.1543,-0.1771,
9.849224,0.0007,0.9837,-0.2156,0.4966,-0.1030,-0.2124,0.0132,-0.1543,-0.1771,
9.854039,0.1232,0.9932,-0.2838,0.4966,-0.1030,-0.2124,0.0132,-0.1543,-0.1771,
9.855742,0.1232,0.9932,-0.2838,0.4966,-0.1030,-0.2124,-0.0943,-0.1415,-0.1452,
9.868699,0.1232,0.9932,-0.2838,0.2128,0.1892,0.2591,-0.0943,-0.1415,-0.1452,
9.888551,0.1232,0.9932,-0.2838,0.2438,0.2456,0.2771,-0.0943,-0.1415,-0.1452,
9.908386,0.1232,0.9932,-0.2838,0.9239,0.2216,-0.6093,-0.0943,-0.1415,-0.1452,
9.919995,0.1833,0.9790,-0.1542,0.9239,0.2216,-0.6093,-0.0943,-0.1415,-0.1452,
9.922805,0.1833,0.9790,-0.1542,0.9239,0.2216,-0.6093,-0.0730,0.0070,-0.3964,
9.928709,0.1833,0.9790,-0.1542,2.4410,0.1876,-0.3218,-0.0730,0.0070,-0.3964,
9.948673,0.1833,0.9790,-0.1542,1.3877,-0.1284,0.7856,-0.0730,0.0070,-0.3964,
9.969144,0.1833,0.9790,-0.1542,-0.7664,0.8652,-0.5778,-0.0730,0.0070,-0.3964,
9.986684,-0.1710,0.9305,-0.2439,-0.7664,0.8652,-0.5778,-0.0730,0.0070,-0.3964,
9.989162,-0.1710,0.9305,-0.2439,-0.7664,0.8652,-0.5778,-0.1273,0.0821,-0.6828,
9.990844,-0.1710,0.9305,-0.2439,-1.1193,-0.5160,-0.5905,-0.1273,0.0821,-0.6828,
10.008828,-0.1710,0.9305,-0.2439,1.8402,0.9974,-0.3763,-0.1273,0.0821,-0.6828,
10.028298,-0.1710,0.9305,-0.2439,1.4401,1.2747,-1.5271,-0.1273,0.0821,-0.6828,
10.048661,-0.1710,0.9305,-0.2439,0.1483,1.4019,-1.5463,-0.1273,0.0821,-0.6828,
10.051888,-0.0347,1.1970,-0.3267,0.1483,1.4019,-1.5463,-0.1273,0.0821,-0.6828,
10.053413,-0.0347,1.1970,-0.3267,0.1483,1.4019,-1.5463,-0.2370,-0.4715,-0.9139,
10.069051,-0.0347,1.1970,-0.3267,3.0668,2.3854,-0.2530,-0.2370,-0.4715,-0.9139,
10.091314,-0.0347,1.1970,-0.3267,3.0934,2.0198,0.3839,-0.2370,-0.4715,-0.9139,
10.108650,-0.0347,1.1970,-0.3267,3.8001,2.3067,0.3434,-0.2370,-0.4715,-0.9139,
10.120270,0.2739,1.2145,-0.1025,3.8001,2.3067,0.3434,-0.2370,-0.4715,-0.9139,
10.122963,0.2739,1.2145,-0.1025,3.8001,2.3067,0.3434,-0.2460,-0.3778,-1.7831,
10.128128,0.2739,1.2145,-0.1025,5.0004,2.3958,0.5937,-0.2460,-0.3778,-1.7831,
10.148652,0.2739,1.2145,-0.1025,5.3497,2.9823,-0.1622,-0.2460,-0.3778,-1.7831,
10.169509,0.2739,1.2145,-0.1025,4.9916,5.3597,-0.7963,-0.2460,-0.3778,-1.7831,
10.186207,0.1221,1.3662,-0.2233,4.9916,5.3597,-0.7963,-0.2460,-0.3778,-1.7831,
10.189090,0.1221,1.3662,-0.2233,4.9916,5.3597,-0.7963,0.0079,-0.3693,-2.7546,
10.190370,0.1221,1.3662,-0.2233,4.0322,4.1673,-0.6842,0.0079,-0.3693,-2.7546,
10.208649,0.1221,1.3662,-0.2233,1.7600,2.1475,-1.2601,0.0079,-0.3693,-2.7546,
10.228257,0.1221,1.3662,-0.2233,0.5092,-2.1517,-0.8605,0.0079,-0.3693,-2.7546,
10.249515,0.1221,1.3662,-0.2233,3.8778,-1.8356,0.8171,0.0079,-0.3693,-2.7546,
10.253194,-0.2342,0.7063,-0.0324,3.8778,-1.8356,0.8171,0.0079,-0.3693,-2.7546,
10.254467,-0.2342,0.7063,-0.0324,3.8778,-1.8356,0.8171,0.0159,0.3190,-1.7672,
10.269617,-0.2342,0.7063,-0.0324,0.4748,-2.3794,-1.0434,0.0159,0.3190,-1.7672,
10.288627,-0.2342,0.7063,-0.0324,5.9103,-2.9999,0.2601,0.0159,0.3190,-1.7672,
10.308768,-0.2342,0.7063,-0.0324,4.8070,-3.3620,-0.0661,0.0159,0.3190,-1.7672,
10.316114,-0.1892,0.5271,-0.2321,4.8070,-3.3620,-0.0661,0.0159,0.3190,-1.7672,
10.317902,-0.1892,0.5271,-0.2321,4.8070,-3.3620,-0.0661,0.0915,0.7549,0.3137,
10.329376,-0.1892,0.5271,-0.2321,3.0850,-2.5008,-0.8170,0.0915,0.7549,0.3137,
10.348993,-0.1892,0.5271,-0.2321,3.7399,-1.4061,-0.7374,0.0915,0.7549,0.3137,
10.370212,-0.1892,0.5271,-0.2321,4.3254,-1.5238,-0.2317,0.0915,0.7549,0.3137,
10.382266,-0.1424,0.6818,-0.1843,4.3254,-1.5238,-0.2317,0.0915,0.7549,0.3137,
10.384149,-0.1424,0.6818,-0.1843,4.3254,-1.5238,-0.2317,0.1032,0.2870,1.7840,
10.389452,-0.1424,0.6818,-0.1843,2.9230,-1.8835,0.1099,0.1032,0.2870,1.7840,
10.409316,-0.1424,0.6818,-0.1843,2.7728,-1.5727,0.5429,0.1032,0.2870,1.7840,
10.428616,-0.1424,0.6818,-0.1843,2.5647,-0.7590,0.4868,0.1032,0.2870,1.7840,
10.448165,-0.1117,0.9124,-0.1608,2.5647,-0.7590,0.4868,0.1032,0.2870,1.7840,
10.450858,-0.1117,0.9124,-0.1608,2.5647,-0.7590,0.4868,0.1463,0.3860,2.9194,
10.453944,-0.1117,0.9124,-0.1608,2.1324,-0.1706,0.4205,0.1463,0.3860,2.9194,
10.468684,-0.1117,0.9124,-0.1608,2.3733,0.3101,0.2552,0.1463,0.3860,2.9194,
10.492184,-0.1117,0.9124,-0.1608,2.0072,1.2740,-0.7806,0.1463,0.3860,2.9194,
10.508702,-0.1117,0.9124,-0.1608,0.4932,2.0635,-2.2088,0.1463,0.3860,2.9194,
10.514265,-0.1475,1.2186,-0.4170,0.4932,2.0635,-2.2088,0.1463,0.3860,2.9194,
10.515839,-0.1475,1.2186,-0.4170,0.4932,2.0635,-2.2088,-0.1827,-0.8734,2.9918,
10.528778,-0.1475,1.2186,-0.4170,-0.4565,2.8046,-1.2132,-0.1827,-0.8734,2.9918,
10.548873,-0.1475,1.2186,-0.4170,-0.7075,3.2166,-0.1682,-0.1827,-0.8734,2.9918,
10.569304,-0.1475,1.2186,-0.4170,-3.1829,2.4671,1.6750,-0.1827,-0.8734,2.9918,
10.580233,-0.3832,1.1667,0.0553,-3.1829,2.4671,1.6750,-0.1827,-0.8734,2.9918,
10.581867,-0.3832,1.1667,0.0553,-3.1829,2.4671,1.6750,0.1277,-1.2248,2.8023,
10.588623,-0.3832,1.1667,0.0553,-3.7918,1.7466,2.4793,0.1277,-1.2248,2.8023,
10.608897,-0.3832,1.1667,0.0553,-2.1804,1.7820,2.4905,0.1277,-1.2248,2.8023,
10.628957,-0.3832,1.1667,0.0553,-0.8549,1.4732,2.7341,0.1277,-1.2248,2.8023,
10.646768,0.0951,1.1057,-0.0265,-0.8549,1.4732,2.7341,0.1277,-1.2248,2.8023,
10.649576,0.0951,1.1057,-0.0265,-0.8549,1.4732,2.7341,0.0425,1.2101,1.7419,
10.651176,0.0951,1.1057,-0.0265,-1.0425,1.4431,1.8099,0.0425,1.2101,1.7419,
10.669113,0.0951,1.1057,-0.0265,-3.1161,1.9921,0.5840,0.0425,1.2101,1.7419,
10.688902,0.0951,1.1057,-0.0265,-5.7114,1.4429,0.1082,0.0425,1.2101,1.7419,
10.709177,0.0951,1.1057,-0.0265,-6.5389,0.5366,0.3424,0.0425,1.2101,1.7419,
10.712103,-0.3581,0.9757,-0.1453,-6.5389,0.5366,0.3424,0.0425,1.2101,1.7419,
10.713452,-0.3581,0.9757,-0.1453,-6.5389,0.5366,0.3424,-0.1885,1.3916,0.6139,
10.729317,-0.3581,0.9757,-0.1453,-5.9738,0.2077,0.1537,-0.1885,1.3916,0.6139,
10.748492,-0.3581,0.9757,-0.1453,-5.1722,0.1378,-0.8307,-0.1885,1.3916,0.6139,
10.769051,-0.3581,0.9757,-0.1453,-4.9839,0.3766,-1.3245,-0.1885,1.3916,0.6139,
10.778330,0.1805,1.6130,-0.3888,-4.9839,0.3766,-1.3245,-0.1885,1.3916,0.6139,
10.779761,0.1805,1.6130,-0.3888,-4.9839,0.3766,-1.3245,0.2783,0.2679,-0.7754,
10.788679,0.1805,1.6130,-0.3888,0.3012,5.1298,-3.5783,0.2783,0.2679,-0.7754,
10.809100,0.1805,1.6130,-0.3888,-5.4144,-2.8062,-3.2301,0.2783,0.2679,-0.7754,
10.828603,0.1805,1.6130,-0.3888,-4.9674,-0.4038,-0.8276,0.2783,0.2679,-0.7754,
10.843957,0.4157,1.3121,-0.2173,-4.9674,-0.4038,-0.8276,0.2783,0.2679,-0.7754,
10.846576,0.4157,1.3121,-0.2173,-4.9674,-0.4038,-0.8276,0.2198,1.1914,-0.5529,
10.848187,0.4157,1.3121,-0.2173,2.4248,3.8319,-0.1765,0.2198,1.1914,-0.5529,
10.869281,0.4157,1.3121,-0.2173,1.3146,0.8208,6.3626,0.2198,1.1914,-0.5529,
10.888928,0.4157,1.3121,-0.2173,-1.8745,-0.8587,1.8076,0.2198,1.1914,-0.5529,
10.908662,0.4157,1.3121,-0.2173,-4.3358,1.3329,2.4448,0.2198,1.1914,-0.5529,
10.911827,-0.2734,1.1446,0.0480,-4.3358,1.3329,2.4448,0.2198,1.1914,-0.5529,
10.913278,-0.2734,1.1446,0.0480,-4.3358,1.3329,2.4448,0.4620,0.0086,-1.2242,
10.928699,-0.2734,1.1446,0.0480,-4.1831,0.8466,1.3253,0.4620,0.0086,-1.2242,
10.948697,-0.2734,1.1446,0.0480,-3.3900,0.5254,-3.6047,0.4620,0.0086,-1.2242,
10.969034,-0.2734,1.1446,0.0480,1.2247,-0.5976,-6.2123,0.4620,0.0086,-1.2242,
10.976460,0.5060,0.9680,-0.5704,1.2247,-0.5976,-6.2123,0.4620,0.0086,-1.2242,
10.978401,0.5060,0.9680,-0.5704,1.2247,-0.5976,-6.2123,0.1351,0.2029,-0.8771,
10.988792,0.5060,0.9680,-0.5704,2.1341,0.3462,-0.8243,0.1351,0.2029,-0.8771,
11.011331,0.5060,0.9680,-0.5704,-5.5066,-0.0721,1.6120,0.1351,0.2029,-0.8771,
11.028521,0.5060,0.9680,-0.5704,-3.8493,0.8279,1.2263,0.1351,0.2029,-0.8771,
11.042280,-0.1498,0.9569,-0.1680,-3.8493,0.8279,1.2263,0.1351,0.2029,-0.8771,
11.044830,-0.1498,0.9569,-0.1680,-3.8493,0.8279,1.2263,0.4093,-0.1511,-0.1335,
11.048944,-0.1498,0.9569,-0.1680,-1.8371,-0.2823,0.2864,0.4093,-0.1511,-0.1335,
11.068735,-0.1498,0.9569,-0.1680,0.5484,-0.0487,-1.1623,0.4093,-0.1511,-0.1335,
11.088513,-0.1498,0.9569,-0.1680,1.1174,-0.1122,-1.4299,0.4093,-0.1511,-0.1335,
11.108159,0.0810,0.9768,-0.2621,1.1174,-0.1122,-1.4299,0.4093,-0.1511,-0.1335,
11.110344,0.0810,0.9768,-0.2621,1.1174,-0.1122,-1.4299,0.1484,-0.2469,-0.2532,
11.111544,0.0810,0.9768,-0.2621,0.0767,0.0711,-0.2399,0.1484,-0.2469,-0.2532,
11.128952,0.0810,0.9768,-0.2621,-1.0890,0.0549,0.4487,0.1484,-0.2469,-0.2532,
11.148479,0.0810,0.9768,-0.2621,-0.3621,-0.0748,0.0470,0.1484,-0.2469,-0.2532,
11.168687,0.0810,0.9768,-0.2621,0.3501,0.0430,-0.1641,0.1484,-0.2469,-0.2532,
11.174199,0.1153,0.9737,-0.2875,0.3501,0.0430,-0.1641,0.1484,-0.2469,-0.2532,
11.175615,0.1153,0.9737,-0.2875,0.3501,0.0430,-0.1641,0.2017,-0.1734,-0.1404,
11.188858,0.1153,0.9737,-0.2875,0.3813,0.1110,-0.3489,0.2017,-0.1734,-0.1404,
11.208648,0.1153,0.9737,-0.2875,-0.3502,-0.0379,-0.4969,0.2017,-0.1734,-0.1404,
11.228453,0.1153,0.9737,-0.2875,-0.5716,-0.0514,-0.6032,0.2017,-0.1734,-0.1404,
11.240109,0.0010,0.9522,-0.3155,-0.5716,-0.0514,-0.6032,0.2017,-0.1734,-0.1404,
11.242548,0.0010,0.9522,-0.3155,-0.5716,-0.0514,-0.6032,0.1042,-0.1191,-0.1175,
11.248442,0.0010,0.9522,-0.3155,-0.4395,-0.0367,-0.2362,0.1042,-0.1191,-0.1175,
11.268629,0.0010,0.9522,-0.3155,-0.1768,-0.0029,-0.0394,0.1042,-0.1191,-0.1175,
11.289807,0.0010,0.9522,-0.3155,-0.0273,0.0500,-0.1004,0.1042,-0.1191,-0.1175,
11.307448,0.0610,0.9557,-0.2632,-0.0273,0.0500,-0.1004,0.1042,-0.1191,-0.1175,
11.310710,0.0610,0.9557,-0.2632,-0.0273,0.0500,-0.1004,0.0904,-0.1191,-0.0999,
11.311794,0.0610,0.9557,-0.2632,0.1267,-0.0340,0.2222,0.0904,-0.1191,-0.0999,
11.329073,0.0610,0.9557,-0.2632,-0.1543,-0.0401,-0.0067,0.0904,-0.1191,-0.0999,
11.348631,0.0610,0.9557,-0.2632,-0.2816,0.0152,-0.4618,0.0904,-0.1191,-0.0999,
11.369194,0.0610,0.9557,-0.2632,0.2847,0.0401,-0.4798,0.0904,-0.1191,-0.0999,
11.372669,0.0927,0.9693,-0.3379,0.2847,0.0401,-0.4798,0.0904,-0.1191,-0.0999,
11.374121,0.0927,0.9693,-0.3379,0.2847,0.0401,-0.4798,0.0633,-0.1367,-0.0978,
11.389446,0.0927,0.9693,-0.3379,0.6625,0.1516,-0.4841,0.0633,-0.1367,-0.0978,
11.408635,0.0927,0.9693,-0.3379,0.1417,-0.0739,0.5792,0.0633,-0.1367,-0.0978,
11.429608,0.0927,0.9693,-0.3379,-0.5332,-0.1183,-0.2340,0.0633,-0.1367,-0.0978,
11.440134,-0.0229,1.0115,-0.3053,-0.5332,-0.1183,-0.2340,0.0633,-0.1367,-0.0978,
11.442965,-0.0229,1.0115,-0.3053,-0.5332,-0.1183,-0.2340,0.1127,-0.0105,-0.2548,
11.448961,-0.0229,1.0115,-0.3053,-0.7765,-0.3686,-1.0099,0.1127,-0.0105,-0.2548,
11.468829,-0.0229,1.0115,-0.3053,1.8568,0.5867,0.2605,0.1127,-0.0105,-0.2548,
11.489673,-0.0229,1.0115,-0.3053,1.0882,0.3329,0.2380,0.1127,-0.0105,-0.2548,
11.506835,-0.0820,0.9278,-0.2882,1.0882,0.3329,0.2380,0.1127,-0.0105,-0.2548,
11.510118,-0.0820,0.9278,-0.2882,1.0882,0.3329,0.2380,0.0537,-0.1601,-0.4699,
11.511437,-0.0820,0.9278,-0.2882,-0.9594,-0.3419,0.1784,0.0537,-0.1601,-0.4699,
11.529139,-0.0820,0.9278,-0.2882,-0.6690,-0.6622,0.1692,0.0537,-0.1601,-0.4699,
11.552631,-0.0820,0.9278,-0.2882,0.8341,0.4931,0.4761,0.0537,-0.1601,-0.4699,
11.568488,-0.0820,0.9278,-0.2882,0.4448,0.5196,-0.3904,0.0537,-0.1601,-0.4699,
11.570521,0.0109,1.0099,-0.3476,0.4448,0.5196,-0.3904,0.0537,-0.1601,-0.4699,
11.571745,0.0109,1.0099,-0.3476,0.4448,0.5196,-0.3904,0.0627,-0.1122,-0.5300,
11.589117,0.0109,1.0099,-0.3476,0.1074,0.5658,-0.8788,0.0627,-0.1122,-0.5300,
11.609110,0.0109,1.0099,-0.3476,-0.3910,0.0414,-0.0237,0.0627,-0.1122,-0.5300,
11.628677,0.0109,1.0099,-0.3476,0.1293,0.0172,-0.6040,0.0627,-0.1122,-0.5300,
11.635687,0.0554,1.0794,-0.2748,0.1293,0.0172,-0.6040,0.0627,-0.1122,-0.5300,
11.636998,0.0554,1.0794,-0.2748,0.1293,0.0172,-0.6040,-0.0278,-0.1319,-0.6078,
11.649056,0.0554,1.0794,-0.2748,1.7371,1.6879,0.3170,-0.0278,-0.1319,-0.6078,
11.668461,0.0554,1.0794,-0.2748,3.0997,1.6860,0.7915,-0.0278,-0.1319,-0.6078,
11.689326,0.0554,1.0794,-0.2748,3.4059,3.1037,-0.2871,-0.0278,-0.1319,-0.6078,
11.702413,0.1760,1.1423,-0.2207,3.4059,3.1037,-0.2871,-0.0278,-0.1319,-0.6078,
11.704141,0.1760,1.1423,-0.2207,3.4059,3.1037,-0.2871,0.0984,-0.3486,-1.3110,
11.709914,0.1760,1.1423,-0.2207,3.0611,1.9131,0.7704,0.0984,-0.3486,-1.3110,
11.729053,0.1760,1.1423,-0.2207,3.3760,2.1426,0.6944,0.0984,-0.3486,-1.3110,
11.748795,0.1760,1.1423,-0.2207,2.5137,1.9910,0.1448,0.0984,-0.3486,-1.3110,
11.768469,0.0227,1.1022,-0.1668,2.5137,1.9910,0.1448,0.0984,-0.3486,-1.3110,
11.771314,0.0227,1.1022,-0.1668,2.5137,1.9910,0.1448,0.1170,-0.4300,-1.7469,
11.772879,0.0227,1.1022,-0.1668,2.2814,1.7368,1.3805,0.1170,-0.4300,-1.7469,
11.788694,0.0227,1.1022,-0.1668,3.5559,1.4325,1.4014,0.1170,-0.4300,-1.7469,
11.808525,0.0227,1.1022,-0.1668,4.7041,1.3342,1.9947,0.1170,-0.4300,-1.7469,
11.829140,0.0227,1.1022,-0.1668,3.6858,0.0926,0.7225,0.1170,-0.4300,-1.7469,
11.834460,0.0115,0.8473,-0.2373,3.6858,0.0926,0.7225,0.1170,-0.4300,-1.7469,
11.837884,0.0115,0.8473,-0.2373,3.6858,0.0926,0.7225,0.0185,-0.2213,-0.9415,
11.849244,0.0115,0.8473,-0.2373,3.2088,-0.7411,0.7012,0.0185,-0.2213,-0.9415,
11.868645,0.0115,0.8473,-0.2373,3.8080,-0.6993,0.7016,0.0185,-0.2213,-0.9415,
11.888511,0.0115,0.8473,-0.2373,5.0170,-0.8437,0.9378,0.0185,-0.2213,-0.9415,
11.900244,0.1331,0.8026,-0.1590,5.0170,-0.8437,0.9378,0.0185,-0.2213,-0.9415,
11.901710,0.1331,0.8026,-0.1590,5.0170,-0.8437,0.9378,-0.5100,-0.5242,0.6810,
11.908496,0.1331,0.8026,-0.1590,4.5667,-0.8098,1.3668,-0.5100,-0.5242,0.6810,
11.929095,0.1331,0.8026,-0.1590,4.1982,-0.3819,1.4477,-0.5100,-0.5242,0.6810,
11.948724,0.1331,0.8026,-0.1590,3.9606,-0.4536,1.3728,-0.5100,-0.5242,0.6810,
11.967106,0.0452,0.8602,-0.1303,3.9606,-0.4536,1.3728,-0.5100,-0.5242,0.6810,
11.970158,0.0452,0.8602,-0.1303,3.9606,-0.4536,1.3728,-0.6069,0.6117,1.6993,
11.971876,0.0452,0.8602,-0.1303,3.2278,-0.6459,1.2022,-0.6069,0.6117,1.6993,
11.988467,0.0452,0.8602,-0.1303,2.7944,-0.7240,0.7884,-0.6069,0.6117,1.6993,
12.008889,0.0452,0.8602,-0.1303,3.3125,-0.1808,0.0175,-0.6069,0.6117,1.6993,
12.028803,0.0452,0.8602,-0.1303,2.8934,0.6831,-0.8065,-0.6069,0.6117,1.6993,
12.031916,0.1272,1.0581,-0.3291,2.8934,0.6831,-0.8065,-0.6069,0.6117,1.6993,
12.033924,0.1272,1.0581,-0.3291,2.8934,0.6831,-0.8065,-1.0200,1.4336,2.2013,
12.049023,0.1272,1.0581,-0.3291,2.3092,1.1100,-1.3171,-1.0200,1.4336,2.2013,
12.068656,0.1272,1.0581,-0.3291,1.6358,1.2822,-1.3927,-1.0200,1.4336,2.2013,
12.089004,0.1272,1.0581,-0.3291,1.4729,1.3122,-1.6642,-1.0200,1.4336,2.2013,
12.098144,0.1611,1.1141,-0.3355,1.4729,1.3122,-1.6642,-1.0200,1.4336,2.2013,
12.099981,0.1611,1.1141,-0.3355,1.4729,1.3122,-1.6642,-1.1025,1.5710,1.9165,
12.108787,0.1611,1.1141,-0.3355,1.6818,1.1115,-1.8904,-1.1025,1.5710,1.9165,
12.129483,0.1611,1.1141,-0.3355,1.4829,1.8531,-2.8629,-1.1025,1.5710,1.9165,
12.148727,0.1611,1.1141,-0.3355,-1.4340,2.7260,-4.0402,-1.1025,1.5710,1.9165,
12.164411,-0.4737,1.2070,-0.5841,-1.4340,2.7260,-4.0402,-1.1025,1.5710,1.9165,
12.167358,-0.4737,1.2070,-0.5841,-1.4340,2.7260,-4.0402,-0.8710,1.2958,1.3049,
12.168959,-0.4737,1.2070,-0.5841,-6.2820,1.9811,-4.9192,-0.8710,1.2958,1.3049,
12.188752,-0.4737,1.2070,-0.5841,-8.5600,0.9180,-2.6777,-0.8710,1.2958,1.3049,
12.208780,-0.4737,1.2070,-0.5841,-3.7196,0.0112,-2.1335,-0.8710,1.2958,1.3049,
12.228651,-0.4737,1.2070,-0.5841,-1.0062,0.1440,-3.1824,-0.8710,1.2958,1.3049,
12.231504,0.1451,1.0005,-0.3473,-1.0062,0.1440,-3.1824,-0.8710,1.2958,1.3049,
12.232989,0.1451,1.0005,-0.3473,-1.0062,0.1440,-3.1824,-0.2178,2.0192,1.2463,
12.249206,0.1451,1.0005,-0.3473,-1.6429,0.6478,-2.7965,-0.2178,2.0192,1.2463,
12.269877,0.1451,1.0005,-0.3473,-3.0129,0.0216,-2.5987,-0.2178,2.0192,1.2463,
12.288485,0.1451,1.0005,-0.3473,-2.7849,-0.8790,-2.5912,-0.2178,2.0192,1.2463,
12.296116,-0.0108,0.8433,-0.2545,-2.7849,-0.8790,-2.5912,-0.2178,2.0192,1.2463,
12.298098,-0.0108,0.8433,-0.2545,-2.7849,-0.8790,-2.5912,0.2847,3.7083,-0.3837,
12.309099,-0.0108,0.8433,-0.2545,-2.8016,-1.2044,-3.1094,0.2847,3.7083,-0.3837,
12.329195,-0.0108,0.8433,-0.2545,-3.3065,-0.5492,-3.9665,0.2847,3.7083,-0.3837,
12.348611,-0.0108,0.8433,-0.2545,-3.0907,-0.7407,-3.9959,0.2847,3.7083,-0.3837,
12.362495,-0.0375,0.9031,-0.3614,-3.0907,-0.7407,-3.9959,0.2847,3.7083,-0.3837,
12.366607,-0.0375,0.9031,-0.3614,-3.0907,-0.7407,-3.9959,0.6020,4.3237,-1.0374,
12.368767,-0.0375,0.9031,-0.3614,-2.4953,-0.7896,-4.1918,0.6020,4.3237,-1.0374,
12.388641,-0.0375,0.9031,-0.3614,-2.8686,-0.2004,-3.9879,0.6020,4.3237,-1.0374,
12.409322,-0.0375,0.9031,-0.3614,-1.7017,0.3396,-5.0508,0.6020,4.3237,-1.0374,
12.428242,0.2348,1.0829,-0.1830,-1.7017,0.3396,-5.0508,0.6020,4.3237,-1.0374,
12.430983,0.2348,1.0829,-0.1830,-1.7017,0.3396,-5.0508,0.7420,3.3926,-0.4880,
12.432640,0.2348,1.0829,-0.1830,0.6125,0.8363,-2.9358,0.7420,3.3926,-0.4880,
12.449171,0.2348,1.0829,-0.1830,2.1036,0.3452,0.2928,0.7420,3.3926,-0.4880,
12.468929,0.2348,1.0829,-0.1830,0.8019,1.0888,-1.0783,0.7420,3.3926,-0.4880,
12.489073,0.2348,1.0829,-0.1830,-4.0485,2.1811,-0.1894,0.7420,3.3926,-0.4880,
12.494716,-0.4925,1.1829,0.0399,-4.0485,2.1811,-0.1894,0.7420,3.3926,-0.4880,
12.496424,-0.4925,1.1829,0.0399,-4.0485,2.1811,-0.1894,0.7888,2.4062,-1.2583,
12.509720,-0.4925,1.1829,0.0399,-5.8519,1.6290,-2.0745,0.7888,2.4062,-1.2583,
12.528731,-0.4925,1.1829,0.0399,-7.7903,-0.2097,-0.6518,0.7888,2.4062,-1.2583,
12.548827,-0.4925,1.1829,0.0399,-6.5111,-0.2055,-0.0261,0.7888,2.4062,-1.2583,
12.560918,-0.0541,1.1513,-0.0779,-6.5111,-0.2055,-0.0261,0.7888,2.4062,-1.2583,
12.564083,-0.0541,1.1513,-0.0779,-6.5111,-0.2055,-0.0261,0.9288,0.0060,0.0449,
12.569024,-0.0541,1.1513,-0.0779,1.0617,1.2362,-1.8867,0.9288,0.0060,0.0449,
12.588714,-0.0541,1.1513,-0.0779,0.7218,0.7299,-0.7120,0.9288,0.0060,0.0449,
12.610179,-0.0541,1.1513,-0.0779,-1.4025,-0.3336,-0.3836,0.9288,0.0060,0.0449,
12.627635,-0.0845,1.0156,-0.1057,-1.4025,-0.3336,-0.3836,0.9288,0.0060,0.0449,
12.630943,-0.0845,1.0156,-0.1057,-1.4025,-0.3336,-0.3836,0.6366,-0.0057,-0.0930,
12.632359,-0.0845,1.0156,-0.1057,-0.7204,0.1552,-0.4433,0.6366,-0.0057,-0.0930,
12.648814,-0.0845,1.0156,-0.1057,0.0903,0.1039,-0.7333,0.6366,-0.0057,-0.0930,
12.668662,-0.0845,1.0156,-0.1057,0.1379,-0.0133,-0.9103,0.6366,-0.0057,-0.0930,
12.688648,-0.0845,1.0156,-0.1057,0.1504,0.0072,-0.7847,0.6366,-0.0057,-0.0930,
12.692043,-0.0162,0.9955,-0.1885,0.1504,0.0072,-0.7847,0.6366,-0.0057,-0.0930,
12.693535,-0.0162,0.9955,-0.1885,0.1504,0.0072,-0.7847,0.5152,0.0778,-0.1563,
12.708530,-0.0162,0.9955,-0.1885,-0.1547,-0.0011,-0.3753,0.5152,0.0778,-0.1563,
12.729068,-0.0162,0.9955,-0.1885,-0.0869,-0.0007,0.7020,0.5152,0.0778,-0.1563,
12.748695,-0.0162,0.9955,-0.1885,-0.9035,0.0780,-0.1800,0.5152,0.0778,-0.1563,
12.758306,-0.1316,0.9837,-0.2034,-0.9035,0.0780,-0.1800,0.5152,0.0778,-0.1563,
12.762448,-0.1316,0.9837,-0.2034,-0.9035,0.0780,-0.1800,0.3555,0.0948,-0.0488,
12.768616,-0.1316,0.9837,-0.2034,-0.8647,-0.2057,-0.7501,0.3555,0.0948,-0.0488,
12.788477,-0.1316,0.9837,-0.2034,-1.2562,0.0578,-0.5592,0.3555,0.0948,-0.0488,
12.810301,-0.1316,0.9837,-0.2034,-0.1580,-0.0830,-0.4533,0.3555,0.0948,-0.0488,
12.824154,-0.0039,0.9926,-0.2096,-0.1580,-0.0830,-0.4533,0.3555,0.0948,-0.0488,
12.826019,-0.0039,0.9926,-0.2096,-0.1580,-0.0830,-0.4533,0.1426,0.1161,0.1061,
12.829869,-0.0039,0.9926,-0.2096,0.1839,-0.0487,-0.5327,0.1426,0.1161,0.1061,
12.848552,-0.0039,0.9926,-0.2096,-0.2905,0.1019,0.0924,0.1426,0.1161,0.1061,
12.868638,-0.0039,0.9926,-0.2096,-0.1354,0.0272,-0.0961,0.1426,0.1161,0.1061,
12.888637,-0.0039,0.9926,-0.2096,0.4643,0.0305,-0.6019,0.1426,0.1161,0.1061,
12.891690,0.0233,0.9903,-0.2035,0.4643,0.0305,-0.6019,0.1426,0.1161,0.1061,
12.892977,0.0233,0.9903,-0.2035,0.4643,0.0305,-0.6019,0.0675,0.0943,0.0582,
12.908972,0.0233,0.9903,-0.2035,-0.1204,-0.0359,0.1973,0.0675,0.0943,0.0582,
12.928505,0.0233,0.9903,-0.2035,0.0241,-0.0342,-0.0161,0.0675,0.0943,0.0582,
12.949011,0.0233,0.9903,-0.2035,-0.1943,0.0369,-0.0686,0.0675,0.0943,0.0582,
12.956348,-0.0312,0.9937,-0.1743,-0.1943,0.0369,-0.0686,0.0675,0.0943,0.0582,
12.957936,-0.0312,0.9937,-0.1743,-0.1943,0.0369,-0.0686,0.0595,0.1039,0.0560,
12.969148,-0.0312,0.9937,-0.1743,-0.0897,0.0288,-0.5965,0.0595,0.1039,0.0560,
12.988592,-0.0312,0.9937,-0.1743,0.4246,-0.0094,-0.1879,0.0595,0.1039,0.0560,
13.009107,-0.0312,0.9937,-0.1743,0.6121,0.0489,0.1038,0.0595,0.1039,0.0560,
13.022324,0.0656,0.9938,-0.1907,0.6121,0.0489,0.1038,0.0595,0.1039,0.0560,
13.024044,0.0656,0.9938,-0.1907,0.6121,0.0489,0.1038,-0.0160,0.0198,-0.1297,
13.028729,0.0656,0.9938,-0.1907,0.7005,0.0487,-0.3683,-0.0160,0.0198,-0.1297,
13.049005,0.0656,0.9938,-0.1907,-0.3111,0.0090,-0.9024,-0.0160,0.0198,-0.1297,
13.069240,0.0656,0.9938,-0.1907,-0.6020,-0.0228,0.0115,-0.0160,0.0198,-0.1297,
13.087928,-0.0389,0.9899,-0.0598,-0.6020,-0.0228,0.0115,-0.0160,0.0198,-0.1297,
13.090453,-0.0389,0.9899,-0.0598,-0.6020,-0.0228,0.0115,-0.0922,0.0645,-0.0967,
13.091765,-0.0389,0.9899,-0.0598,-0.1701,0.0024,0.9351,-0.0922,0.0645,-0.0967,
13.109476,-0.0389,0.9899,-0.0598,-0.5645,-0.0590,0.2394,-0.0922,0.0645,-0.0967,
13.128815,-0.0389,0.9899,-0.0598,-0.0874,-0.0411,-1.1157,-0.0922,0.0645,-0.0967,
13.148264,-0.0389,0.9899,-0.0598,0.6014,0.1026,-0.9998,-0.0922,0.0645,-0.0967,
13.154365,0.0790,0.9915,-0.1183,0.6014,0.1026,-0.9998,-0.0922,0.0645,-0.0967,
13.155690,0.0790,0.9915,-0.1183,0.6014,0.1026,-0.9998,-0.2189,-0.0334,-0.1148,
13.168583,0.0790,0.9915,-0.1183,0.3004,0.0375,0.8784,-0.2189,-0.0334,-0.1148,
13.188535,0.0790,0.9915,-0.1183,-1.6575,-0.1533,0.1855,-0.2189,-0.0334,-0.1148,
13.208911,0.0790,0.9915,-0.1183,0.0006,0.0568,-1.6974,-0.2189,-0.0334,-0.1148,
13.220262,0.0796,1.0114,-0.3525,0.0006,0.0568,-1.6974,-0.2189,-0.0334,-0.1148,
13.221870,0.0796,1.0114,-0.3525,0.0006,0.0568,-1.6974,-0.4462,-0.0361,0.0023,
13.228529,0.0796,1.0114,-0.3525,1.4215,0.2251,-1.3248,-0.4462,-0.0361,0.0023,
13.248615,0.0796,1.0114,-0.3525,0.4137,0.1454,-0.2575,-0.4462,-0.0361,0.0023,
13.268635,0.0796,1.0114,-0.3525,-0.7808,-0.1697,0.6903,-0.4462,-0.0361,0.0023,
13.286858,-0.1573,0.9560,-0.0840,-0.7808,-0.1697,0.6903,-0.4462,-0.0361,0.0023,
13.289644,-0.1573,0.9560,-0.0840,-0.7808,-0.1697,0.6903,-0.5383,0.0922,-0.0430,
13.290826,-0.1573,0.9560,-0.0840,-1.2470,-0.3873,0.1735,-0.5383,0.0922,-0.0430,
13.308690,-0.1573,0.9560,-0.0840,-0.6722,-0.3374,-0.8717,-0.5383,0.0922,-0.0430,
13.328970,-0.1573,0.9560,-0.0840,0.6065,0.1026,-0.9410,-0.5383,0.0922,-0.0430,
13.349652,-0.1573,0.9560,-0.0840,0.9600,0.2396,-0.3234,-0.5383,0.0922,-0.0430,
13.353352,0.1048,1.0403,-0.0837,0.9600,0.2396,-0.3234,-0.5383,0.0922,-0.0430,
13.354483,0.1048,1.0403,-0.0837,0.9600,0.2396,-0.3234,-0.7847,-0.0920,-0.1473,
13.369004,0.1048,1.0403,-0.0837,0.4206,0.2023,-0.6539,-0.7847,-0.0920,-0.1473,
13.388651,0.1048,1.0403,-0.0837,0.4067,0.0401,0.8559,-0.7847,-0.0920,-0.1473,
13.408680,0.1048,1.0403,-0.0837,0.2140,0.6569,-0.2861,-0.7847,-0.0920,-0.1473,
13.418075,-0.0075,1.0695,0.0119,0.2140,0.6569,-0.2861,-0.7847,-0.0920,-0.1473,
13.419833,-0.0075,1.0695,0.0119,0.2140,0.6569,-0.2861,-1.0163,0.1832,-0.3139,
13.429605,-0.0075,1.0695,0.0119,0.4794,1.5320,-0.7966,-1.0163,0.1832,-0.3139,
13.449055,-0.0075,1.0695,0.0119,3.5619,2.4891,-0.3758,-1.0163,0.1832,-0.3139,
13.468574,-0.0075,1.0695,0.0119,3.5017,3.3365,-1.7228,-1.0163,0.1832,-0.3139,
13.484609,0.2876,1.2915,-0.2370,3.5017,3.3365,-1.7228,-1.0163,0.1832,-0.3139,
13.487139,0.2876,1.2915,-0.2370,3.5017,3.3365,-1.7228,-0.9077,0.3360,-1.0139,
13.488872,0.2876,1.2915,-0.2370,3.6580,2.7899,-2.8584,-0.9077,0.3360,-1.0139,
13.508510,0.2876,1.2915,-0.2370,1.3126,3.5582,-1.8932,-0.9077,0.3360,-1.0139,
13.529917,0.2876,1.2915,-0.2370,1.0318,2.9262,-2.9349,-0.9077,0.3360,-1.0139,
13.548641,0.2876,1.2915,-0.2370,2.4417,0.3039,-1.4605,-0.9077,0.3360,-1.0139,
13.552756,0.1602,0.9206,0.0235,2.4417,0.3039,-1.4605,-0.9077,0.3360,-1.0139,
13.554760,0.1602,0.9206,0.0235,2.4417,0.3039,-1.4605,-0.7421,2.1826,-1.0831,
13.569278,0.1602,0.9206,0.0235,3.9836,-3.3186,1.9335,-0.7421,2.1826,-1.0831,
13.588666,0.1602,0.9206,0.0235,-0.9717,-1.7410,-1.1341,-0.7421,2.1826,-1.0831,
13.609254,0.1602,0.9206,0.0235,6.3440,-2.1912,-2.4407,-0.7421,2.1826,-1.0831,
13.616374,0.6063,0.7412,-0.1183,6.3440,-2.1912,-2.4407,-0.7421,2.1826,-1.0831,
13.618204,0.6063,0.7412,-0.1183,6.3440,-2.1912,-2.4407,-0.0033,6.8022,-0.3991,
13.629629,0.6063,0.7412,-0.1183,8.3276,-2.5156,-3.3793,-0.0033,6.8022,-0.3991,
13.648966,0.6063,0.7412,-0.1183,5.2028,-2.6368,-5.5793,-0.0033,6.8022,-0.3991,
13.668852,0.6063,0.7412,-0.1183,3.6506,-2.0046,-5.5977,-0.0033,6.8022,-0.3991,
13.682138,0.0205,0.7919,-0.6517,3.6506,-2.0046,-5.5977,-0.0033,6.8022,-0.3991,
13.684881,0.0205,0.7919,-0.6517,3.6506,-2.0046,-5.5977,-0.3637,5.4245,-0.0307,
13.689060,0.0205,0.7919,-0.6517,2.5956,-1.2411,-6.0383,-0.3637,5.4245,-0.0307,
13.708805,0.0205,0.7919,-0.6517,1.5221,-0.1793,-6.0602,-0.3637,5.4245,-0.0307,
13.729527,0.0205,0.7919,-0.6517,1.5999,0.1265,-5.5718,-0.3637,5.4245,-0.0307,
13.748149,-0.1063,0.9675,-0.5492,1.5999,0.1265,-5.5718,-0.3637,5.4245,-0.0307,
13.750843,-0.1063,0.9675,-0.5492,1.5999,0.1265,-5.5718,-0.7437,3.1259,0.9844,
13.752412,-0.1063,0.9675,-0.5492,1.4182,0.0211,-4.6721,-0.7437,3.1259,0.9844,
13.769260,-0.1063,0.9675,-0.5492,1.0176,-0.1920,-3.8545,-0.7437,3.1259,0.9844,
13.788530,-0.1063,0.9675,-0.5492,1.3971,0.0309,-3.1331,-0.7437,3.1259,0.9844,
13.808537,-0.1063,0.9675,-0.5492,1.6319,0.3544,-2.8328,-0.7437,3.1259,0.9844,
13.814496,0.0206,1.0305,-0.3499,1.6319,0.3544,-2.8328,-0.7437,3.1259,0.9844,
13.817445,0.0206,1.0305,-0.3499,1.6319,0.3544,-2.8328,-0.2716,2.1592,1.6163,
13.831066,0.0206,1.0305,-0.3499,1.6559,0.3434,-2.4348,-0.2716,2.1592,1.6163,
13.849596,0.0206,1.0305,-0.3499,1.4705,0.1373,-1.9067,-0.2716,2.1592,1.6163,
13.868826,0.0206,1.0305,-0.3499,1.3716,0.1540,-2.2660,-0.2716,2.1592,1.6163,
13.880648,0.1111,1.0505,-0.3225,1.3716,0.1540,-2.2660,-0.2716,2.1592,1.6163,
13.883664,0.1111,1.0505,-0.3225,1.3716,0.1540,-2.2660,0.1724,2.1709,1.6668,
13.888581,0.1111,1.0505,-0.3225,1.1321,0.7717,-2.3326,0.1724,2.1709,1.6668,
13.908644,0.1111,1.0505,-0.3225,-0.9806,1.1969,-2.6092,0.1724,2.1709,1.6668,
13.930178,0.1111,1.0505,-0.3225,-2.6783,0.7325,-2.5078,0.1724,2.1709,1.6668,
13.947605,-0.1544,1.0164,-0.2890,-2.6783,0.7325,-2.5078,0.1724,2.1709,1.6668,
13.950528,-0.1544,1.0164,-0.2890,-2.6783,0.7325,-2.5078,0.1894,1.4730,1.9309,
13.952086,-0.1544,1.0164,-0.2890,-2.4785,0.2381,-1.9083,0.1894,1.4730,1.9309,
13.969117,-0.1544,1.0164,-0.2890,-1.5846,0.9676,-2.3666,0.1894,1.4730,1.9309,
13.988643,-0.1544,1.0164,-0.2890,-1.3924,1.5358,-2.2010,0.1894,1.4730,1.9309,
14.008796,-0.1544,1.0164,-0.2890,-2.8225,1.6658,-1.6461,0.1894,1.4730,1.9309,
14.012520,-0.1438,1.1217,-0.2459,-2.8225,1.6658,-1.6461,0.1894,1.4730,1.9309,
14.014417,-0.1438,1.1217,-0.2459,-2.8225,1.6658,-1.6461,0.1005,0.3041,1.3240,
14.028762,-0.1438,1.1217,-0.2459,-4.6684,0.8047,-1.1653,0.1005,0.3041,1.3240,
14.048814,-0.1438,1.1217,-0.2459,-5.1274,0.3778,-0.3181,0.1005,0.3041,1.3240,
14.068631,-0.1438,1.1217,-0.2459,-5.5421,0.5135,-0.0656,0.1005,0.3041,1.3240,
14.081527,-0.3212,0.9932,-0.0880,-5.5421,0.5135,-0.0656,0.1005,0.3041,1.3240,
14.085238,-0.3212,0.9932,-0.0880,-5.5421,0.5135,-0.0656,0.2943,0.3104,1.0233,
14.089089,-0.3212,0.9932,-0.0880,-6.3463,0.2868,0.2880,0.2943,0.3104,1.0233,
14.108441,-0.3212,0.9932,-0.0880,-4.3825,0.4521,0.3850,0.2943,0.3104,1.0233,
14.129293,-0.3212,0.9932,-0.0880,-3.3286,0.6176,0.1920,0.2943,0.3104,1.0233,
14.144204,-0.0413,0.9900,-0.0914,-3.3286,0.6176,0.1920,0.2943,0.3104,1.0233,
14.146082,-0.0413,0.9900,-0.0914,-3.3286,0.6176,0.1920,0.3294,1.2681,-0.1340,
14.150937,-0.0413,0.9900,-0.0914,-3.9092,0.5178,0.0867,0.3294,1.2681,-0.1340,
14.169519,-0.0413,0.9900,-0.0914,-5.1270,0.3748,-0.1746,0.3294,1.2681,-0.1340,
14.188787,-0.0413,0.9900,-0.0914,-2.0109,7.0328,0.2553,0.3294,1.2681,-0.1340,
14.208661,-0.0413,0.9900,-0.0914,0.8653,0.3311,-3.0124,0.3294,1.2681,-0.1340,
14.211834,0.3612,0.8093,-0.4570,0.8653,0.3311,-3.0124,0.3294,1.2681,-0.1340,
14.213305,0.3612,0.8093,-0.4570,0.8653,0.3311,-3.0124,0.8527,0.8353,-1.4935,
14.228727,0.3612,0.8093,-0.4570,0.1385,-2.0304,-2.3786,0.8527,0.8353,-1.4935,
14.249092,0.3612,0.8093,-0.4570,-0.2336,1.7962,0.7662,0.8527,0.8353,-1.4935,
14.268517,0.3612,0.8093,-0.4570,-0.8331,1.1730,4.1407,0.8527,0.8353,-1.4935,
14.276284,0.0274,0.9350,0.2759,-0.8331,1.1730,4.1407,0.8527,0.8353,-1.4935,
14.277882,0.0274,0.9350,0.2759,-0.8331,1.1730,4.1407,0.1202,0.4153,-1.3035,
14.288756,0.0274,0.9350,0.2759,-3.6157,-1.1667,1.8230,0.1202,0.4153,-1.3035,
14.308662,0.0274,0.9350,0.2759,-6.6780,1.0318,2.6385,0.1202,0.4153,-1.3035,
14.329410,0.0274,0.9350,0.2759,-2.6064,0.2585,2.3529,0.1202,0.4153,-1.3035,
14.342197,0.0988,0.9738,-0.0868,-2.6064,0.2585,2.3529,0.1202,0.4153,-1.3035,
14.343745,0.0988,0.9738,-0.0868,-2.6064,0.2585,2.3529,0.4343,-0.4071,-0.8819,
14.348890,0.0988,0.9738,-0.0868,-0.3353,-0.1812,0.0918,0.4343,-0.4071,-0.8819,
14.368599,0.0988,0.9738,-0.0868,-0.8126,1.1469,-1.2923,0.4343,-0.4071,-0.8819,
14.388516,0.0988,0.9738,-0.0868,-3.7539,-0.1671,-7.0074,0.4343,-0.4071,-0.8819,
14.408765,0.0358,1.0148,-0.1539,-3.7539,-0.1671,-7.0074,0.4343,-0.4071,-0.8819,
14.411411,0.0358,1.0148,-0.1539,-3.7539,-0.1671,-7.0074,0.1287,0.0193,-0.8425,
14.412817,0.0358,1.0148,-0.1539,-0.5466,0.3926,-0.3696,0.1287,0.0193,-0.8425,
14.428591,0.0358,1.0148,-0.1539,-2.0245,0.0190,0.4573,0.1287,0.0193,-0.8425,
14.448581,0.0358,1.0148,-0.1539,-3.4570,0.1796,1.6181,0.1287,0.0193,-0.8425,
14.468687,0.0358,1.0148,-0.1539,-1.9611,-0.2386,0.9464,0.1287,0.0193,-0.8425,
14.474011,-0.0422,0.9548,-0.1663,-1.9611,-0.2386,0.9464,0.1287,0.0193,-0.8425,
14.475301,-0.0422,0.9548,-0.1663,-1.9611,-0.2386,0.9464,0.4071,-0.1713,-0.0696,
14.489062,-0.0422,0.9548,-0.1663,0.2415,0.0779,-1.0621,0.4071,-0.1713,-0.0696,
14.508533,-0.0422,0.9548,-0.1663,0.2458,-0.0280,-1.4226,0.4071,-0.1713,-0.0696,
14.528613,-0.0422,0.9548,-0.1663,-0.1170,0.1263,-0.2658,0.4071,-0.1713,-0.0696,
14.540111,-0.0198,0.9847,-0.1871,-0.1170,0.1263,-0.2658,0.4071,-0.1713,-0.0696,
14.541955,-0.0198,0.9847,-0.1871,-0.1170,0.1263,-0.2658,0.1899,-0.1404,-0.1761,
14.549651,-0.0198,0.9847,-0.1871,-0.7501,-0.0150,0.0186,0.1899,-0.1404,-0.1761,
14.568810,-0.0198,0.9847,-0.1871,-0.2787,-0.1075,-0.9277,0.1899,-0.1404,-0.1761,
14.588607,-0.0198,0.9847,-0.1871,0.5379,0.0055,-0.5248,0.1899,-0.1404,-0.1761,
14.607518,0.0009,0.9812,-0.2428,0.5379,0.0055,-0.5248,0.1899,-0.1404,-0.1761,
14.610334,0.0009,0.9812,-0.2428,0.5379,0.0055,-0.5248,0.0643,-0.0813,-0.2032,
14.611881,0.0009,0.9812,-0.2428,-0.3176,0.0079,-0.4084,0.0643,-0.0813,-0.2032,
14.628597,0.0009,0.9812,-0.2428,-1.1230,-0.0987,-0.0635,0.0643,-0.0813,-0.2032,
14.649097,0.0009,0.9812,-0.2428,-0.5792,0.0203,-0.1319,0.0643,-0.0813,-0.2032,
14.668501,0.0009,0.9812,-0.2428,-0.2467,0.0606,-0.0374,0.0643,-0.0813,-0.2032,
14.672069,-0.0046,0.9858,-0.2187,-0.2467,0.0606,-0.0374,0.0643,-0.0813,-0.2032,
14.673565,-0.0046,0.9858,-0.2187,-0.2467,0.0606,-0.0374,0.0473,-0.0169,-0.0387,
14.688645,-0.0046,0.9858,-0.2187,-0.1199,-0.0749,-0.4595,0.0473,-0.0169,-0.0387,
14.708435,-0.0046,0.9858,-0.2187,0.2878,0.0336,-0.5044,0.0473,-0.0169,-0.0387,
14.728970,-0.0046,0.9858,-0.2187,-0.0209,-0.0366,-0.0987,0.0473,-0.0169,-0.0387,
14.738060,-0.0052,0.9845,-0.1982,-0.0209,-0.0366,-0.0987,0.0473,-0.0169,-0.0387,
14.739482,-0.0052,0.9845,-0.1982,-0.0209,-0.0366,-0.0987,-0.0549,-0.0228,-0.0898,
14.749580,-0.0052,0.9845,-0.1982,-0.4734,0.0683,0.0361,-0.0549,-0.0228,-0.0898,
14.769152,-0.0052,0.9845,-0.1982,-0.2902,0.0366,-0.4734,-0.0549,-0.0228,-0.0898,
14.789162,-0.0052,0.9845,-0.1982,0.6420,0.0531,-0.3501,-0.0549,-0.0228,-0.0898,
14.804090,0.0564,1.0009,-0.2426,0.6420,0.0531,-0.3501,-0.0549,-0.0228,-0.0898,
14.807044,0.0564,1.0009,-0.2426,0.6420,0.0531,-0.3501,-0.1284,-0.0872,-0.1718,
14.808867,0.0564,1.0009,-0.2426,0.0693,0.0483,-0.4704,-0.1284,-0.0872,-0.1718,
14.829387,0.0564,1.0009,-0.2426,-0.5047,-0.1538,-0.5865,-0.1284,-0.0872,-0.1718,
14.850094,0.0564,1.0009,-0.2426,0.8056,0.1816,-0.1930,-0.1284,-0.0872,-0.1718,
14.869044,0.0564,1.0009,-0.2426,0.9098,0.0077,-0.4348,-0.1284,-0.0872,-0.1718,
14.871797,0.1547,1.0181,-0.1954,0.9098,0.0077,-0.4348,-0.1284,-0.0872,-0.1718,
14.872966,0.1547,1.0181,-0.1954,0.9098,0.0077,-0.4348,-0.1678,-0.1500,-0.3166,
14.889000,0.1547,1.0181,-0.1954,1.3771,0.1678,-0.3607,-0.1678,-0.1500,-0.3166,
14.908672,0.1547,1.0181,-0.1954,2.3974,0.8797,-0.3837,-0.1678,-0.1500,-0.3166,
14.928666,0.1547,1.0181,-0.1954,1.0751,0.4535,-0.9120,-0.1678,-0.1500,-0.3166,
14.936078,0.0884,1.0768,-0.1468,1.0751,0.4535,-0.9120,-0.1678,-0.1500,-0.3166,
14.939489,0.0884,1.0768,-0.1468,1.0751,0.4535,-0.9120,-0.1859,-0.1692,-1.0294,
14.950255,0.0884,1.0768,-0.1468,0.2286,0.1469,-0.0760,-0.1859,-0.1692,-1.0294,
14.969290,0.0884,1.0768,-0.1468,-0.2685,-0.2014,-0.2268,-0.1859,-0.1692,-1.0294,
14.989213,0.0884,1.0768,-0.1468,0.7399,1.9495,-1.0710,-0.1859,-0.1692,-1.0294,
15.003252,0.0537,1.2246,-0.2129,0.7399,1.9495,-1.0710,-0.1859,-0.1692,-1.0294,
15.006389,0.0537,1.2246,-0.2129,0.7399,1.9495,-1.0710,-0.1960,-0.4130,-1.0368,
15.008359,0.0537,1.2246,-0.2129,1.7215,2.4428,-1.0650,-0.1960,-0.4130,-1.0368,
15.028651,0.0537,1.2246,-0.2129,1.9563,2.6855,-0.0771,-0.1960,-0.4130,-1.0368,
15.049117,0.0537,1.2246,-0.2129,3.2788,2.0746,-0.4335,-0.1960,-0.4130,-1.0368,
15.068711,0.2327,1.2531,-0.1363,3.2788,2.0746,-0.4335,-0.1960,-0.4130,-1.0368,
15.071976,0.2327,1.2531,-0.1363,3.2788,2.0746,-0.4335,-0.1534,-0.6067,-1.6948,
15.073212,0.2327,1.2531,-0.1363,3.9066,2.6149,0.0915,-0.1534,-0.6067,-1.6948,
15.088729,0.2327,1.2531,-0.1363,5.2207,3.2436,0.1171,-0.1534,-0.6067,-1.6948,
15.108704,0.2327,1.2531,-0.1363,4.4705,4.0707,-0.5548,-0.1534,-0.6067,-1.6948,
15.129104,0.2327,1.2531,-0.1363,3.9296,3.3929,-0.0840,-0.1534,-0.6067,-1.6948,
15.136102,0.0013,1.2428,-0.1493,3.9296,3.3929,-0.0840,-0.1534,-0.6067,-1.6948,
15.138692,0.0013,1.2428,-0.1493,3.9296,3.3929,-0.0840,0.0702,-0.6818,-2.6684,
15.151727,0.0013,1.2428,-0.1493,1.8996,2.1460,-0.9107,0.0702,-0.6818,-2.6684,
15.169072,0.0013,1.2428,-0.1493,1.6919,0.9187,-1.4739,0.0702,-0.6818,-2.6684,
15.189120,0.0013,1.2428,-0.1493,3.3013,-3.5065,0.5148,0.0702,-0.6818,-2.6684,
15.202000,-0.2516,0.6008,0.0260,3.3013,-3.5065,0.5148,0.0702,-0.6818,-2.6684,
15.204958,-0.2516,0.6008,0.0260,3.3013,-3.5065,0.5148,-0.0405,0.2801,-1.9679,
15.208671,-0.2516,0.6008,0.0260,-0.5933,-2.2982,0.9720,-0.0405,0.2801,-1.9679,
15.228756,-0.2516,0.6008,0.0260,4.3869,-2.6865,-1.4426,-0.0405,0.2801,-1.9679,
15.248952,-0.2516,0.6008,0.0260,4.5847,-2.2064,-0.2768,-0.0405,0.2801,-1.9679,
15.268202,-0.2274,0.6344,-0.3060,4.5847,-2.2064,-0.2768,-0.0405,0.2801,-1.9679,
15.271393,-0.2274,0.6344,-0.3060,4.5847,-2.2064,-0.2768,0.0904,1.0626,0.0816,
15.272610,-0.2274,0.6344,-0.3060,2.9388,-1.9924,-1.4568,0.0904,1.0626,0.0816,
15.289239,-0.2274,0.6344,-0.3060,2.7983,-2.0758,-0.6882,0.0904,1.0626,0.0816,
15.308700,-0.2274,0.6344,-0.3060,3.2920,-2.2548,-0.0581,0.0904,1.0626,0.0816,
15.329115,-0.2274,0.6344,-0.3060,3.3319,-2.1494,0.7007,0.0904,1.0626,0.0816,
15.335681,-0.1813,0.6446,-0.1198,3.3319,-2.1494,0.7007,0.0904,1.0626,0.0816,
15.338551,-0.1813,0.6446,-0.1198,3.3319,-2.1494,0.7007,0.0744,0.3930,1.6690,
15.353059,-0.1813,0.6446,-0.1198,2.4579,-1.9264,0.6737,0.0744,0.3930,1.6690,
15.369394,-0.1813,0.6446,-0.1198,1.8496,-1.1143,1.0952,0.0744,0.3930,1.6690,
15.389660,-0.1813,0.6446,-0.1198,1.7524,-0.8189,1.1279,0.0744,0.3930,1.6690,
15.398329,-0.0848,0.8489,-0.0915,1.7524,-0.8189,1.1279,0.0744,0.3930,1.6690,
15.399670,-0.0848,0.8489,-0.0915,1.7524,-0.8189,1.1279,-0.0448,0.3232,2.9471,
15.408754,-0.0848,0.8489,-0.0915,3.1131,-0.5199,1.1734,-0.0448,0.3232,2.9471,
15.428691,-0.0848,0.8489,-0.0915,4.3566,0.9102,1.1556,-0.0448,0.3232,2.9471,
15.449116,-0.0848,0.8489,-0.0915,2.5269,2.6631,0.1271,-0.0448,0.3232,2.9471,
15.463874,-0.1985,1.2429,-0.1703,2.5269,2.6631,0.1271,-0.0448,0.3232,2.9471,
15.465862,-0.1985,1.2429,-0.1703,2.5269,2.6631,0.1271,-0.1465,-0.5051,2.6181,
15.470104,-0.1985,1.2429,-0.1703,-0.3287,2.7193,0.3156,-0.1465,-0.5051,2.6181,
15.488964,-0.1985,1.2429,-0.1703,-0.0150,2.8369,1.3209,-0.1465,-0.5051,2.6181,
15.508749,-0.1985,1.2429,-0.1703,-1.8447,3.8606,1.0883,-0.1465,-0.5051,2.6181,
15.529644,-0.1985,1.2429,-0.1703,-6.3207,3.0555,0.8107,-0.1465,-0.5051,2.6181,
15.532447,-0.7145,1.2570,-0.0780,-6.3207,3.0555,0.8107,-0.1465,-0.5051,2.6181,
15.533950,-0.7145,1.2570,-0.0780,-6.3207,3.0555,0.8107,-0.2327,-0.5391,2.6948,
15.548746,-0.7145,1.2570,-0.0780,-6.0325,1.5764,1.3141,-0.2327,-0.5391,2.6948,
15.568797,-0.7145,1.2570,-0.0780,-3.8421,1.3558,1.1107,-0.2327,-0.5391,2.6948,
15.588824,-0.7145,1.2570,-0.0780,-2.9180,0.7886,0.5861,-0.2327,-0.5391,2.6948,
15.596070,-0.0942,1.0407,-0.0967,-2.9180,0.7886,0.5861,-0.2327,-0.5391,2.6948,
15.597881,-0.0942,1.0407,-0.0967,-2.9180,0.7886,0.5861,-0.1630,-0.2464,2.7155,
15.608979,-0.0942,1.0407,-0.0967,-2.4901,0.8378,0.8395,-0.1630,-0.2464,2.7155,
15.628665,-0.0942,1.0407,-0.0967,-2.6162,1.1568,0.5245,-0.1630,-0.2464,2.7155,
15.648910,-0.0942,1.0407,-0.0967,-3.0394,0.9869,0.4706,-0.1630,-0.2464,2.7155,
15.661965,-0.0682,1.0016,-0.1082,-3.0394,0.9869,0.4706,-0.1630,-0.2464,2.7155,
15.663584,-0.0682,1.0016,-0.1082,-3.0394,0.9869,0.4706,-0.1310,0.1066,1.2633,
15.668915,-0.0682,1.0016,-0.1082,-3.8947,0.5198,0.4985,-0.1310,0.1066,1.2633,
15.690712,-0.0682,1.0016,-0.1082,-5.1568,0.2328,0.2306,-0.1310,0.1066,1.2633,
15.708865,-0.0682,1.0016,-0.1082,-5.2918,0.2224,-0.2060,-0.1310,0.1066,1.2633,
15.728305,-0.1336,0.9459,-0.2190,-5.2918,0.2224,-0.2060,-0.1310,0.1066,1.2633,
15.731110,-0.1336,0.9459,-0.2190,-5.2918,0.2224,-0.2060,-0.0267,0.1603,-0.2586,
15.732237,-0.1336,0.9459,-0.2190,-4.7557,0.2088,-0.6139,-0.0267,0.1603,-0.2586,
15.748852,-0.1336,0.9459,-0.2190,-4.5512,0.7800,-1.0912,-0.0267,0.1603,-0.2586,
15.769286,-0.1336,0.9459,-0.2190,2.1749,5.0614,-3.7582,-0.0267,0.1603,-0.2586,
15.788594,-0.1336,0.9459,-0.2190,0.7367,-1.8975,-4.1177,-0.0267,0.1603,-0.2586,
15.794395,0.3013,0.6916,-0.3630,0.7367,-1.8975,-4.1177,-0.0267,0.1603,-0.2586,
15.796117,0.3013,0.6916,-0.3630,0.7367,-1.8975,-4.1177,0.3991,-0.0776,-1.3722,
15.808545,0.3013,0.6916,-0.3630,-0.4582,-0.6187,-0.3566,0.3991,-0.0776,-1.3722,
15.828985,0.3013,0.6916,-0.3630,1.4408,3.4653,3.1326,0.3991,-0.0776,-1.3722,
15.849212,0.3013,0.6916,-0.3630,-1.9338,-0.7358,4.1604,0.3991,-0.0776,-1.3722,
15.860161,-0.1496,0.8592,0.0959,-1.9338,-0.7358,4.1604,0.3991,-0.0776,-1.3722,
15.861713,-0.1496,0.8592,0.0959,-1.9338,-0.7358,4.1604,0.2815,0.5883,-1.2993,
15.870390,-0.1496,0.8592,0.0959,-4.5374,-0.2454,2.9896,0.2815,0.5883,-1.2993,
15.888717,-0.1496,0.8592,0.0959,-5.0172,1.2834,1.1351,0.2815,0.5883,-1.2993,
15.908591,-0.1496,0.8592,0.0959,-2.6512,0.8925,-1.8069,0.2815,0.5883,-1.2993,
15.926877,-0.0787,1.0304,-0.9398,-2.6512,0.8925,-1.8069,0.2815,0.5883,-1.2993,
15.929415,-0.0787,1.0304,-0.9398,-2.6512,0.8925,-1.8069,0.4417,-0.3219,-0.7957,
15.930514,-0.0787,1.0304,-0.9398,-2.3851,0.6241,-7.2180,0.4417,-0.3219,-0.7957,
15.948637,-0.0787,1.0304,-0.9398,2.3125,0.0983,-1.4360,0.4417,-0.3219,-0.7957,
15.969468,-0.0787,1.0304,-0.9398,-2.3736,-0.4481,2.3494,0.4417,-0.3219,-0.7957,
15.988805,-0.0787,1.0304,-0.9398,-3.5031,0.6042,0.9502,0.4417,-0.3219,-0.7957,
15.992345,-0.2435,1.0273,-0.1471,-3.5031,0.6042,0.9502,0.4417,-0.3219,-0.7957,
15.993846,-0.2435,1.0273,-0.1471,-3.5031,0.6042,0.9502,0.3129,-0.2474,-0.5950,
16.009042,-0.2435,1.0273,-0.1471,-2.5149,-0.0645,-0.2434,0.3129,-0.2474,-0.5950,
16.028515,-0.2435,1.0273,-0.1471,-0.8127,0.3068,-0.4145,0.3129,-0.2474,-0.5950,
16.048751,-0.2435,1.0273,-0.1471,0.0184,-0.1072,-0.8905,0.3129,-0.2474,-0.5950,
16.058046,0.1196,0.9820,-0.2769,0.0184,-0.1072,-0.8905,0.3129,-0.2474,-0.5950,
16.059695,0.1196,0.9820,-0.2769,0.0184,-0.1072,-0.8905,0.1702,-0.2948,-0.2091,
16.070030,0.1196,0.9820,-0.2769,0.1230,-0.0228,-0.1925,0.1702,-0.2948,-0.2091,
16.089600,0.1196,0.9820,-0.2769,0.0119,-0.1061,-0.0269,0.1702,-0.2948,-0.2091,
16.109107,0.1196,0.9820,-0.2769,-0.2689,0.0167,-0.5296,0.1702,-0.2948,-0.2091,
16.124372,-0.0166,0.9737,-0.3434,-0.2689,0.0167,-0.5296,0.1702,-0.2948,-0.2091,
16.127537,-0.0166,0.9737,-0.3434,-0.2689,0.0167,-0.5296,0.0813,-0.0776,-0.1808,
16.129084,-0.0166,0.9737,-0.3434,-0.7556,0.0422,-0.7571,0.0813,-0.0776,-0.1808,
16.148749,-0.0166,0.9737,-0.3434,-0.5918,0.0830,0.4054,0.0813,-0.0776,-0.1808,
16.169666,-0.0166,0.9737,-0.3434,-0.5072,0.0388,-0.2660,0.0813,-0.0776,-0.1808,
16.188521,-0.0166,0.9737,-0.3434,0.2609,-0.0827,0.0437,0.0813,-0.0776,-0.1808,
16.191270,0.0929,0.9588,-0.2671,0.2609,-0.0827,0.0437,0.0813,-0.0776,-0.1808,
16.194417,0.0929,0.9588,-0.2671,0.2609,-0.0827,0.0437,0.1495,-0.0292,-0.0760,
16.208946,0.0929,0.9588,-0.2671,0.3539,-0.0662,-0.5849,0.1495,-0.0292,-0.0760,
16.229063,0.0929,0.9588,-0.2671,-0.1413,-0.0328,0.1608,0.1495,-0.0292,-0.0760,
16.249210,0.0929,0.9588,-0.2671,-0.8741,0.0305,0.4681,0.1495,-0.0292,-0.0760,
16.256101,-0.0415,0.9669,-0.2423,-0.8741,0.0305,0.4681,0.1495,-0.0292,-0.0760,
16.258561,-0.0415,0.9669,-0.2423,-0.8741,0.0305,0.4681,0.1676,-0.0622,-0.0605,
16.271177,-0.0415,0.9669,-0.2423,-0.5468,0.0670,-0.0801,0.1676,-0.0622,-0.0605,
16.290131,-0.0415,0.9669,-0.2423,0.3737,-0.0421,-0.4599,0.1676,-0.0622,-0.0605,
16.309293,-0.0415,0.9669,-0.2423,0.6970,0.0528,0.0071,0.1676,-0.0622,-0.0605,
16.322664,0.0288,0.9642,-0.2907,0.6970,0.0528,0.0071,0.1676,-0.0622,-0.0605,
16.325191,0.0288,0.9642,-0.2907,0.6970,0.0528,0.0071,0.1021,-0.1393,-0.1446,
16.329044,0.0288,0.9642,-0.2907,-0.3826,-0.0216,-0.4057,0.1021,-0.1393,-0.1446,
16.348719,0.0288,0.9642,-0.2907,-0.4281,-0.0864,-0.6033,0.1021,-0.1393,-0.1446,
16.368933,0.0288,0.9642,-0.2907,0.4771,0.1607,-0.1910,0.1021,-0.1393,-0.1446,
16.388247,0.0778,0.9648,-0.3099,0.4771,0.1607,-0.1910,0.1021,-0.1393,-0.1446,
16.390987,0.0778,0.9648,-0.3099,0.4771,0.1607,-0.1910,0.0026,-0.1761,-0.1622,
16.391854,0.0778,0.9648,-0.3099,0.3994,0.0043,-0.1659,0.0026,-0.1761,-0.1622,
16.409244,0.0778,0.9648,-0.3099,0.3002,0.2685,-0.1047,0.0026,-0.1761,-0.1622,
16.428586,0.0778,0.9648,-0.3099,0.1758,0.2463,-0.5499,0.0026,-0.1761,-0.1622,
16.448744,0.0778,0.9648,-0.3099,0.8256,0.3800,-0.1170,0.0026,-0.1761,-0.1622,
16.455144,0.1436,0.9553,-0.3184,0.8256,0.3800,-0.1170,0.0026,-0.1761,-0.1622,
16.459855,0.1436,0.9553,-0.3184,0.8256,0.3800,-0.1170,-0.0634,-0.2293,-0.2516,
16.477020,0.1436,0.9553,-0.3184,2.3272,0.6597,0.3797,-0.0634,-0.2293,-0.2516,
16.490057,0.1436,0.9553,-0.3184,1.6258,0.3814,-0.0228,-0.0634,-0.2293,-0.2516,
16.508542,0.1436,0.9553,-0.3184,-0.1248,0.1817,-0.5478,-0.0634,-0.2293,-0.2516,
16.522260,-0.1370,0.9111,-0.3063,-0.1248,0.1817,-0.5478,-0.0634,-0.2293,-0.2516,
16.524743,-0.1370,0.9111,-0.3063,-0.1248,0.1817,-0.5478,-0.0496,-0.0025,-0.8622,
16.528398,-0.1370,0.9111,-0.3063,-1.4712,-0.9269,-1.2577,-0.0496,-0.0025,-0.8622,
16.548814,-0.1370,0.9111,-0.3063,0.0922,0.8978,-0.1751,-0.0496,-0.0025,-0.8622,
16.569579,-0.1370,0.9111,-0.3063,0.5309,0.2796,-1.1232,-0.0496,-0.0025,-0.8622,
16.588339,0.1430,1.1586,-0.2906,0.5309,0.2796,-1.1232,-0.0496,-0.0025,-0.8622,
16.591023,0.1430,1.1586,-0.2906,0.5309,0.2796,-1.1232,-0.1582,-0.3592,-0.6700,
16.591919,0.1430,1.1586,-0.2906,2.0872,1.9058,-0.2814,-0.1582,-0.3592,-0.6700,
16.608642,0.1430,1.1586,-0.2906,1.7272,1.3095,1.0989,-0.1582,-0.3592,-0.6700,
16.628607,0.1430,1.1586,-0.2906,1.8612,1.0948,0.9551,-0.1582,-0.3592,-0.6700,
16.649990,0.1430,1.1586,-0.2906,2.2472,1.6544,0.7369,-0.1582,-0.3592,-0.6700,
16.653465,0.0867,1.1657,-0.2192,2.2472,1.6544,0.7369,-0.1582,-0.3592,-0.6700,
16.655506,0.0867,1.1657,-0.2192,2.2472,1.6544,0.7369,-0.0437,-0.2000,-1.3296,
16.668751,0.0867,1.1657,-0.2192,2.7000,2.0317,0.0100,-0.0437,-0.2000,-1.3296,
16.688965,0.0867,1.1657,-0.2192,3.1848,1.5547,-0.1980,-0.0437,-0.2000,-1.3296,
16.710357,0.0867,1.1657,-0.2192,3.3061,2.2418,0.1022,-0.0437,-0.2000,-1.3296,
16.718431,0.0976,1.1451,-0.2287,3.3061,2.2418,0.1022,-0.0437,-0.2000,-1.3296,
16.720771,0.0976,1.1451,-0.2287,3.3061,2.2418,0.1022,0.0084,-0.2836,-1.9162,
16.729119,0.0976,1.1451,-0.2287,3.2394,2.0170,0.2203,0.0084,-0.2836,-1.9162,
16.748707,0.0976,1.1451,-0.2287,3.1990,2.3566,0.9193,0.0084,-0.2836,-1.9162,
16.768691,0.0976,1.1451,-0.2287,3.4205,1.7850,0.5161,0.0084,-0.2836,-1.9162,
16.784118,-0.1147,1.1501,-0.1714,3.4205,1.7850,0.5161,0.0084,-0.2836,-1.9162,
16.786147,-0.1147,1.1501,-0.1714,3.4205,1.7850,0.5161,0.2347,0.1497,-2.5635,
16.790036,-0.1147,1.1501,-0.1714,2.4153,2.5500,0.6297,0.2347,0.1497,-2.5635,
16.808947,-0.1147,1.1501,-0.1714,1.4037,3.3287,-0.5405,0.2347,0.1497,-2.5635,
16.830398,-0.1147,1.1501,-0.1714,1.2884,-0.5175,0.0173,0.2347,0.1497,-2.5635,
16.848471,-0.1147,1.1501,-0.1714,3.2280,-1.6809,-0.0963,0.2347,0.1497,-2.5635,
16.850865,-0.2907,0.7958,-0.2633,3.2280,-1.6809,-0.0963,0.2347,0.1497,-2.5635,
16.851641,-0.2907,0.7958,-0.2633,3.2280,-1.6809,-0.0963,-0.2434,-0.0829,-1.9056,
16.868626,-0.2907,0.7958,-0.2633,-2.0369,1.7326,-1.2185,-0.2434,-0.0829,-1.9056,
16.889090,-0.2907,0.7958,-0.2633,-0.2137,1.2776,-1.9484,-0.2434,-0.0829,-1.9056,
16.908569,-0.2907,0.7958,-0.2633,4.4901,-0.0154,0.0848,-0.2434,-0.0829,-1.9056,
16.915806,-0.0239,0.7577,-0.2098,4.4901,-0.0154,0.0848,-0.2434,-0.0829,-1.9056,
16.917026,-0.0239,0.7577,-0.2098,4.4901,-0.0154,0.0848,-0.5228,-0.1564,-0.0424,
16.929120,-0.0239,0.7577,-0.2098,5.0921,-0.9364,0.0818,-0.5228,-0.1564,-0.0424,
16.948620,-0.0239,0.7577,-0.2098,4.3814,-1.6986,0.4502,-0.5228,-0.1564,-0.0424,
16.968701,-0.0239,0.7577,-0.2098,3.4033,-1.3377,1.0662,-0.5228,-0.1564,-0.0424,
16.982411,-0.2964,0.6421,-0.1579,3.4033,-1.3377,1.0662,-0.5228,-0.1564,-0.0424,
16.984164,-0.2964,0.6421,-0.1579,3.4033,-1.3377,1.0662,-0.7033,0.7565,0.6879,
16.989564,-0.2964,0.6421,-0.1579,2.4811,-1.7165,0.5917,-0.7033,0.7565,0.6879,
17.009033,-0.2964,0.6421,-0.1579,2.7817,-1.9174,0.5546,-0.7033,0.7565,0.6879,
17.028750,-0.2964,0.6421,-0.1579,3.0469,-2.4091,0.2920,-0.7033,0.7565,0.6879,
17.048906,-0.2591,0.5911,-0.2411,3.0469,-2.4091,0.2920,-0.7033,0.7565,0.6879,
17.051729,-0.2591,0.5911,-0.2411,3.0469,-2.4091,0.2920,-0.9721,1.6998,1.6418,
17.052591,-0.2591,0.5911,-0.2411,2.1824,-2.6251,-0.2228,-0.9721,1.6998,1.6418,
17.068534,-0.2591,0.5911,-0.2411,1.5748,-2.5451,-0.8322,-0.9721,1.6998,1.6418,
17.088679,-0.2591,0.5911,-0.2411,0.8389,-2.1489,-2.0046,-0.9721,1.6998,1.6418,
17.108971,-0.2591,0.5911,-0.2411,0.0962,-1.0420,-2.5443,-0.9721,1.6998,1.6418,
17.114040,-0.3234,0.8578,-0.4119,0.0962,-1.0420,-2.5443,-0.9721,1.6998,1.6418,
17.115555,-0.3234,0.8578,-0.4119,0.0962,-1.0420,-2.5443,-1.4326,1.0541,2.3285,
17.129115,-0.3234,0.8578,-0.4119,0.5901,-0.1643,-1.5125,-1.4326,1.0541,2.3285,
17.148742,-0.3234,0.8578,-0.4119,1.5316,0.0902,-0.3191,-1.4326,1.0541,2.3285,
17.168499,-0.3234,0.8578,-0.4119,0.4325,0.6351,0.2450,-1.4326,1.0541,2.3285,
17.180191,-0.2797,1.0399,-0.1432,0.4325,0.6351,0.2450,-1.4326,1.0541,2.3285,
17.182915,-0.2797,1.0399,-0.1432,0.4325,0.6351,0.2450,-1.0924,2.8326,2.0943,
17.190906,-0.2797,1.0399,-0.1432,-1.3250,0.5961,-0.3280,-1.0924,2.8326,2.0943,
17.209139,-0.2797,1.0399,-0.1432,-0.0838,0.7570,-0.8292,-1.0924,2.8326,2.0943,
17.228739,-0.2797,1.0399,-0.1432,1.1822,1.1766,-1.7841,-1.0924,2.8326,2.0943,
17.246973,0.0458,1.1749,-0.4161,1.1822,1.1766,-1.7841,-1.0924,2.8326,2.0943,
17.250036,0.0458,1.1749,-0.4161,1.1822,1.1766,-1.7841,-0.9993,4.7330,1.7174,
17.251344,0.0458,1.1749,-0.4161,0.5610,1.7290,-3.2829,-0.9993,4.7330,1.7174,
17.268573,0.0458,1.1749,-0.4161,-0.0460,2.0613,-3.8262,-0.9993,4.7330,1.7174,
17.289041,0.0458,1.1749,-0.4161,-0.4754,1.7004,-3.9470,-0.9993,4.7330,1.7174,
17.308552,0.0458,1.1749,-0.4161,-2.3379,1.2907,-4.9480,-0.9993,4.7330,1.7174,
17.312348,-0.1796,1.1136,-0.5462,-2.3379,1.2907,-4.9480,-0.9993,4.7330,1.7174,
17.314507,-0.1796,1.1136,-0.5462,-2.3379,1.2907,-4.9480,-0.4180,4.4855,0.9562,
17.329122,-0.1796,1.1136,-0.5462,-2.8409,0.7785,-5.5294,-0.4180,4.4855,0.9562,
17.348729,-0.1796,1.1136,-0.5462,-2.1058,0.7892,-6.0305,-0.4180,4.4855,0.9562,
17.368867,-0.1796,1.1136,-0.5462,-2.0897,0.4700,-6.4552,-0.4180,4.4855,0.9562,
17.378187,-0.1202,1.0394,-0.6009,-2.0897,0.4700,-6.4552,-0.4180,4.4855,0.9562,
17.381565,-0.1202,1.0394,-0.6009,-2.0897,0.4700,-6.4552,0.2086,2.4243,-0.1308,
17.391784,-0.1202,1.0394,-0.6009,-2.8411,0.2081,-5.8813,0.2086,2.4243,-0.1308,
17.408580,-0.1202,1.0394,-0.6009,-3.8700,-0.5264,-4.0196,0.2086,2.4243,-0.1308,
17.428779,-0.1202,1.0394,-0.6009,-4.4300,-0.8626,-2.9514,0.2086,2.4243,-0.1308,
17.444186,-0.1799,0.9171,-0.3394,-4.4300,-0.8626,-2.9514,0.2086,2.4243,-0.1308,
17.448413,-0.1799,0.9171,-0.3394,-4.4300,-0.8626,-2.9514,0.7244,2.8667,-0.4028,
17.449874,-0.1799,0.9171,-0.3394,-2.5817,-0.6589,-3.6336,0.7244,2.8667,-0.4028,
17.468571,-0.1799,0.9171,-0.3394,-1.0966,-0.7191,-2.8944,0.7244,2.8667,-0.4028,
17.488650,-0.1799,0.9171,-0.3394,0.0016,0.6070,-0.6540,0.7244,2.8667,-0.4028,
17.508828,-0.1799,0.9171,-0.3394,1.1129,1.3272,2.1629,0.7244,2.8667,-0.4028,
17.512098,0.1976,1.1123,0.1786,1.1129,1.3272,2.1629,0.7244,2.8667,-0.4028,
17.513805,0.1976,1.1123,0.1786,1.1129,1.3272,2.1629,0.4375,2.2098,-0.4970,
17.529059,0.1976,1.1123,0.1786,-0.2583,1.0259,0.1428,0.4375,2.2098,-0.4970,
17.548773,0.1976,1.1123,0.1786,-1.2177,2.2614,-2.0587,0.4375,2.2098,-0.4970,
17.568562,0.1976,1.1123,0.1786,-4.3847,0.1748,-5.1202,0.4375,2.2098,-0.4970,
17.576175,-0.7312,0.8874,-0.1187,-4.3847,0.1748,-5.1202,0.4375,2.2098,-0.4970,
17.579148,-0.7312,0.8874,-0.1187,-4.3847,0.1748,-5.1202,0.0350,-0.5370,-1.1454,
17.588744,-0.7312,0.8874,-0.1187,-8.0417,-0.2604,3.2224,0.0350,-0.5370,-1.1454,
17.610081,-0.7312,0.8874,-0.1187,-4.0039,0.9576,-2.9207,0.0350,-0.5370,-1.1454,
17.629410,-0.7312,0.8874,-0.1187,0.1187,0.6971,0.1321,0.0350,-0.5370,-1.1454,
17.642938,-0.0199,1.0072,0.0886,0.1187,0.6971,0.1321,0.0350,-0.5370,-1.1454,
17.645962,-0.0199,1.0072,0.0886,0.1187,0.6971,0.1321,0.4987,0.1183,0.1848,
17.650066,-0.0199,1.0072,0.0886,-0.5229,0.1217,0.6296,0.4987,0.1183,0.1848,
17.668582,-0.0199,1.0072,0.0886,-1.6881,0.1572,-2.0047,0.4987,0.1183,0.1848,
17.689087,-0.0199,1.0072,0.0886,0.6087,-0.2984,0.0286,0.4987,0.1183,0.1848,
17.708318,0.2754,0.9791,-0.1674,0.6087,-0.2984,0.0286,0.4987,0.1183,0.1848,
17.711904,0.2754,0.9791,-0.1674,0.6087,-0.2984,0.0286,0.4023,0.1076,0.1960,
17.713026,0.2754,0.9791,-0.1674,2.5197,-0.2133,-0.7995,0.4023,0.1076,0.1960,
17.728603,0.2754,0.9791,-0.1674,0.9377,0.3040,-0.4265,0.4023,0.1076,0.1960,
17.748902,0.2754,0.9791,-0.1674,-0.2413,-0.4443,0.4911,0.4023,0.1076,0.1960,
17.769332,0.2754,0.9791,-0.1674,0.3640,0.0139,0.9628,0.4023,0.1076,0.1960,
17.774079,0.0602,1.0092,-0.0534,0.3640,0.0139,0.9628,0.4023,0.1076,0.1960,
17.775360,0.0602,1.0092,-0.0534,0.3640,0.0139,0.9628,0.4034,0.1625,0.0188,
17.788729,0.0602,1.0092,-0.0534,-0.2673,0.1007,0.0387,0.4034,0.1625,0.0188,
17.808566,0.0602,1.0092,-0.0534,-0.0228,-0.1850,0.1424,0.4034,0.1625,0.0188,
17.829058,0.0602,1.0092,-0.0534,1.0491,0.1870,-1.0403,0.4034,0.1625,0.0188,
17.840214,0.0515,1.0032,-0.2604,1.0491,0.1870,-1.0403,0.4034,0.1625,0.0188,
17.842732,0.0515,1.0032,-0.2604,1.0491,0.1870,-1.0403,0.2996,0.2178,-0.1351,
17.848715,0.0515,1.0032,-0.2604,-0.0510,-0.1083,-1.1485,0.2996,0.2178,-0.1351,
17.868603,0.0515,1.0032,-0.2604,0.4381,0.0055,-0.0013,0.2996,0.2178,-0.1351,
17.889157,0.0515,1.0032,-0.2604,0.1676,-0.2637,0.0400,0.2996,0.2178,-0.1351,
17.906906,0.0350,1.0090,-0.1204,0.1676,-0.2637,0.0400,0.2996,0.2178,-0.1351,
17.909257,0.0350,1.0090,-0.1204,0.1676,-0.2637,0.0400,0.1899,0.1204,-0.2240,
17.910181,0.0350,1.0090,-0.1204,0.1459,0.1724,0.2341,0.1899,0.1204,-0.2240,
17.929132,0.0350,1.0090,-0.1204,-0.6221,-0.1077,-0.5960,0.1899,0.1204,-0.2240,
17.948675,0.0350,1.0090,-0.1204,-0.4654,0.1804,-1.2255,0.1899,0.1204,-0.2240,
17.970104,0.0350,1.0090,-0.1204,0.2254,0.0154,-1.2020,0.1899,0.1204,-0.2240,
17.972871,0.0522,1.0039,-0.1766,0.2254,0.0154,-1.2020,0.1899,0.1204,-0.2240,
17.973965,0.0522,1.0039,-0.1766,0.2254,0.0154,-1.2020,-0.0448,0.0810,-0.1729,
17.988875,0.0522,1.0039,-0.1766,-0.5145,0.0533,0.4282,-0.0448,0.0810,-0.1729,
18.008951,0.0522,1.0039,-0.1766,-0.2960,-0.0156,0.3391,-0.0448,0.0810,-0.1729,
18.028679,0.0522,1.0039,-0.1766,-0.2040,-0.0351,-0.2778,-0.0448,0.0810,-0.1729,
18.038342,0.0032,0.9841,-0.2144,-0.2040,-0.0351,-0.2778,-0.0448,0.0810,-0.1729,
18.041113,0.0032,0.9841,-0.2144,-0.2040,-0.0351,-0.2778,-0.0443,0.0384,-0.1159,
18.048538,0.0032,0.9841,-0.2144,0.0913,0.0038,-0.6620,-0.0443,0.0384,-0.1159,
18.068851,0.0032,0.9841,-0.2144,-0.2769,0.1191,-0.3543,-0.0443,0.0384,-0.1159,
18.089527,0.0032,0.9841,-0.2144,-1.4206,-0.0604,-0.3372,-0.0443,0.0384,-0.1159,
18.104631,-0.0404,0.9819,-0.1268,-1.4206,-0.0604,-0.3372,-0.0443,0.0384,-0.1159,
18.107569,-0.0404,0.9819,-0.1268,-1.4206,-0.0604,-0.3372,-0.1624,0.0022,0.0379,
18.109692,-0.0404,0.9819,-0.1268,-0.0741,-0.0742,0.2530,-0.1624,0.0022,0.0379,
18.128686,-0.0404,0.9819,-0.1268,0.5567,0.0388,-0.1312,-0.1624,0.0022,0.0379,
18.148874,-0.0404,0.9819,-0.1268,-0.1080,0.0441,-0.8411,-0.1624,0.0022,0.0379,
18.170130,-0.0404,0.9819,-0.1268,0.1509,-0.0509,-1.2261,-0.1624,0.0022,0.0379,
18.172639,0.0174,0.9890,-0.2620,0.1509,-0.0509,-1.2261,-0.1624,0.0022,0.0379,
18.173970,0.0174,0.9890,-0.2620,0.1509,-0.0509,-1.2261,-0.3823,-0.0973,-0.0685,
18.188643,0.0174,0.9890,-0.2620,0.1159,0.0773,-0.4631,-0.3823,-0.0973,-0.0685,
18.208734,0.0174,0.9890,-0.2620,-0.0863,-0.1587,0.5265,-0.3823,-0.0973,-0.0685,
18.228676,0.0174,0.9890,-0.2620,0.1465,-0.0701,-0.4730,-0.3823,-0.0973,-0.0685,
18.236701,-0.0292,0.9997,-0.2159,0.1465,-0.0701,-0.4730,-0.3823,-0.0973,-0.0685,
18.239736,-0.0292,0.9997,-0.2159,0.1465,-0.0701,-0.4730,-0.5281,-0.0164,-0.1452,
18.248996,-0.0292,0.9997,-0.2159,-0.0919,0.0678,-1.6249,-0.5281,-0.0164,-0.1452,
18.268914,-0.0292,0.9997,-0.2159,0.3475,0.0083,-1.5489,-0.5281,-0.0164,-0.1452,
18.291309,-0.0292,0.9997,-0.2159,0.3754,0.2035,-0.1300,-0.5281,-0.0164,-0.1452,
18.304396,-0.0632,0.9203,0.0478,0.3754,0.2035,-0.1300,-0.5281,-0.0164,-0.1452,
18.307230,-0.0632,0.9203,0.0478,0.3754,0.2035,-0.1300,-0.8513,-0.0025,-0.3160,
18.308623,-0.0632,0.9203,0.0478,-0.6511,-0.9920,0.5319,-0.8513,-0.0025,-0.3160,
18.329042,-0.0632,0.9203,0.0478,-0.4675,-0.3205,-0.1357,-0.8513,-0.0025,-0.3160,
18.348657,-0.0632,0.9203,0.0478,-0.0014,0.4513,-0.4599,-0.8513,-0.0025,-0.3160,
18.368439,0.0565,1.1238,-0.1518,-0.0014,0.4513,-0.4599,-0.8513,-0.0025,-0.3160,
18.372145,0.0565,1.1238,-0.1518,-0.0014,0.4513,-0.4599,-1.1094,0.2918,-0.1670,
18.373424,0.0565,1.1238,-0.1518,0.7788,1.1383,-1.5222,-1.1094,0.2918,-0.1670,
18.388465,0.0565,1.1238,-0.1518,2.1446,1.5450,-2.1383,-1.1094,0.2918,-0.1670,
18.408833,0.0565,1.1238,-0.1518,3.2169,4.7447,-3.3937,-1.1094,0.2918,-0.1670,
18.428397,0.0565,1.1238,-0.1518,7.5066,4.5580,-3.0177,-1.1094,0.2918,-0.1670,
18.433833,0.6647,1.3944,-0.0978,7.5066,4.5580,-3.0177,-1.1094,0.2918,-0.1670,
18.434940,0.6647,1.3944,-0.0978,7.5066,4.5580,-3.0177,-1.1776,-0.2394,-1.4068,
18.448549,0.6647,1.3944,-0.0978,4.1592,4.0954,-3.3523,-1.1776,-0.2394,-1.4068,
18.469209,0.6647,1.3944,-0.0978,0.8616,4.3383,-4.1010,-1.1776,-0.2394,-1.4068,
18.492023,0.6647,1.3944,-0.0978,1.5133,2.8400,-2.1237,-1.1776,-0.2394,-1.4068,
18.499791,0.1295,1.1010,-0.0179,1.5133,2.8400,-2.1237,-1.1776,-0.2394,-1.4068,
18.500909,0.1295,1.1010,-0.0179,1.5133,2.8400,-2.1237,-0.9513,0.9535,-1.4898,
18.508681,0.1295,1.1010,-0.0179,4.1811,0.8796,-1.2184,-0.9513,0.9535,-1.4898,
18.528886,0.1295,1.1010,-0.0179,3.3427,-2.5082,4.2165,-0.9513,0.9535,-1.4898,
18.548887,0.1295,1.1010,-0.0179,-0.2071,0.4708,-4.8728,-0.9513,0.9535,-1.4898,
18.566908,0.5131,0.7544,-0.1390,-0.2071,0.4708,-4.8728,-0.9513,0.9535,-1.4898,
18.572035,0.5131,0.7544,-0.1390,-0.2071,0.4708,-4.8728,-0.1976,7.8130,-1.2002,
18.573805,0.5131,0.7544,-0.1390,8.1704,-1.8175,-2.6086,-0.1976,7.8130,-1.2002,
18.588545,0.5131,0.7544,-0.1390,7.0929,-2.4185,-6.8609,-0.1976,7.8130,-1.2002,
18.608763,0.5131,0.7544,-0.1390,3.4843,-1.9840,-7.7653,-0.1976,7.8130,-1.2002,
18.628974,0.5131,0.7544,-0.1390,1.4327,-1.6595,-7.6894,-0.1976,7.8130,-1.2002,
18.634881,-0.3153,0.7206,-0.8350,1.4327,-1.6595,-7.6894,-0.1976,7.8130,-1.2002,
18.636912,-0.3153,0.7206,-0.8350,1.4327,-1.6595,-7.6894,-0.0948,4.9321,-0.4891,
18.649230,-0.3153,0.7206,-0.8350,0.2725,-1.9995,-6.6755,-0.0948,4.9321,-0.4891,
18.668666,-0.3153,0.7206,-0.8350,0.2337,-2.0830,-4.9034,-0.0948,4.9321,-0.4891,
18.688449,-0.3153,0.7206,-0.8350,0.6731,-2.0794,-3.5200,-0.0948,4.9321,-0.4891,
18.698269,-0.2826,0.7052,-0.4122,0.6731,-2.0794,-3.5200,-0.0948,4.9321,-0.4891,
18.700059,-0.2826,0.7052,-0.4122,0.6731,-2.0794,-3.5200,-0.3642,1.8435,1.3427,
18.708706,-0.2826,0.7052,-0.4122,1.5332,-2.0198,-2.1482,-0.3642,1.8435,1.3427,
18.729133,-0.2826,0.7052,-0.4122,2.1660,-2.2133,-0.5820,-0.3642,1.8435,1.3427,
18.748880,-0.2826,0.7052,-0.4122,1.8760,-1.9375,0.0827,-0.3642,1.8435,1.3427,
18.764262,-0.1304,0.7890,-0.1066,1.8760,-1.9375,0.0827,-0.3642,1.8435,1.3427,
18.767092,-0.1304,0.7890,-0.1066,1.8760,-1.9375,0.0827,-0.1246,1.9074,2.4227,
18.772112,-0.1304,0.7890,-0.1066,1.2469,-1.6011,0.3429,-0.1246,1.9074,2.4227,
18.789156,-0.1304,0.7890,-0.1066,1.6408,-1.1261,0.0052,-0.1246,1.9074,2.4227,
18.810077,-0.1304,0.7890,-0.1066,2.7402,0.0048,0.0158,-0.1246,1.9074,2.4227,
18.828937,-0.1304,0.7890,-0.1066,1.8434,1.0492,-0.9598,-0.1246,1.9074,2.4227,
18.832050,0.0789,1.1053,-0.2854,1.8434,1.0492,-0.9598,-0.1246,1.9074,2.4227,
18.833058,0.0789,1.1053,-0.2854,1.8434,1.0492,-0.9598,-0.1369,2.2742,2.4195,
18.848736,0.0789,1.1053,-0.2854,0.3079,1.4596,-1.9689,-0.1369,2.2742,2.4195,
18.868752,0.0789,1.1053,-0.2854,-0.0282,2.1378,-1.9063,-0.1369,2.2742,2.4195,
18.889612,0.0789,1.1053,-0.2854,-1.8773,3.6776,-2.7159,-0.1369,2.2742,2.4195,
18.896091,-0.3888,1.3501,-0.4406,-1.8773,3.6776,-2.7159,-0.1369,2.2742,2.4195,
18.897901,-0.3888,1.3501,-0.4406,-1.8773,3.6776,-2.7159,-0.4137,1.5374,1.8031,
18.908640,-0.3888,1.3501,-0.4406,-7.3718,2.7874,-2.5859,-0.4137,1.5374,1.8031,
18.928707,-0.3888,1.3501,-0.4406,-8.4012,1.0035,-1.0874,-0.4137,1.5374,1.8031,
18.948716,-0.3888,1.3501,-0.4406,-5.4009,0.7227,-0.9073,-0.4137,1.5374,1.8031,
18.962202,-0.1792,1.0537,-0.2408,-5.4009,0.7227,-0.9073,-0.4137,1.5374,1.8031,
18.964937,-0.1792,1.0537,-0.2408,-5.4009,0.7227,-0.9073,-0.1209,1.1265,1.9474,
18.969057,-0.1792,1.0537,-0.2408,-3.8471,0.8753,-1.4887,-0.1209,1.1265,1.9474,
18.988577,-0.1792,1.0537,-0.2408,-3.2808,1.1161,-1.9561,-0.1209,1.1265,1.9474,
19.008600,-0.1792,1.0537,-0.2408,-4.9522,1.2970,-1.9702,-0.1209,1.1265,1.9474,
19.029090,-0.4434,0.9660,-0.2019,-4.9522,1.2970,-1.9702,-0.1209,1.1265,1.9474,
19.031860,-0.4434,0.9660,-0.2019,-4.9522,1.2970,-1.9702,0.1649,0.5276,0.3509,
19.032673,-0.4434,0.9660,-0.2019,-7.4820,0.3465,-1.1788,0.1649,0.5276,0.3509,
19.049143,-0.4434,0.9660,-0.2019,-6.7421,-0.0235,-0.7609,0.1649,0.5276,0.3509,
19.071210,-0.4434,0.9660,-0.2019,-4.1638,0.4653,-0.8367,0.1649,0.5276,0.3509,
19.089280,-0.4434,0.9660,-0.2019,-3.8787,0.9701,-0.6267,0.1649,0.5276,0.3509,
19.094180,0.2007,1.7529,-0.0940,-3.8787,0.9701,-0.6267,0.1649,0.5276,0.3509,
19.095802,0.2007,1.7529,-0.0940,-3.8787,0.9701,-0.6267,0.6584,1.1047,-0.8074,
19.109657,0.2007,1.7529,-0.0940,3.4912,6.9519,-0.9232,0.6584,1.1047,-0.8074,
19.128845,0.2007,1.7529,-0.0940,0.2829,-2.0320,-1.6345,0.6584,1.1047,-0.8074,
19.148661,0.2007,1.7529,-0.0940,2.5313,-0.1538,-0.3920,0.6584,1.1047,-0.8074,
19.160592,0.6470,1.1843,0.4118,2.5313,-0.1538,-0.3920,0.6584,1.1047,-0.8074,
19.163289,0.6470,1.1843,0.4118,2.5313,-0.1538,-0.3920,0.0542,1.6642,-0.7584,
