
time,gFx,gFy,gFz,ax,ay,az,wx,wy,wz,
0.016366,0.0000,0.0000,0.0000,-0.1791,0.2265,-0.7317,0.0000,0.0000,0.0000,
0.036540,0.0000,0.0000,0.0000,-0.1791,0.2265,-0.7317,0.0000,0.0000,0.0000,
0.057247,0.0000,0.0000,0.0000,-0.0096,0.0813,0.0057,0.0000,0.0000,0.0000,
0.068867,-0.1392,0.9870,0.0879,-0.0096,0.0813,0.0057,0.0000,0.0000,0.0000,
0.069302,-0.1392,0.9870,0.0879,-0.0096,0.0813,0.0057,-0.0532,0.0505,0.0416,
0.077022,-0.1392,0.9870,0.0879,-0.1242,-0.1915,0.1743,-0.0532,0.0505,0.0416,
0.097551,-0.1392,0.9870,0.0879,0.0233,-0.0131,0.0415,-0.0532,0.0505,0.0416,
0.119282,-0.1392,0.9870,0.0879,-0.1752,-0.1175,0.2430,-0.0532,0.0505,0.0416,
0.137807,-0.1301,0.9984,0.0957,-0.1752,-0.1175,0.2430,-0.0532,0.0505,0.0416,
0.139954,-0.1301,0.9984,0.0957,-0.1752,-0.1175,0.2430,-0.0218,0.0245,0.0757,
0.141312,-0.1301,0.9984,0.0957,-0.0850,0.0750,0.1180,-0.0218,0.0245,0.0757,
0.158080,-0.1301,0.9984,0.0957,-0.0853,0.0002,0.0295,-0.0218,0.0245,0.0757,
0.178533,-0.1301,0.9984,0.0957,-0.0527,-0.1269,0.1245,-0.0218,0.0245,0.0757,
0.198921,-0.1301,0.9984,0.0957,0.1426,0.0871,-0.0112,-0.0218,0.0245,0.0757,
0.202179,-0.0895,1.0050,0.0894,0.1426,0.0871,-0.0112,-0.0218,0.0245,0.0757,
0.203943,-0.0895,1.0050,0.0894,0.1426,0.0871,-0.0112,0.0090,0.0245,0.1199,
0.217922,-0.0895,1.0050,0.0894,0.2050,0.1114,-0.2654,0.0090,0.0245,0.1199,
0.238745,-0.0895,1.0050,0.0894,0.0249,0.0115,-0.2236,0.0090,0.0245,0.1199,
0.261324,-0.0895,1.0050,0.0894,-0.1541,-0.0692,-0.0828,0.0090,0.0245,0.1199,
0.267771,-0.1249,0.9813,0.0630,-0.1541,-0.0692,-0.0828,0.0090,0.0245,0.1199,
0.269522,-0.1249,0.9813,0.0630,-0.1541,-0.0692,-0.0828,-0.0788,0.0638,0.1369,
0.278651,-0.1249,0.9813,0.0630,0.0621,-0.1491,0.2400,-0.0788,0.0638,0.1369,
0.297925,-0.1249,0.9813,0.0630,0.1487,-0.0617,0.4959,-0.0788,0.0638,0.1369,
0.317790,-0.1249,0.9813,0.0630,0.2729,0.1518,0.0556,-0.0788,0.0638,0.1369,
0.333403,-0.0772,0.9990,0.0652,0.2729,0.1518,0.0556,-0.0788,0.0638,0.1369,
0.336126,-0.0772,0.9990,0.0652,0.2729,0.1518,0.0556,-0.0830,0.0340,0.0624,
0.341621,-0.0772,0.9990,0.0652,0.1231,0.0804,-0.0641,-0.0830,0.0340,0.0624,
0.360541,-0.0772,0.9990,0.0652,-0.1823,-0.1941,-0.1866,-0.0830,0.0340,0.0624,
0.377815,-0.0772,0.9990,0.0652,0.1707,-0.1354,0.1740,-0.0830,0.0340,0.0624,
0.397623,-0.0772,0.9990,0.0652,0.6855,0.0494,0.2602,-0.0830,0.0340,0.0624,
0.399804,-0.0481,1.0043,0.1071,0.6855,0.0494,0.2602,-0.0830,0.0340,0.0624,
0.400486,-0.0481,1.0043,0.1071,0.6855,0.0494,0.2602,-0.0958,0.0782,-0.0153,
0.417327,-0.0481,1.0043,0.1071,0.3368,0.3727,0.3762,-0.0958,0.0782,-0.0153,
0.437825,-0.0481,1.0043,0.1071,-0.5031,-0.0824,0.6090,-0.0958,0.0782,-0.0153,
0.458049,-0.0481,1.0043,0.1071,-0.4938,-0.2303,1.2556,-0.0958,0.0782,-0.0153,
0.465231,-0.1495,0.9712,0.2599,-0.4938,-0.2303,1.2556,-0.0958,0.0782,-0.0153,
0.467078,-0.1495,0.9712,0.2599,-0.4938,-0.2303,1.2556,0.2268,0.0436,0.0677,
0.478175,-0.1495,0.9712,0.2599,-0.5533,-0.3219,1.6104,0.2268,0.0436,0.0677,
0.497943,-0.1495,0.9712,0.2599,-0.1916,-0.0499,1.5607,0.2268,0.0436,0.0677,
0.517932,-0.1495,0.9712,0.2599,-0.2609,0.6260,-0.0540,0.2268,0.0436,0.0677,
0.531199,-0.0969,1.0610,-0.0296,-0.2609,0.6260,-0.0540,0.2268,0.0436,0.0677,
0.533336,-0.0969,1.0610,-0.0296,-0.2609,0.6260,-0.0540,0.5286,-0.2699,0.2418,
0.540807,-0.0969,1.0610,-0.0296,-0.0654,0.6013,-1.2877,0.5286,-0.2699,0.2418,
0.557775,-0.0969,1.0610,-0.0296,1.4923,0.2542,-1.6918,0.5286,-0.2699,0.2418,
0.578268,-0.0969,1.0610,-0.0296,1.9617,1.2324,-1.4662,0.5286,-0.2699,0.2418,
0.597907,0.0553,1.1150,0.0290,1.9617,1.2324,-1.4662,0.5286,-0.2699,0.2418,
0.600186,0.0553,1.1150,0.0290,1.9617,1.2324,-1.4662,0.4450,-0.6351,-0.1777,
0.601433,0.0553,1.1150,0.0290,1.2185,1.1958,-0.2990,0.4450,-0.6351,-0.1777,
0.617368,0.0553,1.1150,0.0290,1.6897,0.9851,0.0892,0.4450,-0.6351,-0.1777,
0.637818,0.0553,1.1150,0.0290,2.1269,-0.2925,0.0196,0.4450,-0.6351,-0.1777,
0.657755,0.0553,1.1150,0.0290,-0.7821,-0.1318,-0.2674,0.4450,-0.6351,-0.1777,
0.663132,-0.1940,1.0006,-0.0139,-0.7821,-0.1318,-0.2674,0.4450,-0.6351,-0.1777,
0.665081,-0.1940,1.0006,-0.0139,-0.7821,-0.1318,-0.2674,0.2587,-0.1948,-0.5647,
0.678669,-0.1940,1.0006,-0.0139,0.5343,0.8349,-0.8877,0.2587,-0.1948,-0.5647,
0.701698,-0.1940,1.0006,-0.0139,1.4625,1.6064,-1.7425,0.2587,-0.1948,-0.5647,
0.721958,-0.1940,1.0006,-0.0139,1.0647,0.4209,-1.4086,0.2587,-0.1948,-0.5647,
0.732690,-0.0823,1.0161,-0.0608,1.0647,0.4209,-1.4086,0.2587,-0.1948,-0.5647,
0.735180,-0.0823,1.0161,-0.0608,1.0647,0.4209,-1.4086,0.2204,-0.1587,-0.9064,
0.740207,-0.0823,1.0161,-0.0608,-0.0717,0.0638,-0.5186,0.2204,-0.1587,-0.9064,
0.757893,-0.0823,1.0161,-0.0608,-0.8479,-0.9770,0.0553,0.2204,-0.1587,-0.9064,
0.777652,-0.0823,1.0161,-0.0608,0.5242,-1.2410,0.0345,0.2204,-0.1587,-0.9064,
0.796428,-0.3506,0.9779,0.0304,0.5242,-1.2410,0.0345,0.2204,-0.1587,-0.9064,
0.798949,-0.3506,0.9779,0.0304,0.5242,-1.2410,0.0345,0.8246,0.1171,0.5718,
0.799985,-0.3506,0.9779,0.0304,-1.9987,-0.1259,0.6209,0.8246,0.1171,0.5718,
0.817674,-0.3506,0.9779,0.0304,3.8581,-0.5990,0.5155,0.8246,0.1171,0.5718,
0.840308,-0.3506,0.9779,0.0304,8.2588,-1.9216,1.5204,0.8246,0.1171,0.5718,
0.858353,-0.3506,0.9779,0.0304,5.2816,-1.0490,1.4869,0.8246,0.1171,0.5718,
0.861427,0.3577,0.9466,0.0390,5.2816,-1.0490,1.4869,0.8246,0.1171,0.5718,
0.862577,0.3577,0.9466,0.0390,5.2816,-1.0490,1.4869,0.6824,-0.3854,1.0637,
0.877597,0.3577,0.9466,0.0390,2.4948,0.2742,0.9879,0.6824,-0.3854,1.0637,
0.897797,0.3577,0.9466,0.0390,2.7050,0.4341,1.7519,0.6824,-0.3854,1.0637,
0.917965,0.3577,0.9466,0.0390,4.0031,-0.3587,2.6929,0.6824,-0.3854,1.0637,
0.927374,0.4754,0.9238,0.1885,4.0031,-0.3587,2.6929,0.6824,-0.3854,1.0637,
0.929418,0.4754,0.9238,0.1885,4.0031,-0.3587,2.6929,-0.1166,0.4306,1.6716,
0.939685,0.4754,0.9238,0.1885,3.7208,-0.5507,2.5011,-0.1166,0.4306,1.6716,
0.957333,0.4754,0.9238,0.1885,2.2093,-0.5806,1.5184,-0.1166,0.4306,1.6716,
0.977686,0.4754,0.9238,0.1885,1.4533,-0.1123,0.3574,-0.1166,0.4306,1.6716,
0.993329,0.1638,1.0455,-0.0842,1.4533,-0.1123,0.3574,-0.1166,0.4306,1.6716,
0.995343,0.1638,1.0455,-0.0842,1.4533,-0.1123,0.3574,-0.3045,1.2712,1.5055,
0.997504,0.1638,1.0455,-0.0842,-0.7726,0.7295,-0.2520,-0.3045,1.2712,1.5055,
1.017479,0.1638,1.0455,-0.0842,-3.0924,0.9203,-0.7068,-0.3045,1.2712,1.5055,
1.038426,0.1638,1.0455,-0.0842,-4.6728,0.6694,-0.9824,-0.3045,1.2712,1.5055,
1.057707,0.1638,1.0455,-0.0842,-5.6356,0.4212,-1.0278,-0.3045,1.2712,1.5055,
1.059714,-0.2367,0.9940,-0.1367,-5.6356,0.4212,-1.0278,-0.3045,1.2712,1.5055,
1.060654,-0.2367,0.9940,-0.1367,-5.6356,0.4212,-1.0278,-0.3790,0.5408,1.2985,
1.078077,-0.2367,0.9940,-0.1367,-3.9157,0.5765,-1.4181,-0.3790,0.5408,1.2985,
1.097648,-0.2367,0.9940,-0.1367,-4.2061,0.7542,-1.3940,-0.3790,0.5408,1.2985,
1.117589,-0.2367,0.9940,-0.1367,-5.5209,0.2242,-1.3252,-0.3790,0.5408,1.2985,
1.124946,-0.2322,0.9544,-0.1636,-5.5209,0.2242,-1.3252,-0.3790,0.5408,1.2985,
1.126679,-0.2322,0.9544,-0.1636,-5.5209,0.2242,-1.3252,-0.0229,0.8469,-0.1069,
1.140596,-0.2322,0.9544,-0.1636,-5.3457,0.4273,-2.1843,-0.0229,0.8469,-0.1069,
1.158064,-0.2322,0.9544,-0.1636,-5.6139,0.5404,-3.3904,-0.0229,0.8469,-0.1069,
1.177631,-0.2322,0.9544,-0.1636,1.0281,6.7872,-6.8433,-0.0229,0.8469,-0.1069,
1.191375,0.2410,0.7785,-0.7167,1.0281,6.7872,-6.8433,-0.0229,0.8469,-0.1069,
1.193902,0.2410,0.7785,-0.7167,1.0281,6.7872,-6.8433,0.7804,-0.5302,-1.2290,
1.197693,0.2410,0.7785,-0.7167,-1.2660,-1.5698,-5.8206,0.7804,-0.5302,-1.2290,
1.217736,0.2410,0.7785,-0.7167,0.5548,3.2229,2.5206,0.7804,-0.5302,-1.2290,
1.239813,0.2410,0.7785,-0.7167,1.0243,-1.2339,3.8449,0.7804,-0.5302,-1.2290,
1.257216,-0.3036,1.0845,0.0251,1.0243,-1.2339,3.8449,0.7804,-0.5302,-1.2290,
1.259622,-0.3036,1.0845,0.0251,1.0243,-1.2339,3.8449,0.2209,0.5914,-1.5979,
1.261515,-0.3036,1.0845,0.0251,-4.2783,0.8122,0.3268,0.2209,0.5914,-1.5979,
1.277688,-0.3036,1.0845,0.0251,-9.7596,0.8633,2.2207,0.2209,0.5914,-1.5979,
1.298019,-0.3036,1.0845,0.0251,-6.2406,1.7151,-2.2028,0.2209,0.5914,-1.5979,
1.318132,-0.3036,1.0845,0.0251,-0.4146,0.3693,-1.6852,0.2209,0.5914,-1.5979,
1.326004,0.2224,1.0041,-0.2829,-0.4146,0.3693,-1.6852,0.2209,0.5914,-1.5979,
1.328897,0.2224,1.0041,-0.2829,-0.4146,0.3693,-1.6852,0.3673,-0.3338,-0.4917,
1.337437,0.2224,1.0041,-0.2829,-0.4054,0.3266,-2.0055,0.3673,-0.3338,-0.4917,
1.358724,0.2224,1.0041,-0.2829,-1.4587,-0.6207,-2.0629,0.3673,-0.3338,-0.4917,
1.377723,0.2224,1.0041,-0.2829,-2.2588,0.0134,-0.5661,0.3673,-0.3338,-0.4917,
1.391707,-0.2960,1.0140,-0.0214,-2.2588,0.0134,-0.5661,0.3673,-0.3338,-0.4917,
1.393958,-0.2960,1.0140,-0.0214,-2.2588,0.0134,-0.5661,0.2662,-0.0011,-0.2250,
1.398333,-0.2960,1.0140,-0.0214,-4.3142,0.0819,0.6364,0.2662,-0.0011,-0.2250,
1.417796,-0.2960,1.0140,-0.0214,-0.6334,-0.1244,-0.2459,0.2662,-0.0011,-0.2250,
1.437480,-0.2960,1.0140,-0.0214,0.1836,0.0478,-1.1489,0.2662,-0.0011,-0.2250,
1.457588,0.1007,0.9885,-0.2498,0.1836,0.0478,-1.1489,0.2662,-0.0011,-0.2250,
1.460366,0.1007,0.9885,-0.2498,0.1836,0.0478,-1.1489,0.2257,0.0308,-0.0483,
1.461831,0.1007,0.9885,-0.2498,-0.0948,-0.0174,-1.4468,0.2257,0.0308,-0.0483,
1.479047,0.1007,0.9885,-0.2498,-0.0180,-0.0159,-1.2366,0.2257,0.0308,-0.0483,
1.497666,0.1007,0.9885,-0.2498,-1.5498,0.0343,-0.4364,0.2257,0.0308,-0.0483,
1.517839,0.1007,0.9885,-0.2498,-0.1487,-0.0710,0.0006,0.2257,0.0308,-0.0483,
1.521241,0.1089,0.9872,-0.1339,-0.1487,-0.0710,0.0006,0.2257,0.0308,-0.0483,
1.523104,0.1089,0.9872,-0.1339,-0.1487,-0.0710,0.0006,0.2252,-0.0202,-0.0430,
1.537514,0.1089,0.9872,-0.1339,-0.1879,0.0018,-0.0398,0.2252,-0.0202,-0.0430,
1.558085,0.1089,0.9872,-0.1339,-0.5082,-0.0147,-0.3970,0.2252,-0.0202,-0.0430,
1.577683,0.1089,0.9872,-0.1339,0.8042,-0.3253,0.0442,0.2252,-0.0202,-0.0430,
1.587042,0.1678,0.9952,-0.1434,0.8042,-0.3253,0.0442,0.2252,-0.0202,-0.0430,
1.588704,0.1678,0.9952,-0.1434,0.8042,-0.3253,0.0442,0.1836,-0.0069,-0.2325,
1.597776,0.1678,0.9952,-0.1434,0.1037,0.1482,0.3964,0.1836,-0.0069,-0.2325,
1.617649,0.1678,0.9952,-0.1434,-0.3219,-0.1253,0.3258,0.1836,-0.0069,-0.2325,
1.638300,0.1678,0.9952,-0.1434,0.8073,-0.1030,0.1674,0.1836,-0.0069,-0.2325,
1.653394,0.0463,0.9989,-0.1898,0.8073,-0.1030,0.1674,0.1836,-0.0069,-0.2325,
1.656822,0.0463,0.9989,-0.1898,0.8073,-0.1030,0.1674,0.1666,-0.1299,-0.3645,
1.662234,0.0463,0.9989,-0.1898,-0.3573,0.1153,-0.3598,0.1666,-0.1299,-0.3645,
1.678563,0.0463,0.9989,-0.1898,-0.6473,-0.0303,-0.5772,0.1666,-0.1299,-0.3645,
1.697725,0.0463,0.9989,-0.1898,-0.0158,-0.0777,-0.0455,0.1666,-0.1299,-0.3645,
1.718340,0.0463,0.9989,-0.1898,0.4785,0.1495,0.5323,0.1666,-0.1299,-0.3645,
1.720333,0.0512,0.9837,-0.1104,0.4785,0.1495,0.5323,0.1666,-0.1299,-0.3645,
1.720944,0.0512,0.9837,-0.1104,0.4785,0.1495,0.5323,0.1139,-0.2050,-0.3986,
1.737679,0.0512,0.9837,-0.1104,-0.2778,0.0139,0.2173,0.1139,-0.2050,-0.3986,
1.757868,0.0512,0.9837,-0.1104,-0.9927,0.1735,-0.2544,0.1139,-0.2050,-0.3986,
1.777535,0.0512,0.9837,-0.1104,-0.7067,0.0901,-0.7594,0.1139,-0.2050,-0.3986,
1.784982,-0.0303,0.9863,-0.2385,-0.7067,0.0901,-0.7594,0.1139,-0.2050,-0.3986,
1.786280,-0.0303,0.9863,-0.2385,-0.7067,0.0901,-0.7594,0.0601,-0.0325,-0.3470,
1.798058,-0.0303,0.9863,-0.2385,0.8437,-0.0831,-0.6324,0.0601,-0.0325,-0.3470,
1.817863,-0.0303,0.9863,-0.2385,1.7573,0.0371,0.2123,0.0601,-0.0325,-0.3470,
1.837256,-0.0303,0.9863,-0.2385,0.8226,0.3261,0.1261,0.0601,-0.0325,-0.3470,
1.851132,-0.0671,1.0107,-0.2131,0.8226,0.3261,0.1261,0.0601,-0.0325,-0.3470,
1.852964,-0.0671,1.0107,-0.2131,0.8226,0.3261,0.1261,0.0117,-0.0240,-0.8122,
1.859137,-0.0671,1.0107,-0.2131,-0.2181,0.3539,-0.3990,0.0117,-0.0240,-0.8122,
1.878323,-0.0671,1.0107,-0.2131,2.1266,0.5788,-0.9517,0.0117,-0.0240,-0.8122,
1.897743,-0.0671,1.0107,-0.2131,2.3882,0.9434,-0.2371,0.0117,-0.0240,-0.8122,
1.917140,-0.1939,1.0338,-0.2156,2.3882,0.9434,-0.2371,0.0117,-0.0240,-0.8122,
1.919490,-0.1939,1.0338,-0.2156,2.3882,0.9434,-0.2371,0.0053,-0.1342,-1.2998,
1.920593,-0.1939,1.0338,-0.2156,-0.8030,0.5830,-0.2006,0.0053,-0.1342,-1.2998,
1.937320,-0.1939,1.0338,-0.2156,0.4053,1.1725,-0.1884,0.0053,-0.1342,-1.2998,
1.958072,-0.1939,1.0338,-0.2156,1.7325,1.7095,-1.1910,0.0053,-0.1342,-1.2998,
1.977611,-0.1939,1.0338,-0.2156,2.6982,4.0680,-0.7727,0.0053,-0.1342,-1.2998,
1.983199,0.2860,1.3928,-0.1368,2.6982,4.0680,-0.7727,0.0053,-0.1342,-1.2998,
1.984991,0.2860,1.3928,-0.1368,2.6982,4.0680,-0.7727,-0.0256,-0.6782,-1.5873,
1.998723,0.2860,1.3928,-0.1368,3.8909,3.5725,0.9316,-0.0256,-0.6782,-1.5873,
2.017863,0.2860,1.3928,-0.1368,3.1875,2.8350,0.9573,-0.0256,-0.6782,-1.5873,
2.037740,0.2860,1.3928,-0.1368,4.0551,2.7713,0.8751,-0.0256,-0.6782,-1.5873,
2.049197,0.1463,1.2194,-0.1122,4.0551,2.7713,0.8751,-0.0256,-0.6782,-1.5873,
2.051426,0.1463,1.2194,-0.1122,4.0551,2.7713,0.8751,-0.0160,-0.2380,-2.2969,
2.059351,0.1463,1.2194,-0.1122,4.2920,3.3360,0.6099,-0.0160,-0.2380,-2.2969,
2.077563,0.1463,1.2194,-0.1122,3.2757,3.9104,1.9522,-0.0160,-0.2380,-2.2969,
2.097846,0.1463,1.2194,-0.1122,3.7156,2.2378,-3.0439,-0.0160,-0.2380,-2.2969,
2.116274,-0.0261,1.2400,-0.1666,3.7156,2.2378,-3.0439,-0.0160,-0.2380,-2.2969,
2.119071,-0.0261,1.2400,-0.1666,3.7156,2.2378,-3.0439,0.3710,-0.1869,-3.2433,
2.120466,-0.0261,1.2400,-0.1666,4.3799,3.6523,0.0240,0.3710,-0.1869,-3.2433,
2.137917,-0.0261,1.2400,-0.1666,4.3578,1.6445,-1.6804,0.3710,-0.1869,-3.2433,
2.158505,-0.0261,1.2400,-0.1666,1.9014,-3.8827,0.9209,0.3710,-0.1869,-3.2433,
2.177725,-0.0261,1.2400,-0.1666,-1.1980,-6.8018,0.4757,0.3710,-0.1869,-3.2433,
2.181186,-0.6603,0.2375,-0.1475,-1.1980,-6.8018,0.4757,0.3710,-0.1869,-3.2433,
2.183079,-0.6603,0.2375,-0.1475,-1.1980,-6.8018,0.4757,0.0356,-0.5355,-2.3219,
2.198291,-0.6603,0.2375,-0.1475,-6.3600,-0.8202,1.7306,0.0356,-0.5355,-2.3219,
2.217760,-0.6603,0.2375,-0.1475,1.9942,-2.8838,-0.3551,0.0356,-0.5355,-2.3219,
2.237916,-0.6603,0.2375,-0.1475,1.5058,-2.0141,0.8009,0.0356,-0.5355,-2.3219,
2.247530,-0.7032,0.4386,-0.1549,1.5058,-2.0141,0.8009,0.0356,-0.5355,-2.3219,
2.249975,-0.7032,0.4386,-0.1549,1.5058,-2.0141,0.8009,0.2507,0.4120,0.8039,
2.260339,-0.7032,0.4386,-0.1549,0.1516,-2.3967,0.1024,0.2507,0.4120,0.8039,
2.278972,-0.7032,0.4386,-0.1549,2.5474,-1.9212,0.1748,0.2507,0.4120,0.8039,
2.297751,-0.7032,0.4386,-0.1549,2.9137,-1.9653,-0.0121,0.2507,0.4120,0.8039,
2.313228,-0.3760,0.5407,-0.1623,2.9137,-1.9653,-0.0121,0.2507,0.4120,0.8039,
2.315644,-0.3760,0.5407,-0.1623,2.9137,-1.9653,-0.0121,0.1698,-0.4296,2.6697,
2.317656,-0.3760,0.5407,-0.1623,2.3794,-2.1893,0.5049,0.1698,-0.4296,2.6697,
2.338028,-0.3760,0.5407,-0.1623,4.0653,-1.7068,1.3329,0.1698,-0.4296,2.6697,
2.359495,-0.3760,0.5407,-0.1623,5.0002,-0.9509,2.2015,0.1698,-0.4296,2.6697,
2.377690,-0.3760,0.5407,-0.1623,3.8802,-0.3539,2.2000,0.1698,-0.4296,2.6697,
2.380862,-0.1189,0.8373,0.0360,3.8802,-0.3539,2.2000,0.1698,-0.4296,2.6697,
2.382409,-0.1189,0.8373,0.0360,3.8802,-0.3539,2.2000,0.0399,-0.0692,3.0381,
2.397906,-0.1189,0.8373,0.0360,2.1058,-0.0906,2.4119,0.0399,-0.0692,3.0381,
2.417491,-0.1189,0.8373,0.0360,1.6176,0.4767,2.0976,0.0399,-0.0692,3.0381,
2.437740,-0.1189,0.8373,0.0360,1.8482,1.4406,1.2492,0.0399,-0.0692,3.0381,
2.445026,-0.0893,1.1163,-0.0929,1.8482,1.4406,1.2492,0.0399,-0.0692,3.0381,
2.447194,-0.0893,1.1163,-0.0929,1.8482,1.4406,1.2492,-0.5249,0.7857,3.1344,
2.458046,-0.0893,1.1163,-0.0929,1.4542,2.0574,0.7931,-0.5249,0.7857,3.1344,
2.478365,-0.0893,1.1163,-0.0929,-0.4660,2.5416,0.5268,-0.5249,0.7857,3.1344,
2.497665,-0.0893,1.1163,-0.0929,-1.8069,2.4868,0.3213,-0.5249,0.7857,3.1344,
2.511302,-0.1380,1.2265,-0.0801,-1.8069,2.4868,0.3213,-0.5249,0.7857,3.1344,
2.513694,-0.1380,1.2265,-0.0801,-1.8069,2.4868,0.3213,-1.0104,1.3079,3.0935,
2.518080,-0.1380,1.2265,-0.0801,-0.4141,2.3408,0.8445,-1.0104,1.3079,3.0935,
2.537629,-0.1380,1.2265,-0.0801,0.3493,2.6958,0.6248,-1.0104,1.3079,3.0935,
2.558318,-0.1380,1.2265,-0.0801,-0.0363,2.9924,-0.0112,-1.0104,1.3079,3.0935,
2.578585,0.1263,1.2561,-0.1648,-0.0363,2.9924,-0.0112,-1.0104,1.3079,3.0935,
2.581274,0.1263,1.2561,-0.1648,-0.0363,2.9924,-0.0112,-0.9412,2.3236,2.0001,
2.582578,0.1263,1.2561,-0.1648,-0.1235,2.6614,-0.7265,-0.9412,2.3236,2.0001,
2.599259,0.1263,1.2561,-0.1648,-0.2967,2.3472,-1.5915,-0.9412,2.3236,2.0001,
2.617792,0.1263,1.2561,-0.1648,-1.0621,2.0839,-2.1655,-0.9412,2.3236,2.0001,
2.637520,0.1263,1.2561,-0.1648,-3.0759,0.6626,-1.7128,-0.9412,2.3236,2.0001,
2.644784,-0.1259,1.0017,-0.1679,-3.0759,0.6626,-1.7128,-0.9412,2.3236,2.0001,
2.647175,-0.1259,1.0017,-0.1679,-3.0759,0.6626,-1.7128,-0.5760,1.9446,0.5857,
2.658537,-0.1259,1.0017,-0.1679,-3.2319,0.2514,-1.5717,-0.5760,1.9446,0.5857,
2.679187,-0.1259,1.0017,-0.1679,-2.6419,1.0991,-2.1034,-0.5760,1.9446,0.5857,
2.697720,-0.1259,1.0017,-0.1679,-4.2845,-0.0881,-2.8114,-0.5760,1.9446,0.5857,
2.711792,-0.2306,0.8560,-0.1327,-4.2845,-0.0881,-2.8114,-0.5760,1.9446,0.5857,
2.714709,-0.2306,0.8560,-0.1327,-4.2845,-0.0881,-2.8114,-0.5046,3.5724,-0.1920,
2.720001,-0.2306,0.8560,-0.1327,-4.6143,-1.2949,-1.5549,-0.5046,3.5724,-0.1920,
2.737834,-0.2306,0.8560,-0.1327,-4.5682,-1.5042,-2.4956,-0.5046,3.5724,-0.1920,
2.758199,-0.2306,0.8560,-0.1327,-3.3929,-1.2385,-3.5097,-0.5046,3.5724,-0.1920,
2.779254,-0.1739,0.8955,-0.2632,-3.3929,-1.2385,-3.5097,-0.5046,3.5724,-0.1920,
2.781601,-0.1739,0.8955,-0.2632,-3.3929,-1.2385,-3.5097,0.0197,3.4665,-0.7398,
2.783813,-0.1739,0.8955,-0.2632,-3.5619,-0.7462,-4.0354,0.0197,3.4665,-0.7398,
2.799211,-0.1739,0.8955,-0.2632,-5.4710,-0.3803,-4.7926,0.0197,3.4665,-0.7398,
2.817446,-0.1739,0.8955,-0.2632,-6.3167,-0.8675,-4.1280,0.0197,3.4665,-0.7398,
2.837935,-0.1739,0.8955,-0.2632,-2.1360,-0.6446,-4.9719,0.0197,3.4665,-0.7398,
2.840691,0.0164,1.0783,-0.3555,-2.1360,-0.6446,-4.9719,0.0197,3.4665,-0.7398,
2.842257,0.0164,1.0783,-0.3555,-2.1360,-0.6446,-4.9719,0.6015,2.8405,-0.4481,
2.857972,0.0164,1.0783,-0.3555,3.7724,3.2143,-5.2951,0.6015,2.8405,-0.4481,
2.877553,0.0164,1.0783,-0.3555,5.3189,0.5768,5.3593,0.6015,2.8405,-0.4481,
2.897670,0.0164,1.0783,-0.3555,2.1346,-0.6390,0.9068,0.6015,2.8405,-0.4481,
2.907161,-0.0828,1.2405,0.0515,2.1346,-0.6390,0.9068,0.6015,2.8405,-0.4481,
2.909143,-0.0828,1.2405,0.0515,2.1346,-0.6390,0.9068,0.4109,2.0888,-1.0672,
2.918136,-0.0828,1.2405,0.0515,-4.5374,3.0669,-0.5695,0.4109,2.0888,-1.0672,
2.937574,-0.0828,1.2405,0.0515,-3.8904,4.1653,-6.1701,0.4109,2.0888,-1.0672,
2.957752,-0.0828,1.2405,0.0515,-6.9241,0.0391,0.2194,0.4109,2.0888,-1.0672,
2.973072,-0.3615,1.0053,-0.1849,-6.9241,0.0391,0.2194,0.4109,2.0888,-1.0672,
2.975496,-0.3615,1.0053,-0.1849,-6.9241,0.0391,0.2194,1.0561,0.1948,-0.0739,
2.977597,-0.3615,1.0053,-0.1849,-2.9153,0.2882,-3.6256,1.0561,0.1948,-0.0739,
2.998145,-0.3615,1.0053,-0.1849,2.8868,0.7910,-0.3024,1.0561,0.1948,-0.0739,
3.017663,-0.3615,1.0053,-0.1849,-2.0167,0.1334,-0.2350,1.0561,0.1948,-0.0739,
3.038354,-0.3615,1.0053,-0.1849,-2.4362,-0.1299,-0.8189,1.0561,0.1948,-0.0739,
3.040700,-0.2111,0.9841,-0.0119,-2.4362,-0.1299,-0.8189,1.0561,0.1948,-0.0739,
3.042284,-0.2111,0.9841,-0.0119,-2.4362,-0.1299,-0.8189,0.6766,-0.0043,0.0714,
3.057689,-0.2111,0.9841,-0.0119,-0.6820,0.0910,-0.3900,0.6766,-0.0043,0.0714,
3.078212,-0.2111,0.9841,-0.0119,0.7460,0.0986,-1.6300,0.6766,-0.0043,0.0714,
3.099218,-0.2111,0.9841,-0.0119,1.0832,-0.3330,-1.1515,0.6766,-0.0043,0.0714,
3.105248,0.0633,0.9972,-0.0722,1.0832,-0.3330,-1.1515,0.6766,-0.0043,0.0714,
3.107204,0.0633,0.9972,-0.0722,1.0832,-0.3330,-1.1515,0.4482,0.2166,-0.0409,
3.118951,0.0633,0.9972,-0.0722,0.1123,0.0894,-0.3019,0.4482,0.2166,-0.0409,
3.138095,0.0633,0.9972,-0.0722,-1.5899,0.0716,-0.8816,0.4482,0.2166,-0.0409,
3.158128,0.0633,0.9972,-0.0722,-1.1190,-0.0335,-0.3753,0.4482,0.2166,-0.0409,
3.171303,-0.0533,1.0000,-0.0714,-1.1190,-0.0335,-0.3753,0.4482,0.2166,-0.0409,
3.173528,-0.0533,1.0000,-0.0714,-1.1190,-0.0335,-0.3753,0.4232,0.0175,0.1300,
3.179645,-0.0533,1.0000,-0.0714,-0.4948,-0.2359,-0.1957,0.4232,0.0175,0.1300,
3.197965,-0.0533,1.0000,-0.0714,0.3461,0.1017,-0.0592,0.4232,0.0175,0.1300,
3.217979,-0.0533,1.0000,-0.0714,0.5169,-0.3342,-0.8920,0.4232,0.0175,0.1300,
3.237633,-0.1232,1.0226,-0.1624,0.5169,-0.3342,-0.8920,0.4232,0.0175,0.1300,
3.239679,-0.1232,1.0226,-0.1624,0.5169,-0.3342,-0.8920,0.2486,0.2315,0.0438,
3.240602,-0.1232,1.0226,-0.1624,-1.1598,0.1018,-0.8430,0.2486,0.2315,0.0438,
3.257617,-0.1232,1.0226,-0.1624,-3.0386,0.2334,-0.5010,0.2486,0.2315,0.0438,
3.278385,-0.1232,1.0226,-0.1624,-0.0639,-0.1258,1.6665,0.2486,0.2315,0.0438,
3.297899,-0.1232,1.0226,-0.1624,2.9573,-0.2972,-0.4227,0.2486,0.2315,0.0438,
3.303265,0.3155,0.9840,-0.1963,2.9573,-0.2972,-0.4227,0.2486,0.2315,0.0438,
3.305087,0.3155,0.9840,-0.1963,2.9573,-0.2972,-0.4227,0.2427,0.1948,0.0203,
3.319334,0.3155,0.9840,-0.1963,1.3406,-0.1050,-1.8637,0.2427,0.1948,0.0203,
3.337818,0.3155,0.9840,-0.1963,-0.5608,-0.0722,-1.6351,0.2427,0.1948,0.0203,
3.357659,0.3155,0.9840,-0.1963,-0.0096,-0.2187,0.7405,0.2427,0.1948,0.0203,
3.369205,0.1689,0.9853,0.0895,-0.0096,-0.2187,0.7405,0.2427,0.1948,0.0203,
3.371838,0.1689,0.9853,0.0895,-0.0096,-0.2187,0.7405,0.1102,0.0106,-0.1042,
3.380072,0.1689,0.9853,0.0895,1.4244,-0.0905,1.3565,0.1102,0.0106,-0.1042,
3.398051,0.1689,0.9853,0.0895,-0.0032,0.1671,-0.0604,0.1102,0.0106,-0.1042,
3.417617,0.1689,0.9853,0.0895,-0.4068,0.0441,-1.7842,0.1102,0.0106,-0.1042,
3.436561,-0.0534,1.0006,-0.2317,-0.4068,0.0441,-1.7842,0.1102,0.0106,-0.1042,
3.439275,-0.0534,1.0006,-0.2317,-0.4068,0.0441,-1.7842,0.0580,0.1091,-0.1905,
3.440383,-0.0534,1.0006,-0.2317,-0.5805,0.0488,-1.1969,0.0580,0.1091,-0.1905,
3.457922,-0.0534,1.0006,-0.2317,-2.3405,0.1876,0.3094,0.0580,0.1091,-0.1905,
3.478030,-0.0534,1.0006,-0.2317,0.3866,-0.0852,1.1390,0.0580,0.1091,-0.1905,
3.497590,-0.0534,1.0006,-0.2317,1.9858,-0.1513,-0.3204,0.0580,0.1091,-0.1905,
3.501240,0.2044,0.9824,-0.2091,1.9858,-0.1513,-0.3204,0.0580,0.1091,-0.1905,
3.503014,0.2044,0.9824,-0.2091,1.9858,-0.1513,-0.3204,0.0575,0.1916,-0.2016,
3.517959,0.2044,0.9824,-0.2091,2.0208,-0.1487,-1.1113,0.0575,0.1916,-0.2016,
3.537641,0.2044,0.9824,-0.2091,-1.1703,0.2732,-1.1293,0.0575,0.1916,-0.2016,
3.558130,0.2044,0.9824,-0.2091,-3.6479,-0.3057,0.8983,0.0575,0.1916,-0.2016,
3.567307,-0.1252,0.9783,0.0096,-3.6479,-0.3057,0.8983,0.0575,0.1916,-0.2016,
3.570521,-0.1252,0.9783,0.0096,-3.6479,-0.3057,0.8983,-0.0740,0.1405,0.0060,
3.579846,-0.1252,0.9783,0.0096,0.2637,-0.1203,1.1231,-0.0740,0.1405,0.0060,
3.597889,-0.1252,0.9783,0.0096,1.2151,-0.0229,-0.2848,-0.0740,0.1405,0.0060,
3.617818,-0.1252,0.9783,0.0096,0.2419,-0.1322,-0.2331,-0.0740,0.1405,0.0060,
3.633235,-0.1323,0.9939,-0.0660,0.2419,-0.1322,-0.2331,-0.0740,0.1405,0.0060,
3.636305,-0.1323,0.9939,-0.0660,0.2419,-0.1322,-0.2331,-0.1597,-0.1677,-0.0994,
3.637875,-0.1323,0.9939,-0.0660,-1.0584,-0.0267,0.4550,-0.1597,-0.1677,-0.0994,
3.657648,-0.1323,0.9939,-0.0660,0.0229,0.0294,-0.7014,-0.1597,-0.1677,-0.0994,
3.677791,-0.1323,0.9939,-0.0660,-0.6824,0.3579,-0.6361,-0.1597,-0.1677,-0.0994,
3.697692,-0.1323,0.9939,-0.0660,1.2574,0.1269,-0.8540,-0.1597,-0.1677,-0.0994,
3.700698,0.1417,0.9777,-0.1452,1.2574,0.1269,-0.8540,-0.1597,-0.1677,-0.0994,
3.702223,0.1417,0.9777,-0.1452,1.2574,0.1269,-0.8540,-0.4626,-0.2236,-0.1697,
3.718111,0.1417,0.9777,-0.1452,1.0919,0.7766,-1.3965,-0.4626,-0.2236,-0.1697,
3.738169,0.1417,0.9777,-0.1452,-1.3985,-0.3084,0.6113,-0.4626,-0.2236,-0.1697,
3.757562,0.1417,0.9777,-0.1452,-1.2405,0.1459,-1.2609,-0.4626,-0.2236,-0.1697,
3.766753,0.1616,1.1051,-0.2136,-1.2405,0.1459,-1.2609,-0.4626,-0.2236,-0.1697,
3.772628,0.1616,1.1051,-0.2136,-1.2405,0.1459,-1.2609,-0.8597,0.0208,-0.0680,
3.777663,0.1616,1.1051,-0.2136,3.1650,0.7751,-1.5151,-0.8597,0.0208,-0.0680,
3.798014,0.1616,1.1051,-0.2136,4.6035,2.0257,0.3665,-0.8597,0.0208,-0.0680,
3.817804,0.1616,1.1051,-0.2136,7.0786,4.7469,1.0026,-0.8597,0.0208,-0.0680,
3.831655,0.1797,1.3730,-0.0344,7.0786,4.7469,1.0026,-0.8597,0.0208,-0.0680,
3.834542,0.1797,1.3730,-0.0344,7.0786,4.7469,1.0026,-1.1158,0.2725,-1.6229,
3.837906,0.1797,1.3730,-0.0344,2.0015,3.8166,-0.9292,-1.1158,0.2725,-1.6229,
3.857619,0.1797,1.3730,-0.0344,3.0865,3.2179,-1.5918,-1.1158,0.2725,-1.6229,
3.878087,0.1797,1.3730,-0.0344,3.8409,3.2287,-2.1092,-1.1158,0.2725,-1.6229,
3.897854,-0.0200,1.3011,-0.1718,3.8409,3.2287,-2.1092,-1.1158,0.2725,-1.6229,
3.901020,-0.0200,1.3011,-0.1718,3.8409,3.2287,-2.1092,-1.1610,1.5395,-1.9524,
3.903112,-0.0200,1.3011,-0.1718,1.7854,3.2840,-2.4906,-1.1610,1.5395,-1.9524,
3.918960,-0.0200,1.3011,-0.1718,2.4140,1.2078,-3.1802,-1.1610,1.5395,-1.9524,
3.937724,-0.0200,1.3011,-0.1718,3.4307,-2.5589,-0.2486,-1.1610,1.5395,-1.9524,
3.957940,-0.0200,1.3011,-0.1718,-3.7775,-2.2049,-0.4960,-1.1610,1.5395,-1.9524,
3.964223,-0.4299,0.7624,-0.1848,-3.7775,-2.2049,-0.4960,-1.1610,1.5395,-1.9524,
3.967739,-0.4299,0.7624,-0.1848,-3.7775,-2.2049,-0.4960,-1.0753,5.9179,-1.0576,
3.977892,-0.4299,0.7624,-0.1848,5.9579,-1.9320,-3.3249,-1.0753,5.9179,-1.0576,
3.999018,-0.4299,0.7624,-0.1848,10.1333,-3.2409,-3.8657,-1.0753,5.9179,-1.0576,
4.019247,-0.4299,0.7624,-0.1848,5.4839,-3.3553,-6.0137,-1.0753,5.9179,-1.0576,
4.031317,-0.0169,0.5922,-0.6539,5.4839,-3.3553,-6.0137,-1.0753,5.9179,-1.0576,
4.033814,-0.0169,0.5922,-0.6539,5.4839,-3.3553,-6.0137,-0.6590,6.7493,-0.3358,
4.038681,-0.0169,0.5922,-0.6539,3.7785,-2.8173,-6.4496,-0.6590,6.7493,-0.3358,
4.057624,-0.0169,0.5922,-0.6539,3.4464,-1.6984,-6.8456,-0.6590,6.7493,-0.3358,
4.077799,-0.0169,0.5922,-0.6539,2.6379,-0.8519,-6.7558,-0.6590,6.7493,-0.3358,
4.097860,-0.1277,0.9286,-0.7995,2.6379,-0.8519,-6.7558,-0.6590,6.7493,-0.3358,
4.101081,-0.1277,0.9286,-0.7995,2.6379,-0.8519,-6.7558,-1.2685,3.8908,1.1584,
4.102696,-0.1277,0.9286,-0.7995,2.3261,0.0167,-6.7549,-1.2685,3.8908,1.1584,
4.120866,-0.1277,0.9286,-0.7995,2.0083,0.2596,-5.9793,-1.2685,3.8908,1.1584,
4.137927,-0.1277,0.9286,-0.7995,1.4698,-0.1351,-4.4368,-1.2685,3.8908,1.1584,
4.157656,-0.1277,0.9286,-0.7995,1.2768,-0.2066,-3.4293,-1.2685,3.8908,1.1584,
4.161320,-0.1046,0.9521,-0.4336,1.2768,-0.2066,-3.4293,-1.2685,3.8908,1.1584,
4.163384,-0.1046,0.9521,-0.4336,1.2768,-0.2066,-3.4293,-1.1110,2.6073,2.0341,
4.177735,-0.1046,0.9521,-0.4336,2.2062,0.2813,-3.2234,-1.1110,2.6073,2.0341,
4.198416,-0.1046,0.9521,-0.4336,3.1202,0.0846,-2.5037,-1.1110,2.6073,2.0341,
4.217671,-0.1046,0.9521,-0.4336,4.3573,-0.2715,-3.1215,-1.1110,2.6073,2.0341,
4.227376,0.3364,0.9582,-0.4405,4.3573,-0.2715,-3.1215,-1.1110,2.6073,2.0341,
4.229531,0.3364,0.9582,-0.4405,4.3573,-0.2715,-3.1215,-0.3157,3.0215,1.7243,
4.238274,0.3364,0.9582,-0.4405,4.3246,0.1650,-3.8398,-0.3157,3.0215,1.7243,
4.257580,0.3364,0.9582,-0.4405,1.1300,1.7413,-5.6850,-0.3157,3.0215,1.7243,
4.278918,0.3364,0.9582,-0.4405,-3.0954,2.7618,-7.3141,-0.3157,3.0215,1.7243,
4.293332,-0.4424,1.3063,-0.7452,-3.0954,2.7618,-7.3141,-0.3157,3.0215,1.7243,
4.295539,-0.4424,1.3063,-0.7452,-3.0954,2.7618,-7.3141,-0.5430,3.1790,1.6631,
4.300093,-0.4424,1.3063,-0.7452,-4.6565,3.0834,-6.4845,-0.5430,3.1790,1.6631,
4.318676,-0.4424,1.3063,-0.7452,-6.1063,2.4971,-5.4707,-0.5430,3.1790,1.6631,
4.337821,-0.4424,1.3063,-0.7452,-8.2191,0.7098,-4.2047,-0.5430,3.1790,1.6631,
4.357889,-0.4424,1.3063,-0.7452,-8.0013,0.4769,-2.5828,-0.5430,3.1790,1.6631,
4.360760,-0.6222,1.0458,-0.2943,-8.0013,0.4769,-2.5828,-0.5430,3.1790,1.6631,
4.362027,-0.6222,1.0458,-0.2943,-8.0013,0.4769,-2.5828,-0.1805,1.3830,2.2465,
4.377847,-0.6222,1.0458,-0.2943,-7.1609,1.1315,-2.7561,-0.1805,1.3830,2.2465,
4.398549,-0.6222,1.0458,-0.2943,-8.0109,1.5645,-1.8525,-0.1805,1.3830,2.2465,
4.417960,-0.6222,1.0458,-0.2943,-4.1545,0.3838,-2.3581,-0.1805,1.3830,2.2465,
4.425410,-0.1680,0.9490,-0.2216,-4.1545,0.3838,-2.3581,-0.1805,1.3830,2.2465,
4.427219,-0.1680,0.9490,-0.2216,-4.1545,0.3838,-2.3581,0.3715,-0.0298,0.9131,
4.440676,-0.1680,0.9490,-0.2216,-5.7440,0.1783,-1.2530,0.3715,-0.0298,0.9131,
4.457895,-0.1680,0.9490,-0.2216,-4.2376,0.2069,-0.4565,0.3715,-0.0298,0.9131,
4.477833,-0.1680,0.9490,-0.2216,-3.6741,0.5282,-0.6237,0.3715,-0.0298,0.9131,
4.491213,0.1351,1.4496,-0.1185,-3.6741,0.5282,-0.6237,0.3715,-0.0298,0.9131,
4.492924,0.1351,1.4496,-0.1185,-3.6741,0.5282,-0.6237,0.6116,1.3441,-0.9107,
4.499048,0.1351,1.4496,-0.1185,-1.0616,3.9323,-1.0369,0.6116,1.3441,-0.9107,
4.518227,0.1351,1.4496,-0.1185,-3.6569,-0.1779,-1.6644,0.6116,1.3441,-0.9107,
4.537999,0.1351,1.4496,-0.1185,-6.2422,-0.6164,-0.8402,0.6116,1.3441,-0.9107,
4.557264,-0.0814,1.0575,-0.1383,-6.2422,-0.6164,-0.8402,0.6116,1.3441,-0.9107,
4.559982,-0.0814,1.0575,-0.1383,-6.2422,-0.6164,-0.8402,0.6659,2.0995,-1.2801,
4.561000,-0.0814,1.0575,-0.1383,-3.3178,0.7336,-0.8058,0.6659,2.0995,-1.2801,
4.577746,-0.0814,1.0575,-0.1383,0.2113,1.3208,-0.3732,0.6659,2.0995,-1.2801,
4.599145,-0.0814,1.0575,-0.1383,0.2575,-1.1441,3.3671,0.6659,2.0995,-1.2801,
4.617822,-0.0814,1.0575,-0.1383,0.6915,-0.1919,1.4799,0.6659,2.0995,-1.2801,
4.623124,0.1274,0.9859,0.1152,0.6915,-0.1919,1.4799,0.6659,2.0995,-1.2801,
4.624909,0.1274,0.9859,0.1152,0.6915,-0.1919,1.4799,0.1762,1.3074,-1.0768,
4.637729,0.1274,0.9859,0.1152,-2.5754,0.5254,1.9574,0.1762,1.3074,-1.0768,
4.657631,0.1274,0.9859,0.1152,-9.8826,1.5427,0.6269,0.1762,1.3074,-1.0768,
4.678112,0.1274,0.9859,0.1152,-5.2866,0.6669,0.6261,0.1762,1.3074,-1.0768,
4.689170,0.1020,1.0314,0.0315,-5.2866,0.6669,0.6261,0.1762,1.3074,-1.0768,
4.690883,0.1020,1.0314,0.0315,-5.2866,0.6669,0.6261,0.7883,-0.2246,-0.2612,
4.699315,0.1020,1.0314,0.0315,1.5000,-0.1067,-0.1053,0.7883,-0.2246,-0.2612,
4.717783,0.1020,1.0314,0.0315,0.4972,-0.3921,-2.1262,0.7883,-0.2246,-0.2612,
4.738697,0.1020,1.0314,0.0315,-3.4779,0.2197,-2.3019,0.7883,-0.2246,-0.2612,
4.755656,-0.0560,0.9639,-0.2122,-3.4779,0.2197,-2.3019,0.7883,-0.2246,-0.2612,
4.758314,-0.0560,0.9639,-0.2122,-3.4779,0.2197,-2.3019,0.3007,0.1469,-0.1564,
4.759599,-0.0560,0.9639,-0.2122,-1.0713,-0.2804,-0.8376,0.3007,0.1469,-0.1564,
4.777574,-0.0560,0.9639,-0.2122,0.3506,-0.1768,0.8355,0.3007,0.1469,-0.1564,
4.797629,-0.0560,0.9639,-0.2122,-0.5396,0.1750,1.0938,0.3007,0.1469,-0.1564,
4.817633,-0.0560,0.9639,-0.2122,-1.4817,-0.0103,-0.3548,0.3007,0.1469,-0.1564,
4.821423,-0.0987,0.9896,-0.2444,-1.4817,-0.0103,-0.3548,0.3007,0.1469,-0.1564,
4.822762,-0.0987,0.9896,-0.2444,-1.4817,-0.0103,-0.3548,0.4604,-0.0713,-0.0930,
4.838249,-0.0987,0.9896,-0.2444,-0.5472,0.0133,-1.7585,0.4604,-0.0713,-0.0930,
4.857459,-0.0987,0.9896,-0.2444,0.4092,-0.0924,-2.0949,0.4604,-0.0713,-0.0930,
4.877989,-0.0987,0.9896,-0.2444,0.2972,-0.0267,-0.1569,0.4604,-0.0713,-0.0930,
4.887626,-0.0051,0.9849,-0.1185,0.2972,-0.0267,-0.1569,0.4604,-0.0713,-0.0930,
4.890658,-0.0051,0.9849,-0.1185,0.2972,-0.0267,-0.1569,0.2204,-0.0437,-0.2054,
4.900335,-0.0051,0.9849,-0.1185,-0.6672,-0.0212,0.5590,0.2204,-0.0437,-0.2054,
4.918047,-0.0051,0.9849,-0.1185,-0.6745,-0.1307,0.1297,0.2204,-0.0437,-0.2054,
4.937985,-0.0051,0.9849,-0.1185,-0.3796,-0.0915,-0.0980,0.2204,-0.0437,-0.2054,
4.953253,-0.0637,0.9759,-0.2252,-0.3796,-0.0915,-0.0980,0.2204,-0.0437,-0.2054,
4.956148,-0.0637,0.9759,-0.2252,-0.3796,-0.0915,-0.0980,0.2736,-0.0777,-0.0861,
4.957774,-0.0637,0.9759,-0.2252,-0.8103,-0.0610,-0.3131,0.2736,-0.0777,-0.0861,
4.977689,-0.0637,0.9759,-0.2252,-0.4058,-0.0210,-0.5228,0.2736,-0.0777,-0.0861,
4.998259,-0.0637,0.9759,-0.2252,0.1835,-0.1090,-0.4434,0.2736,-0.0777,-0.0861,
5.017691,-0.0637,0.9759,-0.2252,-0.1988,-0.0015,-0.1326,0.2736,-0.0777,-0.0861,
5.020754,-0.0277,0.9801,-0.2230,-0.1988,-0.0015,-0.1326,0.2736,-0.0777,-0.0861,
5.021881,-0.0277,0.9801,-0.2230,-0.1988,-0.0015,-0.1326,0.2081,-0.0836,-0.0882,
5.039226,-0.0277,0.9801,-0.2230,-0.4263,0.0081,-0.3213,0.2081,-0.0836,-0.0882,
5.057715,-0.0277,0.9801,-0.2230,0.3267,0.0358,-0.3326,0.2081,-0.0836,-0.0882,
5.078281,-0.0277,0.9801,-0.2230,0.3294,-0.0343,-0.5401,0.2081,-0.0836,-0.0882,
5.085468,-0.0040,0.9792,-0.2588,0.3294,-0.0343,-0.5401,0.2081,-0.0836,-0.0882,
5.088542,-0.0040,0.9792,-0.2588,0.3294,-0.0343,-0.5401,0.1357,-0.0516,-0.1787,
5.100477,-0.0040,0.9792,-0.2588,-0.2312,0.0313,-0.4209,0.1357,-0.0516,-0.1787,
5.118378,-0.0040,0.9792,-0.2588,0.0218,-0.0312,0.2620,0.1357,-0.0516,-0.1787,
5.138304,-0.0040,0.9792,-0.2588,-0.3273,0.0536,-0.4955,0.1357,-0.0516,-0.1787,
5.151852,0.0728,0.9864,-0.2649,-0.3273,0.0536,-0.4955,0.1357,-0.0516,-0.1787,
5.154530,0.0728,0.9864,-0.2649,-0.3273,0.0536,-0.4955,0.1038,-0.1176,-0.2218,
5.157874,0.0728,0.9864,-0.2649,1.0784,0.1577,-0.3246,0.1038,-0.1176,-0.2218,
5.177712,0.0728,0.9864,-0.2649,1.1161,0.2713,-0.2744,0.1038,-0.1176,-0.2218,
5.197652,0.0728,0.9864,-0.2649,1.0775,0.4735,-0.2770,0.1038,-0.1176,-0.2218,
5.217851,-0.0359,0.9945,-0.2423,1.0775,0.4735,-0.2770,0.1038,-0.1176,-0.2218,
5.220498,-0.0359,0.9945,-0.2423,1.0775,0.4735,-0.2770,0.0697,-0.2332,-0.6317,
5.222009,-0.0359,0.9945,-0.2423,0.0479,0.2256,-0.0479,0.0697,-0.2332,-0.6317,
5.238553,-0.0359,0.9945,-0.2423,0.2977,0.3035,-0.0939,0.0697,-0.2332,-0.6317,
5.257399,-0.0359,0.9945,-0.2423,1.5495,0.6487,-0.3462,0.0697,-0.2332,-0.6317,
5.277729,-0.0359,0.9945,-0.2423,1.9720,0.9585,-0.2469,0.0697,-0.2332,-0.6317,
5.285090,-0.0363,1.0470,-0.2733,1.9720,0.9585,-0.2469,0.0697,-0.2332,-0.6317,
5.287893,-0.0363,1.0470,-0.2733,1.9720,0.9585,-0.2469,0.0457,-0.0889,-1.1816,
5.297714,-0.0363,1.0470,-0.2733,-0.7791,0.4920,-0.6592,0.0457,-0.0889,-1.1816,
5.318432,-0.0363,1.0470,-0.2733,1.1706,2.1780,-1.8104,0.0457,-0.0889,-1.1816,
5.338146,-0.0363,1.0470,-0.2733,1.8366,1.8694,-0.3169,0.0457,-0.0889,-1.1816,
5.352176,0.0601,1.1190,-0.2226,1.8366,1.8694,-0.3169,0.0457,-0.0889,-1.1816,
5.355082,0.0601,1.1190,-0.2226,1.8366,1.8694,-0.3169,-0.0218,-0.3103,-1.1960,
5.358001,0.0601,1.1190,-0.2226,2.3382,1.5695,0.4677,-0.0218,-0.3103,-1.1960,
5.377591,0.0601,1.1190,-0.2226,2.7635,1.5650,0.0342,-0.0218,-0.3103,-1.1960,
5.398132,0.0601,1.1190,-0.2226,3.5951,2.4866,-0.0295,-0.0218,-0.3103,-1.1960,
5.418391,0.2325,1.2847,-0.1813,3.5951,2.4866,-0.0295,-0.0218,-0.3103,-1.1960,
5.421603,0.2325,1.2847,-0.1813,3.5951,2.4866,-0.0295,0.0718,-0.4413,-1.9620,
5.423597,0.2325,1.2847,-0.1813,4.8131,3.3954,0.5341,0.0718,-0.4413,-1.9620,
5.437851,0.2325,1.2847,-0.1813,4.9234,3.2085,0.7504,0.0718,-0.4413,-1.9620,
5.457832,0.2325,1.2847,-0.1813,5.1060,3.9890,0.5434,0.0718,-0.4413,-1.9620,
5.478364,0.2325,1.2847,-0.1813,6.7874,3.4759,0.0218,0.0718,-0.4413,-1.9620,
5.481341,0.3365,1.2699,-0.2445,6.7874,3.4759,0.0218,0.0718,-0.4413,-1.9620,
5.483318,0.3365,1.2699,-0.2445,6.7874,3.4759,0.0218,0.4429,-0.2688,-3.3445,
5.497919,0.3365,1.2699,-0.2445,6.1043,2.7572,-0.5825,0.4429,-0.2688,-3.3445,
5.518089,0.3365,1.2699,-0.2445,0.4189,3.6819,-1.0653,0.4429,-0.2688,-3.3445,
5.538030,0.3365,1.2699,-0.2445,0.9395,1.7403,-0.8319,0.4429,-0.2688,-3.3445,
5.547105,-0.4001,0.9991,-0.3543,0.9395,1.7403,-0.8319,0.4429,-0.2688,-3.3445,
5.549408,-0.4001,0.9991,-0.3543,0.9395,1.7403,-0.8319,0.3944,-1.1141,-3.3061,
5.558102,-0.4001,0.9991,-0.3543,2.7556,0.6042,-0.0666,0.3944,-1.1141,-3.3061,
5.578092,-0.4001,0.9991,-0.3543,8.4782,-3.8386,-2.0172,0.3944,-1.1141,-3.3061,
5.598135,-0.4001,0.9991,-0.3543,-10.6308,-3.0083,0.9057,0.3944,-1.1141,-3.3061,
5.613286,-1.1980,0.4732,-0.0488,-10.6308,-3.0083,0.9057,0.3944,-1.1141,-3.3061,
5.615327,-1.1980,0.4732,-0.0488,-10.6308,-3.0083,0.9057,0.1703,0.2220,0.7603,
5.619048,-1.1980,0.4732,-0.0488,-3.4390,-1.9349,1.6475,0.1703,0.2220,0.7603,
5.638415,-1.1980,0.4732,-0.0488,3.0044,-2.0498,1.6771,0.1703,0.2220,0.7603,
5.657869,-1.1980,0.4732,-0.0488,5.6032,-1.4483,-0.2415,0.1703,0.2220,0.7603,
5.678135,-1.1980,0.4732,-0.0488,8.2477,-1.6387,0.2968,0.1703,0.2220,0.7603,
5.680899,0.2232,0.5421,-0.1575,8.2477,-1.6387,0.2968,0.1703,0.2220,0.7603,
5.682501,0.2232,0.5421,-0.1575,8.2477,-1.6387,0.2968,-0.0059,0.1033,2.6282,
5.697743,0.2232,0.5421,-0.1575,7.6077,-2.2268,2.2245,-0.0059,0.1033,2.6282,
5.719762,0.2232,0.5421,-0.1575,2.2035,-2.7879,1.2462,-0.0059,0.1033,2.6282,
5.739894,0.2232,0.5421,-0.1575,0.3071,-2.9051,1.3833,-0.0059,0.1033,2.6282,
5.745077,-0.3307,0.5691,-0.0874,0.3071,-2.9051,1.3833,-0.0059,0.1033,2.6282,
5.746625,-0.3307,0.5691,-0.0874,0.3071,-2.9051,1.3833,0.0186,0.0410,3.9202,
5.757879,-0.3307,0.5691,-0.0874,3.4433,-2.0309,1.0884,0.0186,0.0410,3.9202,
5.780035,-0.3307,0.5691,-0.0874,2.6491,-0.8982,0.2601,0.0186,0.0410,3.9202,
5.798033,-0.3307,0.5691,-0.0874,0.9106,-0.0679,0.7286,0.0186,0.0410,3.9202,
5.811367,-0.1244,0.9805,-0.1001,0.9106,-0.0679,0.7286,0.0186,0.0410,3.9202,
5.812814,-0.1244,0.9805,-0.1001,0.9106,-0.0679,0.7286,-0.2140,-0.1501,4.1576,
5.819109,-0.1244,0.9805,-0.1001,1.5328,0.5435,1.2790,-0.2140,-0.1501,4.1576,
5.838605,-0.1244,0.9805,-0.1001,3.1903,1.9686,0.5767,-0.2140,-0.1501,4.1576,
5.857603,-0.1244,0.9805,-0.1001,-0.8139,3.2697,0.9211,-0.2140,-0.1501,4.1576,
5.877944,-0.2889,1.3282,-0.1761,-0.8139,3.2697,0.9211,-0.2140,-0.1501,4.1576,
5.880219,-0.2889,1.3282,-0.1761,-0.8139,3.2697,0.9211,-0.4280,0.1954,2.9657,
5.881014,-0.2889,1.3282,-0.1761,-2.5276,3.4579,0.4695,-0.4280,0.1954,2.9657,
5.897514,-0.2889,1.3282,-0.1761,-2.8275,3.7470,0.4702,-0.4280,0.1954,2.9657,
5.917424,-0.2889,1.3282,-0.1761,-5.2928,3.4514,0.3065,-0.4280,0.1954,2.9657,
5.937592,-0.2889,1.3282,-0.1761,-8.3243,2.6160,0.1512,-0.4280,0.1954,2.9657,
5.942983,-0.8395,1.1988,-0.1568,-8.3243,2.6160,0.1512,-0.4280,0.1954,2.9657,
5.944468,-0.8395,1.1988,-0.1568,-8.3243,2.6160,0.1512,-0.4770,0.3705,2.1688,
5.957885,-0.8395,1.1988,-0.1568,-10.1897,1.3113,0.1173,-0.4770,0.3705,2.1688,
5.980221,-0.8395,1.1988,-0.1568,-9.4898,0.5524,-0.0655,-0.4770,0.3705,2.1688,
5.997446,-0.8395,1.1988,-0.1568,-5.2607,0.9993,-0.8566,-0.4770,0.3705,2.1688,
6.008897,-0.2478,1.0537,-0.2546,-5.2607,0.9993,-0.8566,-0.4770,0.3705,2.1688,
6.010769,-0.2478,1.0537,-0.2546,-5.2607,0.9993,-0.8566,-0.1682,0.0889,1.1446,
6.018673,-0.2478,1.0537,-0.2546,-5.1989,0.9079,-0.7698,-0.1682,0.0889,1.1446,
6.037885,-0.2478,1.0537,-0.2546,-5.7191,0.3643,-0.6256,-0.1682,0.0889,1.1446,
6.057718,-0.2478,1.0537,-0.2546,-5.2441,2.3959,-0.9943,-0.1682,0.0889,1.1446,
6.075751,-0.0197,0.9986,-0.6452,-5.2441,2.3959,-0.9943,-0.1682,0.0889,1.1446,
6.078192,-0.0197,0.9986,-0.6452,-5.2441,2.3959,-0.9943,0.5371,-0.4860,-1.2386,
6.079700,-0.0197,0.9986,-0.6452,-3.0205,0.5155,-4.7796,0.5371,-0.4860,-1.2386,
6.097954,-0.0197,0.9986,-0.6452,-2.0787,1.7241,-0.3210,0.5371,-0.4860,-1.2386,
6.118554,-0.0197,0.9986,-0.6452,3.1230,3.6948,4.0571,0.5371,-0.4860,-1.2386,
6.137641,-0.0197,0.9986,-0.6452,-1.4578,-1.1506,2.4224,0.5371,-0.4860,-1.2386,
6.141519,0.0032,0.8731,0.0736,-1.4578,-1.1506,2.4224,0.5371,-0.4860,-1.2386,
6.143310,0.0032,0.8731,0.0736,-1.4578,-1.1506,2.4224,0.1618,0.3327,-1.0038,
6.158960,0.0032,0.8731,0.0736,-3.8734,1.0866,3.1338,0.1618,0.3327,-1.0038,
6.177875,0.0032,0.8731,0.0736,-4.5543,0.8892,1.2143,0.1618,0.3327,-1.0038,
6.198104,0.0032,0.8731,0.0736,-2.1441,0.7542,-3.1207,0.1618,0.3327,-1.0038,
6.207364,0.0710,0.9881,-0.7186,-2.1441,0.7542,-3.1207,0.1618,0.3327,-1.0038,
6.210471,0.0710,0.9881,-0.7186,-2.1441,0.7542,-3.1207,0.4115,-0.4615,-0.7920,
6.220129,0.0710,0.9881,-0.7186,-0.3500,-0.0529,-5.7498,0.4115,-0.4615,-0.7920,
6.238409,0.0710,0.9881,-0.7186,0.2232,-0.0095,-1.4204,0.4115,-0.4615,-0.7920,
6.258180,0.0710,0.9881,-0.7186,-3.9380,0.2018,2.4988,0.4115,-0.4615,-0.7920,
6.274744,-0.3251,1.0339,0.0255,-3.9380,0.2018,2.4988,0.4115,-0.4615,-0.7920,
6.278336,-0.3251,1.0339,0.0255,-3.9380,0.2018,2.4988,0.2784,-0.3849,-0.3448,
6.279964,-0.3251,1.0339,0.0255,-4.0356,0.5765,2.2236,0.2784,-0.3849,-0.3448,
6.297786,-0.3251,1.0339,0.0255,-1.0385,-0.0745,0.0059,0.2784,-0.3849,-0.3448,
6.318016,-0.3251,1.0339,0.0255,0.5619,0.2247,-1.7260,0.2784,-0.3849,-0.3448,
6.338694,-0.3251,1.0339,0.0255,0.0870,-0.1188,-1.7138,0.2784,-0.3849,-0.3448,
6.341507,0.1123,0.9621,-0.3488,0.0870,-0.1188,-1.7138,0.2784,-0.3849,-0.3448,
6.342841,0.1123,0.9621,-0.3488,0.0870,-0.1188,-1.7138,0.1128,-0.1788,-0.2064,
6.358026,0.1123,0.9621,-0.3488,-0.1267,0.0884,0.0489,0.1128,-0.1788,-0.2064,
6.377659,0.1123,0.9621,-0.3488,-0.5882,0.0201,0.3280,0.1128,-0.1788,-0.2064,
6.397579,0.1123,0.9621,-0.3488,0.1463,-0.0547,-0.0317,0.1128,-0.1788,-0.2064,
6.405722,0.1070,0.9696,-0.2796,0.1463,-0.0547,-0.0317,0.1128,-0.1788,-0.2064,
6.409151,0.1070,0.9696,-0.2796,0.1463,-0.0547,-0.0317,0.1549,-0.1400,-0.2117,
6.418118,0.1070,0.9696,-0.2796,0.0055,0.0478,-0.7727,0.1549,-0.1400,-0.2117,
6.438069,0.1070,0.9696,-0.2796,-0.6732,-0.0684,-0.3177,0.1549,-0.1400,-0.2117,
6.457623,0.1070,0.9696,-0.2796,-0.9081,-0.0779,-0.0084,0.1549,-0.1400,-0.2117,
6.471776,-0.0070,0.9752,-0.2666,-0.9081,-0.0779,-0.0084,0.1549,-0.1400,-0.2117,
6.474117,-0.0070,0.9752,-0.2666,-0.9081,-0.0779,-0.0084,0.0830,-0.1437,-0.0866,
6.477514,-0.0070,0.9752,-0.2666,-0.5305,0.1302,-0.1569,0.0830,-0.1437,-0.0866,
6.497546,-0.0070,0.9752,-0.2666,-0.2785,0.0642,-0.1201,0.0830,-0.1437,-0.0866,
6.517755,-0.0070,0.9752,-0.2666,-0.0217,0.0283,-0.0135,0.0830,-0.1437,-0.0866,
6.537757,-0.0012,0.9634,-0.2746,-0.0217,0.0283,-0.0135,0.0830,-0.1437,-0.0866,
6.540398,-0.0012,0.9634,-0.2746,-0.0217,0.0283,-0.0135,0.0628,-0.0048,-0.0872,
6.541437,-0.0012,0.9634,-0.2746,-0.5076,-0.0577,-0.2349,0.0628,-0.0048,-0.0872,
6.557934,-0.0012,0.9634,-0.2746,-0.1138,0.0325,0.0620,0.0628,-0.0048,-0.0872,
6.577487,-0.0012,0.9634,-0.2746,-0.2508,0.1426,0.0744,0.0628,-0.0048,-0.0872,
6.597992,-0.0012,0.9634,-0.2746,-0.4017,-0.1391,-0.2830,0.0628,-0.0048,-0.0872,
6.603708,0.0348,0.9745,-0.2608,-0.4017,-0.1391,-0.2830,0.0628,-0.0048,-0.0872,
6.607241,0.0348,0.9745,-0.2608,-0.4017,-0.1391,-0.2830,0.0575,-0.0734,-0.0382,
6.617562,0.0348,0.9745,-0.2608,0.3312,0.1765,-0.1451,0.0575,-0.0734,-0.0382,
6.638337,0.0348,0.9745,-0.2608,0.4794,-0.1249,-0.2493,0.0575,-0.0734,-0.0382,
6.657666,0.0348,0.9745,-0.2608,-0.7276,0.1010,-0.1154,0.0575,-0.0734,-0.0382,
6.671899,0.0128,0.9507,-0.2623,-0.7276,0.1010,-0.1154,0.0575,-0.0734,-0.0382,
6.674967,0.0128,0.9507,-0.2623,-0.7276,0.1010,-0.1154,-0.0043,-0.1245,-0.1063,
6.677852,0.0128,0.9507,-0.2623,-0.2742,0.1118,0.1186,-0.0043,-0.1245,-0.1063,
6.697870,0.0128,0.9507,-0.2623,0.0167,0.2583,-0.4778,-0.0043,-0.1245,-0.1063,
6.717664,0.0128,0.9507,-0.2623,0.8118,-0.0872,-0.6591,-0.0043,-0.1245,-0.1063,
6.737617,0.0852,0.9506,-0.3365,0.8118,-0.0872,-0.6591,-0.0043,-0.1245,-0.1063,
6.740331,0.0852,0.9506,-0.3365,0.8118,-0.0872,-0.6591,-0.0724,-0.1139,-0.1840,
6.741252,0.0852,0.9506,-0.3365,0.5297,-0.1720,-0.7869,-0.0724,-0.1139,-0.1840,
6.757999,0.0852,0.9506,-0.3365,0.6376,0.1572,0.6922,-0.0724,-0.1139,-0.1840,
6.777495,0.0852,0.9506,-0.3365,-0.8574,-0.0526,0.0755,-0.0724,-0.1139,-0.1840,
6.797491,0.0852,0.9506,-0.3365,-1.1380,-0.4189,-1.2082,-0.0724,-0.1139,-0.1840,
6.800782,0.0405,0.9751,-0.3487,-1.1380,-0.4189,-1.2082,-0.0724,-0.1139,-0.1840,
6.802170,0.0405,0.9751,-0.3487,-1.1380,-0.4189,-1.2082,-0.1219,-0.1570,-0.1777,
6.817854,0.0405,0.9751,-0.3487,0.8227,0.0966,-0.6835,-0.1219,-0.1570,-0.1777,
6.838044,0.0405,0.9751,-0.3487,1.6127,0.5923,-0.4155,-0.1219,-0.1570,-0.1777,
6.858627,0.0405,0.9751,-0.3487,0.3856,0.2409,-0.7727,-0.1219,-0.1570,-0.1777,
6.866982,0.0772,1.0358,-0.2134,0.3856,0.2409,-0.7727,-0.1219,-0.1570,-0.1777,
6.869432,0.0772,1.0358,-0.2134,0.3856,0.2409,-0.7727,-0.1879,0.0303,-0.7574,
6.877548,0.0772,1.0358,-0.2134,0.2664,0.2129,-0.1664,-0.1879,0.0303,-0.7574,
6.897465,0.0772,1.0358,-0.2134,1.3239,1.1010,0.4278,-0.1879,0.0303,-0.7574,
6.918079,0.0772,1.0358,-0.2134,0.5164,1.6103,-0.1461,-0.1879,0.0303,-0.7574,
6.933261,0.2169,1.1507,-0.1440,0.5164,1.6103,-0.1461,-0.1879,0.0303,-0.7574,
6.935097,0.2169,1.1507,-0.1440,0.5164,1.6103,-0.1461,-0.1682,-0.2859,-0.9203,
6.939475,0.2169,1.1507,-0.1440,2.6410,1.6398,0.9977,-0.1682,-0.2859,-0.9203,
6.957735,0.2169,1.1507,-0.1440,1.8425,1.3044,0.7742,-0.1682,-0.2859,-0.9203,
6.978089,0.2169,1.1507,-0.1440,2.5114,1.1530,0.2420,-0.1682,-0.2859,-0.9203,
6.998427,0.2169,1.1507,-0.1440,4.0000,1.6397,-0.4671,-0.1682,-0.2859,-0.9203,
7.001172,0.2850,1.1526,-0.2749,4.0000,1.6397,-0.4671,-0.1682,-0.2859,-0.9203,
7.002560,0.2850,1.1526,-0.2749,4.0000,1.6397,-0.4671,-0.1938,-0.2736,-1.7853,
7.017718,0.2850,1.1526,-0.2749,4.8620,2.2228,-0.5331,-0.1938,-0.2736,-1.7853,
7.038438,0.2850,1.1526,-0.2749,4.1006,2.4928,0.1834,-0.1938,-0.2736,-1.7853,
7.057694,0.2850,1.1526,-0.2749,2.5508,2.0338,-0.1290,-0.1938,-0.2736,-1.7853,
7.064952,-0.0145,1.2167,-0.2274,2.5508,2.0338,-0.1290,-0.1938,-0.2736,-1.7853,
7.066490,-0.0145,1.2167,-0.2274,2.5508,2.0338,-0.1290,-0.0405,-0.4636,-2.4507,
7.078150,-0.0145,1.2167,-0.2274,3.1461,4.0337,0.4112,-0.0405,-0.4636,-2.4507,
7.097977,-0.0145,1.2167,-0.2274,4.1471,2.0192,-0.3731,-0.0405,-0.4636,-2.4507,
7.117578,-0.0145,1.2167,-0.2274,2.5601,2.6910,0.3472,-0.0405,-0.4636,-2.4507,
7.131212,-0.2797,1.1438,-0.3478,2.5601,2.6910,0.3472,-0.0405,-0.4636,-2.4507,
7.133991,-0.2797,1.1438,-0.3478,2.5601,2.6910,0.3472,0.1203,-0.1214,-3.0224,
7.139630,-0.2797,1.1438,-0.3478,1.5946,2.3773,-1.7177,0.1203,-0.1214,-3.0224,
7.158134,-0.2797,1.1438,-0.3478,2.5252,-0.2604,-0.5207,0.1203,-0.1214,-3.0224,
7.177862,-0.2797,1.1438,-0.3478,3.8265,-5.0231,-0.4554,0.1203,-0.1214,-3.0224,
7.197221,-0.9243,0.5976,-0.0868,3.8265,-5.0231,-0.4554,0.1203,-0.1214,-3.0224,
7.200011,-0.9243,0.5976,-0.0868,3.8265,-5.0231,-0.4554,-0.5904,1.0205,-1.7890,
7.201049,-0.9243,0.5976,-0.0868,-2.6008,-1.7606,1.0638,-0.5904,1.0205,-1.7890,
7.217697,-0.9243,0.5976,-0.0868,-2.4967,-2.8219,0.5979,-0.5904,1.0205,-1.7890,
7.238728,-0.9243,0.5976,-0.0868,3.7269,-2.7781,0.5450,-0.5904,1.0205,-1.7890,
7.257653,-0.9243,0.5976,-0.0868,3.3125,-2.7694,-0.1453,-0.5904,1.0205,-1.7890,
7.263196,-0.2743,0.4949,-0.3179,3.3125,-2.7694,-0.1453,-0.5904,1.0205,-1.7890,
7.264911,-0.2743,0.4949,-0.3179,3.3125,-2.7694,-0.1453,-0.9534,1.4006,0.9338,
7.277926,-0.2743,0.4949,-0.3179,3.9000,-2.3763,-1.2314,-0.9534,1.4006,0.9338,
7.299189,-0.2743,0.4949,-0.3179,3.0780,-2.3480,-1.1331,-0.9534,1.4006,0.9338,
7.318252,-0.2743,0.4949,-0.3179,0.1180,-3.5898,-1.1153,-0.9534,1.4006,0.9338,
7.329076,-0.6012,0.5292,-0.2333,0.1180,-3.5898,-1.1153,-0.9534,1.4006,0.9338,
7.330934,-0.6012,0.5292,-0.2333,0.1180,-3.5898,-1.1153,-1.3452,0.1203,2.2966,
7.339481,-0.6012,0.5292,-0.2333,-1.1384,-2.7537,-0.0659,-1.3452,0.1203,2.2966,
7.357682,-0.6012,0.5292,-0.2333,1.7571,-2.4345,-0.2794,-1.3452,0.1203,2.2966,
7.377810,-0.6012,0.5292,-0.2333,2.8375,-1.1732,0.4810,-1.3452,0.1203,2.2966,
7.395846,-0.2383,0.8956,-0.0446,2.8375,-1.1732,0.4810,-1.3452,0.1203,2.2966,
7.399039,-0.2383,0.8956,-0.0446,2.8375,-1.1732,0.4810,-1.1136,0.7469,3.3186,
7.400514,-0.2383,0.8956,-0.0446,0.9454,-0.4110,0.6923,-1.1136,0.7469,3.3186,
7.417616,-0.2383,0.8956,-0.0446,1.9246,0.8896,2.1646,-1.1136,0.7469,3.3186,
7.437707,-0.2383,0.8956,-0.0446,2.4550,2.5920,1.7860,-1.1136,0.7469,3.3186,
7.457626,-0.2383,0.8956,-0.0446,2.7559,3.2667,0.5227,-1.1136,0.7469,3.3186,
7.461265,0.1272,1.3058,-0.0998,2.7559,3.2667,0.5227,-1.1136,0.7469,3.3186,
7.463229,0.1272,1.3058,-0.0998,2.7559,3.2667,0.5227,-0.4871,5.0624,2.0352,
7.478101,0.1272,1.3058,-0.0998,1.6300,2.5084,-1.7674,-0.4871,5.0624,2.0352,
7.497673,0.1272,1.3058,-0.0998,0.8219,2.3778,-4.0648,-0.4871,5.0624,2.0352,
7.518709,0.1272,1.3058,-0.0998,0.1497,2.1932,-5.9335,-0.4871,5.0624,2.0352,
7.527155,-0.0244,1.1338,-0.7347,0.1497,2.1932,-5.9335,-0.4871,5.0624,2.0352,
7.528694,-0.0244,1.1338,-0.7347,0.1497,2.1932,-5.9335,-0.5041,6.5029,0.5623,
7.539804,-0.0244,1.1338,-0.7347,-0.5902,0.6854,-6.5157,-0.5041,6.5029,0.5623,
7.559226,-0.0244,1.1338,-0.7347,-0.6640,-0.3888,-6.6148,-0.5041,6.5029,0.5623,
7.577726,-0.0244,1.1338,-0.7347,-1.5916,-0.7252,-7.2089,-0.5041,6.5029,0.5623,
7.593189,-0.3950,0.8762,-0.8943,-1.5916,-0.7252,-7.2089,-0.5041,6.5029,0.5623,
7.596002,-0.3950,0.8762,-0.8943,-1.5916,-0.7252,-7.2089,-0.0501,4.5759,-0.0664,
7.597364,-0.3950,0.8762,-0.8943,-4.5562,-1.2859,-8.4264,-0.0501,4.5759,-0.0664,
7.617612,-0.3950,0.8762,-0.8943,-5.7784,-1.9730,-7.9973,-0.0501,4.5759,-0.0664,
7.639017,-0.3950,0.8762,-0.8943,-5.7330,-0.6583,-6.6494,-0.0501,4.5759,-0.0664,
7.657560,-0.3950,0.8762,-0.8943,-1.6512,-0.4584,-4.0514,-0.0501,4.5759,-0.0664,
7.660547,-0.0692,0.8792,-0.4344,-1.6512,-0.4584,-4.0514,-0.0501,4.5759,-0.0664,
7.661970,-0.0692,0.8792,-0.4344,-1.6512,-0.4584,-4.0514,0.3641,1.4644,-0.2687,
7.677693,-0.0692,0.8792,-0.4344,-1.5751,-0.2119,-3.3300,0.3641,1.4644,-0.2687,
7.697660,-0.0692,0.8792,-0.4344,-2.3411,2.5297,-0.7487,0.3641,1.4644,-0.2687,
7.717911,-0.0692,0.8792,-0.4344,-0.8825,1.3059,-2.7775,0.3641,1.4644,-0.2687,
7.725321,-0.0907,1.1452,-0.1500,-0.8825,1.3059,-2.7775,0.3641,1.4644,-0.2687,
7.728073,-0.0907,1.1452,-0.1500,-0.8825,1.3059,-2.7775,0.4210,1.1908,-0.8601,
7.740454,-0.0907,1.1452,-0.1500,-3.0433,1.5777,1.7593,0.4210,1.1908,-0.8601,
7.758162,-0.0907,1.1452,-0.1500,-7.8377,-1.3456,-1.5863,0.4210,1.1908,-0.8601,
7.778058,-0.0907,1.1452,-0.1500,-2.3367,0.1341,1.6047,0.4210,1.1908,-0.8601,
7.792767,0.0825,1.0406,-0.3435,-2.3367,0.1341,1.6047,0.4210,1.1908,-0.8601,
7.794758,0.0825,1.0406,-0.3435,-2.3367,0.1341,1.6047,0.4285,-0.0782,0.0454,
7.797934,0.0825,1.0406,-0.3435,1.2266,0.3984,-2.6116,0.4285,-0.0782,0.0454,
7.817798,0.0825,1.0406,-0.3435,0.6767,0.0633,-1.4681,0.4285,-0.0782,0.0454,
7.837813,0.0825,1.0406,-0.3435,-1.4945,0.4919,-1.5378,0.4285,-0.0782,0.0454,
7.858394,-0.1778,0.9736,-0.0333,-1.4945,0.4919,-1.5378,0.4285,-0.0782,0.0454,
7.861973,-0.1778,0.9736,-0.0333,-1.4945,0.4919,-1.5378,0.2203,0.0990,0.1444,
7.864031,-0.1778,0.9736,-0.0333,-1.7142,-0.2379,0.7287,0.2203,0.0990,0.1444,
7.880024,-0.1778,0.9736,-0.0333,1.1131,0.0708,-0.2667,0.2203,0.0990,0.1444,
7.900630,-0.1778,0.9736,-0.0333,1.3444,0.0580,-0.9159,0.2203,0.0990,0.1444,
7.917436,-0.1778,0.9736,-0.0333,-0.6486,-0.0723,0.3575,0.2203,0.0990,0.1444,
7.923926,-0.1431,0.9867,-0.0497,-0.6486,-0.0723,0.3575,0.2203,0.0990,0.1444,
7.928082,-0.1431,0.9867,-0.0497,-0.6486,-0.0723,0.3575,0.2007,0.0958,-0.0803,
7.938933,-0.1431,0.9867,-0.0497,-1.5098,-0.0273,0.2482,0.2007,0.0958,-0.0803,
7.958090,-0.1431,0.9867,-0.0497,-0.4615,-0.0501,-0.1075,0.2007,0.0958,-0.0803,
7.978133,-0.1431,0.9867,-0.0497,1.0451,0.0145,-0.5155,0.2007,0.0958,-0.0803,
7.991064,0.0707,0.9834,-0.2055,1.0451,0.0145,-0.5155,0.2007,0.0958,-0.0803,
7.993712,0.0707,0.9834,-0.2055,1.0451,0.0145,-0.5155,0.1932,0.0815,-0.0563,
7.997626,0.0707,0.9834,-0.2055,0.6315,-0.0672,-0.5601,0.1932,0.0815,-0.0563,
8.017461,0.0707,0.9834,-0.2055,-0.4424,-0.0410,-0.3343,0.1932,0.0815,-0.0563,
8.038003,0.0707,0.9834,-0.2055,-0.7768,-0.0152,-0.0439,0.1932,0.0815,-0.0563,
8.057454,0.0067,0.9947,-0.1812,-0.7768,-0.0152,-0.0439,0.1932,0.0815,-0.0563,
8.060314,0.0067,0.9947,-0.1812,-0.7768,-0.0152,-0.0439,0.1357,0.0309,-0.0382,
8.061345,0.0067,0.9947,-0.1812,0.2980,0.0687,-0.1485,0.1357,0.0309,-0.0382,
8.077553,0.0067,0.9947,-0.1812,0.3338,0.0438,-0.4951,0.1357,0.0309,-0.0382,
8.097765,0.0067,0.9947,-0.1812,-0.1016,0.0678,-0.1793,0.1357,0.0309,-0.0382,
8.118138,0.0067,0.9947,-0.1812,-0.9157,-0.0061,-0.1685,0.1357,0.0309,-0.0382,
8.122177,-0.1235,0.9857,-0.1894,-0.9157,-0.0061,-0.1685,0.1357,0.0309,-0.0382,
8.124259,-0.1235,0.9857,-0.1894,-0.9157,-0.0061,-0.1685,0.0617,0.0421,-0.0712,
8.137720,-0.1235,0.9857,-0.1894,-0.3291,-0.0029,-0.3695,0.0617,0.0421,-0.0712,
8.158380,-0.1235,0.9857,-0.1894,-0.0181,-0.0105,-0.4956,0.0617,0.0421,-0.0712,
8.179412,-0.1235,0.9857,-0.1894,-0.7332,-0.0681,-0.2161,0.0617,0.0421,-0.0712,
8.187446,-0.0868,0.9761,-0.1288,-0.7332,-0.0681,-0.2161,0.0617,0.0421,-0.0712,
8.189037,-0.0868,0.9761,-0.1288,-0.7332,-0.0681,-0.2161,0.0026,0.0575,0.0267,
8.198383,-0.0868,0.9761,-0.1288,-0.2528,-0.0390,0.4486,0.0026,0.0575,0.0267,
8.217729,-0.0868,0.9761,-0.1288,-0.1814,0.0107,-0.1438,0.0026,0.0575,0.0267,
8.238164,-0.0868,0.9761,-0.1288,0.0170,-0.0180,-0.7960,0.0026,0.0575,0.0267,
8.253266,0.0091,0.9868,-0.2111,0.0170,-0.0180,-0.7960,0.0026,0.0575,0.0267,
8.254671,0.0091,0.9868,-0.2111,0.0170,-0.0180,-0.7960,-0.0495,0.0165,-0.0062,
8.258245,0.0091,0.9868,-0.2111,0.3924,0.0102,-0.2613,-0.0495,0.0165,-0.0062,
8.278135,0.0091,0.9868,-0.2111,0.1299,-0.0207,0.4939,-0.0495,0.0165,-0.0062,
8.297970,0.0091,0.9868,-0.2111,0.0622,0.0279,-0.0883,-0.0495,0.0165,-0.0062,
8.317625,0.0091,0.9868,-0.2111,-0.3231,-0.0208,-0.6590,-0.0495,0.0165,-0.0062,
8.320472,-0.0768,0.9824,-0.2448,-0.3231,-0.0208,-0.6590,-0.0495,0.0165,-0.0062,
8.321601,-0.0768,0.9824,-0.2448,-0.3231,-0.0208,-0.6590,-0.0660,0.0016,-0.0744,
8.337733,-0.0768,0.9824,-0.2448,-0.1412,-0.0417,-0.7484,-0.0660,0.0016,-0.0744,
8.358536,-0.0768,0.9824,-0.2448,0.2421,0.0232,0.1505,-0.0660,0.0016,-0.0744,
8.377669,-0.0768,0.9824,-0.2448,-0.5441,-0.0584,0.1170,-0.0660,0.0016,-0.0744,
8.385326,-0.0816,0.9780,-0.1883,-0.5441,-0.0584,0.1170,-0.0660,0.0016,-0.0744,
8.387077,-0.0816,0.9780,-0.1883,-0.5441,-0.0584,0.1170,-0.1139,0.0053,-0.0382,
8.397814,-0.0816,0.9780,-0.1883,-0.0024,-0.0223,-0.6985,-0.1139,0.0053,-0.0382,
8.418780,-0.0816,0.9780,-0.1883,0.3001,0.1200,-0.3268,-0.1139,0.0053,-0.0382,
8.438136,-0.0816,0.9780,-0.1883,-0.6443,-0.1207,-0.0705,-0.1139,0.0053,-0.0382,
8.451326,-0.1220,0.9761,-0.2166,-0.6443,-0.1207,-0.0705,-0.1139,0.0053,-0.0382,
8.452424,-0.1220,0.9761,-0.2166,-0.6443,-0.1207,-0.0705,-0.2545,-0.0032,-0.0222,
8.459164,-0.1220,0.9761,-0.2166,-0.5981,-0.0877,-0.7418,-0.2545,-0.0032,-0.0222,
8.477764,-0.1220,0.9761,-0.2166,0.1685,0.0220,-0.8234,-0.2545,-0.0032,-0.0222,
8.497824,-0.1220,0.9761,-0.2166,0.3096,0.0416,-0.6561,-0.2545,-0.0032,-0.0222,
8.517902,-0.0552,0.9971,-0.1655,0.3096,0.0416,-0.6561,-0.2545,-0.0032,-0.0222,
8.520501,-0.0552,0.9971,-0.1655,0.3096,0.0416,-0.6561,-0.5052,-0.0319,-0.1005,
8.521615,-0.0552,0.9971,-0.1655,-0.0099,0.0602,-0.2870,-0.5052,-0.0319,-0.1005,
8.537694,-0.0552,0.9971,-0.1655,-0.4211,-0.0787,-0.3834,-0.5052,-0.0319,-0.1005,
8.557735,-0.0552,0.9971,-0.1655,-0.2085,-0.0620,-1.4186,-0.5052,-0.0319,-0.1005,
8.577533,-0.0552,0.9971,-0.1655,0.4757,-0.0355,-1.1450,-0.5052,-0.0319,-0.1005,
8.583511,-0.0547,0.9626,-0.2043,0.4757,-0.0355,-1.1450,-0.5052,-0.0319,-0.1005,
8.585182,-0.0547,0.9626,-0.2043,0.4757,-0.0355,-1.1450,-0.8374,0.1097,-0.1218,
8.598620,-0.0547,0.9626,-0.2043,0.6125,0.1381,-0.6728,-0.8374,0.1097,-0.1218,
8.617681,-0.0547,0.9626,-0.2043,0.9627,0.4308,0.0778,-0.8374,0.1097,-0.1218,
8.638589,-0.0547,0.9626,-0.2043,0.3259,0.0996,-0.5569,-0.8374,0.1097,-0.1218,
8.649548,-0.0464,1.0152,-0.0732,0.3259,0.0996,-0.5569,-0.8374,0.1097,-0.1218,
8.652152,-0.0464,1.0152,-0.0732,0.3259,0.0996,-0.5569,-1.0386,0.0091,-0.3347,
8.657692,-0.0464,1.0152,-0.0732,0.1037,0.2339,-0.1741,-1.0386,0.0091,-0.3347,
8.678041,-0.0464,1.0152,-0.0732,0.2286,0.4996,-0.2449,-1.0386,0.0091,-0.3347,
8.698653,-0.0464,1.0152,-0.0732,1.9647,2.3886,-1.3480,-1.0386,0.0091,-0.3347,
8.716137,0.2225,1.1837,-0.0657,1.9647,2.3886,-1.3480,-1.0386,0.0091,-0.3347,
8.719154,0.2225,1.1837,-0.0657,1.9647,2.3886,-1.3480,-1.1466,0.0809,-0.6078,
8.720360,0.2225,1.1837,-0.0657,3.0499,1.8313,-1.0010,-1.1466,0.0809,-0.6078,
8.738206,0.2225,1.1837,-0.0657,2.8532,2.1061,-1.6324,-1.1466,0.0809,-0.6078,
8.758169,0.2225,1.1837,-0.0657,2.4913,2.9460,-2.1267,-1.1466,0.0809,-0.6078,
8.777968,0.2225,1.1837,-0.0657,2.6555,2.1209,-2.1754,-1.1466,0.0809,-0.6078,
8.781235,0.1264,1.2239,-0.1236,2.6555,2.1209,-2.1754,-1.1466,0.0809,-0.6078,
8.782771,0.1264,1.2239,-0.1236,2.6555,2.1209,-2.1754,-1.0876,-0.0931,-1.3589,
8.797703,0.1264,1.2239,-0.1236,2.3502,3.8517,-3.2781,-1.0876,-0.0931,-1.3589,
8.817880,0.1264,1.2239,-0.1236,1.6426,3.1262,-3.6620,-1.0876,-0.0931,-1.3589,
8.838384,0.1264,1.2239,-0.1236,0.7917,1.2166,-2.7825,-1.0876,-0.0931,-1.3589,
8.847266,-0.0554,0.9310,-0.1007,0.7917,1.2166,-2.7825,-1.0876,-0.0931,-1.3589,
8.850157,-0.0554,0.9310,-0.1007,0.7917,1.2166,-2.7825,-0.8012,1.3931,-1.4158,
8.858468,-0.0554,0.9310,-0.1007,3.2739,-1.6795,-1.2563,-0.8012,1.3931,-1.4158,
8.877571,-0.0554,0.9310,-0.1007,-3.4467,-3.9553,0.2082,-0.8012,1.3931,-1.4158,
8.899172,-0.0554,0.9310,-0.1007,-6.5824,-2.0485,-4.1158,-0.8012,1.3931,-1.4158,
8.913571,0.0086,0.8026,-0.3382,-6.5824,-2.0485,-4.1158,-0.8012,1.3931,-1.4158,
8.916792,0.0086,0.8026,-0.3382,-6.5824,-2.0485,-4.1158,-0.8443,6.8925,0.2764,
8.919224,0.0086,0.8026,-0.3382,4.8658,-1.1950,-4.2478,-0.8443,6.8925,0.2764,
8.937746,0.0086,0.8026,-0.3382,9.9120,-1.0373,-2.3153,-0.8443,6.8925,0.2764,
8.958706,0.0086,0.8026,-0.3382,5.0580,-2.0471,-6.5553,-0.8443,6.8925,0.2764,
8.978550,0.0086,0.8026,-0.3382,1.3398,-2.3348,-4.9391,-0.8443,6.8925,0.2764,
8.981629,-0.2975,0.6901,-0.4750,1.3398,-2.3348,-4.9391,-0.8443,6.8925,0.2764,
8.983056,-0.2975,0.6901,-0.4750,1.3398,-2.3348,-4.9391,-0.3907,4.6749,-0.0185,
8.998120,-0.2975,0.6901,-0.4750,0.7102,-1.5699,-5.1323,-0.3907,4.6749,-0.0185,
9.017714,-0.2975,0.6901,-0.4750,1.3810,-1.0940,-4.3702,-0.3907,4.6749,-0.0185,
9.037861,-0.2975,0.6901,-0.4750,1.8618,-1.1185,-3.5518,-0.3907,4.6749,-0.0185,
9.046900,-0.1834,0.8298,-0.4060,1.8618,-1.1185,-3.5518,-0.3907,4.6749,-0.0185,
9.050249,-0.1834,0.8298,-0.4060,1.8618,-1.1185,-3.5518,-0.3514,2.9337,1.2655,
9.057695,-0.1834,0.8298,-0.4060,1.8903,-0.9322,-2.9696,-0.3514,2.9337,1.2655,
9.079494,-0.1834,0.8298,-0.4060,2.9224,-0.7136,-2.0048,-0.3514,2.9337,1.2655,
9.099816,-0.1834,0.8298,-0.4060,1.0533,-0.2644,-1.7829,-0.3514,2.9337,1.2655,
9.112284,-0.2074,0.9635,-0.2625,1.0533,-0.2644,-1.7829,-0.3514,2.9337,1.2655,
9.115386,-0.2074,0.9635,-0.2625,1.0533,-0.2644,-1.7829,-0.1060,2.3619,2.0256,
9.117624,-0.2074,0.9635,-0.2625,0.4654,0.0407,-1.4142,-0.1060,2.3619,2.0256,
9.137859,-0.2074,0.9635,-0.2625,0.5877,0.1229,-0.9553,-0.1060,2.3619,2.0256,
9.158109,-0.2074,0.9635,-0.2625,1.0771,0.4230,-0.8441,-0.1060,2.3619,2.0256,
9.179269,0.0732,1.0743,-0.2591,1.0771,0.4230,-0.8441,-0.1060,2.3619,2.0256,
9.181884,0.0732,1.0743,-0.2591,1.0771,0.4230,-0.8441,0.0356,2.2326,2.4259,
9.183314,0.0732,1.0743,-0.2591,1.5323,0.8132,-1.2021,0.0356,2.2326,2.4259,
9.197635,0.0732,1.0743,-0.2591,1.2073,1.3198,-1.6841,0.0356,2.2326,2.4259,
9.217939,0.0732,1.0743,-0.2591,-0.1388,2.2150,-2.4657,0.0356,2.2326,2.4259,
9.238377,0.0732,1.0743,-0.2591,-1.4374,2.5501,-2.6453,0.0356,2.2326,2.4259,
9.246132,-0.1456,1.2477,-0.3891,-1.4374,2.5501,-2.6453,0.0356,2.2326,2.4259,
9.249468,-0.1456,1.2477,-0.3891,-1.4374,2.5501,-2.6453,-0.1107,1.0657,1.9234,
9.257634,-0.1456,1.2477,-0.3891,-3.1633,2.2820,-2.1507,-0.1107,1.0657,1.9234,
9.277661,-0.1456,1.2477,-0.3891,-4.4902,1.5661,-1.1538,-0.1107,1.0657,1.9234,
9.297592,-0.1456,1.2477,-0.3891,-4.6967,0.9255,-0.7920,-0.1107,1.0657,1.9234,
9.309194,-0.2799,1.0841,-0.2156,-4.6967,0.9255,-0.7920,-0.1107,1.0657,1.9234,
9.311667,-0.2799,1.0841,-0.2156,-4.6967,0.9255,-0.7920,0.2028,-0.2672,1.8095,
9.318001,-0.2799,1.0841,-0.2156,-4.9680,1.0862,-0.8924,0.2028,-0.2672,1.8095,
9.338403,-0.2799,1.0841,-0.2156,-5.7625,0.5378,-0.3851,0.2028,-0.2672,1.8095,
9.357910,-0.2799,1.0841,-0.2156,-4.5282,0.2446,0.5648,0.2028,-0.2672,1.8095,
9.375850,0.0070,0.9736,-0.0698,-4.5282,0.2446,0.5648,0.2028,-0.2672,1.8095,
9.377461,0.0070,0.9736,-0.0698,-4.5282,0.2446,0.5648,0.3103,0.4621,0.9956,
9.379337,0.0070,0.9736,-0.0698,-2.9300,0.2968,0.7188,0.3103,0.4621,0.9956,
9.398133,0.0070,0.9736,-0.0698,-3.3911,0.2323,1.2153,0.3103,0.4621,0.9956,
9.418387,0.0070,0.9736,-0.0698,-3.6771,0.1833,1.0923,0.3103,0.4621,0.9956,
9.437993,0.0070,0.9736,-0.0698,-3.7658,0.3774,0.5042,0.3103,0.4621,0.9956,
9.441794,-0.0806,0.9721,-0.1034,-3.7658,0.3774,0.5042,0.3103,0.4621,0.9956,
9.443722,-0.0806,0.9721,-0.1034,-3.7658,0.3774,0.5042,0.3209,1.5198,-0.6275,
9.457976,-0.0806,0.9721,-0.1034,-4.2023,2.9609,0.4861,0.3209,1.5198,-0.6275,
9.477896,-0.0806,0.9721,-0.1034,2.9052,2.7293,-2.7731,0.3209,1.5198,-0.6275,
9.497478,-0.0806,0.9721,-0.1034,-2.3777,-3.8868,-2.5533,0.3209,1.5198,-0.6275,
9.507178,-0.0638,0.8618,-0.2618,-2.3777,-3.8868,-2.5533,0.3209,1.5198,-0.6275,
9.508876,-0.0638,0.8618,-0.2618,-2.3777,-3.8868,-2.5533,0.4413,1.2222,-1.9349,
9.518153,-0.0638,0.8618,-0.2618,-3.0757,1.2001,-0.8902,0.4413,1.2222,-1.9349,
9.537698,-0.0638,0.8618,-0.2618,0.5067,3.9623,3.0549,0.4413,1.2222,-1.9349,
9.558078,-0.0638,0.8618,-0.2618,-4.2167,-0.8141,2.8829,0.4413,1.2222,-1.9349,
9.573134,-0.4087,0.9373,0.0811,-4.2167,-0.8141,2.8829,0.4413,1.2222,-1.9349,
9.575871,-0.4087,0.9373,0.0811,-4.2167,-0.8141,2.8829,0.2480,0.7708,-1.2343,
9.577983,-0.4087,0.9373,0.0811,-6.0281,-0.1749,2.5976,0.2480,0.7708,-1.2343,
9.598909,-0.4087,0.9373,0.0811,-4.7676,1.1634,2.9186,0.2480,0.7708,-1.2343,
9.617753,-0.4087,0.9373,0.0811,-3.6401,1.4228,0.7274,0.2480,0.7708,-1.2343,
9.638108,-0.4087,0.9373,0.0811,-1.6183,0.2323,-5.9823,0.2480,0.7708,-1.2343,
9.640849,0.0906,0.9900,-0.8139,-1.6183,0.2323,-5.9823,0.2480,0.7708,-1.2343,
9.641739,0.0906,0.9900,-0.8139,-1.6183,0.2323,-5.9823,0.4508,-0.4519,-0.5407,
9.657641,0.0906,0.9900,-0.8139,2.0667,0.0408,-4.4191,0.4508,-0.4519,-0.5407,
9.677655,0.0906,0.9900,-0.8139,-1.9743,-0.0589,0.2749,0.4508,-0.4519,-0.5407,
9.697589,0.0906,0.9900,-0.8139,-2.2202,-0.0314,2.1312,0.4508,-0.4519,-0.5407,
9.704784,-0.0337,0.9744,0.0187,-2.2202,-0.0314,2.1312,0.4508,-0.4519,-0.5407,
9.706186,-0.0337,0.9744,0.0187,-2.2202,-0.0314,2.1312,0.2656,-0.1639,-0.3608,
9.718005,-0.0337,0.9744,0.0187,-0.7689,0.3513,1.7301,0.2656,-0.1639,-0.3608,
9.738085,-0.0337,0.9744,0.0187,-1.3224,0.1332,-0.8389,0.2656,-0.1639,-0.3608,
9.757572,-0.0337,0.9744,0.0187,-0.5159,-0.2968,-2.1018,0.2656,-0.1639,-0.3608,
9.771161,0.1288,0.9726,-0.2190,-0.5159,-0.2968,-2.1018,0.2656,-0.1639,-0.3608,
9.773730,0.1288,0.9726,-0.2190,-0.5159,-0.2968,-2.1018,0.2155,-0.1543,-0.1574,
9.777512,0.1288,0.9726,-0.2190,0.7296,-0.0535,-0.0746,0.2155,-0.1543,-0.1574,
9.798128,0.1288,0.9726,-0.2190,0.4862,-0.0462,-0.4518,0.2155,-0.1543,-0.1574,
9.818149,0.1288,0.9726,-0.2190,-0.8121,0.0576,-0.1078,0.2155,-0.1543,-0.1574,
9.837374,-0.0754,0.9743,-0.2445,-0.8121,0.0576,-0.1078,0.2155,-0.1543,-0.1574,
9.839771,-0.0754,0.9743,-0.2445,-0.8121,0.0576,-0.1078,0.1985,-0.1698,-0.0717,
9.841181,-0.0754,0.9743,-0.2445,-1.2684,0.0051,-0.1759,0.1985,-0.1698,-0.0717,
9.859629,-0.0754,0.9743,-0.2445,0.1858,0.0133,-0.1069,0.1985,-0.1698,-0.0717,
9.878208,-0.0754,0.9743,-0.2445,0.6202,0.0024,-0.0871,0.1985,-0.1698,-0.0717,
9.897742,-0.0754,0.9743,-0.2445,0.2538,-0.0383,-0.1563,0.1985,-0.1698,-0.0717,
9.903069,0.0220,0.9656,-0.3086,0.2538,-0.0383,-0.1563,0.1985,-0.1698,-0.0717,
9.904639,0.0220,0.9656,-0.3086,0.2538,-0.0383,-0.1563,0.1932,-0.2145,-0.1463,
9.917597,0.0220,0.9656,-0.3086,-0.3553,0.0585,-0.9487,0.1932,-0.2145,-0.1463,
9.937745,0.0220,0.9656,-0.3086,0.1841,0.0437,-0.0425,0.1932,-0.2145,-0.1463,
9.958067,0.0220,0.9656,-0.3086,-0.2548,-0.0109,-0.1396,0.1932,-0.2145,-0.1463,
9.969277,-0.0126,0.9673,-0.2763,-0.2548,-0.0109,-0.1396,0.1932,-0.2145,-0.1463,
9.971963,-0.0126,0.9673,-0.2763,-0.2548,-0.0109,-0.1396,0.0777,-0.1187,-0.1074,
9.977512,-0.0126,0.9673,-0.2763,-0.2700,-0.0464,-0.4542,0.0777,-0.1187,-0.1074,
9.997807,-0.0126,0.9673,-0.2763,0.4498,-0.0436,-1.1373,0.0777,-0.1187,-0.1074,
10.017972,-0.0126,0.9673,-0.2763,0.7082,-0.0939,-0.2771,0.0777,-0.1187,-0.1074,
10.035912,0.0399,0.9453,-0.2802,0.7082,-0.0939,-0.2771,0.0777,-0.1187,-0.1074,
10.038521,0.0399,0.9453,-0.2802,0.7082,-0.0939,-0.2771,0.0505,-0.0511,-0.2112,
10.039652,0.0399,0.9453,-0.2802,0.2087,-0.2437,-0.3137,0.0505,-0.0511,-0.2112,
10.057587,0.0399,0.9453,-0.2802,0.4138,-0.0263,-0.2461,0.0505,-0.0511,-0.2112,
10.077611,0.0399,0.9453,-0.2802,0.6309,-0.1436,-0.5070,0.0505,-0.0511,-0.2112,
10.098476,0.0399,0.9453,-0.2802,-0.0258,0.0817,-0.0848,0.0505,-0.0511,-0.2112,
10.101764,0.0216,0.9650,-0.3606,-0.0258,0.0817,-0.0848,0.0505,-0.0511,-0.2112,
10.103337,0.0216,0.9650,-0.3606,-0.0258,0.0817,-0.0848,-0.0442,-0.1724,-0.3757,
10.117819,0.0216,0.9650,-0.3606,0.9836,0.6309,0.5035,-0.0442,-0.1724,-0.3757,
10.137660,0.0216,0.9650,-0.3606,1.8335,0.8450,-0.1350,-0.0442,-0.1724,-0.3757,
10.157573,0.0216,0.9650,-0.3606,1.3823,0.4327,-0.9034,-0.0442,-0.1724,-0.3757,
10.167492,0.0404,0.9680,-0.2713,1.3823,0.4327,-0.9034,-0.0442,-0.1724,-0.3757,
10.170186,0.0404,0.9680,-0.2713,1.3823,0.4327,-0.9034,-0.1065,-0.0319,-0.8793,
10.177817,0.0404,0.9680,-0.2713,0.5865,-0.1076,-0.9684,-0.1065,-0.0319,-0.8793,
10.198041,0.0404,0.9680,-0.2713,0.8917,-0.5368,-0.0446,-0.1065,-0.0319,-0.8793,
10.219021,0.0404,0.9680,-0.2713,1.7307,1.1987,-0.3104,-0.1065,-0.0319,-0.8793,
10.234204,0.0295,1.1006,-0.2400,1.7307,1.1987,-0.3104,-0.1065,-0.0319,-0.8793,
10.237750,0.0295,1.1006,-0.2400,1.7307,1.1987,-0.3104,-0.0884,0.0287,-1.3626,
10.239528,0.0295,1.1006,-0.2400,1.3030,1.2585,-0.1130,-0.0884,0.0287,-1.3626,
10.257701,0.0295,1.1006,-0.2400,1.7646,2.3832,0.4377,-0.0884,0.0287,-1.3626,
10.278152,0.0295,1.1006,-0.2400,1.7834,1.7090,-0.4648,-0.0884,0.0287,-1.3626,
10.299366,0.0295,1.1006,-0.2400,3.0112,2.4681,-1.0757,-0.0884,0.0287,-1.3626,
10.303206,0.1521,1.2195,-0.3331,3.0112,2.4681,-1.0757,-0.0884,0.0287,-1.3626,
10.304745,0.1521,1.2195,-0.3331,3.0112,2.4681,-1.0757,-0.1448,-0.3891,-1.6581,
10.317658,0.1521,1.2195,-0.3331,3.7217,2.6922,-0.2839,-0.1448,-0.3891,-1.6581,
10.337995,0.1521,1.2195,-0.3331,4.3550,2.7692,-0.3277,-0.1448,-0.3891,-1.6581,
10.358149,0.1521,1.2195,-0.3331,5.0086,3.5407,-0.2807,-0.1448,-0.3891,-1.6581,
10.367846,0.2171,1.3325,-0.2062,5.0086,3.5407,-0.2807,-0.1448,-0.3891,-1.6581,
10.371173,0.2171,1.3325,-0.2062,5.0086,3.5407,-0.2807,-0.0219,-0.5131,-2.4326,
10.377657,0.2171,1.3325,-0.2062,5.4637,4.1576,0.3376,-0.0219,-0.5131,-2.4326,
10.397664,0.2171,1.3325,-0.2062,6.6067,5.2239,0.1761,-0.0219,-0.5131,-2.4326,
10.417667,0.2171,1.3325,-0.2062,7.2725,2.5083,-0.2294,-0.0219,-0.5131,-2.4326,
10.433527,0.1919,1.1307,-0.2104,7.2725,2.5083,-0.2294,-0.0219,-0.5131,-2.4326,
10.436822,0.1919,1.1307,-0.2104,7.2725,2.5083,-0.2294,0.1432,-0.7835,-3.9444,
10.439466,0.1919,1.1307,-0.2104,6.0599,3.3386,-0.3186,0.1432,-0.7835,-3.9444,
10.457839,0.1919,1.1307,-0.2104,3.6854,2.2308,-3.0104,0.1432,-0.7835,-3.9444,
10.477755,0.1919,1.1307,-0.2104,4.1905,-0.2899,-2.4082,0.1432,-0.7835,-3.9444,
10.497375,-0.1424,0.3139,0.0445,4.1905,-0.2899,-2.4082,0.1432,-0.7835,-3.9444,
10.500653,-0.1424,0.3139,0.0445,4.1905,-0.2899,-2.4082,-0.0761,0.0836,-3.2582,
10.501983,-0.1424,0.3139,0.0445,5.4234,-3.2129,1.8497,-0.0761,0.0836,-3.2582,
10.518198,-0.1424,0.3139,0.0445,1.5120,-7.8820,-3.2282,-0.0761,0.0836,-3.2582,
10.538003,-0.1424,0.3139,0.0445,-13.2601,-4.7163,1.4932,-0.0761,0.0836,-3.2582,
10.561524,-0.1424,0.3139,0.0445,-3.1956,-0.8498,1.7826,-0.0761,0.0836,-3.2582,
10.564434,-0.8895,0.4104,-0.0845,-3.1956,-0.8498,1.7826,-0.0761,0.0836,-3.2582,
10.566293,-0.8895,0.4104,-0.0845,-3.1956,-0.8498,1.7826,-0.3402,1.1461,1.2362,
10.582392,-0.8895,0.4104,-0.0845,1.1121,-2.3941,0.2234,-0.3402,1.1461,1.2362,
10.599020,-0.8895,0.4104,-0.0845,5.4636,-2.0793,0.6120,-0.3402,1.1461,1.2362,
10.618115,-0.8895,0.4104,-0.0845,6.4713,-1.7470,0.9286,-0.3402,1.1461,1.2362,
10.629354,-0.2430,0.4398,-0.1466,6.4713,-1.7470,0.9286,-0.3402,1.1461,1.2362,
10.632642,-0.2430,0.4398,-0.1466,6.4713,-1.7470,0.9286,-0.2066,0.4259,2.8459,
10.638058,-0.2430,0.4398,-0.1466,3.3952,-2.7062,0.6838,-0.2066,0.4259,2.8459,
10.657767,-0.2430,0.4398,-0.1466,2.2351,-2.8971,1.0862,-0.2066,0.4259,2.8459,
10.679808,-0.2430,0.4398,-0.1466,3.3514,-2.6218,2.0612,-0.2066,0.4259,2.8459,
10.695987,0.0470,0.6707,-0.0793,3.3514,-2.6218,2.0612,-0.2066,0.4259,2.8459,
10.697632,0.0470,0.6707,-0.0793,3.3514,-2.6218,2.0612,-0.2241,0.4344,4.1326,
10.699532,0.0470,0.6707,-0.0793,5.3776,-1.6130,1.4811,-0.2241,0.4344,4.1326,
10.717652,0.0470,0.6707,-0.0793,6.6117,0.1629,1.5031,-0.2241,0.4344,4.1326,
10.739695,0.0470,0.6707,-0.0793,5.4711,0.7616,1.6379,-0.2241,0.4344,4.1326,
10.758073,0.0470,0.6707,-0.0793,2.8677,2.9304,-0.2113,-0.2241,0.4344,4.1326,
10.761161,-0.1497,1.2577,-0.3444,2.8677,2.9304,-0.2113,-0.2241,0.4344,4.1326,
10.762245,-0.1497,1.2577,-0.3444,2.8677,2.9304,-0.2113,-0.4733,0.9976,3.3234,
10.777532,-0.1497,1.2577,-0.3444,-1.7671,3.0261,-2.8762,-0.4733,0.9976,3.3234,
10.797833,-0.1497,1.2577,-0.3444,-2.6264,3.9162,-2.2707,-0.4733,0.9976,3.3234,
10.817548,-0.1497,1.2577,-0.3444,-2.1310,4.7211,-1.5011,-0.4733,0.9976,3.3234,
10.827194,-0.4266,1.5147,-0.3078,-2.1310,4.7211,-1.5011,-0.4733,0.9976,3.3234,
10.828743,-0.4266,1.5147,-0.3078,-2.1310,4.7211,-1.5011,-1.0774,-0.2842,2.9130,
10.838768,-0.4266,1.5147,-0.3078,-5.8613,4.9005,-0.3059,-1.0774,-0.2842,2.9130,
10.857589,-0.4266,1.5147,-0.3078,-10.5227,3.0471,0.4836,-1.0774,-0.2842,2.9130,
10.877603,-0.4266,1.5147,-0.3078,-12.0204,0.7328,0.1882,-1.0774,-0.2842,2.9130,
10.893169,-0.3687,0.9737,-0.2349,-12.0204,0.7328,0.1882,-1.0774,-0.2842,2.9130,
10.896248,-0.3687,0.9737,-0.2349,-12.0204,0.7328,0.1882,-0.1608,-1.0375,3.1776,
10.898191,-0.3687,0.9737,-0.2349,-4.5533,-0.0241,-1.0538,-0.1608,-1.0375,3.1776,
10.921431,-0.3687,0.9737,-0.2349,-3.1716,0.4713,-1.0577,-0.1608,-1.0375,3.1776,
10.939439,-0.3687,0.9737,-0.2349,-0.9451,0.5967,-0.7670,-0.1608,-1.0375,3.1776,
10.957644,-0.3687,0.9737,-0.2349,-4.2087,-0.2598,-0.4105,-0.1608,-1.0375,3.1776,
10.960207,-0.1828,0.9077,-0.1745,-4.2087,-0.2598,-0.4105,-0.1608,-1.0375,3.1776,
10.961203,-0.1828,0.9077,-0.1745,-4.2087,-0.2598,-0.4105,0.0021,-0.3998,0.4941,
10.977557,-0.1828,0.9077,-0.1745,-4.7307,-0.7760,-0.5379,0.0021,-0.3998,0.4941,
10.998185,-0.1828,0.9077,-0.1745,-0.6314,5.8407,-1.3415,0.0021,-0.3998,0.4941,
11.019172,-0.1828,0.9077,-0.1745,-3.2530,-2.1304,-2.9574,0.0021,-0.3998,0.4941,
11.025469,-0.3348,0.7614,-0.3350,-3.2530,-2.1304,-2.9574,0.0021,-0.3998,0.4941,
11.027506,-0.3348,0.7614,-0.3350,-3.2530,-2.1304,-2.9574,0.2789,0.5409,-1.1076,
11.037927,-0.3348,0.7614,-0.3350,-1.2390,3.5644,-0.1497,0.2789,0.5409,-1.1076,
11.057694,-0.3348,0.7614,-0.3350,3.1146,2.1645,4.4575,0.2789,0.5409,-1.1076,
11.078019,-0.3348,0.7614,-0.3350,-1.1807,-1.6506,1.1242,0.2789,0.5409,-1.1076,
11.091016,-0.0491,0.8650,-0.0165,-1.1807,-1.6506,1.1242,0.2789,0.5409,-1.1076,
11.093725,-0.0491,0.8650,-0.0165,-1.1807,-1.6506,1.1242,0.2794,1.1131,-1.1582,
11.097479,-0.0491,0.8650,-0.0165,-2.2170,-0.0253,1.3152,0.2794,1.1131,-1.1582,
11.117567,-0.0491,0.8650,-0.0165,-2.1467,1.2264,0.5057,0.2794,1.1131,-1.1582,
11.137862,-0.0491,0.8650,-0.0165,-2.8578,0.7734,-0.4430,0.2794,1.1131,-1.1582,
11.157574,-0.1096,0.9884,-0.5129,-2.8578,0.7734,-0.4430,0.2794,1.1131,-1.1582,
11.160013,-0.1096,0.9884,-0.5129,-2.8578,0.7734,-0.4430,0.5339,-0.2102,-1.2343,
11.160902,-0.1096,0.9884,-0.5129,-2.7042,0.2131,-2.8725,0.5339,-0.2102,-1.2343,
11.177593,-0.1096,0.9884,-0.5129,0.1924,0.0816,-2.1224,0.5339,-0.2102,-1.2343,
11.197597,-0.1096,0.9884,-0.5129,-1.5199,-0.9995,0.7228,0.5339,-0.2102,-1.2343,
11.218188,-0.1096,0.9884,-0.5129,-2.4622,0.3210,0.7436,0.5339,-0.2102,-1.2343,
11.223221,-0.2468,1.0031,-0.1454,-2.4622,0.3210,0.7436,0.5339,-0.2102,-1.2343,
11.225224,-0.2468,1.0031,-0.1454,-2.4622,0.3210,0.7436,0.3571,-0.4327,-0.9948,
11.238061,-0.2468,1.0031,-0.1454,-3.3822,0.4476,-0.0433,0.3571,-0.4327,-0.9948,
11.257607,-0.2468,1.0031,-0.1454,-3.2259,0.2811,-0.7211,0.3571,-0.4327,-0.9948,
11.277583,-0.2468,1.0031,-0.1454,-0.9226,-0.2724,-0.4971,0.3571,-0.4327,-0.9948,
11.289062,0.0591,0.9753,-0.3921,-0.9226,-0.2724,-0.4971,0.3571,-0.4327,-0.9948,
11.291622,0.0591,0.9753,-0.3921,-0.9226,-0.2724,-0.4971,0.2896,-0.1357,-0.0531,
11.297548,0.0591,0.9753,-0.3921,0.7395,0.1161,-1.5333,0.2896,-0.1357,-0.0531,
11.318135,0.0591,0.9753,-0.3921,0.5265,0.0384,-0.6423,0.2896,-0.1357,-0.0531,
11.337602,0.0591,0.9753,-0.3921,-0.5864,0.0567,-0.4854,0.2896,-0.1357,-0.0531,
11.355855,-0.0428,0.9701,-0.2934,-0.5864,0.0567,-0.4854,0.2896,-0.1357,-0.0531,
11.358479,-0.0428,0.9701,-0.2934,-0.5864,0.0567,-0.4854,0.1192,-0.0276,-0.0888,
11.359580,-0.0428,0.9701,-0.2934,-0.5273,-0.0335,-0.5391,0.1192,-0.0276,-0.0888,
11.377651,-0.0428,0.9701,-0.2934,0.1460,0.1477,-0.5481,0.1192,-0.0276,-0.0888,
11.398062,-0.0428,0.9701,-0.2934,1.2367,0.3077,0.2296,0.1192,-0.0276,-0.0888,
11.419404,-0.0428,0.9701,-0.2934,0.0243,0.0067,0.2332,0.1192,-0.0276,-0.0888,
11.421674,-0.0268,0.9629,-0.2037,0.0243,0.0067,0.2332,0.1192,-0.0276,-0.0888,
11.423477,-0.0268,0.9629,-0.2037,0.0243,0.0067,0.2332,0.0910,-0.0702,-0.1319,
11.439243,-0.0268,0.9629,-0.2037,-0.9804,-0.3430,0.3348,0.0910,-0.0702,-0.1319,
11.457857,-0.0268,0.9629,-0.2037,-0.1390,-0.1703,0.1823,0.0910,-0.0702,-0.1319,
11.478078,-0.0268,0.9629,-0.2037,0.6585,0.0904,0.7447,0.0910,-0.0702,-0.1319,
11.487560,0.0410,0.9659,-0.2775,0.6585,0.0904,0.7447,0.0910,-0.0702,-0.1319,
11.490216,0.0410,0.9659,-0.2775,0.6585,0.0904,0.7447,0.1288,-0.1282,-0.1335,
11.497673,0.0410,0.9659,-0.2775,0.1628,-0.0111,0.1804,0.1288,-0.1282,-0.1335,
11.518161,0.0410,0.9659,-0.2775,-1.2337,-0.4168,-0.4534,0.1288,-0.1282,-0.1335,
11.537658,0.0410,0.9659,-0.2775,-0.2671,-0.1038,0.4920,0.1288,-0.1282,-0.1335,
11.554373,0.1127,0.9896,-0.2991,-0.2671,-0.1038,0.4920,0.1288,-0.1282,-0.1335,
11.557576,0.1127,0.9896,-0.2991,-0.2671,-0.1038,0.4920,0.0777,-0.1804,-0.1042,
11.559292,0.1127,0.9896,-0.2991,1.1698,0.1886,-0.1744,0.0777,-0.1804,-0.1042,
11.577691,0.1127,0.9896,-0.2991,0.2188,0.2029,0.0764,0.0777,-0.1804,-0.1042,
11.597664,0.1127,0.9896,-0.2991,0.2428,-0.0451,-0.3232,0.0777,-0.1804,-0.1042,
11.617589,0.1127,0.9896,-0.2991,0.0188,-0.2478,-0.8734,0.0777,-0.1804,-0.1042,
11.620873,0.0699,0.9748,-0.3637,0.0188,-0.2478,-0.8734,0.0777,-0.1804,-0.1042,
11.622147,0.0699,0.9748,-0.3637,0.0188,-0.2478,-0.8734,0.0521,-0.3178,-0.1537,
11.638078,0.0699,0.9748,-0.3637,1.7920,0.7573,0.9745,0.0521,-0.3178,-0.1537,
11.659599,0.0699,0.9748,-0.3637,0.9692,0.2366,-1.5044,0.0521,-0.3178,-0.1537,
11.677697,0.0699,0.9748,-0.3637,1.4112,0.6714,0.8591,0.0521,-0.3178,-0.1537,
11.687193,-0.0174,0.9534,-0.3651,1.4112,0.6714,0.8591,0.0521,-0.3178,-0.1537,
11.689980,-0.0174,0.9534,-0.3651,1.4112,0.6714,0.8591,0.0463,-0.2321,-0.4683,
11.697636,-0.0174,0.9534,-0.3651,1.9634,0.7611,-0.1529,0.0463,-0.2321,-0.4683,
11.719461,-0.0174,0.9534,-0.3651,0.7162,0.5343,-1.0491,0.0463,-0.2321,-0.4683,
11.740233,-0.0174,0.9534,-0.3651,0.5182,0.4080,0.0914,0.0463,-0.2321,-0.4683,
11.753510,-0.0012,1.0731,-0.3595,0.5182,0.4080,0.0914,0.0463,-0.2321,-0.4683,
11.756296,-0.0012,1.0731,-0.3595,0.5182,0.4080,0.0914,0.0692,-0.2230,-0.7824,
11.757743,-0.0012,1.0731,-0.3595,1.2336,1.0623,-1.1178,0.0692,-0.2230,-0.7824,
11.777729,-0.0012,1.0731,-0.3595,1.7702,0.8377,-0.5614,0.0692,-0.2230,-0.7824,
11.799768,-0.0012,1.0731,-0.3595,1.2888,1.1925,-0.5626,0.0692,-0.2230,-0.7824,
11.816998,-0.0015,1.0633,-0.3047,1.2888,1.1925,-0.5626,0.0692,-0.2230,-0.7824,
11.819298,-0.0015,1.0633,-0.3047,1.2888,1.1925,-0.5626,0.0830,-0.4003,-1.1098,
11.820661,-0.0015,1.0633,-0.3047,1.4990,1.0768,-0.3312,0.0830,-0.4003,-1.1098,
11.838078,-0.0015,1.0633,-0.3047,2.0395,1.3827,-0.2112,0.0830,-0.4003,-1.1098,
11.857964,-0.0015,1.0633,-0.3047,2.4794,1.4020,-0.0883,0.0830,-0.4003,-1.1098,
11.878181,-0.0015,1.0633,-0.3047,1.4551,0.9729,0.4928,0.0830,-0.4003,-1.1098,
11.883304,-0.0321,1.0333,-0.2820,1.4551,0.9729,0.4928,0.0830,-0.4003,-1.1098,
11.885577,-0.0321,1.0333,-0.2820,1.4551,0.9729,0.4928,0.1314,-0.2731,-1.5921,
11.897782,-0.0321,1.0333,-0.2820,3.3660,2.2967,0.5665,0.1314,-0.2731,-1.5921,
11.917507,-0.0321,1.0333,-0.2820,3.3590,2.2518,1.3468,0.1314,-0.2731,-1.5921,
11.937537,-0.0321,1.0333,-0.2820,3.2604,2.4575,1.1976,0.1314,-0.2731,-1.5921,
11.949211,-0.0249,1.2732,-0.1808,3.2604,2.4575,1.1976,0.1314,-0.2731,-1.5921,
11.951155,-0.0249,1.2732,-0.1808,3.2604,2.4575,1.1976,0.2757,-0.4450,-2.1531,
11.960449,-0.0249,1.2732,-0.1808,3.7712,3.2979,0.6779,0.2757,-0.4450,-2.1531,
11.977764,-0.0249,1.2732,-0.1808,5.8181,2.1593,0.9107,0.2757,-0.4450,-2.1531,
11.997795,-0.0249,1.2732,-0.1808,6.0622,2.4651,0.7521,0.2757,-0.4450,-2.1531,
12.015726,0.0138,1.2804,-0.3288,6.0622,2.4651,0.7521,0.2757,-0.4450,-2.1531,
12.019121,0.0138,1.2804,-0.3288,6.0622,2.4651,0.7521,0.6292,-0.3093,-3.5340,
12.020985,0.0138,1.2804,-0.3288,5.2087,4.6077,-0.4984,0.6292,-0.3093,-3.5340,
12.039322,0.0138,1.2804,-0.3288,3.9813,2.4874,-1.9506,0.6292,-0.3093,-3.5340,
12.057833,0.0138,1.2804,-0.3288,4.3378,0.5274,-0.4944,0.6292,-0.3093,-3.5340,
12.077906,0.0138,1.2804,-0.3288,4.7363,-0.3750,-1.3688,0.6292,-0.3093,-3.5340,
12.080936,-0.3032,0.5012,-0.4662,4.7363,-0.3750,-1.3688,0.6292,-0.3093,-3.5340,
12.082340,-0.3032,0.5012,-0.4662,4.7363,-0.3750,-1.3688,-0.1374,-0.3364,-3.1805,
12.097773,-0.3032,0.5012,-0.4662,0.4624,-6.0159,-1.7206,-0.1374,-0.3364,-3.1805,
12.118996,-0.3032,0.5012,-0.4662,-11.4953,-6.2651,2.4927,-0.1374,-0.3364,-3.1805,
12.148083,-0.3032,0.5012,-0.4662,-5.4460,-0.6498,2.0603,-0.1374,-0.3364,-3.1805,
12.150928,-1.1210,0.3859,-0.1480,-5.4460,-0.6498,2.0603,-0.1374,-0.3364,-3.1805,
12.152994,-1.1210,0.3859,-0.1480,-5.4460,-0.6498,2.0603,-0.5877,0.0463,1.3016,
12.169147,-1.1210,0.3859,-0.1480,-2.3593,-2.2433,0.8765,-0.5877,0.0463,1.3016,
12.178182,-1.1210,0.3859,-0.1480,2.1040,-3.3994,0.7482,-0.5877,0.0463,1.3016,
12.198358,-1.1210,0.3859,-0.1480,7.0411,-2.7448,0.0776,-0.5877,0.0463,1.3016,
12.213622,-0.0065,0.4548,-0.1324,7.0411,-2.7448,0.0776,-0.5877,0.0463,1.3016,
12.216255,-0.0065,0.4548,-0.1324,7.0411,-2.7448,0.0776,-1.2680,0.8368,3.4347,
12.218995,-0.0065,0.4548,-0.1324,5.8841,-2.6782,1.4130,-1.2680,0.8368,3.4347,
12.238307,-0.0065,0.4548,-0.1324,3.5660,-2.9371,0.6304,-1.2680,0.8368,3.4347,
12.257872,-0.0065,0.4548,-0.1324,5.0807,-2.2327,1.1961,-1.2680,0.8368,3.4347,
12.278194,-0.0065,0.4548,-0.1324,8.1923,0.1595,1.8637,-1.2680,0.8368,3.4347,
12.281069,0.4170,0.9403,-0.0849,8.1923,0.1595,1.8637,-1.2680,0.8368,3.4347,
12.281993,0.4170,0.9403,-0.0849,8.1923,0.1595,1.8637,-1.4006,1.4245,3.3623,
12.297759,0.4170,0.9403,-0.0849,5.0135,1.4755,-1.0367,-1.4006,1.4245,3.3623,
12.317616,0.4170,0.9403,-0.0849,0.2738,1.7643,-0.3588,-1.4006,1.4245,3.3623,
12.338024,0.4170,0.9403,-0.0849,-0.6223,2.3276,-0.8847,-1.4006,1.4245,3.3623,
12.345261,-0.1620,1.1904,-0.2589,-0.6223,2.3276,-0.8847,-1.4006,1.4245,3.3623,
12.347252,-0.1620,1.1904,-0.2589,-0.6223,2.3276,-0.8847,-1.4533,3.1519,2.9098,
12.357791,-0.1620,1.1904,-0.2589,1.3939,2.2892,-0.4209,-1.4533,3.1519,2.9098,
12.377786,-0.1620,1.1904,-0.2589,0.5676,2.6710,-1.6089,-1.4533,3.1519,2.9098,
12.397624,-0.1620,1.1904,-0.2589,-0.1982,2.4733,-2.3117,-1.4533,3.1519,2.9098,
12.410913,0.0449,1.2480,-0.3699,-0.1982,2.4733,-2.3117,-1.4533,3.1519,2.9098,
12.413204,0.0449,1.2480,-0.3699,-0.1982,2.4733,-2.3117,-1.1850,4.5221,2.2370,
12.418659,0.0449,1.2480,-0.3699,0.6287,2.4181,-2.6085,-1.1850,4.5221,2.2370,
12.439251,0.0449,1.2480,-0.3699,1.4594,1.9004,-4.0076,-1.1850,4.5221,2.2370,
12.457633,0.0449,1.2480,-0.3699,1.6103,1.8046,-5.2077,-1.1850,4.5221,2.2370,
12.477483,0.1562,1.1408,-0.6798,1.6103,1.8046,-5.2077,-1.1850,4.5221,2.2370,
12.480605,0.1562,1.1408,-0.6798,1.6103,1.8046,-5.2077,-0.5616,3.7758,0.6315,
12.481315,0.1562,1.1408,-0.6798,0.4167,1.5205,-6.2433,-0.5616,3.7758,0.6315,
12.497740,0.1562,1.1408,-0.6798,-1.8328,0.6633,-6.7052,-0.5616,3.7758,0.6315,
12.518203,0.1562,1.1408,-0.6798,-4.1877,0.1208,-6.4523,-0.5616,3.7758,0.6315,
12.538309,0.1562,1.1408,-0.6798,-5.1623,0.6985,-6.0942,-0.5616,3.7758,0.6315,
12.543398,-0.4021,1.0884,-0.5475,-5.1623,0.6985,-6.0942,-0.5616,3.7758,0.6315,
12.545332,-0.4021,1.0884,-0.5475,-5.1623,0.6985,-6.0942,0.0793,3.0444,-0.2724,
12.557703,-0.4021,1.0884,-0.5475,-5.1609,0.5253,-4.8956,0.0793,3.0444,-0.2724,
12.577683,-0.4021,1.0884,-0.5475,-2.1625,-1.4740,-4.3268,0.0793,3.0444,-0.2724,
12.598036,-0.4021,1.0884,-0.5475,-1.8082,-1.3702,-4.8779,0.0793,3.0444,-0.2724,
12.609418,-0.0973,0.8643,-0.4900,-1.8082,-1.3702,-4.8779,0.0793,3.0444,-0.2724,
12.612717,-0.0973,0.8643,-0.4900,-1.8082,-1.3702,-4.8779,0.8171,3.0311,-0.8181,
12.617598,-0.0973,0.8643,-0.4900,-2.1736,-1.3118,-5.0006,0.8171,3.0311,-0.8181,
12.638124,-0.0973,0.8643,-0.4900,-1.3194,-0.3105,-5.6781,0.8171,3.0311,-0.8181,
12.658515,-0.0973,0.8643,-0.4900,-1.8320,-0.8256,-3.6877,0.8171,3.0311,-0.8181,
12.676187,0.0339,1.0749,0.1552,-1.8320,-0.8256,-3.6877,0.8171,3.0311,-0.8181,
12.680021,0.0339,1.0749,0.1552,-1.8320,-0.8256,-3.6877,0.4982,2.9166,-0.4657,
12.681387,0.0339,1.0749,0.1552,-0.2872,0.7357,1.6335,0.4982,2.9166,-0.4657,
12.697694,0.0339,1.0749,0.1552,2.4934,2.3993,0.6027,0.4982,2.9166,-0.4657,
12.717609,0.0339,1.0749,0.1552,-0.1801,2.5252,-2.3169,0.4982,2.9166,-0.4657,
12.738771,0.0339,1.0749,0.1552,-7.0577,-0.6077,0.1930,0.4982,2.9166,-0.4657,
12.742783,-0.9411,0.8894,-0.2305,-7.0577,-0.6077,0.1930,0.4982,2.9166,-0.4657,
12.743961,-0.9411,0.8894,-0.2305,-7.0577,-0.6077,0.1930,0.6047,-0.4082,-1.7081,
12.758060,-0.9411,0.8894,-0.2305,-11.4973,0.4211,-1.8591,0.6047,-0.4082,-1.7081,
12.784078,-0.9411,0.8894,-0.2305,-2.4624,0.2246,-0.9686,0.6047,-0.4082,-1.7081,
12.800448,-0.9411,0.8894,-0.2305,2.3859,0.1111,-1.0506,0.6047,-0.4082,-1.7081,
12.809522,0.0435,1.0959,-0.2799,2.3859,0.1111,-1.0506,0.6047,-0.4082,-1.7081,
12.812290,0.0435,1.0959,-0.2799,2.3859,0.1111,-1.0506,0.3321,0.0373,0.0821,
12.817598,0.0435,1.0959,-0.2799,-0.6988,0.8912,-1.5124,0.3321,0.0373,0.0821,
12.838024,0.0435,1.0959,-0.2799,-1.3891,-0.4277,0.2328,0.3321,0.0373,0.0821,
12.858587,0.0435,1.0959,-0.2799,1.4932,-0.0506,0.0463,0.3321,0.0373,0.0821,
12.873282,0.1557,0.9864,-0.1255,1.4932,-0.0506,0.0463,0.3321,0.0373,0.0821,
12.876565,0.1557,0.9864,-0.1255,1.4932,-0.0506,0.0463,0.3454,0.2161,0.0603,
12.878386,0.1557,0.9864,-0.1255,1.4676,-0.0932,-0.1481,0.3454,0.2161,0.0603,
12.901453,0.1557,0.9864,-0.1255,0.0814,-0.1744,1.2228,0.3454,0.2161,0.0603,
12.920903,0.1557,0.9864,-0.1255,-0.6952,0.1077,0.3295,0.3454,0.2161,0.0603,
12.940252,0.1557,0.9864,-0.1255,-0.3859,-0.1857,0.0824,0.3454,0.2161,0.0603,
12.942722,-0.0127,0.9984,-0.1255,-0.3859,-0.1857,0.0824,0.3454,0.2161,0.0603,
12.944049,-0.0127,0.9984,-0.1255,-0.3859,-0.1857,0.0824,0.3342,0.2470,0.1247,
12.957598,-0.0127,0.9984,-0.1255,0.0557,0.3413,-1.2126,0.3342,0.2470,0.1247,
12.977857,-0.0127,0.9984,-0.1255,0.2086,-0.0916,-0.1119,0.3342,0.2470,0.1247,
12.999208,-0.0127,0.9984,-0.1255,1.0890,-0.0661,0.2045,0.3342,0.2470,0.1247,
13.007181,0.0850,0.9878,-0.1612,1.0890,-0.0661,0.2045,0.3342,0.2470,0.1247,
13.009939,0.0850,0.9878,-0.1612,1.0890,-0.0661,0.2045,0.2517,0.2183,-0.0526,
13.017271,0.0850,0.9878,-0.1612,0.7216,0.0199,-0.3323,0.2517,0.2183,-0.0526,
13.038296,0.0850,0.9878,-0.1612,-0.0333,-0.1891,-0.5829,0.2517,0.2183,-0.0526,
13.057747,0.0850,0.9878,-0.1612,0.1336,0.1893,-0.7024,0.2517,0.2183,-0.0526,
13.074304,-0.0218,0.9824,-0.2090,0.1336,0.1893,-0.7024,0.2517,0.2183,-0.0526,
13.076578,-0.0218,0.9824,-0.2090,0.1336,0.1893,-0.7024,0.1011,0.1118,-0.0882,
13.077905,-0.0218,0.9824,-0.2090,0.1719,0.0174,-0.3703,0.1011,0.1118,-0.0882,
13.097859,-0.0218,0.9824,-0.2090,0.7651,-0.1658,-0.4793,0.1011,0.1118,-0.0882,
13.117320,-0.0218,0.9824,-0.2090,0.2432,0.3469,0.8409,0.1011,0.1118,-0.0882,
13.137336,-0.0449,1.0100,-0.1906,0.2432,0.3469,0.8409,0.1011,0.1118,-0.0882,
13.141002,-0.0449,1.0100,-0.1906,0.2432,0.3469,0.8409,0.0931,-0.0686,-0.2506,
13.142341,-0.0449,1.0100,-0.1906,-0.2720,0.2226,-0.1735,0.0931,-0.0686,-0.2506,
13.158000,-0.0449,1.0100,-0.1906,-0.8684,-0.0676,-1.3522,0.0931,-0.0686,-0.2506,
13.177908,-0.0449,1.0100,-0.1906,-1.0931,0.0806,-0.7135,0.0931,-0.0686,-0.2506,
13.197706,-0.0449,1.0100,-0.1906,-0.2488,0.0787,0.8707,0.0931,-0.0686,-0.2506,
13.203108,0.0053,0.9842,-0.0637,-0.2488,0.0787,0.8707,0.0931,-0.0686,-0.2506,
13.204606,0.0053,0.9842,-0.0637,-0.2488,0.0787,0.8707,-0.0373,0.0591,-0.0717,
13.217346,0.0053,0.9842,-0.0637,0.2603,0.1359,0.7512,-0.0373,0.0591,-0.0717,
13.238499,0.0053,0.9842,-0.0637,-0.3279,-0.0991,-0.4762,-0.0373,0.0591,-0.0717,
13.257544,0.0053,0.9842,-0.0637,0.3039,0.0763,-1.5932,-0.0373,0.0591,-0.0717,
13.269106,0.0558,1.0002,-0.2045,0.3039,0.0763,-1.5932,-0.0373,0.0591,-0.0717,
13.271073,0.0558,1.0002,-0.2045,0.3039,0.0763,-1.5932,-0.2774,-0.0777,-0.1276,
13.277687,0.0558,1.0002,-0.2045,0.5835,-0.0373,0.5157,-0.2774,-0.0777,-0.1276,
13.297860,0.0558,1.0002,-0.2045,-0.1216,0.0242,1.1803,-0.2774,-0.0777,-0.1276,
13.317880,0.0558,1.0002,-0.2045,-0.8326,0.0588,0.5045,-0.2774,-0.0777,-0.1276,
13.335880,-0.0761,0.9888,-0.3412,-0.8326,0.0588,0.5045,-0.2774,-0.0777,-0.1276,
13.340319,-0.0761,0.9888,-0.3412,-0.8326,0.0588,0.5045,-0.2364,0.0676,-0.0398,
13.341632,-0.0761,0.9888,-0.3412,-0.3274,-0.0129,-1.8963,-0.2364,0.0676,-0.0398,
13.357631,-0.0761,0.9888,-0.3412,0.7172,0.0303,-1.4663,-0.2364,0.0676,-0.0398,
13.379316,-0.0761,0.9888,-0.3412,0.2438,-0.0281,-0.0784,-0.2364,0.0676,-0.0398,
13.398220,-0.0761,0.9888,-0.3412,0.0571,-0.0773,0.2678,-0.2364,0.0676,-0.0398,
13.401234,-0.0277,0.9869,-0.1265,0.0571,-0.0773,0.2678,-0.2364,0.0676,-0.0398,
13.402319,-0.0277,0.9869,-0.1265,0.0571,-0.0773,0.2678,-0.4387,0.0527,-0.1601,
13.417719,-0.0277,0.9869,-0.1265,0.4296,0.0807,-0.1472,-0.4387,0.0527,-0.1601,
13.437744,-0.0277,0.9869,-0.1265,0.2296,-0.0258,-1.3265,-0.4387,0.0527,-0.1601,
13.457720,-0.0277,0.9869,-0.1265,-0.4731,-0.0838,-1.0832,-0.4387,0.0527,-0.1601,
13.467310,-0.1082,0.9869,-0.1193,-0.4731,-0.0838,-1.0832,-0.4387,0.0527,-0.1601,
13.468610,-0.1082,0.9869,-0.1193,-0.4731,-0.0838,-1.0832,-0.7373,0.0330,-0.2469,
13.477692,-0.1082,0.9869,-0.1193,-0.2236,-0.2591,0.2583,-0.7373,0.0330,-0.2469,
13.497562,-0.1082,0.9869,-0.1193,0.5479,0.4683,-0.2359,-0.7373,0.0330,-0.2469,
13.517326,-0.1082,0.9869,-0.1193,1.2596,0.9614,0.3542,-0.7373,0.0330,-0.2469,
13.533136,0.1052,1.1159,-0.1634,1.2596,0.9614,0.3542,-0.7373,0.0330,-0.2469,
13.535967,0.1052,1.1159,-0.1634,1.2596,0.9614,0.3542,-0.9731,-0.0457,-0.4694,
13.539290,0.1052,1.1159,-0.1634,1.6428,1.0551,-1.2314,-0.9731,-0.0457,-0.4694,
13.558114,0.1052,1.1159,-0.1634,0.6103,0.5576,-0.3974,-0.9731,-0.0457,-0.4694,
13.579416,0.1052,1.1159,-0.1634,2.1913,3.5487,-1.3397,-0.9731,-0.0457,-0.4694,
13.597994,0.1052,1.1159,-0.1634,4.2428,2.6115,-0.1141,-0.9731,-0.0457,-0.4694,
13.600807,0.3505,1.2691,0.0242,4.2428,2.6115,-0.1141,-0.9731,-0.0457,-0.4694,
13.601708,0.3505,1.2691,0.0242,4.2428,2.6115,-0.1141,-1.1642,0.0942,-0.9538,
13.617744,0.3505,1.2691,0.0242,3.3317,1.8064,-1.0991,-1.1642,0.0942,-0.9538,
13.638406,0.3505,1.2691,0.0242,2.5961,2.4229,-1.8076,-1.1642,0.0942,-0.9538,
13.658446,0.3505,1.2691,0.0242,2.4525,2.3641,-2.0588,-1.1642,0.0942,-0.9538,
13.665170,0.0969,1.2087,-0.1519,2.4525,2.3641,-2.0588,-1.1642,0.0942,-0.9538,
13.667218,0.0969,1.2087,-0.1519,2.4525,2.3641,-2.0588,-1.2467,0.0059,-1.6602,
13.677643,0.0969,1.2087,-0.1519,3.4356,1.7174,-3.1248,-1.2467,0.0059,-1.6602,
13.697905,0.0969,1.2087,-0.1519,1.3169,3.3820,-3.3773,-1.2467,0.0059,-1.6602,
13.717882,0.0969,1.2087,-0.1519,-0.3146,2.8302,-5.3424,-1.2467,0.0059,-1.6602,
13.731288,-0.2205,1.1305,-0.1669,-0.3146,2.8302,-5.3424,-1.2467,0.0059,-1.6602,
13.734326,-0.2205,1.1305,-0.1669,-0.3146,2.8302,-5.3424,-0.9124,1.0790,-1.7496,
13.738449,-0.2205,1.1305,-0.1669,1.2783,1.5871,-3.3249,-0.9124,1.0790,-1.7496,
13.758459,-0.2205,1.1305,-0.1669,2.1853,-2.5603,-3.8113,-0.9124,1.0790,-1.7496,
13.779663,-0.2205,1.1305,-0.1669,-7.7967,-6.2877,0.3563,-0.9124,1.0790,-1.7496,
13.797706,-1.0026,0.7911,-0.2045,-7.7967,-6.2877,0.3563,-0.9124,1.0790,-1.7496,
13.800682,-1.0026,0.7911,-0.2045,-7.7967,-6.2877,0.3563,-1.1786,6.8542,0.2466,
13.801874,-1.0026,0.7911,-0.2045,-6.1659,-1.1822,-3.5302,-1.1786,6.8542,0.2466,
13.818508,-1.0026,0.7911,-0.2045,5.1491,-1.3657,-3.5056,-1.1786,6.8542,0.2466,
13.837924,-1.0026,0.7911,-0.2045,10.5879,-0.2766,-2.4993,-1.1786,6.8542,0.2466,
13.858658,-1.0026,0.7911,-0.2045,8.6054,-0.5577,-5.6206,-1.1786,6.8542,0.2466,
13.863736,0.2619,0.7740,-0.6324,8.6054,-0.5577,-5.6206,-1.1786,6.8542,0.2466,
13.865718,0.2619,0.7740,-0.6324,8.6054,-0.5577,-5.6206,-0.3301,5.5128,-0.1463,
13.878639,0.2619,0.7740,-0.6324,4.9146,-1.5873,-5.6078,-0.3301,5.5128,-0.1463,
13.897724,0.2619,0.7740,-0.6324,2.4091,-1.5155,-4.4538,-0.3301,5.5128,-0.1463,
13.917680,0.2619,0.7740,-0.6324,1.4666,-1.5285,-4.3686,-0.3301,5.5128,-0.1463,
13.928946,-0.3826,0.7992,-0.4738,1.4666,-1.5285,-4.3686,-0.3301,5.5128,-0.1463,
13.931797,-0.3826,0.7992,-0.4738,1.4666,-1.5285,-4.3686,-0.4206,2.9784,1.0126,
13.937654,-0.3826,0.7992,-0.4738,0.4753,-0.8521,-3.4449,-0.4206,2.9784,1.0126,
13.957991,-0.3826,0.7992,-0.4738,0.0572,-0.9582,-2.3329,-0.4206,2.9784,1.0126,
13.979649,-0.3826,0.7992,-0.4738,3.0809,-1.1040,-0.9143,-0.4206,2.9784,1.0126,
13.996651,-0.0771,0.8768,-0.1665,3.0809,-1.1040,-0.9143,-0.4206,2.9784,1.0126,
13.999519,-0.0771,0.8768,-0.1665,3.0809,-1.1040,-0.9143,-0.3386,1.9526,2.2598,
14.000360,-0.0771,0.8768,-0.1665,2.3970,-0.6042,-0.2385,-0.3386,1.9526,2.2598,
14.017273,-0.0771,0.8768,-0.1665,1.3925,-0.2907,-0.6038,-0.3386,1.9526,2.2598,
14.038252,-0.0771,0.8768,-0.1665,1.5985,0.5694,-0.4584,-0.3386,1.9526,2.2598,
14.059397,-0.0771,0.8768,-0.1665,1.1033,1.5392,-0.7534,-0.3386,1.9526,2.2598,
14.062179,-0.0963,1.1761,-0.2606,1.1033,1.5392,-0.7534,-0.3386,1.9526,2.2598,
14.063680,-0.0963,1.1761,-0.2606,1.1033,1.5392,-0.7534,-0.3615,1.9409,2.4909,
14.078475,-0.0963,1.1761,-0.2606,-1.6039,2.4300,-1.7681,-0.3615,1.9409,2.4909,
14.097920,-0.0963,1.1761,-0.2606,-2.2507,2.0529,-1.9681,-0.3615,1.9409,2.4909,
14.118233,-0.0963,1.1761,-0.2606,0.0147,2.2897,-1.3194,-0.3615,1.9409,2.4909,
14.128056,0.0950,1.2778,-0.2709,0.0147,2.2897,-1.3194,-0.3615,1.9409,2.4909,
14.131602,0.0950,1.2778,-0.2709,0.0147,2.2897,-1.3194,-0.3865,1.0248,2.1890,
14.137624,0.0950,1.2778,-0.2709,0.3498,3.0649,-1.3901,-0.3865,1.0248,2.1890,
14.157727,0.0950,1.2778,-0.2709,-2.7165,3.1127,-1.1662,-0.3865,1.0248,2.1890,
14.177840,0.0950,1.2778,-0.2709,-7.1205,1.6976,-0.5743,-0.3865,1.0248,2.1890,
14.193390,-0.7834,1.0284,-0.1359,-7.1205,1.6976,-0.5743,-0.3865,1.0248,2.1890,
14.196668,-0.7834,1.0284,-0.1359,-7.1205,1.6976,-0.5743,-0.1746,0.8022,1.7616,
14.198468,-0.7834,1.0284,-0.1359,-9.1683,0.3918,-0.1500,-0.1746,0.8022,1.7616,
14.217539,-0.7834,1.0284,-0.1359,-7.7854,0.6360,-0.3270,-0.1746,0.8022,1.7616,
14.238422,-0.7834,1.0284,-0.1359,-6.2572,0.7396,-0.7611,-0.1746,0.8022,1.7616,
14.257481,-0.7834,1.0284,-0.1359,-4.3473,0.0306,-1.1924,-0.1746,0.8022,1.7616,
14.261459,-0.1973,0.9661,-0.2111,-4.3473,0.0306,-1.1924,-0.1746,0.8022,1.7616,
14.262548,-0.1973,0.9661,-0.2111,-4.3473,0.0306,-1.1924,0.0968,0.6883,1.0520,
14.278173,-0.1973,0.9661,-0.2111,-5.4889,-0.0218,-0.4658,0.0968,0.6883,1.0520,
14.298137,-0.1973,0.9661,-0.2111,-4.5721,-0.3967,-0.5482,0.0968,0.6883,1.0520,
14.317439,-0.1973,0.9661,-0.2111,-0.7916,4.3834,-1.4927,0.0968,0.6883,1.0520,
14.327015,0.1756,1.1534,-0.4293,-0.7916,4.3834,-1.4927,0.0968,0.6883,1.0520,
14.329714,0.1756,1.1534,-0.4293,-0.7916,4.3834,-1.4927,0.6893,0.6787,-1.3014,
14.337585,0.1756,1.1534,-0.4293,-2.3123,0.4214,-3.5272,0.6893,0.6787,-1.3014,
14.359043,0.1756,1.1534,-0.4293,-4.8814,0.2103,-1.7528,0.6893,0.6787,-1.3014,
14.377964,0.1756,1.1534,-0.4293,2.4050,2.9805,4.0134,0.6893,0.6787,-1.3014,
14.394926,0.2623,0.8958,0.2059,2.4050,2.9805,4.0134,0.6893,0.6787,-1.3014,
14.397875,0.2623,0.8958,0.2059,2.4050,2.9805,4.0134,0.3055,0.8400,-0.7137,
14.401127,0.2623,0.8958,0.2059,-0.6060,-1.1739,2.2562,0.3055,0.8400,-0.7137,
14.417518,0.2623,0.8958,0.2059,-3.3516,-0.8191,0.4906,0.3055,0.8400,-0.7137,
14.438004,0.2623,0.8958,0.2059,-3.5742,1.3597,2.2068,0.3055,0.8400,-0.7137,
14.457299,-0.2760,1.0709,0.0175,-3.5742,1.3597,2.2068,0.3055,0.8400,-0.7137,
14.460411,-0.2760,1.0709,0.0175,-3.5742,1.3597,2.2068,0.5951,-0.8330,-1.1364,
14.461754,-0.2760,1.0709,0.0175,-4.3720,0.6783,1.7590,0.5951,-0.8330,-1.1364,
14.477447,-0.2760,1.0709,0.0175,-3.8321,0.4436,-4.1158,0.5951,-0.8330,-1.1364,
14.497726,-0.2760,1.0709,0.0175,0.5447,0.3922,-4.0657,0.5951,-0.8330,-1.1364,
14.517878,-0.2760,1.0709,0.0175,-1.4910,-0.4049,-0.7137,0.5951,-0.8330,-1.1364,
14.522733,-0.1878,0.9179,-0.1657,-1.4910,-0.4049,-0.7137,0.5951,-0.8330,-1.1364,
14.524196,-0.1878,0.9179,-0.1657,-1.4910,-0.4049,-0.7137,0.2400,-0.0047,-0.9373,
14.537678,-0.1878,0.9179,-0.1657,-2.8277,0.5739,1.2082,0.2400,-0.0047,-0.9373,
14.557831,-0.1878,0.9179,-0.1657,-3.2440,0.4259,2.1270,0.2400,-0.0047,-0.9373,
14.577891,-0.1878,0.9179,-0.1657,-2.0065,-0.2281,-0.8119,0.2400,-0.0047,-0.9373,
14.588693,0.0653,0.9689,-0.4176,-2.0065,-0.2281,-0.8119,0.2400,-0.0047,-0.9373,
14.590433,0.0653,0.9689,-0.4176,-2.0065,-0.2281,-0.8119,0.4035,-0.0920,0.0587,
14.600575,0.0653,0.9689,-0.4176,0.8109,-0.0119,-2.2264,0.4035,-0.0920,0.0587,
14.617416,0.0653,0.9689,-0.4176,1.0838,0.0308,-0.9742,0.4035,-0.0920,0.0587,
14.637899,0.0653,0.9689,-0.4176,-0.5984,-0.0018,0.1261,0.4035,-0.0920,0.0587,
14.655878,-0.0045,0.9538,-0.2003,-0.5984,-0.0018,0.1261,0.4035,-0.0920,0.0587,
14.659050,-0.0045,0.9538,-0.2003,-0.5984,-0.0018,0.1261,0.2187,-0.0990,-0.0558,
14.660518,-0.0045,0.9538,-0.2003,-0.5367,-0.2299,0.1024,0.2187,-0.0990,-0.0558,
14.678030,-0.0045,0.9538,-0.2003,0.7318,0.0326,0.4646,0.2187,-0.0990,-0.0558,
14.697826,-0.0045,0.9538,-0.2003,0.2277,-0.0065,-0.8579,0.2187,-0.0990,-0.0558,
14.717626,-0.0045,0.9538,-0.2003,0.1195,-0.1647,-0.7045,0.2187,-0.0990,-0.0558,
14.720805,0.0851,0.9546,-0.2705,0.1195,-0.1647,-0.7045,0.2187,-0.0990,-0.0558,
14.722005,0.0851,0.9546,-0.2705,0.1195,-0.1647,-0.7045,0.1554,-0.0596,-0.1739,
14.738375,0.0851,0.9546,-0.2705,0.7720,-0.0510,-0.3492,0.1554,-0.0596,-0.1739,
14.758379,0.0851,0.9546,-0.2705,-0.2876,0.1199,0.3244,0.1554,-0.0596,-0.1739,
14.778123,0.0851,0.9546,-0.2705,-0.9835,-0.0808,0.2070,0.1554,-0.0596,-0.1739,
14.787217,-0.0578,0.9736,-0.2425,-0.9835,-0.0808,0.2070,0.1554,-0.0596,-0.1739,
14.788908,-0.0578,0.9736,-0.2425,-0.9835,-0.0808,0.2070,0.1852,-0.0878,-0.1542,
14.797645,-0.0578,0.9736,-0.2425,-0.6475,-0.0539,-0.4637,0.1852,-0.0878,-0.1542,
14.817908,-0.0578,0.9736,-0.2425,-0.1110,-0.0859,-0.4415,0.1852,-0.0878,-0.1542,
14.838094,-0.0578,0.9736,-0.2425,-0.2040,-0.0413,-0.2016,0.1852,-0.0878,-0.1542,
14.853173,-0.0359,0.9611,-0.3137,-0.2040,-0.0413,-0.2016,0.1852,-0.0878,-0.1542,
14.855714,-0.0359,0.9611,-0.3137,-0.2040,-0.0413,-0.2016,0.0367,0.0197,-0.1452,
14.857130,-0.0359,0.9611,-0.3137,-0.5082,-0.1456,-0.9107,0.0367,0.0197,-0.1452,
14.878070,-0.0359,0.9611,-0.3137,0.5264,0.2377,-0.3859,0.0367,0.0197,-0.1452,
14.899596,-0.0359,0.9611,-0.3137,0.5392,0.3253,0.2998,0.0367,0.0197,-0.1452,
14.918061,-0.0359,0.9611,-0.3137,0.0773,0.0896,0.1723,0.0367,0.0197,-0.1452,
14.920955,-0.0230,0.9508,-0.2711,0.0773,0.0896,0.1723,0.0367,0.0197,-0.1452,
14.922081,-0.0230,0.9508,-0.2711,0.0773,0.0896,0.1723,0.0010,-0.0654,-0.2570,
14.938392,-0.0230,0.9508,-0.2711,-0.0974,-0.1465,0.2286,0.0010,-0.0654,-0.2570,
14.957693,-0.0230,0.9508,-0.2711,1.1764,0.4810,0.8161,0.0010,-0.0654,-0.2570,
14.978697,-0.0230,0.9508,-0.2711,2.2585,0.6498,-0.3770,0.0010,-0.0654,-0.2570,
14.985260,0.1614,1.0843,-0.1291,2.2585,0.6498,-0.3770,0.0010,-0.0654,-0.2570,
14.987324,0.1614,1.0843,-0.1291,2.2585,0.6498,-0.3770,0.0330,0.0527,-0.8724,
14.998331,0.1614,1.0843,-0.1291,-0.2632,0.0325,-1.1131,0.0330,0.0527,-0.8724,
15.018172,0.1614,1.0843,-0.1291,1.6589,0.7244,0.1820,0.0330,0.0527,-0.8724,
15.037709,0.1614,1.0843,-0.1291,0.6079,0.2627,-1.5682,0.0330,0.0527,-0.8724,
15.052661,0.0962,1.1679,-0.2469,0.6079,0.2627,-1.5682,0.0330,0.0527,-0.8724,
15.054659,0.0962,1.1679,-0.2469,0.6079,0.2627,-1.5682,-0.0538,-0.1980,-0.9511,
15.057076,0.0962,1.1679,-0.2469,2.1999,2.2535,-0.1407,-0.0538,-0.1980,-0.9511,
15.077931,0.0962,1.1679,-0.2469,1.3997,1.4362,0.4366,-0.0538,-0.1980,-0.9511,
15.097568,0.0962,1.1679,-0.2469,1.5842,1.1669,0.1615,-0.0538,-0.1980,-0.9511,
15.117317,-0.0584,1.1031,-0.2625,1.5842,1.1669,0.1615,-0.0538,-0.1980,-0.9511,
15.119780,-0.0584,1.1031,-0.2625,1.5842,1.1669,0.1615,-0.0293,-0.2890,-1.3216,
15.121095,-0.0584,1.1031,-0.2625,0.9745,1.4165,-0.2217,-0.0293,-0.2890,-1.3216,
15.137875,-0.0584,1.1031,-0.2625,1.6674,1.0461,-0.4715,-0.0293,-0.2890,-1.3216,
15.157934,-0.0584,1.1031,-0.2625,2.9868,1.4592,-1.2324,-0.0293,-0.2890,-1.3216,
15.177592,-0.0584,1.1031,-0.2625,3.8109,2.4618,-1.1071,-0.0293,-0.2890,-1.3216,
15.183356,0.1940,1.2369,-0.3315,3.8109,2.4618,-1.1071,-0.0293,-0.2890,-1.3216,
15.184957,0.1940,1.2369,-0.3315,3.8109,2.4618,-1.1071,-0.1810,-0.3162,-1.8630,
15.200552,0.1940,1.2369,-0.3315,4.7749,3.4933,-0.3750,-0.1810,-0.3162,-1.8630,
15.217539,0.1940,1.2369,-0.3315,4.2481,1.9356,0.2219,-0.1810,-0.3162,-1.8630,
15.238484,0.1940,1.2369,-0.3315,4.5365,3.6981,0.4442,-0.1810,-0.3162,-1.8630,
15.250686,0.2248,1.2722,-0.1903,4.5365,3.6981,0.4442,-0.1810,-0.3162,-1.8630,
15.253780,0.2248,1.2722,-0.1903,4.5365,3.6981,0.4442,-0.0038,-0.4359,-2.6972,
15.257391,0.2248,1.2722,-0.1903,7.0707,2.9508,0.3376,-0.0038,-0.4359,-2.6972,
15.277950,0.2248,1.2722,-0.1903,7.2411,2.3376,1.0330,-0.0038,-0.4359,-2.6972,
15.298379,0.2248,1.2722,-0.1903,5.8912,3.5021,-0.0601,-0.0038,-0.4359,-2.6972,
15.315935,-0.2402,1.0884,-0.4476,5.8912,3.5021,-0.0601,-0.0038,-0.4359,-2.6972,
15.318782,-0.2402,1.0884,-0.4476,5.8912,3.5021,-0.0601,0.2906,-0.6755,-3.9449,
15.320424,-0.2402,1.0884,-0.4476,3.4168,2.9718,-2.3756,0.2906,-0.6755,-3.9449,
15.338040,-0.2402,1.0884,-0.4476,5.2653,1.0968,-0.7037,0.2906,-0.6755,-3.9449,
15.357819,-0.2402,1.0884,-0.4476,6.9881,-1.4763,0.2206,0.2906,-0.6755,-3.9449,
15.377676,-0.2402,1.0884,-0.4476,2.6632,-3.9342,-3.6727,0.2906,-0.6755,-3.9449,
15.381177,-0.8999,-0.2716,-0.4290,2.6632,-3.9342,-3.6727,0.2906,-0.6755,-3.9449,
15.382994,-0.8999,-0.2716,-0.4290,2.6632,-3.9342,-3.6727,-0.2699,-0.1719,-2.5981,
15.398196,-0.8999,-0.2716,-0.4290,-13.0182,-7.1981,1.2414,-0.2699,-0.1719,-2.5981,
15.424170,-0.8999,-0.2716,-0.4290,-4.9468,0.1270,1.6242,-0.2699,-0.1719,-2.5981,
15.445524,-0.8999,-0.2716,-0.4290,-1.4218,-1.4436,0.3697,-0.2699,-0.1719,-2.5981,
15.455647,-0.8292,0.4122,-0.2253,-1.4218,-1.4436,0.3697,-0.2699,-0.1719,-2.5981,
15.458529,-0.8292,0.4122,-0.2253,-1.4218,-1.4436,0.3697,-0.2422,0.8156,2.3136,
15.460097,-0.8292,0.4122,-0.2253,0.8965,-2.1015,-0.1278,-0.2422,0.8156,2.3136,
15.478087,-0.8292,0.4122,-0.2253,5.6463,-2.9809,-0.8822,-0.2422,0.8156,2.3136,
15.497943,-0.8292,0.4122,-0.2253,4.3584,-3.1738,-0.4296,-0.2422,0.8156,2.3136,
15.514545,-0.3451,0.3177,-0.2011,4.3584,-3.1738,-0.4296,-0.2422,0.8156,2.3136,
15.516583,-0.3451,0.3177,-0.2011,4.3584,-3.1738,-0.4296,-0.3263,0.5755,4.1799,
15.517501,-0.3451,0.3177,-0.2011,2.8956,-4.2032,0.3698,-0.3263,0.5755,4.1799,
15.537801,-0.3451,0.3177,-0.2011,6.3596,-3.6501,1.6342,-0.3263,0.5755,4.1799,
15.558097,-0.3451,0.3177,-0.2011,7.5815,-2.4425,1.1690,-0.3263,0.5755,4.1799,
15.577620,-0.3451,0.3177,-0.2011,4.6022,-0.8917,-0.1698,-0.3263,0.5755,4.1799,
15.581186,0.0150,0.8395,-0.2675,4.6022,-0.8917,-0.1698,-0.3263,0.5755,4.1799,
15.582782,0.0150,0.8395,-0.2675,4.6022,-0.8917,-0.1698,-0.1592,0.2784,4.1725,
15.597482,0.0150,0.8395,-0.2675,1.9104,0.4927,0.2267,-0.1592,0.2784,4.1725,
15.617960,0.0150,0.8395,-0.2675,0.6877,1.7823,-0.2123,-0.1592,0.2784,4.1725,
15.638285,0.0150,0.8395,-0.2675,1.0181,2.6305,-0.1503,-0.1592,0.2784,4.1725,
15.647746,0.0319,1.2859,-0.1925,1.0181,2.6305,-0.1503,-0.1592,0.2784,4.1725,
15.650534,0.0319,1.2859,-0.1925,1.0181,2.6305,-0.1503,-0.1879,0.4488,3.7567,
15.657565,0.0319,1.2859,-0.1925,1.3888,3.8676,0.3531,-0.1879,0.4488,3.7567,
15.677607,0.0319,1.2859,-0.1925,-1.0705,4.5895,-1.0275,-0.1879,0.4488,3.7567,
15.697485,0.0319,1.2859,-0.1925,-4.1144,4.6287,-1.2390,-0.1879,0.4488,3.7567,
15.711082,-0.6909,1.3665,-0.2756,-4.1144,4.6287,-1.2390,-0.1879,0.4488,3.7567,
15.712993,-0.6909,1.3665,-0.2756,-4.1144,4.6287,-1.2390,-0.3870,0.3205,2.7235,
15.717926,-0.6909,1.3665,-0.2756,-8.4116,3.3801,-0.2967,-0.3870,0.3205,2.7235,
15.738258,-0.6909,1.3665,-0.2756,-8.7147,2.2347,-0.1177,-0.3870,0.3205,2.7235,
15.757695,-0.6909,1.3665,-0.2756,-3.2650,1.7554,0.2721,-0.3870,0.3205,2.7235,
15.777761,-0.0793,1.0988,-0.2534,-3.2650,1.7554,0.2721,-0.3870,0.3205,2.7235,
15.780980,-0.0793,1.0988,-0.2534,-3.2650,1.7554,0.2721,-0.2018,0.1927,1.9894,
15.782965,-0.0793,1.0988,-0.2534,-3.3714,1.5549,-0.5689,-0.2018,0.1927,1.9894,
15.797765,-0.0793,1.0988,-0.2534,-3.6493,1.0444,-0.4633,-0.2018,0.1927,1.9894,
15.819515,-0.0793,1.0988,-0.2534,-3.9428,0.7061,-0.3654,-0.2018,0.1927,1.9894,
15.837905,-0.0793,1.0988,-0.2534,-4.6393,0.7786,-0.1015,-0.2018,0.1927,1.9894,
15.842958,-0.1777,0.9590,-0.2252,-4.6393,0.7786,-0.1015,-0.2018,0.1927,1.9894,
15.844006,-0.1777,0.9590,-0.2252,-4.6393,0.7786,-0.1015,0.0356,-0.1133,-0.2964,
15.857661,-0.1777,0.9590,-0.2252,-5.8161,0.2573,-0.4636,0.0356,-0.1133,-0.2964,
15.878109,-0.1777,0.9590,-0.2252,-5.5791,3.4036,-0.0874,0.0356,-0.1133,-0.2964,
15.899229,-0.1777,0.9590,-0.2252,-3.4579,-0.8436,-3.8879,0.0356,-0.1133,-0.2964,
15.909118,0.2082,0.9759,-0.3618,-3.4579,-0.8436,-3.8879,0.0356,-0.1133,-0.2964,
15.910616,0.2082,0.9759,-0.3618,-3.4579,-0.8436,-3.8879,0.3119,0.5185,-1.1295,
15.918092,0.2082,0.9759,-0.3618,-0.1562,1.2348,-0.5175,0.3119,0.5185,-1.1295,
15.937740,0.2082,0.9759,-0.3618,2.3651,2.7065,4.0189,0.3119,0.5185,-1.1295,
15.958193,0.2082,0.9759,-0.3618,-1.0997,-0.2327,3.0439,0.3119,0.5185,-1.1295,
15.975883,-0.3971,0.9620,0.0442,-1.0997,-0.2327,3.0439,0.3119,0.5185,-1.1295,
15.979259,-0.3971,0.9620,0.0442,-1.0997,-0.2327,3.0439,0.3012,0.3375,-1.5111,
15.980994,-0.3971,0.9620,0.0442,-6.2465,0.0908,2.3342,0.3012,0.3375,-1.5111,
15.997612,-0.3971,0.9620,0.0442,-5.1116,1.2465,1.2435,0.3012,0.3375,-1.5111,
16.017684,-0.3971,0.9620,0.0442,-0.7024,0.2904,-2.1778,0.3012,0.3375,-1.5111,
16.038456,-0.3971,0.9620,0.0442,0.0868,-0.1751,-3.6553,0.3012,0.3375,-1.5111,
16.041515,0.2071,0.9510,-0.5447,0.0868,-0.1751,-3.6553,0.3012,0.3375,-1.5111,
16.042740,0.2071,0.9510,-0.5447,0.0868,-0.1751,-3.6553,0.2677,-0.2422,-1.0006,
16.057532,0.2071,0.9510,-0.5447,-0.5980,-0.0361,-1.7970,0.2677,-0.2422,-1.0006,
16.077619,0.2071,0.9510,-0.5447,-1.3633,0.4524,0.4125,0.2677,-0.2422,-1.0006,
16.098529,0.2071,0.9510,-0.5447,-3.8286,0.1794,1.4863,0.2677,-0.2422,-1.0006,
16.107156,-0.2516,1.0297,-0.1347,-3.8286,0.1794,1.4863,0.2677,-0.2422,-1.0006,
16.108660,-0.2516,1.0297,-0.1347,-3.8286,0.1794,1.4863,0.3651,-0.5269,-0.4726,
16.118071,-0.2516,1.0297,-0.1347,-3.2986,0.2968,0.3295,0.3651,-0.5269,-0.4726,
16.137789,-0.2516,1.0297,-0.1347,-1.4474,-0.2089,-1.7339,0.3651,-0.5269,-0.4726,
16.157557,-0.2516,1.0297,-0.1347,1.2625,0.0518,-0.1855,0.3651,-0.5269,-0.4726,
16.173037,0.1757,0.9663,-0.3655,1.2625,0.0518,-0.1855,0.3651,-0.5269,-0.4726,
16.175288,0.1757,0.9663,-0.3655,1.2625,0.0518,-0.1855,0.2326,-0.2677,-0.2911,
16.177109,0.1757,0.9663,-0.3655,0.8143,0.0730,-1.0416,0.2326,-0.2677,-0.2911,
16.197973,0.1757,0.9663,-0.3655,-0.3198,0.0304,-0.0844,0.2326,-0.2677,-0.2911,
16.217607,0.1757,0.9663,-0.3655,-1.2679,-0.1801,-0.2722,0.2326,-0.2677,-0.2911,
16.237928,0.1757,0.9663,-0.3655,-0.8786,0.0522,-0.0679,0.2326,-0.2677,-0.2911,
16.240216,0.0037,0.9693,-0.2850,-0.8786,0.0522,-0.0679,0.2326,-0.2677,-0.2911,
16.241009,0.0037,0.9693,-0.2850,-0.8786,0.0522,-0.0679,0.1719,-0.2869,-0.1037,
16.257587,0.0037,0.9693,-0.2850,0.0994,0.0700,-0.3755,0.1719,-0.2869,-0.1037,
16.278029,0.0037,0.9693,-0.2850,0.4571,0.1167,-0.4408,0.1719,-0.2869,-0.1037,
16.299018,0.0037,0.9693,-0.2850,-0.1833,0.0441,-0.0101,0.1719,-0.2869,-0.1037,
16.305074,0.0036,0.9629,-0.3033,-0.1833,0.0441,-0.0101,0.1719,-0.2869,-0.1037,
16.306460,0.0036,0.9629,-0.3033,-0.1833,0.0441,-0.0101,0.1336,-0.2288,-0.1792,
16.317798,0.0036,0.9629,-0.3033,-0.3402,0.0206,-0.0605,0.1336,-0.2288,-0.1792,
16.339694,0.0036,0.9629,-0.3033,-0.0004,0.0275,-0.3054,0.1336,-0.2288,-0.1792,
16.357867,0.0036,0.9629,-0.3033,0.0302,0.0131,0.0015,0.1336,-0.2288,-0.1792,
16.371823,0.0191,0.9631,-0.2995,0.0302,0.0131,0.0015,0.1336,-0.2288,-0.1792,
16.374361,0.0191,0.9631,-0.2995,0.0302,0.0131,0.0015,0.1128,-0.2597,-0.1894,
16.377197,0.0191,0.9631,-0.2995,-0.3051,0.0573,-0.1826,0.1128,-0.2597,-0.1894,
16.397878,0.0191,0.9631,-0.2995,-0.4419,0.0230,-0.5343,0.1128,-0.2597,-0.1894,
16.417634,0.0191,0.9631,-0.2995,0.0980,-0.0323,-0.5396,0.1128,-0.2597,-0.1894,
16.437671,0.0673,0.9781,-0.3325,0.0980,-0.0323,-0.5396,0.1128,-0.2597,-0.1894,
16.440753,0.0673,0.9781,-0.3325,0.0980,-0.0323,-0.5396,0.0197,-0.2054,-0.2000,
16.441469,0.0673,0.9781,-0.3325,0.4197,0.1853,-0.4032,0.0197,-0.2054,-0.2000,
16.457643,0.0673,0.9781,-0.3325,0.3006,0.1663,-0.1239,0.0197,-0.2054,-0.2000,
16.477659,0.0673,0.9781,-0.3325,-0.2085,-0.0879,0.1352,0.0197,-0.2054,-0.2000,
16.498187,0.0673,0.9781,-0.3325,-0.4313,-0.1164,-0.6747,0.0197,-0.2054,-0.2000,
16.503520,0.0620,0.9754,-0.3357,-0.4313,-0.1164,-0.6747,0.0197,-0.2054,-0.2000,
16.504981,0.0620,0.9754,-0.3357,-0.4313,-0.1164,-0.6747,-0.0245,-0.1634,-0.2666,
16.520366,0.0620,0.9754,-0.3357,0.0520,0.0008,0.1868,-0.0245,-0.1634,-0.2666,
16.537558,0.0620,0.9754,-0.3357,1.3212,0.6789,0.3469,-0.0245,-0.1634,-0.2666,
16.557690,0.0620,0.9754,-0.3357,1.1699,0.2084,-0.6473,-0.0245,-0.1634,-0.2666,
16.569196,0.1403,1.0126,-0.2352,1.1699,0.2084,-0.6473,-0.0245,-0.1634,-0.2666,
16.572020,0.1403,1.0126,-0.2352,1.1699,0.2084,-0.6473,0.0031,-0.0835,-0.7233,
16.577518,0.1403,1.0126,-0.2352,0.6913,0.1191,0.1454,0.0031,-0.0835,-0.7233,
16.598135,0.1403,1.0126,-0.2352,2.5879,1.5586,0.2115,0.0031,-0.0835,-0.7233,
16.618445,0.1403,1.0126,-0.2352,1.7202,0.9476,-0.3439,0.0031,-0.0835,-0.7233,
16.635837,0.0361,1.0690,-0.2593,1.7202,0.9476,-0.3439,0.0031,-0.0835,-0.7233,
16.638756,0.0361,1.0690,-0.2593,1.7202,0.9476,-0.3439,0.0947,-0.2230,-1.2200,
16.640347,0.0361,1.0690,-0.2593,1.1704,1.1456,0.4128,0.0947,-0.2230,-1.2200,
16.657837,0.0361,1.0690,-0.2593,1.0335,0.7005,-0.1340,0.0947,-0.2230,-1.2200,
16.678180,0.0361,1.0690,-0.2593,1.1751,1.2547,-0.0950,0.0947,-0.2230,-1.2200,
16.697470,0.0361,1.0690,-0.2593,1.4360,1.9322,-0.4629,0.0947,-0.2230,-1.2200,
16.701424,-0.0309,1.1071,-0.3267,1.4360,1.9322,-0.4629,0.0947,-0.2230,-1.2200,
16.703081,-0.0309,1.1071,-0.3267,1.4360,1.9322,-0.4629,-0.0043,-0.2459,-1.3882,
16.718257,-0.0309,1.1071,-0.3267,1.4456,0.9983,-0.2849,-0.0043,-0.2459,-1.3882,
16.737868,-0.0309,1.1071,-0.3267,2.4938,1.5417,-0.2848,-0.0043,-0.2459,-1.3882,
16.758286,-0.0309,1.1071,-0.3267,2.6971,1.7701,-0.5449,-0.0043,-0.2459,-1.3882,
16.768747,0.0274,1.1103,-0.3487,2.6971,1.7701,-0.5449,-0.0043,-0.2459,-1.3882,
16.771845,0.0274,1.1103,-0.3487,2.6971,1.7701,-0.5449,-0.1187,-0.2422,-1.7949,
16.777436,0.0274,1.1103,-0.3487,3.1431,1.9266,-0.3790,-0.1187,-0.2422,-1.7949,
16.797636,0.0274,1.1103,-0.3487,4.1071,2.3340,0.2487,-0.1187,-0.2422,-1.7949,
16.817846,0.0274,1.1103,-0.3487,4.8181,1.9211,0.8644,-0.1187,-0.2422,-1.7949,
16.835511,0.1276,1.0743,-0.2130,4.8181,1.9211,0.8644,-0.1187,-0.2422,-1.7949,
16.839530,0.1276,1.0743,-0.2130,4.8181,1.9211,0.8644,0.2448,-0.4466,-2.6530,
16.841309,0.1276,1.0743,-0.2130,5.1657,1.9467,0.7612,0.2448,-0.4466,-2.6530,
16.857696,0.1276,1.0743,-0.2130,5.6346,1.6333,0.4036,0.2448,-0.4466,-2.6530,
16.877671,0.1276,1.0743,-0.2130,3.3791,4.0238,-0.4915,0.2448,-0.4466,-2.6530,
16.898007,0.1276,1.0743,-0.2130,1.5690,1.7473,-0.7330,0.2448,-0.4466,-2.6530,
16.901719,-0.4198,0.9329,-0.3541,1.5690,1.7473,-0.7330,0.2448,-0.4466,-2.6530,
16.903420,-0.4198,0.9329,-0.3541,1.5690,1.7473,-0.7330,0.2358,-0.8027,-3.3237,
16.917745,-0.4198,0.9329,-0.3541,2.5359,1.5812,-0.3835,0.2358,-0.8027,-3.3237,
16.937865,-0.4198,0.9329,-0.3541,3.8730,0.6580,-1.5228,0.2358,-0.8027,-3.3237,
16.957890,-0.4198,0.9329,-0.3541,1.7356,-3.4939,-0.7418,0.2358,-0.8027,-3.3237,
16.967733,-0.5199,0.2398,-0.3586,1.7356,-3.4939,-0.7418,0.2358,-0.8027,-3.3237,
16.970773,-0.5199,0.2398,-0.3586,1.7356,-3.4939,-0.7418,-0.3743,0.0256,-1.1763,
16.977728,-0.5199,0.2398,-0.3586,-0.2723,-8.5316,-1.0266,-0.3743,0.0256,-1.1763,
16.998240,-0.5199,0.2398,-0.3586,-7.1347,-1.6695,0.9380,-0.3743,0.0256,-1.1763,
17.018007,-0.5199,0.2398,-0.3586,-3.0952,-2.3644,0.7950,-0.3743,0.0256,-1.1763,
17.031306,-0.9780,0.3688,-0.1857,-3.0952,-2.3644,0.7950,-0.3743,0.0256,-1.1763,
17.033690,-0.9780,0.3688,-0.1857,-3.0952,-2.3644,0.7950,-1.0641,1.0173,1.6764,
17.038514,-0.9780,0.3688,-0.1857,-2.2010,-2.4214,0.6992,-1.0641,1.0173,1.6764,
17.058053,-0.9780,0.3688,-0.1857,-1.7723,-2.9669,0.8511,-1.0641,1.0173,1.6764,
17.078222,-0.9780,0.3688,-0.1857,3.7730,-4.5314,0.0881,-1.0641,1.0173,1.6764,
17.097450,0.2037,0.4250,-0.0706,3.7730,-4.5314,0.0881,-1.0641,1.0173,1.6764,
17.100679,0.2037,0.4250,-0.0706,3.7730,-4.5314,0.0881,-1.5321,1.3607,3.8664,
17.102053,0.2037,0.4250,-0.0706,7.4556,-3.5058,1.8225,-1.5321,1.3607,3.8664,
17.117932,0.2037,0.4250,-0.0706,8.9909,-2.2178,1.2948,-1.5321,1.3607,3.8664,
17.137639,0.2037,0.4250,-0.0706,7.7023,-0.3429,0.6740,-1.5321,1.3607,3.8664,
17.158150,0.2037,0.4250,-0.0706,1.1090,-0.1903,-0.6383,-1.5321,1.3607,3.8664,
17.162990,-0.4431,0.9056,-0.3308,1.1090,-0.1903,-0.6383,-1.5321,1.3607,3.8664,
17.164279,-0.4431,0.9056,-0.3308,1.1090,-0.1903,-0.6383,-1.5246,1.6502,2.8624,
17.177769,-0.4431,0.9056,-0.3308,-1.2335,0.4300,-0.9915,-1.5246,1.6502,2.8624,
17.197724,-0.4431,0.9056,-0.3308,0.7109,1.1618,-0.7136,-1.5246,1.6502,2.8624,
17.218685,-0.4431,0.9056,-0.3308,2.4638,2.4415,0.2203,-1.5246,1.6502,2.8624,
17.229211,0.0666,1.2201,-0.1166,2.4638,2.4415,0.2203,-1.5246,1.6502,2.8624,
17.231035,0.0666,1.2201,-0.1166,2.4638,2.4415,0.2203,-1.1791,2.7367,2.6564,
17.238322,0.0666,1.2201,-0.1166,2.3107,2.2813,0.3929,-1.1791,2.7367,2.6564,
17.258024,0.0666,1.2201,-0.1166,3.1166,2.7869,-0.2745,-1.1791,2.7367,2.6564,
17.277716,0.0666,1.2201,-0.1166,1.7646,3.4636,-2.6048,-1.1791,2.7367,2.6564,
17.296056,-0.1542,1.3097,-0.6298,1.7646,3.4636,-2.6048,-1.1791,2.7367,2.6564,
17.298663,-0.1542,1.3097,-0.6298,1.7646,3.4636,-2.6048,-0.6660,4.8442,1.0403,
17.301086,-0.1542,1.3097,-0.6298,-1.5099,3.0950,-4.9514,-0.6660,4.8442,1.0403,
17.319523,-0.1542,1.3097,-0.6298,-1.9502,1.8771,-5.5485,-0.6660,4.8442,1.0403,
17.337644,-0.1542,1.3097,-0.6298,-2.2242,0.8621,-6.1429,-0.6660,4.8442,1.0403,
17.357584,-0.1542,1.3097,-0.6298,-1.9937,1.2591,-6.6544,-0.6660,4.8442,1.0403,
17.361057,-0.0866,1.0901,-0.7682,-1.9937,1.2591,-6.6544,-0.6660,4.8442,1.0403,
17.362264,-0.0866,1.0901,-0.7682,-1.9937,1.2591,-6.6544,-0.5734,3.8301,0.1023,
17.377627,-0.0866,1.0901,-0.7682,-1.6408,-0.3143,-6.4134,-0.5734,3.8301,0.1023,
17.398043,-0.0866,1.0901,-0.7682,-4.7456,-1.0764,-4.9853,-0.5734,3.8301,0.1023,
17.418766,-0.0866,1.0901,-0.7682,-6.5071,-1.4463,-4.2988,-0.5734,3.8301,0.1023,
17.427160,-0.5685,0.8749,-0.4248,-6.5071,-1.4463,-4.2988,-0.5734,3.8301,0.1023,
17.428802,-0.5685,0.8749,-0.4248,-6.5071,-1.4463,-4.2988,0.0005,2.5030,-0.1393,
17.437962,-0.5685,0.8749,-0.4248,-5.1769,-0.8817,-3.5470,0.0005,2.5030,-0.1393,
17.459312,-0.5685,0.8749,-0.4248,-2.5427,-0.9422,-3.4680,0.0005,2.5030,-0.1393,
17.477918,-0.5685,0.8749,-0.4248,-0.9430,-1.0905,-3.5242,0.0005,2.5030,-0.1393,
17.493770,-0.0546,0.8985,-0.4654,-0.9430,-1.0905,-3.5242,0.0005,2.5030,-0.1393,
17.497724,-0.0546,0.8985,-0.4654,-0.9430,-1.0905,-3.5242,0.5844,2.3960,-0.6402,
17.499509,-0.0546,0.8985,-0.4654,-1.2124,-0.7402,-4.4889,0.5844,2.3960,-0.6402,
17.518163,-0.0546,0.8985,-0.4654,-2.0957,-0.4008,-2.5532,0.5844,2.3960,-0.6402,
17.537594,-0.0546,0.8985,-0.4654,0.3853,0.6390,0.6887,0.5844,2.3960,-0.6402,
17.558285,-0.0546,0.8985,-0.4654,1.0004,0.0711,1.5903,0.5844,2.3960,-0.6402,
17.561004,0.1557,1.0467,0.0829,1.0004,0.0711,1.5903,0.5844,2.3960,-0.6402,
17.561790,0.1557,1.0467,0.0829,1.0004,0.0711,1.5903,0.3130,1.4256,-0.3187,
17.577627,0.1557,1.0467,0.0829,0.9320,2.6806,-1.6605,0.3130,1.4256,-0.3187,
17.597714,0.1557,1.0467,0.0829,-4.4935,0.6437,-1.0056,0.3130,1.4256,-0.3187,
17.617859,0.1557,1.0467,0.0829,-8.3751,-0.2161,1.0543,0.3130,1.4256,-0.3187,
17.625044,-0.5390,1.1321,-0.2346,-8.3751,-0.2161,1.0543,0.3130,1.4256,-0.3187,
17.626656,-0.5390,1.1321,-0.2346,-8.3751,-0.2161,1.0543,0.6371,0.2188,-0.0014,
17.638335,-0.5390,1.1321,-0.2346,-1.3291,1.0004,-2.8651,0.6371,0.2188,-0.0014,
17.658281,-0.5390,1.1321,-0.2346,1.8188,-0.0988,-0.6060,0.6371,0.2188,-0.0014,
17.677756,-0.5390,1.1321,-0.2346,0.0413,0.0950,-1.0614,0.6371,0.2188,-0.0014,
17.691567,-0.0868,0.9828,-0.1054,0.0413,0.0950,-1.0614,0.6371,0.2188,-0.0014,
17.694130,-0.0868,0.9828,-0.1054,0.0413,0.0950,-1.0614,0.2693,0.1714,-0.0137,
17.697360,-0.0868,0.9828,-0.1054,-0.7458,-0.1234,0.3748,0.2693,0.1714,-0.0137,
17.718426,-0.0868,0.9828,-0.1054,-0.9856,0.1671,0.5464,0.2693,0.1714,-0.0137,
17.740635,-0.0868,0.9828,-0.1054,-0.1537,-0.3346,0.1634,0.2693,0.1714,-0.0137,
17.757533,0.0827,0.9916,-0.1400,-0.1537,-0.3346,0.1634,0.2693,0.1714,-0.0137,
17.760525,0.0827,0.9916,-0.1400,-0.1537,-0.3346,0.1634,0.3758,-0.0409,0.0704,
17.761956,0.0827,0.9916,-0.1400,0.8685,-0.0026,0.0342,0.3758,-0.0409,0.0704,
17.777690,0.0827,0.9916,-0.1400,0.3450,0.2327,-0.5300,0.3758,-0.0409,0.0704,
17.798050,0.0827,0.9916,-0.1400,-0.4519,-0.1592,-0.9607,0.3758,-0.0409,0.0704,
17.818016,0.0827,0.9916,-0.1400,0.3153,0.2129,-0.0745,0.3758,-0.0409,0.0704,
17.823244,-0.0057,0.9953,-0.1745,0.3153,0.2129,-0.0745,0.3758,-0.0409,0.0704,
17.824869,-0.0057,0.9953,-0.1745,0.3153,0.2129,-0.0745,0.2762,0.1352,-0.0329,
17.837697,-0.0057,0.9953,-0.1745,-0.3901,-0.0726,-0.2844,0.2762,0.1352,-0.0329,
17.857843,-0.0057,0.9953,-0.1745,-0.0388,0.1604,-0.1887,0.2762,0.1352,-0.0329,
17.878184,-0.0057,0.9953,-0.1745,0.0627,-0.0774,-0.7045,0.2762,0.1352,-0.0329,
17.889291,0.0044,0.9938,-0.2030,0.0627,-0.0774,-0.7045,0.2762,0.1352,-0.0329,
17.892611,0.0044,0.9938,-0.2030,0.0627,-0.0774,-0.7045,0.1442,0.1464,-0.0478,
17.897473,0.0044,0.9938,-0.2030,-0.1448,-0.0131,-0.1233,0.1442,0.1464,-0.0478,
17.917636,0.0044,0.9938,-0.2030,-0.3751,-0.0082,0.1105,0.1442,0.1464,-0.0478,
17.937621,0.0044,0.9938,-0.2030,0.0535,0.0653,-0.2536,0.1442,0.1464,-0.0478,
17.955882,0.0652,0.9788,-0.1782,0.0535,0.0653,-0.2536,0.1442,0.1464,-0.0478,
17.958711,0.0652,0.9788,-0.1782,0.0535,0.0653,-0.2536,0.1059,0.1076,-0.0547,
17.960234,0.0652,0.9788,-0.1782,0.6957,-0.0668,0.0198,0.1059,0.1076,-0.0547,
17.977784,0.0652,0.9788,-0.1782,0.6528,0.0051,-0.1087,0.1059,0.1076,-0.0547,
17.997715,0.0652,0.9788,-0.1782,0.2942,0.0683,0.0312,0.1059,0.1076,-0.0547,
18.017709,0.0652,0.9788,-0.1782,-0.0035,-0.0842,-0.6834,0.1059,0.1076,-0.0547,
18.022376,-0.0106,0.9794,-0.2676,-0.0035,-0.0842,-0.6834,0.1059,0.1076,-0.0547,
18.024345,-0.0106,0.9794,-0.2676,-0.0035,-0.0842,-0.6834,0.0574,0.0889,-0.2096,
18.037769,-0.0106,0.9794,-0.2676,-0.4668,-0.0022,-0.4716,0.0574,0.0889,-0.2096,
18.057773,-0.0106,0.9794,-0.2676,-0.4725,-0.0396,0.4459,0.0574,0.0889,-0.2096,
18.077711,-0.0106,0.9794,-0.2676,-0.1128,0.0206,0.4313,0.0574,0.0889,-0.2096,
18.087860,-0.0561,0.9937,-0.1985,-0.1128,0.0206,0.4313,0.0574,0.0889,-0.2096,
18.091152,-0.0561,0.9937,-0.1985,-0.1128,0.0206,0.4313,0.0463,0.0256,-0.1324,
18.097801,-0.0561,0.9937,-0.1985,-0.4601,0.1014,-0.5109,0.0463,0.0256,-0.1324,
18.120348,-0.0561,0.9937,-0.1985,-0.0765,0.0543,-1.3276,0.0463,0.0256,-0.1324,
18.138536,-0.0561,0.9937,-0.1985,0.5971,0.0431,-0.0039,0.0463,0.0256,-0.1324,
18.155481,-0.0624,0.9891,-0.1469,0.5971,0.0431,-0.0039,0.0463,0.0256,-0.1324,
18.159341,-0.0624,0.9891,-0.1469,0.5971,0.0431,-0.0039,-0.0751,0.0410,-0.1771,
18.161338,-0.0624,0.9891,-0.1469,-0.4146,0.0405,0.3800,-0.0751,0.0410,-0.1771,
18.177722,-0.0624,0.9891,-0.1469,-1.2164,-0.0786,-0.2225,-0.0751,0.0410,-0.1771,
18.198122,-0.0624,0.9891,-0.1469,0.0290,0.0065,-1.3781,-0.0751,0.0410,-0.1771,
18.217832,-0.0624,0.9891,-0.1469,1.0482,0.0589,0.5385,-0.0751,0.0410,-0.1771,
18.221325,0.0554,0.9988,-0.1284,1.0482,0.0589,0.5385,-0.0751,0.0410,-0.1771,
18.222455,0.0554,0.9988,-0.1284,1.0482,0.0589,0.5385,-0.1762,-0.0122,-0.1574,
18.239020,0.0554,0.9988,-0.1284,-0.8783,-0.0836,0.2880,-0.1762,-0.0122,-0.1574,
18.258757,0.0554,0.9988,-0.1284,-0.7631,-0.0589,-0.0878,-0.1762,-0.0122,-0.1574,
18.278148,0.0554,0.9988,-0.1284,0.5543,0.1708,-1.1700,-0.1762,-0.0122,-0.1574,
18.285088,0.1167,1.0011,-0.1567,0.5543,0.1708,-1.1700,-0.1762,-0.0122,-0.1574,
18.287119,0.1167,1.0011,-0.1567,0.5543,0.1708,-1.1700,-0.2715,0.0506,-0.1430,
18.297673,0.1167,1.0011,-0.1567,0.2828,-0.0146,-0.0149,-0.2715,0.0506,-0.1430,
18.317544,0.1167,1.0011,-0.1567,-0.6500,-0.2966,0.1313,-0.2715,0.0506,-0.1430,
18.338405,0.1167,1.0011,-0.1567,-1.0243,-0.0496,-0.0548,-0.2715,0.0506,-0.1430,
18.351339,-0.0859,0.9778,-0.1829,-1.0243,-0.0496,-0.0548,-0.2715,0.0506,-0.1430,
18.353333,-0.0859,0.9778,-0.1829,-1.0243,-0.0496,-0.0548,-0.4525,0.0820,-0.0334,
18.358081,-0.0859,0.9778,-0.1829,-0.6082,-0.2576,-0.5662,-0.4525,0.0820,-0.0334,
18.377757,-0.0859,0.9778,-0.1829,0.4698,0.2104,-1.2315,-0.4525,0.0820,-0.0334,
18.397671,-0.0859,0.9778,-0.1829,1.1773,0.2826,-0.4621,-0.4525,0.0820,-0.0334,
18.417171,0.0328,1.0341,-0.1381,1.1773,0.2826,-0.4621,-0.4525,0.0820,-0.0334,
18.420431,0.0328,1.0341,-0.1381,1.1773,0.2826,-0.4621,-0.7261,0.0506,-0.2389,
18.421882,0.0328,1.0341,-0.1381,0.8606,0.3853,-0.2373,-0.7261,0.0506,-0.2389,
18.438446,0.0328,1.0341,-0.1381,0.9154,0.6084,-1.2216,-0.7261,0.0506,-0.2389,
18.457620,0.0328,1.0341,-0.1381,0.6918,0.0490,-0.0177,-0.7261,0.0506,-0.2389,
18.478009,0.0328,1.0341,-0.1381,0.8142,0.7196,0.4241,-0.7261,0.0506,-0.2389,
18.482956,0.0030,1.0579,-0.0067,0.8142,0.7196,0.4241,-0.7261,0.0506,-0.2389,
18.484268,0.0030,1.0579,-0.0067,0.8142,0.7196,0.4241,-0.8411,0.0900,-0.5492,
18.497649,0.0030,1.0579,-0.0067,0.3761,1.0512,-0.6640,-0.8411,0.0900,-0.5492,
18.518094,0.0030,1.0579,-0.0067,2.5056,1.4444,0.2968,-0.8411,0.0900,-0.5492,
18.538486,0.0030,1.0579,-0.0067,1.4922,1.1886,-1.0629,-0.8411,0.0900,-0.5492,
18.548784,0.0077,1.0831,-0.0229,1.4922,1.1886,-1.0629,-0.8411,0.0900,-0.5492,
18.550403,0.0077,1.0831,-0.0229,1.4922,1.1886,-1.0629,-1.0115,0.1017,-0.8297,
18.557701,0.0077,1.0831,-0.0229,1.1394,0.8903,-0.2982,-1.0115,0.1017,-0.8297,
18.578166,0.0077,1.0831,-0.0229,1.3065,1.7187,-1.8348,-1.0115,0.1017,-0.8297,
18.599367,0.0077,1.0831,-0.0229,2.0669,2.1472,-2.0696,-1.0115,0.1017,-0.8297,
18.615901,0.0712,1.1248,-0.0917,2.0669,2.1472,-2.0696,-1.0115,0.1017,-0.8297,
18.618500,0.0712,1.1248,-0.0917,2.0669,2.1472,-2.0696,-0.9753,-0.0164,-1.2354,
18.619922,0.0712,1.1248,-0.0917,2.3732,1.3863,-1.5656,-0.9753,-0.0164,-1.2354,
18.638720,0.0712,1.1248,-0.0917,1.8805,2.3517,-2.0781,-0.9753,-0.0164,-1.2354,
18.657709,0.0712,1.1248,-0.0917,0.6008,2.5239,-2.8556,-0.9753,-0.0164,-1.2354,
18.678465,0.0712,1.1248,-0.0917,0.8758,1.8428,-3.1861,-0.9753,-0.0164,-1.2354,
18.682076,-0.1171,1.0984,-0.1905,0.8758,1.8428,-3.1861,-0.9753,-0.0164,-1.2354,
18.683081,-0.1171,1.0984,-0.1905,0.8758,1.8428,-3.1861,-0.7261,0.6213,-1.3775,
18.697650,-0.1171,1.0984,-0.1905,2.2457,-1.1474,-0.9811,-0.7261,0.6213,-1.3775,
18.718740,-0.1171,1.0984,-0.1905,0.1213,-3.4408,2.4058,-0.7261,0.6213,-1.3775,
18.739230,-0.1171,1.0984,-0.1905,-2.0501,-1.2630,-4.2811,-0.7261,0.6213,-1.3775,
18.748827,0.0064,0.8184,-0.4621,-2.0501,-1.2630,-4.2811,-0.7261,0.6213,-1.3775,
18.750466,0.0064,0.8184,-0.4621,-2.0501,-1.2630,-4.2811,-0.6724,7.0054,-0.1143,
18.758179,0.0064,0.8184,-0.4621,7.3064,-1.3607,-3.2509,-0.6724,7.0054,-0.1143,
18.777773,0.0064,0.8184,-0.4621,8.4355,-1.7812,-3.2690,-0.6724,7.0054,-0.1143,
18.798144,0.0064,0.8184,-0.4621,4.8280,-2.2704,-6.6115,-0.6724,7.0054,-0.1143,
18.813389,-0.1291,0.6788,-0.6183,4.8280,-2.2704,-6.6115,-0.6724,7.0054,-0.1143,
18.816489,-0.1291,0.6788,-0.6183,4.8280,-2.2704,-6.6115,-0.4030,5.2184,-0.3331,
18.823217,-0.1291,0.6788,-0.6183,2.3565,-2.2458,-5.6566,-0.4030,5.2184,-0.3331,
18.839676,-0.1291,0.6788,-0.6183,1.1701,-1.1718,-6.3376,-0.4030,5.2184,-0.3331,
18.857676,-0.1291,0.6788,-0.6183,1.2353,-0.4387,-5.5143,-0.4030,5.2184,-0.3331,
18.877977,-0.1291,0.6788,-0.6183,1.4900,-0.5463,-4.3925,-0.4030,5.2184,-0.3331,
18.881026,-0.2135,0.8673,-0.5405,1.4900,-0.5463,-4.3925,-0.4030,5.2184,-0.3331,
18.882071,-0.2135,0.8673,-0.5405,1.4900,-0.5463,-4.3925,-0.8150,2.8379,0.9663,
18.897657,-0.2135,0.8673,-0.5405,1.3763,-0.8341,-3.1217,-0.8150,2.8379,0.9663,
18.917978,-0.2135,0.8673,-0.5405,1.7840,-0.8840,-1.9761,-0.8150,2.8379,0.9663,
18.938595,-0.2135,0.8673,-0.5405,2.3956,-0.3899,-1.6445,-0.8150,2.8379,0.9663,
18.945069,-0.0037,0.9457,-0.2795,2.3956,-0.3899,-1.6445,-0.8150,2.8379,0.9663,
18.946403,-0.0037,0.9457,-0.2795,2.3956,-0.3899,-1.6445,-0.3982,2.5270,1.7217,
18.957551,-0.0037,0.9457,-0.2795,2.3044,0.1204,-1.5601,-0.3982,2.5270,1.7217,
18.977780,-0.0037,0.9457,-0.2795,0.7110,0.3999,-1.8575,-0.3982,2.5270,1.7217,
18.999271,-0.0037,0.9457,-0.2795,-0.3795,0.3664,-1.9326,-0.3982,2.5270,1.7217,
19.011092,-0.1117,1.0240,-0.3190,-0.3795,0.3664,-1.9326,-0.3982,2.5270,1.7217,
19.013891,-0.1117,1.0240,-0.3190,-0.3795,0.3664,-1.9326,-0.0384,2.9135,2.2609,
19.017556,-0.1117,1.0240,-0.3190,0.2350,0.4500,-1.8073,-0.0384,2.9135,2.2609,
19.037694,-0.1117,1.0240,-0.3190,0.9383,1.1290,-2.6111,-0.0384,2.9135,2.2609,
19.057540,-0.1117,1.0240,-0.3190,1.2214,2.2138,-2.8905,-0.0384,2.9135,2.2609,
19.078530,-0.0632,1.2366,-0.4491,1.2214,2.2138,-2.8905,-0.0384,2.9135,2.2609,
19.081203,-0.0632,1.2366,-0.4491,1.2214,2.2138,-2.8905,0.0053,1.5315,1.7153,
19.082005,-0.0632,1.2366,-0.4491,-0.7323,2.4857,-2.9488,0.0053,1.5315,1.7153,
19.097699,-0.0632,1.2366,-0.4491,-4.2994,1.9879,-2.8595,0.0053,1.5315,1.7153,
19.117721,-0.0632,1.2366,-0.4491,-2.8518,1.8838,-2.0889,0.0053,1.5315,1.7153,
19.139385,-0.0632,1.2366,-0.4491,-6.7661,0.7904,-0.5981,0.0053,1.5315,1.7153,
19.143266,-0.5276,1.0866,-0.2108,-6.7661,0.7904,-0.5981,0.0053,1.5315,1.7153,
