
time,gFx,gFy,gFz,ax,ay,az,wx,wy,wz,
0.019393,0.1724,0.9785,0.0128,0.0000,0.0000,0.0000,0.0000,0.0000,0.0000,
0.046767,0.1724,0.9785,0.0128,0.4761,0.1233,-0.2430,0.0000,0.0000,0.0000,
0.059635,0.1724,0.9785,0.0128,0.4761,0.1233,-0.2430,0.0000,0.0000,0.0000,
0.081294,0.1724,0.9785,0.0128,-0.0200,-0.1537,0.0067,0.0000,0.0000,0.0000,
0.082026,0.1488,0.9847,-0.0453,-0.0200,-0.1537,0.0067,0.0000,0.0000,0.0000,
0.082567,0.1488,0.9847,-0.0453,-0.0200,-0.1537,0.0067,0.0141,-0.0220,0.0518,
0.101235,0.1488,0.9847,-0.0453,0.6915,0.0499,0.1077,0.0141,-0.0220,0.0518,
0.121557,0.1488,0.9847,-0.0453,0.2756,-0.0204,0.4754,0.0141,-0.0220,0.0518,
0.141619,0.1488,0.9847,-0.0453,0.2711,-0.1602,0.4106,0.0141,-0.0220,0.0518,
0.148978,0.2185,0.9653,0.0222,0.2711,-0.1602,0.4106,0.0141,-0.0220,0.0518,
0.149968,0.2185,0.9653,0.0222,0.2711,-0.1602,0.4106,0.0535,-0.0023,0.0225,
0.160891,0.2185,0.9653,0.0222,0.2655,0.0653,0.6414,0.0535,-0.0023,0.0225,
0.180782,0.2185,0.9653,0.0222,0.8532,-0.2224,-0.1661,0.0535,-0.0023,0.0225,
0.201379,0.2185,0.9653,0.0222,0.1185,0.0041,0.0784,0.0535,-0.0023,0.0225,
0.214477,0.1893,0.9753,-0.0099,0.1185,0.0041,0.0784,0.0535,-0.0023,0.0225,
0.215839,0.1893,0.9753,-0.0099,0.1185,0.0041,0.0784,0.0610,0.0205,-0.0690,
0.221201,0.1893,0.9753,-0.0099,-0.0093,-0.0918,-0.0645,0.0610,0.0205,-0.0690,
0.240864,0.1893,0.9753,-0.0099,-0.1053,-0.0332,-0.3014,0.0610,0.0205,-0.0690,
0.261309,0.1893,0.9753,-0.0099,-0.0728,-0.0752,-0.4929,0.0610,0.0205,-0.0690,
0.280685,0.2007,0.9870,-0.0460,-0.0728,-0.0752,-0.4929,0.0610,0.0205,-0.0690,
0.282532,0.2007,0.9870,-0.0460,-0.0728,-0.0752,-0.4929,-0.0838,-0.0087,-0.0573,
0.283245,0.2007,0.9870,-0.0460,0.1046,0.0581,-0.1303,-0.0838,-0.0087,-0.0573,
0.301920,0.2007,0.9870,-0.0460,-0.1341,0.0215,0.3907,-0.0838,-0.0087,-0.0573,
0.321307,0.2007,0.9870,-0.0460,-0.0875,-0.0622,0.6664,-0.0838,-0.0087,-0.0573,
0.342167,0.2007,0.9870,-0.0460,0.1621,-0.1331,0.1832,-0.0838,-0.0087,-0.0573,
0.347561,0.1649,0.9656,-0.0186,0.1621,-0.1331,0.1832,-0.0838,-0.0087,-0.0573,
0.349375,0.1649,0.9656,-0.0186,0.1621,-0.1331,0.1832,-0.0354,-0.0156,-0.0243,
0.361586,0.1649,0.9656,-0.0186,-0.3039,-0.0678,-0.1234,-0.0354,-0.0156,-0.0243,
0.381995,0.1649,0.9656,-0.0186,0.4026,-0.0669,0.2571,-0.0354,-0.0156,-0.0243,
0.401153,0.1649,0.9656,-0.0186,-0.4190,0.0281,0.3187,-0.0354,-0.0156,-0.0243,
0.412585,0.1621,0.9767,0.0053,-0.4190,0.0281,0.3187,-0.0354,-0.0156,-0.0243,
0.414884,0.1621,0.9767,0.0053,-0.4190,0.0281,0.3187,-0.0412,0.0014,0.0337,
0.421636,0.1621,0.9767,0.0053,0.1016,-0.0708,0.2645,-0.0412,0.0014,0.0337,
0.442872,0.1621,0.9767,0.0053,0.7593,-0.0266,-0.1155,-0.0412,0.0014,0.0337,
0.462110,0.1621,0.9767,0.0053,0.5474,-0.0810,0.2359,-0.0412,0.0014,0.0337,
0.479338,0.2236,1.1089,0.1175,0.5474,-0.0810,0.2359,-0.0412,0.0014,0.0337,
0.481444,0.2236,1.1089,0.1175,0.5474,-0.0810,0.2359,0.0258,-0.0013,-0.1840,
0.482657,0.2236,1.1089,0.1175,0.3591,1.2195,1.2202,0.0258,-0.0013,-0.1840,
0.501081,0.2236,1.1089,0.1175,1.4284,0.2859,0.5273,0.0258,-0.0013,-0.1840,
0.521282,0.2236,1.1089,0.1175,1.2580,0.2676,0.4577,0.0258,-0.0013,-0.1840,
0.541950,0.2236,1.1089,0.1175,0.0203,-0.1496,0.6716,0.0258,-0.0013,-0.1840,
0.545438,0.1968,0.9216,-0.0163,0.0203,-0.1496,0.6716,0.0258,-0.0013,-0.1840,
0.546901,0.1968,0.9216,-0.0163,0.0203,-0.1496,0.6716,0.2664,0.0647,-0.6726,
0.563321,0.1968,0.9216,-0.0163,0.3726,0.3523,0.2574,0.2664,0.0647,-0.6726,
0.581136,0.1968,0.9216,-0.0163,-0.1666,-0.3914,-0.3508,0.2664,0.0647,-0.6726,
0.601717,0.1968,0.9216,-0.0163,-0.8123,-0.1557,0.1403,0.2664,0.0647,-0.6726,
0.610948,0.1285,0.9930,-0.0398,-0.8123,-0.1557,0.1403,0.2664,0.0647,-0.6726,
0.613451,0.1285,0.9930,-0.0398,-0.8123,-0.1557,0.1403,0.2872,0.0791,-0.6828,
0.622168,0.1285,0.9930,-0.0398,0.5435,0.0745,0.0620,0.2872,0.0791,-0.6828,
0.642951,0.1285,0.9930,-0.0398,-0.6539,-0.1168,-0.0161,0.2872,0.0791,-0.6828,
0.662024,0.1285,0.9930,-0.0398,-0.6258,-0.3263,-0.6231,0.2872,0.0791,-0.6828,
0.677493,-0.0187,0.9729,-0.1204,-0.6258,-0.3263,-0.6231,0.2872,0.0791,-0.6828,
0.680501,-0.0187,0.9729,-0.1204,-0.6258,-0.3263,-0.6231,0.1552,0.1366,-0.5646,
0.681859,-0.0187,0.9729,-0.1204,-0.9645,-0.2878,-0.9249,0.1552,0.1366,-0.5646,
0.701794,-0.0187,0.9729,-0.1204,-1.3913,-0.2275,-0.8075,0.1552,0.1366,-0.5646,
0.721613,-0.0187,0.9729,-0.1204,-0.9260,-0.2621,-1.3010,0.1552,0.1366,-0.5646,
0.743197,-0.0187,0.9729,-0.1204,-0.0914,0.1562,-0.0150,0.1552,0.1366,-0.5646,
0.745843,0.0315,1.0100,-0.0289,-0.0914,0.1562,-0.0150,0.1552,0.1366,-0.5646,
0.747482,0.0315,1.0100,-0.0289,-0.0914,0.1562,-0.0150,-0.1301,0.0072,-0.2388,
0.761193,0.0315,1.0100,-0.0289,0.2101,0.0844,0.2415,-0.1301,0.0072,-0.2388,
0.781669,0.0315,1.0100,-0.0289,0.1017,0.2386,0.1108,-0.1301,0.0072,-0.2388,
0.801422,0.0315,1.0100,-0.0289,-0.6619,-0.0582,-0.0790,-0.1301,0.0072,-0.2388,
0.811048,-0.0717,0.9842,-0.0645,-0.6619,-0.0582,-0.0790,-0.1301,0.0072,-0.2388,
0.813360,-0.0717,0.9842,-0.0645,-0.6619,-0.0582,-0.0790,-0.1573,0.0653,-0.1648,
0.821751,-0.0717,0.9842,-0.0645,-0.8964,-0.0702,-0.6189,-0.1573,0.0653,-0.1648,
0.843519,-0.0717,0.9842,-0.0645,-0.7263,-0.2090,-0.8055,-0.1573,0.0653,-0.1648,
0.861943,-0.0717,0.9842,-0.0645,-1.0845,0.1131,-0.8707,-0.1573,0.0653,-0.1648,
0.878705,-0.0955,1.0933,-0.1373,-1.0845,0.1131,-0.8707,-0.1573,0.0653,-0.1648,
0.880894,-0.0955,1.0933,-0.1373,-1.0845,0.1131,-0.8707,-0.4596,-0.0268,0.2083,
0.882620,-0.0955,1.0933,-0.1373,-1.1011,1.1806,-1.1239,-0.4596,-0.0268,0.2083,
0.901635,-0.0955,1.0933,-0.1373,-1.8786,2.9250,-0.4981,-0.4596,-0.0268,0.2083,
0.921417,-0.0955,1.0933,-0.1373,-6.4491,4.8764,-1.1523,-0.4596,-0.0268,0.2083,
0.944230,-0.5011,1.0391,-0.1092,-6.4491,4.8764,-1.1523,-0.4596,-0.0268,0.2083,
0.947905,-0.5011,1.0391,-0.1092,-6.4491,4.8764,-1.1523,0.1307,-1.8378,1.0680,
0.949525,-0.5011,1.0391,-0.1092,-5.4679,0.7704,-1.1088,0.1307,-1.8378,1.0680,
0.961601,-0.5011,1.0391,-0.1092,-3.0280,-1.4489,-0.1700,0.1307,-1.8378,1.0680,
0.981470,-0.5011,1.0391,-0.1092,-1.8105,-0.7645,-0.3475,0.1307,-1.8378,1.0680,
1.001629,-0.5011,1.0391,-0.1092,-5.4459,0.1611,-0.6446,0.1307,-1.8378,1.0680,
1.006944,-0.4840,1.0837,-0.1283,-5.4459,0.1611,-0.6446,0.1307,-1.8378,1.0680,
1.010052,-0.4840,1.0837,-0.1283,-5.4459,0.1611,-0.6446,0.2766,-2.4265,0.3829,
1.022154,-0.4840,1.0837,-0.1283,-4.3094,0.9672,-0.8025,0.2766,-2.4265,0.3829,
1.041413,-0.4840,1.0837,-0.1283,-3.6511,-0.1693,-0.4742,0.2766,-2.4265,0.3829,
1.061155,-0.4840,1.0837,-0.1283,-1.6018,-0.6895,-0.6584,0.2766,-2.4265,0.3829,
1.073203,-0.0680,0.9370,-0.1334,-1.6018,-0.6895,-0.6584,0.2766,-2.4265,0.3829,
1.076032,-0.0680,0.9370,-0.1334,-1.6018,-0.6895,-0.6584,0.0695,-1.6882,-0.2702,
1.081645,-0.0680,0.9370,-0.1334,-1.4659,-0.5320,-0.7130,0.0695,-1.6882,-0.2702,
1.101805,-0.0680,0.9370,-0.1334,-2.1301,-0.1728,0.0621,0.0695,-1.6882,-0.2702,
1.122135,-0.0680,0.9370,-0.1334,-1.3027,-0.5016,0.2506,0.0695,-1.6882,-0.2702,
1.139183,-0.1035,0.8237,-0.0420,-1.3027,-0.5016,0.2506,0.0695,-1.6882,-0.2702,
1.142523,-0.1035,0.8237,-0.0420,-1.3027,-0.5016,0.2506,-0.0370,-0.9195,-1.2593,
1.144856,-0.1035,0.8237,-0.0420,-1.0218,-1.7314,0.1238,-0.0370,-0.9195,-1.2593,
1.161374,-0.1035,0.8237,-0.0420,-0.4775,-1.7096,-0.4147,-0.0370,-0.9195,-1.2593,
1.181610,-0.1035,0.8237,-0.0420,-0.0855,-0.1002,0.1562,-0.0370,-0.9195,-1.2593,
1.202733,-0.1035,0.8237,-0.0420,-0.3565,0.0711,0.4283,-0.0370,-0.9195,-1.2593,
1.205544,-0.1156,1.0068,-0.0001,-0.3565,0.0711,0.4283,-0.0370,-0.9195,-1.2593,
1.206806,-0.1156,1.0068,-0.0001,-0.3565,0.0711,0.4283,-0.1818,-0.7896,-1.9364,
1.221607,-0.1156,1.0068,-0.0001,1.0850,0.2891,0.5048,-0.1818,-0.7896,-1.9364,
1.241697,-0.1156,1.0068,-0.0001,0.3891,-0.2547,0.2229,-0.1818,-0.7896,-1.9364,
1.263405,-0.1156,1.0068,-0.0001,1.6944,0.1743,-0.2708,-0.1818,-0.7896,-1.9364,
1.271099,0.0395,1.0059,-0.0636,1.6944,0.1743,-0.2708,-0.1818,-0.7896,-1.9364,
1.273105,0.0395,1.0059,-0.0636,1.6944,0.1743,-0.2708,-0.2706,-0.2797,-2.1653,
1.281330,0.0395,1.0059,-0.0636,2.9436,0.6521,-0.4492,-0.2706,-0.2797,-2.1653,
1.301905,0.0395,1.0059,-0.0636,3.1426,0.8033,-0.8765,-0.2706,-0.2797,-2.1653,
1.321333,0.0395,1.0059,-0.0636,2.8177,0.9015,-1.2601,-0.2706,-0.2797,-2.1653,
1.336971,-0.0414,1.0109,-0.1108,2.8177,0.9015,-1.2601,-0.2706,-0.2797,-2.1653,
1.339629,-0.0414,1.0109,-0.1108,2.8177,0.9015,-1.2601,-0.1967,-0.0902,-1.7623,
1.341152,-0.0414,1.0109,-0.1108,3.3952,0.7781,-0.9413,-0.1967,-0.0902,-1.7623,
1.361518,-0.0414,1.0109,-0.1108,3.1467,0.0011,-0.5485,-0.1967,-0.0902,-1.7623,
1.381168,-0.0414,1.0109,-0.1108,2.4619,-0.0047,-0.6917,-0.1967,-0.0902,-1.7623,
1.402232,-0.0414,1.0109,-0.1108,2.7408,-0.1045,-0.7500,-0.1967,-0.0902,-1.7623,
1.404623,-0.1743,0.8646,-0.0782,2.7408,-0.1045,-0.7500,-0.1967,-0.0902,-1.7623,
1.405672,-0.1743,0.8646,-0.0782,2.7408,-0.1045,-0.7500,0.1334,-0.3223,-0.7227,
1.421981,-0.1743,0.8646,-0.0782,3.4548,-0.4599,-0.8222,0.1334,-0.3223,-0.7227,
1.441051,-0.1743,0.8646,-0.0782,3.5859,0.0206,-0.9047,0.1334,-0.3223,-0.7227,
1.462203,-0.1743,0.8646,-0.0782,3.1335,1.0167,-0.9461,0.1334,-0.3223,-0.7227,
1.469430,-0.2732,0.9290,-0.1009,3.1335,1.0167,-0.9461,0.1334,-0.3223,-0.7227,
1.471299,-0.2732,0.9290,-0.1009,3.1335,1.0167,-0.9461,0.3756,-0.6470,0.1929,
1.481557,-0.2732,0.9290,-0.1009,1.8318,0.2032,-0.8323,0.3756,-0.6470,0.1929,
1.501954,-0.2732,0.9290,-0.1009,2.6823,-0.1155,-0.4292,0.3756,-0.6470,0.1929,
1.521388,-0.2732,0.9290,-0.1009,2.6080,0.2558,-0.5340,0.3756,-0.6470,0.1929,
1.535159,-0.5508,1.6748,-0.0224,2.6080,0.2558,-0.5340,0.3756,-0.6470,0.1929,
1.537269,-0.5508,1.6748,-0.0224,2.6080,0.2558,-0.5340,0.7040,-1.1554,0.7460,
1.540955,-0.5508,1.6748,-0.0224,-3.1407,9.0646,-0.1382,0.7040,-1.1554,0.7460,
1.562872,-0.5508,1.6748,-0.0224,0.0263,-0.3680,-1.3779,0.7040,-1.1554,0.7460,
1.581547,-0.5508,1.6748,-0.0224,-1.3267,-0.6381,-1.1196,0.7040,-1.1554,0.7460,
1.602173,-0.2056,0.9551,-0.1807,-1.3267,-0.6381,-1.1196,0.7040,-1.1554,0.7460,
1.604465,-0.2056,0.9551,-0.1807,-1.3267,-0.6381,-1.1196,0.8195,-0.5144,1.2197,
1.605286,-0.2056,0.9551,-0.1807,1.3533,0.4363,-1.3778,0.8195,-0.5144,1.2197,
1.623114,-0.2056,0.9551,-0.1807,4.0470,1.4915,0.8083,0.8195,-0.5144,1.2197,
1.642448,-0.2056,0.9551,-0.1807,1.4255,0.3633,2.8864,0.8195,-0.5144,1.2197,
1.663469,-0.2056,0.9551,-0.1807,1.6873,0.6323,2.6480,0.8195,-0.5144,1.2197,
1.666627,-0.1325,0.9918,0.1990,1.6873,0.6323,2.6480,0.8195,-0.5144,1.2197,
1.667778,-0.1325,0.9918,0.1990,1.6873,0.6323,2.6480,0.5890,0.2867,1.1921,
1.681329,-0.1325,0.9918,0.1990,3.5976,1.6872,0.2947,0.5890,0.2867,1.1921,
1.701207,-0.1325,0.9918,0.1990,4.0022,2.6929,-1.5173,0.5890,0.2867,1.1921,
1.721309,-0.1325,0.9918,0.1990,2.3298,0.1988,-3.5332,0.5890,0.2867,1.1921,
1.732748,-0.2762,0.9341,-0.3747,2.3298,0.1988,-3.5332,0.5890,0.2867,1.1921,
1.735375,-0.2762,0.9341,-0.3747,2.3298,0.1988,-3.5332,0.5401,0.0083,0.8051,
1.741326,-0.2762,0.9341,-0.3747,-0.0157,-0.1348,-2.3301,0.5401,0.0083,0.8051,
1.761674,-0.2762,0.9341,-0.3747,1.8282,0.5098,0.6680,0.5401,0.0083,0.8051,
1.781275,-0.2762,0.9341,-0.3747,3.7985,0.7279,0.7133,0.5401,0.0083,0.8051,
1.799299,0.0297,1.0166,-0.1167,3.7985,0.7279,0.7133,0.5401,0.0083,0.8051,
1.801427,0.0297,1.0166,-0.1167,3.7985,0.7279,0.7133,0.4655,0.0935,0.2136,
1.802623,0.0297,1.0166,-0.1167,2.2662,0.4598,0.3142,0.4655,0.0935,0.2136,
1.821903,0.0297,1.0166,-0.1167,-0.5167,-0.1461,-0.3341,0.4655,0.0935,0.2136,
1.841091,0.0297,1.0166,-0.1167,-1.3959,-0.3285,-0.8617,0.4655,0.0935,0.2136,
1.863952,0.0297,1.0166,-0.1167,-0.2242,-0.2431,-0.6096,0.4655,0.0935,0.2136,
1.866094,-0.1300,0.9584,-0.2130,-0.2242,-0.2431,-0.6096,0.4655,0.0935,0.2136,
1.867523,-0.1300,0.9584,-0.2130,-0.2242,-0.2431,-0.6096,0.3899,0.2021,0.5240,
1.883182,-0.1300,0.9584,-0.2130,1.2229,0.2702,-0.0053,0.3899,0.2021,0.5240,
1.901360,-0.1300,0.9584,-0.2130,1.9454,0.2483,-0.2245,0.3899,0.2021,0.5240,
1.921276,-0.1300,0.9584,-0.2130,-1.4789,-0.2328,-0.7769,0.3899,0.2021,0.5240,
1.931059,-0.2698,0.9449,-0.3140,-1.4789,-0.2328,-0.7769,0.3899,0.2021,0.5240,
1.933930,-0.2698,0.9449,-0.3140,-1.4789,-0.2328,-0.7769,0.3623,0.1462,0.4032,
1.941544,-0.2698,0.9449,-0.3140,-0.8389,-0.3259,-1.1693,0.3623,0.1462,0.4032,
1.961543,-0.2698,0.9449,-0.3140,0.7486,-0.1290,-0.8590,0.3623,0.1462,0.4032,
1.981578,-0.2698,0.9449,-0.3140,1.1035,0.0379,-0.5749,0.3623,0.1462,0.4032,
1.998616,0.0290,0.9936,-0.2436,1.1035,0.0379,-0.5749,0.3623,0.1462,0.4032,
2.001467,0.0290,0.9936,-0.2436,1.1035,0.0379,-0.5749,0.2318,0.0988,0.3244,
2.002928,0.0290,0.9936,-0.2436,1.3099,0.2550,-0.0679,0.2318,0.0988,0.3244,
2.021665,0.0290,0.9936,-0.2436,-0.1285,0.1506,0.2169,0.2318,0.0988,0.3244,
2.040936,0.0290,0.9936,-0.2436,0.4337,0.2902,-0.3554,0.2318,0.0988,0.3244,
2.064623,0.0290,0.9936,-0.2436,-0.5880,-0.1284,-0.4667,0.2318,0.0988,0.3244,
2.067645,-0.2187,0.9504,-0.2904,-0.5880,-0.1284,-0.4667,0.2318,0.0988,0.3244,
2.068849,-0.2187,0.9504,-0.2904,-0.5880,-0.1284,-0.4667,0.1893,0.2585,0.3377,
2.081579,-0.2187,0.9504,-0.2904,-1.8111,-0.0156,0.2056,0.1893,0.2585,0.3377,
2.101749,-0.2187,0.9504,-0.2904,0.0430,0.1831,0.2917,0.1893,0.2585,0.3377,
2.121890,-0.2187,0.9504,-0.2904,0.4034,0.0209,-0.1949,0.1893,0.2585,0.3377,
2.128812,-0.1117,0.9511,-0.3049,0.4034,0.0209,-0.1949,0.1893,0.2585,0.3377,
2.130783,-0.1117,0.9511,-0.3049,0.4034,0.0209,-0.1949,0.2287,0.2963,0.7438,
2.141682,-0.1117,0.9511,-0.3049,-1.0043,0.0969,-0.5555,0.2287,0.2963,0.7438,
2.161285,-0.1117,0.9511,-0.3049,-0.6173,-0.0317,-0.4494,0.2287,0.2963,0.7438,
2.181335,-0.1117,0.9511,-0.3049,-0.2070,-0.0015,0.4165,0.2287,0.2963,0.7438,
2.195277,0.1455,0.9788,-0.2813,-0.2070,-0.0015,0.4165,0.2287,0.2963,0.7438,
2.196969,0.1455,0.9788,-0.2813,-0.2070,-0.0015,0.4165,0.2084,0.1462,1.0755,
2.201246,0.1455,0.9788,-0.2813,1.5486,0.1315,0.0661,0.2084,0.1462,1.0755,
2.221724,0.1455,0.9788,-0.2813,-0.3751,0.6415,-0.5404,0.2084,0.1462,1.0755,
2.241211,0.1455,0.9788,-0.2813,-0.9208,0.5914,-0.5363,0.2084,0.1462,1.0755,
2.261029,-0.0082,1.0613,-0.2337,-0.9208,0.5914,-0.5363,0.2084,0.1462,1.0755,
2.265556,-0.0082,1.0613,-0.2337,-0.9208,0.5914,-0.5363,0.0716,0.3197,1.0414,
2.267077,-0.0082,1.0613,-0.2337,-0.8640,1.0440,0.4065,0.0716,0.3197,1.0414,
2.281210,-0.0082,1.0613,-0.2337,-1.3409,0.7748,1.3376,0.0716,0.3197,1.0414,
2.303740,-0.0082,1.0613,-0.2337,-1.9847,1.5073,0.4027,0.0716,0.3197,1.0414,
2.321361,-0.0082,1.0613,-0.2337,-2.4214,1.6338,-0.1534,0.0716,0.3197,1.0414,
2.326726,-0.0059,1.0885,-0.3439,-2.4214,1.6338,-0.1534,0.0716,0.3197,1.0414,
2.328743,-0.0059,1.0885,-0.3439,-2.4214,1.6338,-0.1534,0.0141,0.2548,1.7318,
2.341165,-0.0059,1.0885,-0.3439,-1.6724,1.5580,-0.5355,0.0141,0.2548,1.7318,
2.361369,-0.0059,1.0885,-0.3439,-3.2963,2.5796,-0.6475,0.0141,0.2548,1.7318,
2.382042,-0.0059,1.0885,-0.3439,-4.6362,3.3675,-0.1472,0.0141,0.2548,1.7318,
2.392666,-0.1994,1.2666,-0.2375,-4.6362,3.3675,-0.1472,0.0141,0.2548,1.7318,
2.394623,-0.1994,1.2666,-0.2375,-4.6362,3.3675,-0.1472,-0.1535,0.4874,2.2349,
2.401737,-0.1994,1.2666,-0.2375,-5.2171,3.6600,0.5685,-0.1535,0.4874,2.2349,
2.421419,-0.1994,1.2666,-0.2375,-5.7083,4.7476,1.2160,-0.1535,0.4874,2.2349,
2.441539,-0.1994,1.2666,-0.2375,-7.5102,4.6926,1.0774,-0.1535,0.4874,2.2349,
2.459359,-0.3168,1.3166,-0.2725,-7.5102,4.6926,1.0774,-0.1535,0.4874,2.2349,
2.462127,-0.3168,1.3166,-0.2725,-7.5102,4.6926,1.0774,0.3048,0.1525,3.5391,
2.464885,-0.3168,1.3166,-0.2725,-7.5969,4.5772,-0.0614,0.3048,0.1525,3.5391,
2.482245,-0.3168,1.3166,-0.2725,-7.1171,4.1196,-2.0305,0.3048,0.1525,3.5391,
2.503202,-0.3168,1.3166,-0.2725,-0.4026,6.2393,-2.5049,0.3048,0.1525,3.5391,
2.521939,-0.3168,1.3166,-0.2725,1.1442,4.3125,-1.8025,0.3048,0.1525,3.5391,
2.524551,0.7187,1.0941,-0.4006,1.1442,4.3125,-1.8025,0.3048,0.1525,3.5391,
2.525789,0.7187,1.0941,-0.4006,1.1442,4.3125,-1.8025,0.3686,-0.4990,2.6049,
2.541972,0.7187,1.0941,-0.4006,-1.3421,3.1956,-0.7056,0.3686,-0.4990,2.6049,
2.561374,0.7187,1.0941,-0.4006,-2.9008,-3.9282,-1.7872,0.3686,-0.4990,2.6049,
2.583093,0.7187,1.0941,-0.4006,2.1747,-3.4448,-1.2000,0.3686,-0.4990,2.6049,
2.591490,1.1413,0.4146,-0.2164,2.1747,-3.4448,-1.2000,0.3686,-0.4990,2.6049,
2.593235,1.1413,0.4146,-0.2164,2.1747,-3.4448,-1.2000,-0.3042,1.1581,0.1269,
2.601102,1.1413,0.4146,-0.2164,2.2184,-2.9202,0.6417,-0.3042,1.1581,0.1269,
2.621962,1.1413,0.4146,-0.2164,-3.2380,-1.7176,-0.2154,-0.3042,1.1581,0.1269,
2.641359,1.1413,0.4146,-0.2164,-4.3222,-2.1996,-0.7845,-0.3042,1.1581,0.1269,
2.656837,0.1154,0.4253,-0.2874,-4.3222,-2.1996,-0.7845,-0.3042,1.1581,0.1269,
2.658731,0.1154,0.4253,-0.2874,-4.3222,-2.1996,-0.7845,-0.5193,-0.1439,-2.2819,
2.660966,0.1154,0.4253,-0.2874,-5.7113,-2.8273,-0.6523,-0.5193,-0.1439,-2.2819,
2.683295,0.1154,0.4253,-0.2874,-6.4633,-4.2159,0.1663,-0.5193,-0.1439,-2.2819,
2.701582,0.1154,0.4253,-0.2874,-3.6207,-3.7106,0.2393,-0.5193,-0.1439,-2.2819,
2.721331,0.1154,0.4253,-0.2874,-0.8852,-2.7922,-0.1769,-0.5193,-0.1439,-2.2819,
2.723729,0.4967,0.5440,-0.2432,-0.8852,-2.7922,-0.1769,-0.5193,-0.1439,-2.2819,
2.724736,0.4967,0.5440,-0.2432,-0.8852,-2.7922,-0.1769,-0.4766,-1.1495,-2.9116,
2.741384,0.4967,0.5440,-0.2432,0.1725,-2.3673,-0.8659,-0.4766,-1.1495,-2.9116,
2.761333,0.4967,0.5440,-0.2432,0.3688,-2.3844,-1.1181,-0.4766,-1.1495,-2.9116,
2.783831,0.4967,0.5440,-0.2432,1.1314,-1.7974,-0.8918,-0.4766,-1.1495,-2.9116,
2.788872,0.3947,0.7740,-0.3034,1.1314,-1.7974,-0.8918,-0.4766,-1.1495,-2.9116,
2.790974,0.3947,0.7740,-0.3034,1.1314,-1.7974,-0.8918,-0.5208,-0.9488,-4.1312,
2.802175,0.3947,0.7740,-0.3034,-0.0148,-1.3296,-0.9936,-0.5208,-0.9488,-4.1312,
2.821287,0.3947,0.7740,-0.3034,0.8986,-1.0619,-0.3206,-0.5208,-0.9488,-4.1312,
2.841869,0.3947,0.7740,-0.3034,1.5817,-0.0652,-0.2375,-0.5208,-0.9488,-4.1312,
2.855035,0.3677,1.1050,-0.2931,1.5817,-0.0652,-0.2375,-0.5208,-0.9488,-4.1312,
2.857427,0.3677,1.1050,-0.2931,1.5817,-0.0652,-0.2375,-0.2951,-0.5336,-4.2148,
2.861753,0.3677,1.1050,-0.2931,3.3184,1.5386,-1.0386,-0.2951,-0.5336,-4.2148,
2.881345,0.3677,1.1050,-0.2931,4.0983,3.0688,-0.9807,-0.2951,-0.5336,-4.2148,
2.901133,0.3677,1.1050,-0.2931,3.5742,3.4386,-0.8243,-0.2951,-0.5336,-4.2148,
2.920835,0.2829,1.3996,-0.2801,3.5742,3.4386,-0.8243,-0.2951,-0.5336,-4.2148,
2.922911,0.2829,1.3996,-0.2801,3.5742,3.4386,-0.8243,-0.0253,-0.2669,-3.7043,
2.923883,0.2829,1.3996,-0.2801,4.5568,4.1261,-0.9257,-0.0253,-0.2669,-3.7043,
2.941249,0.2829,1.3996,-0.2801,7.0750,4.2629,-0.8311,-0.0253,-0.2669,-3.7043,
2.961354,0.2829,1.3996,-0.2801,6.0982,6.8753,-0.8505,-0.0253,-0.2669,-3.7043,
2.981652,0.2829,1.3996,-0.2801,7.2959,0.5903,-0.4010,-0.0253,-0.2669,-3.7043,
2.989424,0.3605,0.8620,-0.1442,7.2959,0.5903,-0.4010,-0.0253,-0.2669,-3.7043,
2.991879,0.3605,0.8620,-0.1442,7.2959,0.5903,-0.4010,-0.3351,0.7940,-2.7189,
3.002032,0.3605,0.8620,-0.1442,7.6417,0.7281,1.2710,-0.3351,0.7940,-2.7189,
3.021960,0.3605,0.8620,-0.1442,5.7779,2.5658,-0.0086,-0.3351,0.7940,-2.7189,
3.041400,0.3605,0.8620,-0.1442,2.6931,2.8024,0.3686,-0.3351,0.7940,-2.7189,
3.052964,-0.3485,1.1023,-0.0892,2.6931,2.8024,0.3686,-0.3351,0.7940,-2.7189,
3.055691,-0.3485,1.1023,-0.0892,2.6931,2.8024,0.3686,0.2702,0.7413,0.3723,
3.061577,-0.3485,1.1023,-0.0892,1.1606,2.2743,1.3615,0.2702,0.7413,0.3723,
3.082010,-0.3485,1.1023,-0.0892,3.1394,2.0675,1.0091,0.2702,0.7413,0.3723,
3.102755,-0.3485,1.1023,-0.0892,3.9228,1.4405,0.9241,0.2702,0.7413,0.3723,
3.120222,-0.6107,0.9101,-0.3884,3.9228,1.4405,0.9241,0.2702,0.7413,0.3723,
3.122737,-0.6107,0.9101,-0.3884,3.9228,1.4405,0.9241,0.5246,-0.9307,0.5410,
3.124299,-0.6107,0.9101,-0.3884,-1.4568,0.5180,-1.4963,0.5246,-0.9307,0.5410,
3.142330,-0.6107,0.9101,-0.3884,-1.0095,0.2461,-1.9810,0.5246,-0.9307,0.5410,
3.161186,-0.6107,0.9101,-0.3884,2.0513,1.1323,2.8879,0.5246,-0.9307,0.5410,
3.181726,-0.6107,0.9101,-0.3884,3.5246,1.6116,3.4710,0.5246,-0.9307,0.5410,
3.186082,-0.0941,0.9939,0.1261,3.5246,1.6116,3.4710,0.5246,-0.9307,0.5410,
3.187498,-0.0941,0.9939,0.1261,3.5246,1.6116,3.4710,0.0370,0.0056,0.8940,
3.202098,-0.0941,0.9939,0.1261,1.1646,2.0161,2.2868,0.0370,0.0056,0.8940,
3.222118,-0.0941,0.9939,0.1261,3.1452,1.3497,-2.2758,0.0370,0.0056,0.8940,
3.241480,-0.0941,0.9939,0.1261,-0.2898,0.1041,-2.4061,0.0370,0.0056,0.8940,
3.255390,-0.1949,0.9428,-0.4895,-0.2898,0.1041,-2.4061,0.0370,0.0056,0.8940,
3.257754,-0.1949,0.9428,-0.4895,-0.2898,0.1041,-2.4061,0.2420,-0.0513,1.3565,
3.261767,-0.1949,0.9428,-0.4895,2.1781,0.0059,-1.6630,0.2420,-0.0513,1.3565,
3.281433,-0.1949,0.9428,-0.4895,2.3023,0.3327,0.1416,0.2420,-0.0513,1.3565,
3.302031,-0.1949,0.9428,-0.4895,3.7435,1.4591,0.9788,0.2420,-0.0513,1.3565,
3.319772,-0.0211,1.0062,-0.1700,3.7435,1.4591,0.9788,0.2420,-0.0513,1.3565,
3.323179,-0.0211,1.0062,-0.1700,3.7435,1.4591,0.9788,0.1855,0.2909,0.6331,
3.324696,-0.0211,1.0062,-0.1700,2.3759,0.7239,0.7024,0.1855,0.2909,0.6331,
3.341860,-0.0211,1.0062,-0.1700,0.7191,0.2665,-0.6503,0.1855,0.2909,0.6331,
3.361775,-0.0211,1.0062,-0.1700,-0.5822,0.4561,-0.6841,0.1855,0.2909,0.6331,
3.381346,-0.0211,1.0062,-0.1700,-0.7752,-0.2714,-0.0370,0.1855,0.2909,0.6331,
3.385952,-0.3325,0.9547,-0.2319,-0.7752,-0.2714,-0.0370,0.1855,0.2909,0.6331,
3.387515,-0.3325,0.9547,-0.2319,-0.7752,-0.2714,-0.0370,0.1387,0.2883,0.7470,
3.402501,-0.3325,0.9547,-0.2319,0.3389,-0.2500,0.0843,0.1387,0.2883,0.7470,
3.421713,-0.3325,0.9547,-0.2319,0.6273,0.1176,-0.0361,0.1387,0.2883,0.7470,
3.441557,-0.3325,0.9547,-0.2319,2.0619,0.3491,-0.3215,0.1387,0.2883,0.7470,
3.448835,0.1293,1.0253,-0.3035,2.0619,0.3491,-0.3215,0.1387,0.2883,0.7470,
3.452379,0.1293,1.0253,-0.3035,2.0619,0.3491,-0.3215,0.1291,0.1627,0.4835,
3.461340,0.1293,1.0253,-0.3035,2.9574,0.6343,-0.1926,0.1291,0.1627,0.4835,
3.481301,0.1293,1.0253,-0.3035,0.0923,0.0609,-0.3711,0.1291,0.1627,0.4835,
3.503041,0.1293,1.0253,-0.3035,0.6992,0.0464,-0.3519,0.1291,0.1627,0.4835,
3.514887,0.0165,0.9595,-0.2647,0.6992,0.0464,-0.3519,0.1291,0.1627,0.4835,
3.517603,0.0165,0.9595,-0.2647,0.6992,0.0464,-0.3519,0.0386,0.2175,0.1721,
3.522559,0.0165,0.9595,-0.2647,1.5641,0.1748,0.3182,0.0386,0.2175,0.1721,
3.541375,0.0165,0.9595,-0.2647,0.8476,0.2006,-0.2853,0.0386,0.2175,0.1721,
3.561311,0.0165,0.9595,-0.2647,-0.5105,-0.2323,-0.6550,0.0386,0.2175,0.1721,
3.581215,-0.1569,0.9300,-0.3030,-0.5105,-0.2323,-0.6550,0.0386,0.2175,0.1721,
3.585492,-0.1569,0.9300,-0.3030,-0.5105,-0.2323,-0.6550,-0.0034,0.2313,0.1615,
3.587049,-0.1569,0.9300,-0.3030,-0.1875,-0.1675,-0.1967,-0.0034,0.2313,0.1615,
3.603319,-0.1569,0.9300,-0.3030,0.8007,0.2287,0.1718,-0.0034,0.2313,0.1615,
3.621732,-0.1569,0.9300,-0.3030,0.5592,0.7045,-0.2538,-0.0034,0.2313,0.1615,
3.641409,-0.1569,0.9300,-0.3030,-1.0490,-0.1130,-0.0127,-0.0034,0.2313,0.1615,
3.647434,-0.1904,0.9431,-0.2983,-1.0490,-0.1130,-0.0127,-0.0034,0.2313,0.1615,
3.649294,-0.1904,0.9431,-0.2983,-1.0490,-0.1130,-0.0127,-0.0087,0.2670,0.2014,
3.661820,-0.1904,0.9431,-0.2983,0.3404,-0.0500,0.1483,-0.0087,0.2670,0.2014,
3.681561,-0.1904,0.9431,-0.2983,0.4727,0.7772,0.3208,-0.0087,0.2670,0.2014,
3.701210,-0.1904,0.9431,-0.2983,-1.3099,0.0782,-0.4638,-0.0087,0.2670,0.2014,
3.712912,-0.2288,0.9415,-0.3848,-1.3099,0.0782,-0.4638,-0.0087,0.2670,0.2014,
3.714828,-0.2288,0.9415,-0.3848,-1.3099,0.0782,-0.4638,-0.0598,0.3314,0.2860,
3.721133,-0.2288,0.9415,-0.3848,-0.9936,-0.1036,-0.8330,-0.0598,0.3314,0.2860,
3.741723,-0.2288,0.9415,-0.3848,0.2980,0.0508,-0.0463,-0.0598,0.3314,0.2860,
3.761317,-0.2288,0.9415,-0.3848,1.3721,0.2442,1.0997,-0.0598,0.3314,0.2860,
3.779532,-0.1245,0.9494,-0.2885,1.3721,0.2442,1.0997,-0.0598,0.3314,0.2860,
3.783373,-0.1245,0.9494,-0.2885,1.3721,0.2442,1.0997,-0.0396,0.2297,0.1945,
3.785011,-0.1245,0.9494,-0.2885,-0.4211,-0.0365,0.0790,-0.0396,0.2297,0.1945,
3.801741,-0.1245,0.9494,-0.2885,-1.5596,0.1642,-0.6207,-0.0396,0.2297,0.1945,
3.821833,-0.1245,0.9494,-0.2885,0.1202,0.2529,0.1347,-0.0396,0.2297,0.1945,
3.841331,-0.1245,0.9494,-0.2885,0.1835,0.4107,0.5590,-0.0396,0.2297,0.1945,
3.844922,-0.0779,0.9972,-0.2558,0.1835,0.4107,0.5590,-0.0396,0.2297,0.1945,
3.846344,-0.0779,0.9972,-0.2558,0.1835,0.4107,0.5590,-0.0417,0.5129,0.3701,
3.861405,-0.0779,0.9972,-0.2558,-0.3881,0.3057,-0.2006,-0.0417,0.5129,0.3701,
3.881610,-0.0779,0.9972,-0.2558,-0.9848,0.4983,-1.0801,-0.0417,0.5129,0.3701,
3.901987,-0.0779,0.9972,-0.2558,-0.8040,0.7406,-1.5877,-0.0417,0.5129,0.3701,
3.910919,-0.0110,1.0820,-0.4470,-0.8040,0.7406,-1.5877,-0.0417,0.5129,0.3701,
3.912265,-0.0110,1.0820,-0.4470,-0.8040,0.7406,-1.5877,-0.0583,0.9548,0.4138,
3.921758,-0.0110,1.0820,-0.4470,0.0674,1.3445,-0.8575,-0.0583,0.9548,0.4138,
3.941386,-0.0110,1.0820,-0.4470,-0.0371,1.0385,-0.3528,-0.0583,0.9548,0.4138,
3.962685,-0.0110,1.0820,-0.4470,-0.3906,1.4650,-0.7842,-0.0583,0.9548,0.4138,
3.977125,-0.0459,1.0469,-0.3561,-0.3906,1.4650,-0.7842,-0.0583,0.9548,0.4138,
3.979974,-0.0459,1.0469,-0.3561,-0.3906,1.4650,-0.7842,0.1807,2.2632,0.1412,
3.981412,-0.0459,1.0469,-0.3561,-0.6625,0.6587,-0.4072,0.1807,2.2632,0.1412,
4.002006,-0.0459,1.0469,-0.3561,0.0797,0.2306,-0.6230,0.1807,2.2632,0.1412,
4.022657,-0.0459,1.0469,-0.3561,-0.1088,0.3637,-0.3274,0.1807,2.2632,0.1412,
4.041347,-0.0459,1.0469,-0.3561,-0.2410,-0.4165,-0.0468,0.1807,2.2632,0.1412,
4.044864,0.0679,0.9025,-0.2874,-0.2410,-0.4165,-0.0468,0.1807,2.2632,0.1412,
4.045735,0.0679,0.9025,-0.2874,-0.2410,-0.4165,-0.0468,0.3128,2.5193,-0.2612,
4.062503,0.0679,0.9025,-0.2874,0.2614,-1.2356,0.8523,0.3128,2.5193,-0.2612,
4.081596,0.0679,0.9025,-0.2874,-0.0804,-1.7379,0.5307,0.3128,2.5193,-0.2612,
4.101334,0.0679,0.9025,-0.2874,2.5167,-1.1371,0.1020,0.3128,2.5193,-0.2612,
4.109541,0.7226,0.8558,-0.2684,2.5167,-1.1371,0.1020,0.3128,2.5193,-0.2612,
4.112766,0.7226,0.8558,-0.2684,2.5167,-1.1371,0.1020,0.5944,3.6611,-1.1257,
4.121803,0.7226,0.8558,-0.2684,7.5698,-1.0733,0.7950,0.5944,3.6611,-1.1257,
4.141577,0.7226,0.8558,-0.2684,2.7211,-1.9534,0.7446,0.5944,3.6611,-1.1257,
4.161225,0.7226,0.8558,-0.2684,1.7531,-1.6106,1.6717,0.5944,3.6611,-1.1257,
4.177378,0.4709,1.0309,-0.1240,1.7531,-1.6106,1.6717,0.5944,3.6611,-1.1257,
4.180752,0.4709,1.0309,-0.1240,1.7531,-1.6106,1.6717,0.3921,4.7832,-2.3261,
4.182697,0.4709,1.0309,-0.1240,4.0282,0.8328,1.7756,0.3921,4.7832,-2.3261,
4.201307,0.4709,1.0309,-0.1240,1.5113,0.2359,2.1534,0.3921,4.7832,-2.3261,
4.221612,0.4709,1.0309,-0.1240,-0.8800,0.0565,2.9976,0.3921,4.7832,-2.3261,
4.240915,-0.0909,0.9963,-0.0644,-0.8800,0.0565,2.9976,0.3921,4.7832,-2.3261,
4.243942,-0.0909,0.9963,-0.0644,-0.8800,0.0565,2.9976,-0.3686,4.0460,-2.1674,
4.245457,-0.0909,0.9963,-0.0644,-1.1345,0.3804,2.4163,-0.3686,4.0460,-2.1674,
4.261220,-0.0909,0.9963,-0.0644,-0.3453,0.7118,2.4351,-0.3686,4.0460,-2.1674,
4.281199,-0.0909,0.9963,-0.0644,0.5687,0.8686,2.0752,-0.3686,4.0460,-2.1674,
4.301751,-0.0909,0.9963,-0.0644,0.5184,0.4729,1.8190,-0.3686,4.0460,-2.1674,
4.307118,0.0558,1.0120,-0.1044,0.5184,0.4729,1.8190,-0.3686,4.0460,-2.1674,
4.308764,0.0558,1.0120,-0.1044,0.5184,0.4729,1.8190,-0.7295,4.1040,-2.1632,
4.321290,0.0558,1.0120,-0.1044,1.1903,0.7256,1.3833,-0.7295,4.1040,-2.1632,
4.341628,0.0558,1.0120,-0.1044,0.4918,0.6056,0.7417,-0.7295,4.1040,-2.1632,
4.361471,0.0558,1.0120,-0.1044,-0.2657,0.2466,0.4092,-0.7295,4.1040,-2.1632,
4.372865,-0.1690,0.9697,-0.2025,-0.2657,0.2466,0.4092,-0.7295,4.1040,-2.1632,
4.374908,-0.1690,0.9697,-0.2025,-0.2657,0.2466,0.4092,-1.1133,3.9523,-2.2079,
4.382149,-0.1690,0.9697,-0.2025,-0.7007,-0.0460,0.2483,-1.1133,3.9523,-2.2079,
4.401469,-0.1690,0.9697,-0.2025,-0.3358,0.0944,0.0665,-1.1133,3.9523,-2.2079,
4.421279,-0.1690,0.9697,-0.2025,0.0780,-0.2320,0.1279,-1.1133,3.9523,-2.2079,
4.439325,-0.2116,0.8820,-0.1867,0.0780,-0.2320,0.1279,-1.1133,3.9523,-2.2079,
4.443746,-0.2116,0.8820,-0.1867,0.0780,-0.2320,0.1279,-1.1543,3.1128,-2.0610,
4.445248,-0.2116,0.8820,-0.1867,-0.1672,-0.7978,0.1019,-1.1543,3.1128,-2.0610,
4.461764,-0.2116,0.8820,-0.1867,-0.4017,-0.7428,-0.1516,-1.1543,3.1128,-2.0610,
4.481301,-0.2116,0.8820,-0.1867,0.0743,-0.2645,-0.4161,-1.1543,3.1128,-2.0610,
4.501420,-0.2116,0.8820,-0.1867,0.5561,-0.1637,-0.7409,-1.1543,3.1128,-2.0610,
4.504767,-0.1962,0.9330,-0.2485,0.5561,-0.1637,-0.7409,-1.1543,3.1128,-2.0610,
4.506496,-0.1962,0.9330,-0.2485,0.5561,-0.1637,-0.7409,-1.1671,2.1248,-1.5313,
4.523317,-0.1962,0.9330,-0.2485,1.3429,-0.2594,-0.9662,-1.1671,2.1248,-1.5313,
4.544406,-0.1962,0.9330,-0.2485,1.5987,-0.4460,-1.0991,-1.1671,2.1248,-1.5313,
4.563181,-0.1962,0.9330,-0.2485,1.7928,-0.2950,-1.3168,-1.1671,2.1248,-1.5313,
4.570606,-0.1638,0.9089,-0.2815,1.7928,-0.2950,-1.3168,-1.1671,2.1248,-1.5313,
4.572389,-0.1638,0.9089,-0.2815,1.7928,-0.2950,-1.3168,-1.1751,2.2047,-0.8909,
4.582481,-0.1638,0.9089,-0.2815,1.6086,-0.3183,-1.4458,-1.1751,2.2047,-0.8909,
4.601372,-0.1638,0.9089,-0.2815,1.3250,-0.7037,-1.3102,-1.1751,2.2047,-0.8909,
4.621483,-0.1638,0.9089,-0.2815,1.6932,-0.7176,-1.2542,-1.1751,2.2047,-0.8909,
4.636687,-0.1678,0.8833,-0.2732,1.6932,-0.7176,-1.2542,-1.1751,2.2047,-0.8909,
4.638659,-0.1678,0.8833,-0.2732,1.6932,-0.7176,-1.2542,-0.8434,2.5038,-0.2202,
4.641259,-0.1678,0.8833,-0.2732,1.8429,-0.4010,-1.4961,-0.8434,2.5038,-0.2202,
4.662677,-0.1678,0.8833,-0.2732,0.8064,-0.4765,-1.5201,-0.8434,2.5038,-0.2202,
4.681253,-0.1678,0.8833,-0.2732,0.5267,-0.7088,-1.2071,-0.8434,2.5038,-0.2202,
4.701808,-0.1678,0.8833,-0.2732,1.4912,-0.6643,-1.2287,-0.8434,2.5038,-0.2202,
4.704655,-0.1641,0.8666,-0.2683,1.4912,-0.6643,-1.2287,-0.8434,2.5038,-0.2202,
4.705708,-0.1641,0.8666,-0.2683,1.4912,-0.6643,-1.2287,-0.5475,1.8315,0.1285,
4.721194,-0.1641,0.8666,-0.2683,1.6392,-0.5515,-1.7027,-0.5475,1.8315,0.1285,
4.741465,-0.1641,0.8666,-0.2683,-4.1324,5.0269,-2.9952,-0.5475,1.8315,0.1285,
4.761696,-0.1641,0.8666,-0.2683,-1.6831,-2.0808,-4.5815,-0.5475,1.8315,0.1285,
4.768824,-0.5306,0.7985,-0.5310,-1.6831,-2.0808,-4.5815,-0.5475,1.8315,0.1285,
4.770651,-0.5306,0.7985,-0.5310,-1.6831,-2.0808,-4.5815,-0.0700,1.9624,-0.5273,
4.781418,-0.5306,0.7985,-0.5310,-4.0919,-0.4462,-2.0232,-0.0700,1.9624,-0.5273,
4.801279,-0.5306,0.7985,-0.5310,-4.6585,0.5723,1.1828,-0.0700,1.9624,-0.5273,
4.821210,-0.5306,0.7985,-0.5310,-3.2125,-1.3124,0.9636,-0.0700,1.9624,-0.5273,
4.835051,-0.6560,0.7418,-0.1832,-3.2125,-1.3124,0.9636,-0.0700,1.9624,-0.5273,
4.837874,-0.6560,0.7418,-0.1832,-3.2125,-1.3124,0.9636,0.4262,-0.7641,0.4239,
4.841806,-0.6560,0.7418,-0.1832,-2.2331,-1.3286,-0.2686,0.4262,-0.7641,0.4239,
4.861852,-0.6560,0.7418,-0.1832,1.7674,2.5076,-0.5342,0.4262,-0.7641,0.4239,
4.882699,-0.6560,0.7418,-0.1832,3.2307,1.0288,-1.9273,0.4262,-0.7641,0.4239,
4.900860,-0.4601,0.8890,-0.2599,3.2307,1.0288,-1.9273,0.4262,-0.7641,0.4239,
4.904036,-0.4601,0.8890,-0.2599,3.2307,1.0288,-1.9273,0.3553,0.0860,0.7747,
4.905306,-0.4601,0.8890,-0.2599,-1.2716,-0.3327,-0.7751,0.3553,0.0860,0.7747,
4.921169,-0.4601,0.8890,-0.2599,-1.2373,-0.8035,0.3473,0.3553,0.0860,0.7747,
4.941664,-0.4601,0.8890,-0.2599,1.7321,-0.0620,0.4474,0.3553,0.0860,0.7747,
4.962573,-0.4601,0.8890,-0.2599,1.4561,0.4489,-0.0697,0.3553,0.0860,0.7747,
4.967009,-0.0830,0.9726,-0.2373,1.4561,0.4489,-0.0697,0.3553,0.0860,0.7747,
4.968958,-0.0830,0.9726,-0.2373,1.4561,0.4489,-0.0697,0.3463,0.3548,0.8173,
4.981604,-0.0830,0.9726,-0.2373,1.3548,0.0897,-0.3890,0.3463,0.3548,0.8173,
5.001286,-0.0830,0.9726,-0.2373,-0.4586,-0.2288,0.1135,0.3463,0.3548,0.8173,
5.021502,-0.0830,0.9726,-0.2373,-1.5254,-0.4231,0.2974,0.3463,0.3548,0.8173,
5.032807,-0.3008,0.9054,-0.2796,-1.5254,-0.4231,0.2974,0.3463,0.3548,0.8173,
5.035235,-0.3008,0.9054,-0.2796,-1.5254,-0.4231,0.2974,0.4171,0.2457,0.8647,
5.041484,-0.3008,0.9054,-0.2796,-0.0681,-0.0290,-0.7825,0.4171,0.2457,0.8647,
5.061240,-0.3008,0.9054,-0.2796,0.5443,0.3738,-0.4328,0.4171,0.2457,0.8647,
5.081720,-0.3008,0.9054,-0.2796,1.9932,0.8231,-0.3293,0.4171,0.2457,0.8647,
5.099524,-0.1114,0.9910,-0.3608,1.9932,0.8231,-0.3293,0.4171,0.2457,0.8647,
5.102783,-0.1114,0.9910,-0.3608,1.9932,0.8231,-0.3293,0.2734,0.3894,0.3159,
5.104334,-0.1114,0.9910,-0.3608,0.2473,0.3661,-0.8647,0.2734,0.3894,0.3159,
5.123047,-0.1114,0.9910,-0.3608,-1.1957,-0.5386,-0.6937,0.2734,0.3894,0.3159,
5.141189,-0.1114,0.9910,-0.3608,-0.7601,-0.0347,-0.3985,0.2734,0.3894,0.3159,
5.161060,-0.1114,0.9910,-0.3608,1.2436,-0.2045,-0.7544,0.2734,0.3894,0.3159,
5.164923,0.1219,0.9850,-0.3711,1.2436,-0.2045,-0.7544,0.2734,0.3894,0.3159,
5.166326,0.1219,0.9850,-0.3711,1.2436,-0.2045,-0.7544,0.1334,0.2899,0.5155,
5.181441,0.1219,0.9850,-0.3711,2.6035,0.4200,-0.4063,0.1334,0.2899,0.5155,
5.201221,0.1219,0.9850,-0.3711,-0.7177,-0.1551,-0.1824,0.1334,0.2899,0.5155,
5.221321,0.1219,0.9850,-0.3711,-0.0873,-0.0836,-0.1208,0.1334,0.2899,0.5155,
5.231615,0.0278,0.9438,-0.2925,-0.0873,-0.0836,-0.1208,0.1334,0.2899,0.5155,
5.234691,0.0278,0.9438,-0.2925,-0.0873,-0.0836,-0.1208,0.0785,0.2659,0.2605,
5.241257,0.0278,0.9438,-0.2925,0.6409,-0.0736,-0.0222,0.0785,0.2659,0.2605,
5.261346,0.0278,0.9438,-0.2925,0.6414,0.0651,-0.3957,0.0785,0.2659,0.2605,
5.281559,0.0278,0.9438,-0.2925,-0.6384,-0.1278,-0.4765,0.0785,0.2659,0.2605,
5.297751,-0.2195,0.9218,-0.3450,-0.6384,-0.1278,-0.4765,0.0785,0.2659,0.2605,
5.301271,-0.2195,0.9218,-0.3450,-0.6384,-0.1278,-0.4765,0.0312,0.2202,0.2014,
5.302806,-0.2195,0.9218,-0.3450,-1.6463,-0.3114,-0.4429,0.0312,0.2202,0.2014,
5.321389,-0.2195,0.9218,-0.3450,-0.1940,-0.0572,-0.1302,0.0312,0.2202,0.2014,
5.341323,-0.2195,0.9218,-0.3450,-0.2952,0.0776,0.2864,0.0312,0.2202,0.2014,
5.361443,-0.2195,0.9218,-0.3450,0.5535,0.2036,0.1561,0.0312,0.2202,0.2014,
5.364614,-0.0204,0.9695,-0.2922,0.5535,0.2036,0.1561,0.0312,0.2202,0.2014,
5.366103,-0.0204,0.9695,-0.2922,0.5535,0.2036,0.1561,0.0402,0.2053,0.2658,
5.381240,-0.0204,0.9695,-0.2922,-0.8528,-0.0407,0.1562,0.0402,0.2053,0.2658,
5.401258,-0.0204,0.9695,-0.2922,-1.3828,-0.0882,0.2266,0.0402,0.2053,0.2658,
5.421629,-0.0204,0.9695,-0.2922,0.5464,0.0704,-0.0554,0.0402,0.2053,0.2658,
5.431669,0.0466,0.9573,-0.3103,0.5464,0.0704,-0.0554,0.0402,0.2053,0.2658,
5.434612,0.0466,0.9573,-0.3103,0.5464,0.0704,-0.0554,0.0785,0.2830,0.4558,
5.441274,0.0466,0.9573,-0.3103,-0.2784,-0.0626,0.0100,0.0785,0.2830,0.4558,
5.460965,0.0466,0.9573,-0.3103,-1.9041,0.0498,-0.5253,0.0785,0.2830,0.4558,
5.481111,0.0466,0.9573,-0.3103,-1.2065,0.1138,-0.3484,0.0785,0.2830,0.4558,
5.495074,-0.1035,0.9849,-0.3214,-1.2065,0.1138,-0.3484,0.0785,0.2830,0.4558,
5.496949,-0.1035,0.9849,-0.3214,-1.2065,0.1138,-0.3484,0.0913,0.3932,0.8226,
5.501665,-0.1035,0.9849,-0.3214,-0.8786,0.3878,-0.0193,0.0913,0.3932,0.8226,
5.521357,-0.1035,0.9849,-0.3214,-0.9492,0.4604,-0.2382,0.0913,0.3932,0.8226,
5.541238,-0.1035,0.9849,-0.3214,-0.9595,0.7812,-0.0383,0.0913,0.3932,0.8226,
5.561288,-0.1505,1.0924,-0.2578,-0.9595,0.7812,-0.0383,0.0913,0.3932,0.8226,
5.564671,-0.1505,1.0924,-0.2578,-0.9595,0.7812,-0.0383,0.0934,0.4879,0.9818,
5.566256,-0.1505,1.0924,-0.2578,-1.7991,1.5089,0.6209,0.0934,0.4879,0.9818,
5.581824,-0.1505,1.0924,-0.2578,-3.2393,1.6718,0.5716,0.0934,0.4879,0.9818,
5.601208,-0.1505,1.0924,-0.2578,-1.7073,1.4187,-0.3141,0.0934,0.4879,0.9818,
5.621817,-0.1505,1.0924,-0.2578,-2.2069,1.7164,-0.4111,0.0934,0.4879,0.9818,
5.627027,-0.0811,1.1207,-0.3714,-2.2069,1.7164,-0.4111,0.0934,0.4879,0.9818,
5.630060,-0.0811,1.1207,-0.3714,-2.2069,1.7164,-0.4111,0.0551,0.4198,1.6499,
5.641137,-0.0811,1.1207,-0.3714,-2.8991,2.4387,-0.1040,0.0551,0.4198,1.6499,
5.664801,-0.0811,1.1207,-0.3714,-3.5299,2.5738,-0.1968,0.0551,0.4198,1.6499,
5.681889,-0.0811,1.1207,-0.3714,-5.1494,3.5180,-0.5339,0.0551,0.4198,1.6499,
5.692712,-0.4107,1.2300,-0.3817,-5.1494,3.5180,-0.5339,0.0551,0.4198,1.6499,
5.694148,-0.4107,1.2300,-0.3817,-5.1494,3.5180,-0.5339,0.0647,0.7700,2.1454,
5.702561,-0.4107,1.2300,-0.3817,-7.2251,3.3262,-0.6603,0.0647,0.7700,2.1454,
5.721325,-0.4107,1.2300,-0.3817,-7.8820,4.0066,-0.3261,0.0647,0.7700,2.1454,
5.741562,-0.4107,1.2300,-0.3817,-7.5392,4.1053,0.5701,0.0647,0.7700,2.1454,
5.759396,-0.2214,1.0212,-0.3094,-7.5392,4.1053,0.5701,0.0647,0.7700,2.1454,
5.761959,-0.2214,1.0212,-0.3094,-7.5392,4.1053,0.5701,0.9372,1.2582,3.6807,
5.763730,-0.2214,1.0212,-0.3094,-6.7631,1.8860,0.0185,0.9372,1.2582,3.6807,
5.781183,-0.2214,1.0212,-0.3094,-2.3658,3.6000,-2.1053,0.9372,1.2582,3.6807,
5.801745,-0.2214,1.0212,-0.3094,2.9777,2.8684,-0.5762,0.9372,1.2582,3.6807,
5.821729,-0.2214,1.0212,-0.3094,4.3804,2.3985,-0.1744,0.9372,1.2582,3.6807,
5.824586,0.9929,0.8966,-0.3087,4.3804,2.3985,-0.1744,0.9372,1.2582,3.6807,
5.825811,0.9929,0.8966,-0.3087,4.3804,2.3985,-0.1744,0.9169,0.9095,0.7082,
5.841257,0.9929,0.8966,-0.3087,-2.3789,1.1022,2.3528,0.9169,0.9095,0.7082,
5.861706,0.9929,0.8966,-0.3087,-0.8915,-6.2018,-1.0525,0.9169,0.9095,0.7082,
5.882608,0.9929,0.8966,-0.3087,1.5727,-3.3154,0.8852,0.9169,0.9095,0.7082,
5.890965,0.6963,0.4404,-0.1419,1.5727,-3.3154,0.8852,0.9169,0.9095,0.7082,
5.892466,0.6963,0.4404,-0.1419,1.5727,-3.3154,0.8852,0.3633,1.1901,-0.9234,
5.901385,0.6963,0.4404,-0.1419,-1.2314,-1.6047,1.9372,0.3633,1.1901,-0.9234,
5.921495,0.6963,0.4404,-0.1419,-3.3111,-2.3218,1.1907,0.3633,1.1901,-0.9234,
5.941269,0.6963,0.4404,-0.1419,-4.7841,-3.2291,1.4556,0.3633,1.1901,-0.9234,
5.956676,0.0124,0.4037,-0.0815,-4.7841,-3.2291,1.4556,0.3633,1.1901,-0.9234,
5.959461,0.0124,0.4037,-0.0815,-4.7841,-3.2291,1.4556,0.3617,0.2036,-2.5544,
5.961531,0.0124,0.4037,-0.0815,-6.0037,-3.2348,1.8539,0.3617,0.2036,-2.5544,
5.981734,0.0124,0.4037,-0.0815,-5.2093,-2.2524,1.8445,0.3617,0.2036,-2.5544,
6.003227,0.0124,0.4037,-0.0815,-1.5206,-1.3110,1.8373,0.3617,0.2036,-2.5544,
6.022050,0.0124,0.4037,-0.0815,-0.9307,-1.0227,1.7454,0.3617,0.2036,-2.5544,
6.024903,0.3818,0.7356,-0.1067,-0.9307,-1.0227,1.7454,0.3617,0.2036,-2.5544,
6.026059,0.3818,0.7356,-0.1067,-0.9307,-1.0227,1.7454,0.1871,0.1563,-3.4104,
6.041222,0.3818,0.7356,-0.1067,-0.9169,-0.8117,1.5374,0.1871,0.1563,-3.4104,
6.061619,0.3818,0.7356,-0.1067,0.1047,-0.2889,1.3522,0.1871,0.1563,-3.4104,
6.083407,0.3818,0.7356,-0.1067,-0.2538,0.1483,1.2672,0.1871,0.1563,-3.4104,
6.089523,0.1210,0.9533,-0.1514,-0.2538,0.1483,1.2672,0.1871,0.1563,-3.4104,
6.091442,0.1210,0.9533,-0.1514,-0.2538,0.1483,1.2672,-0.1477,-0.5906,-4.2334,
6.101768,0.1210,0.9533,-0.1514,-2.1859,0.4689,1.3214,-0.1477,-0.5906,-4.2334,
6.121962,0.1210,0.9533,-0.1514,-0.2944,1.5891,0.7285,-0.1477,-0.5906,-4.2334,
6.141904,0.1210,0.9533,-0.1514,0.3508,2.1757,0.6096,-0.1477,-0.5906,-4.2334,
6.156007,0.0527,1.2438,-0.2254,0.3508,2.1757,0.6096,-0.1477,-0.5906,-4.2334,
6.158632,0.0527,1.2438,-0.2254,0.3508,2.1757,0.6096,-0.5208,-1.3438,-3.9390,
6.162841,0.0527,1.2438,-0.2254,0.7942,2.9212,0.4001,-0.5208,-1.3438,-3.9390,
6.181112,0.0527,1.2438,-0.2254,0.7141,3.2360,0.4115,-0.5208,-1.3438,-3.9390,
6.201355,0.0527,1.2438,-0.2254,1.0507,3.3799,0.2137,-0.5208,-1.3438,-3.9390,
6.221518,-0.0163,1.2441,-0.2553,1.0507,3.3799,0.2137,-0.5208,-1.3438,-3.9390,
6.223812,-0.0163,1.2441,-0.2553,1.0507,3.3799,0.2137,-0.8083,-1.7079,-3.0357,
6.224605,-0.0163,1.2441,-0.2553,2.3969,3.0184,-0.3728,-0.8083,-1.7079,-3.0357,
6.241186,-0.0163,1.2441,-0.2553,2.8805,3.1593,-0.4356,-0.8083,-1.7079,-3.0357,
6.261314,-0.0163,1.2441,-0.2553,4.5219,4.3932,-0.5965,-0.8083,-1.7079,-3.0357,
6.281742,-0.0163,1.2441,-0.2553,6.3915,2.4534,-0.1962,-0.8083,-1.7079,-3.0357,
6.286690,0.1383,0.9940,-0.1633,6.3915,2.4534,-0.1962,-0.8083,-1.7079,-3.0357,
6.287952,0.1383,0.9940,-0.1633,6.3915,2.4534,-0.1962,-0.3372,-0.4798,-2.3687,
6.304084,0.1383,0.9940,-0.1633,5.2367,-0.7207,-0.7820,-0.3372,-0.4798,-2.3687,
6.321337,0.1383,0.9940,-0.1633,6.4521,-0.1505,-0.7004,-0.3372,-0.4798,-2.3687,
6.341351,0.1383,0.9940,-0.1633,4.7660,1.1981,-0.5820,-0.3372,-0.4798,-2.3687,
6.352508,-0.3409,1.0956,-0.1910,4.7660,1.1981,-0.5820,-0.3372,-0.4798,-2.3687,
6.355264,-0.3409,1.0956,-0.1910,4.7660,1.1981,-0.5820,0.2521,-0.8083,0.5059,
6.361383,-0.3409,1.0956,-0.1910,-0.3686,5.3680,-0.9751,0.2521,-0.8083,0.5059,
6.382094,-0.3409,1.0956,-0.1910,1.2450,1.4257,-2.9749,0.2521,-0.8083,0.5059,
6.400978,-0.3409,1.0956,-0.1910,6.6813,0.8666,-3.6282,0.2521,-0.8083,0.5059,
6.419557,-0.2462,0.9152,-0.2277,6.6813,0.8666,-3.6282,0.2521,-0.8083,0.5059,
6.422591,-0.2462,0.9152,-0.2277,6.6813,0.8666,-3.6282,0.3106,-0.3494,-0.1819,
6.424189,-0.2462,0.9152,-0.2277,2.3581,0.4711,-1.0477,0.3106,-0.3494,-0.1819,
6.440932,-0.2462,0.9152,-0.2277,-0.4537,0.6779,2.5396,0.3106,-0.3494,-0.1819,
6.461291,-0.2462,0.9152,-0.2277,2.2229,1.9662,3.2931,0.3106,-0.3494,-0.1819,
6.481957,-0.2462,0.9152,-0.2277,1.6277,3.7208,3.1513,0.3106,-0.3494,-0.1819,
6.484980,-0.2899,1.2310,0.1143,1.6277,3.7208,3.1513,0.3106,-0.3494,-0.1819,
6.486897,-0.2899,1.2310,0.1143,1.6277,3.7208,3.1513,0.5741,0.3202,1.0930,
6.501745,-0.2899,1.2310,0.1143,2.9229,2.6981,-3.3268,0.5741,0.3202,1.0930,
6.521215,-0.2899,1.2310,0.1143,-0.5207,-0.1385,-3.1891,0.5741,0.3202,1.0930,
6.541709,-0.2899,1.2310,0.1143,-1.2062,-0.9796,-2.7707,0.5741,0.3202,1.0930,
6.551561,-0.3532,0.7755,-0.2088,-1.2062,-0.9796,-2.7707,0.5741,0.3202,1.0930,
6.554629,-0.3532,0.7755,-0.2088,-1.2062,-0.9796,-2.7707,0.3623,0.3053,1.4529,
6.561249,-0.3532,0.7755,-0.2088,1.4002,-0.1134,0.6505,0.3623,0.3053,1.4529,
6.581104,-0.3532,0.7755,-0.2088,1.9800,0.8225,0.9481,0.3623,0.3053,1.4529,
6.601764,-0.3532,0.7755,-0.2088,1.5204,0.7518,0.1579,0.3623,0.3053,1.4529,
6.618684,-0.0776,1.0249,-0.2317,1.5204,0.7518,0.1579,0.3623,0.3053,1.4529,
6.623469,-0.0776,1.0249,-0.2317,1.5204,0.7518,0.1579,0.4741,0.2659,0.8785,
6.624926,-0.0776,1.0249,-0.2317,2.5755,0.9629,-0.4425,0.4741,0.2659,0.8785,
6.641317,-0.0776,1.0249,-0.2317,1.2573,0.3616,-1.4901,0.4741,0.2659,0.8785,
6.661192,-0.0776,1.0249,-0.2317,-1.4104,-0.0998,-0.9075,0.4741,0.2659,0.8785,
6.681309,-0.0776,1.0249,-0.2317,-1.2129,-0.3630,-0.1942,0.4741,0.2659,0.8785,
6.685174,-0.4085,0.9292,-0.2196,-1.2129,-0.3630,-0.1942,0.4741,0.2659,0.8785,
6.686504,-0.4085,0.9292,-0.2196,-1.2129,-0.3630,-0.1942,0.2547,0.4411,0.7353,
6.701535,-0.4085,0.9292,-0.2196,0.2787,-0.3705,0.6073,0.2547,0.4411,0.7353,
6.721458,-0.4085,0.9292,-0.2196,-0.0113,0.3843,-0.4867,0.2547,0.4411,0.7353,
6.741745,-0.4085,0.9292,-0.2196,0.6490,-0.2016,-0.8982,0.2547,0.4411,0.7353,
6.748781,-0.2835,0.9380,-0.3471,0.6490,-0.2016,-0.8982,0.2547,0.4411,0.7353,
6.751240,-0.2835,0.9380,-0.3471,0.6490,-0.2016,-0.8982,0.1824,0.3160,0.7151,
6.761324,-0.2835,0.9380,-0.3471,-0.7766,-0.2032,-0.5373,0.1824,0.3160,0.7151,
6.781499,-0.2835,0.9380,-0.3471,1.5766,0.1926,-0.0427,0.1824,0.3160,0.7151,
6.802036,-0.2835,0.9380,-0.3471,1.7631,0.0549,0.0930,0.1824,0.3160,0.7151,
6.814874,-0.2520,0.9616,-0.3437,1.7631,0.0549,0.0930,0.1824,0.3160,0.7151,
6.816995,-0.2520,0.9616,-0.3437,1.7631,0.0549,0.0930,0.0876,0.3463,0.5426,
6.821454,-0.2520,0.9616,-0.3437,-0.6314,0.0423,-0.5855,0.0876,0.3463,0.5426,
6.841324,-0.2520,0.9616,-0.3437,-0.2940,-0.2169,-0.3020,0.0876,0.3463,0.5426,
6.861640,-0.2520,0.9616,-0.3437,-0.1403,0.0529,0.2623,0.0876,0.3463,0.5426,
6.880607,0.0167,0.9576,-0.2270,-0.1403,0.0529,0.2623,0.0876,0.3463,0.5426,
6.885159,0.0167,0.9576,-0.2270,-0.1403,0.0529,0.2623,0.1930,0.0067,0.5889,
6.886441,0.0167,0.9576,-0.2270,1.4687,0.0990,0.5154,0.1930,0.0067,0.5889,
6.901936,0.0167,0.9576,-0.2270,-1.3965,0.3384,-0.2623,0.1930,0.0067,0.5889,
6.921178,0.0167,0.9576,-0.2270,0.7117,-0.1298,-0.3453,0.1930,0.0067,0.5889,
6.941763,0.0167,0.9576,-0.2270,-1.3030,-0.1840,0.1700,0.1930,0.0067,0.5889,
6.947453,-0.2155,0.9403,-0.2642,-1.3030,-0.1840,0.1700,0.1930,0.0067,0.5889,
6.949592,-0.2155,0.9403,-0.2642,-1.3030,-0.1840,0.1700,0.1110,0.3261,0.6502,
6.961194,-0.2155,0.9403,-0.2642,-0.6022,-0.0919,0.1937,0.1110,0.3261,0.6502,
6.980996,-0.2155,0.9403,-0.2642,1.5871,0.0897,-0.1808,0.1110,0.3261,0.6502,
7.001151,-0.2155,0.9403,-0.2642,-2.1867,0.2670,-0.2753,0.1110,0.3261,0.6502,
7.012699,-0.2658,0.9652,-0.3244,-2.1867,0.2670,-0.2753,0.1110,0.3261,0.6502,
7.014598,-0.2658,0.9652,-0.3244,-2.1867,0.2670,-0.2753,0.0588,0.5087,0.8343,
7.023735,-0.2658,0.9652,-0.3244,-1.4533,-0.0106,0.0049,0.0588,0.5087,0.8343,
7.041599,-0.2658,0.9652,-0.3244,-1.3171,0.1841,0.0621,0.0588,0.5087,0.8343,
7.061361,-0.2658,0.9652,-0.3244,-1.6803,0.2573,0.0560,0.0588,0.5087,0.8343,
7.079476,-0.1098,1.0555,-0.3109,-1.6803,0.2573,0.0560,0.0588,0.5087,0.8343,
7.082987,-0.1098,1.0555,-0.3109,-1.6803,0.2573,0.0560,0.1110,0.5337,1.2863,
7.084734,-0.1098,1.0555,-0.3109,-1.3516,1.0044,-0.0385,0.1110,0.5337,1.2863,
7.102679,-0.1098,1.0555,-0.3109,-0.9299,1.0101,-0.2492,0.1110,0.5337,1.2863,
7.121506,-0.1098,1.0555,-0.3109,-0.9712,1.4244,-0.1611,0.1110,0.5337,1.2863,
7.142058,-0.1098,1.0555,-0.3109,-2.1397,1.6912,-0.3529,0.1110,0.5337,1.2863,
7.145245,-0.1319,1.1480,-0.3081,-2.1397,1.6912,-0.3529,0.1110,0.5337,1.2863,
7.146344,-0.1319,1.1480,-0.3081,-2.1397,1.6912,-0.3529,-0.0492,0.3431,1.6621,
7.161305,-0.1319,1.1480,-0.3081,-3.0044,1.7885,-0.2037,-0.0492,0.3431,1.6621,
7.181366,-0.1319,1.1480,-0.3081,-2.4152,1.4721,-0.0864,-0.0492,0.3431,1.6621,
7.201599,-0.1319,1.1480,-0.3081,-3.2060,2.0489,-0.1383,-0.0492,0.3431,1.6621,
7.210704,-0.1738,1.1818,-0.3393,-3.2060,2.0489,-0.1383,-0.0492,0.3431,1.6621,
7.212261,-0.1738,1.1818,-0.3393,-3.2060,2.0489,-0.1383,-0.1184,0.4602,2.1705,
7.221151,-0.1738,1.1818,-0.3393,-4.6886,2.6140,-0.3597,-0.1184,0.4602,2.1705,
7.241794,-0.1738,1.1818,-0.3393,-5.3608,2.7503,-0.2136,-0.1184,0.4602,2.1705,
7.261586,-0.1738,1.1818,-0.3393,-5.9250,3.6246,0.0444,-0.1184,0.4602,2.1705,
7.276637,-0.2854,1.2909,-0.2322,-5.9250,3.6246,0.0444,-0.1184,0.4602,2.1705,
7.279471,-0.2854,1.2909,-0.2322,-5.9250,3.6246,0.0444,0.0072,0.6780,2.8497,
7.280852,-0.2854,1.2909,-0.2322,-6.6515,4.2069,0.5945,0.0072,0.6780,2.8497,
7.301104,-0.2854,1.2909,-0.2322,-5.9162,4.4689,0.4679,0.0072,0.6780,2.8497,
7.327476,-0.2854,1.2909,-0.2322,-4.9676,2.7640,-1.9283,0.0072,0.6780,2.8497,
7.342532,-0.2854,1.2909,-0.2322,-3.5480,3.0573,-3.3583,0.0072,0.6780,2.8497,
7.345429,0.2806,1.0759,-0.5842,-3.5480,3.0573,-3.3583,0.0072,0.6780,2.8497,
7.346684,0.2806,1.0759,-0.5842,-3.5480,3.0573,-3.3583,0.2420,0.5294,3.4869,
7.361237,0.2806,1.0759,-0.5842,-0.6693,3.3662,-1.9226,0.2420,0.5294,3.4869,
7.381053,0.2806,1.0759,-0.5842,0.4101,2.0713,-1.7638,0.2420,0.5294,3.4869,
7.402285,0.2806,1.0759,-0.5842,-2.2249,-0.0456,1.7344,0.2420,0.5294,3.4869,
7.408761,0.3940,0.1706,-0.3992,-2.2249,-0.0456,1.7344,0.2420,0.5294,3.4869,
7.410257,0.3940,0.1706,-0.3992,-2.2249,-0.0456,1.7344,-0.0508,1.0399,-0.8004,
7.421789,0.3940,0.1706,-0.3992,-2.1268,-7.2164,-2.4559,-0.0508,1.0399,-0.8004,
7.441515,0.3940,0.1706,-0.3992,-0.2285,-2.9826,-0.1209,-0.0508,1.0399,-0.8004,
7.463004,0.3940,0.1706,-0.3992,-0.4919,-1.9081,0.5050,-0.0508,1.0399,-0.8004,
7.474894,0.4231,0.6573,-0.1733,-0.4919,-1.9081,0.5050,-0.0508,1.0399,-0.8004,
7.478092,0.4231,0.6573,-0.1733,-0.4919,-1.9081,0.5050,-0.5858,-0.4229,-0.7674,
7.480802,0.4231,0.6573,-0.1733,-2.7459,-0.3398,0.7049,-0.5858,-0.4229,-0.7674,
7.501573,0.4231,0.6573,-0.1733,-4.3680,-1.7991,-0.2138,-0.5858,-0.4229,-0.7674,
7.521888,0.4231,0.6573,-0.1733,-5.9730,-3.2437,0.3341,-0.5858,-0.4229,-0.7674,
7.540713,0.0174,0.4419,-0.2263,-5.9730,-3.2437,0.3341,-0.5858,-0.4229,-0.7674,
7.543773,0.0174,0.4419,-0.2263,-5.9730,-3.2437,0.3341,-0.8030,-1.4540,-1.9620,
7.544928,0.0174,0.4419,-0.2263,-5.9224,-3.4043,0.3011,-0.8030,-1.4540,-1.9620,
7.561003,0.0174,0.4419,-0.2263,-1.9060,-1.9577,0.1237,-0.8030,-1.4540,-1.9620,
7.581001,0.0174,0.4419,-0.2263,-0.3353,-0.5695,-0.1582,-0.8030,-1.4540,-1.9620,
7.601575,0.0174,0.4419,-0.2263,-0.4532,-0.0347,-0.5143,-0.8030,-1.4540,-1.9620,
7.606548,0.3767,0.8327,-0.3334,-0.4532,-0.0347,-0.5143,-0.8030,-1.4540,-1.9620,
7.608202,0.3767,0.8327,-0.3334,-0.4532,-0.0347,-0.5143,-1.4024,-1.7303,-3.2321,
7.621827,0.3767,0.8327,-0.3334,-0.4856,-0.4189,-0.9157,-1.4024,-1.7303,-3.2321,
7.642339,0.3767,0.8327,-0.3334,0.1242,0.9021,-1.8334,-1.4024,-1.7303,-3.2321,
7.661680,0.3767,0.8327,-0.3334,0.5255,1.3915,-1.4437,-1.4024,-1.7303,-3.2321,
7.673761,0.2988,1.1694,-0.3836,0.5255,1.3915,-1.4437,-1.4024,-1.7303,-3.2321,
7.676612,0.2988,1.1694,-0.3836,0.5255,1.3915,-1.4437,-1.5014,-2.2040,-3.2933,
7.681215,0.2988,1.1694,-0.3836,1.4922,2.4578,-2.1566,-1.5014,-2.2040,-3.2933,
7.701306,0.2988,1.1694,-0.3836,2.5321,3.3974,-2.1658,-1.5014,-2.2040,-3.2933,
7.721219,0.2988,1.1694,-0.3836,1.6445,2.4907,-1.9504,-1.5014,-2.2040,-3.2933,
7.739377,-0.0320,1.1605,-0.3554,1.6445,2.4907,-1.9504,-1.5014,-2.2040,-3.2933,
7.741884,-0.0320,1.1605,-0.3554,1.6445,2.4907,-1.9504,-0.8669,-2.7507,-2.4080,
7.743284,-0.0320,1.1605,-0.3554,0.1021,1.6381,-2.2983,-0.8669,-2.7507,-2.4080,
7.761234,-0.0320,1.1605,-0.3554,1.8441,0.9531,-2.4613,-0.8669,-2.7507,-2.4080,
7.780690,-0.0320,1.1605,-0.3554,3.0450,0.6060,-2.8854,-0.8669,-2.7507,-2.4080,
7.801156,-0.0320,1.1605,-0.3554,2.9389,0.4238,-3.3756,-0.8669,-2.7507,-2.4080,
7.806265,0.0900,1.0457,-0.4060,2.9389,0.4238,-3.3756,-0.8669,-2.7507,-2.4080,
7.807944,0.0900,1.0457,-0.4060,2.9389,0.4238,-3.3756,-0.5677,-3.7499,-1.8007,
7.821729,0.0900,1.0457,-0.4060,2.2464,0.5695,-3.5484,-0.5677,-3.7499,-1.8007,
7.842920,0.0900,1.0457,-0.4060,1.6424,0.7322,-3.5512,-0.5677,-3.7499,-1.8007,
7.861930,0.0900,1.0457,-0.4060,1.1941,0.3741,-3.4070,-0.5677,-3.7499,-1.8007,
7.872799,-0.1180,0.9551,-0.2720,1.1941,0.3741,-3.4070,-0.5677,-3.7499,-1.8007,
7.874715,-0.1180,0.9551,-0.2720,1.1941,0.3741,-3.4070,-0.1743,-5.6732,-0.8781,
7.880772,-0.1180,0.9551,-0.2720,2.0418,-0.2612,-3.4006,-0.1743,-5.6732,-0.8781,
7.901361,-0.1180,0.9551,-0.2720,3.8484,0.1071,-5.2256,-0.1743,-5.6732,-0.8781,
7.921026,-0.1180,0.9551,-0.2720,3.9797,1.2888,-6.7590,-0.1743,-5.6732,-0.8781,
7.938546,0.0714,0.8758,-0.5146,3.9797,1.2888,-6.7590,-0.1743,-5.6732,-0.8781,
7.939981,0.0714,0.8758,-0.5146,3.9797,1.2888,-6.7590,0.7812,-3.1846,0.5426,
7.940928,0.0714,0.8758,-0.5146,3.2880,-0.9644,-6.5319,0.7812,-3.1846,0.5426,
7.961339,0.0714,0.8758,-0.5146,3.0357,-1.6972,-6.3320,0.7812,-3.1846,0.5426,
7.981209,0.0714,0.8758,-0.5146,2.2831,-0.6815,-6.7959,0.7812,-3.1846,0.5426,
8.000831,0.0714,0.8758,-0.5146,0.9769,-0.7033,-5.1757,0.7812,-3.1846,0.5426,
8.002781,-0.2042,0.8478,-0.3778,0.9769,-0.7033,-5.1757,0.7812,-3.1846,0.5426,
8.003672,-0.2042,0.8478,-0.3778,0.9769,-0.7033,-5.1757,1.2406,-2.7204,0.6714,
8.021052,-0.2042,0.8478,-0.3778,-0.9385,0.8685,0.3351,1.2406,-2.7204,0.6714,
8.041144,-0.2042,0.8478,-0.3778,-1.8419,2.7491,4.3059,1.2406,-2.7204,0.6714,
8.061669,-0.2042,0.8478,-0.3778,2.1478,0.6090,-0.0640,1.2406,-2.7204,0.6714,
8.068614,0.2113,0.9288,-0.2228,2.1478,0.6090,-0.0640,1.2406,-2.7204,0.6714,
8.070831,0.2113,0.9288,-0.2228,2.1478,0.6090,-0.0640,1.1581,-3.8516,1.2251,
8.081087,0.2113,0.9288,-0.2228,4.1296,-0.5798,-4.8345,1.1581,-3.8516,1.2251,
8.100955,0.2113,0.9288,-0.2228,5.1086,4.7261,-2.5150,1.1581,-3.8516,1.2251,
8.122235,0.2113,0.9288,-0.2228,7.2847,2.2234,1.9072,1.1581,-3.8516,1.2251,
8.134604,0.2406,0.9613,0.0597,7.2847,2.2234,1.9072,1.1581,-3.8516,1.2251,
8.137805,0.2406,0.9613,0.0597,7.2847,2.2234,1.9072,0.8648,0.2106,-0.1744,
8.142084,0.2406,0.9613,0.0597,2.2174,0.0563,-0.7813,0.8648,0.2106,-0.1744,
8.162065,0.2406,0.9613,0.0597,0.8663,0.7693,-1.8161,0.8648,0.2106,-0.1744,
8.181091,0.2406,0.9613,0.0597,1.6965,0.0220,-1.3021,0.8648,0.2106,-0.1744,
8.200780,-0.1311,1.0109,-0.2137,1.6965,0.0220,-1.3021,0.8648,0.2106,-0.1744,
8.203840,-0.1311,1.0109,-0.2137,1.6965,0.0220,-1.3021,0.7418,-0.0881,-0.3405,
8.204929,-0.1311,1.0109,-0.2137,-0.3562,0.1450,-1.9113,0.7418,-0.0881,-0.3405,
8.221501,-0.1311,1.0109,-0.2137,-2.1216,-0.4541,-1.3136,0.7418,-0.0881,-0.3405,
8.241023,-0.1311,1.0109,-0.2137,-1.1535,-0.2386,-1.4430,0.7418,-0.0881,-0.3405,
8.261221,-0.1311,1.0109,-0.2137,1.4594,0.4378,-0.8864,0.7418,-0.0881,-0.3405,
8.266720,0.1051,1.0382,-0.0978,1.4594,0.4378,-0.8864,0.7418,-0.0881,-0.3405,
8.268319,0.1051,1.0382,-0.0978,1.4594,0.4378,-0.8864,0.5465,-0.4192,-0.2511,
8.280936,0.1051,1.0382,-0.0978,0.9624,0.0561,0.2749,0.5465,-0.4192,-0.2511,
8.301310,0.1051,1.0382,-0.0978,-1.2347,-0.3714,0.2725,0.5465,-0.4192,-0.2511,
8.320923,0.1051,1.0382,-0.0978,-2.5551,-0.3175,-0.5239,0.5465,-0.4192,-0.2511,
8.332465,-0.2916,0.9553,-0.1800,-2.5551,-0.3175,-0.5239,0.5465,-0.4192,-0.2511,
8.333473,-0.2916,0.9553,-0.1800,-2.5551,-0.3175,-0.5239,0.4863,-0.2392,-0.0738,
8.343201,-0.2916,0.9553,-0.1800,-1.1295,-0.3044,-0.3760,0.4863,-0.2392,-0.0738,
8.361334,-0.2916,0.9553,-0.1800,-0.3846,-0.0384,-0.0163,0.4863,-0.2392,-0.0738,
8.381441,-0.2916,0.9553,-0.1800,0.4783,-0.1839,-1.6707,0.4863,-0.2392,-0.0738,
8.399430,-0.0615,1.0028,-0.1520,0.4783,-0.1839,-1.6707,0.4863,-0.2392,-0.0738,
8.401562,-0.0615,1.0028,-0.1520,0.4783,-0.1839,-1.6707,0.3953,-0.0864,0.0417,
8.402274,-0.0615,1.0028,-0.1520,0.4893,0.1482,-0.2421,0.3953,-0.0864,0.0417,
8.420989,-0.0615,1.0028,-0.1520,-0.7025,-0.3534,-1.1655,0.3953,-0.0864,0.0417,
8.441098,-0.0615,1.0028,-0.1520,-0.9392,-0.2673,0.2788,0.3953,-0.0864,0.0417,
8.462831,-0.0615,1.0028,-0.1520,-1.2110,-0.2599,-0.2490,0.3953,-0.0864,0.0417,
8.465668,-0.2323,0.9543,-0.2198,-1.2110,-0.2599,-0.2490,0.3953,-0.0864,0.0417,
8.466630,-0.2323,0.9543,-0.2198,-1.2110,-0.2599,-0.2490,0.4325,-0.4963,0.3292,
8.481276,-0.2323,0.9543,-0.2198,-0.6864,-0.0371,-1.4086,0.4325,-0.4963,0.3292,
8.501105,-0.2323,0.9543,-0.2198,2.1496,0.2412,-0.9133,0.4325,-0.4963,0.3292,
8.521148,-0.2323,0.9543,-0.2198,-0.3480,-0.4511,0.7580,0.4325,-0.4963,0.3292,
8.530792,-0.1492,0.9652,-0.1812,-0.3480,-0.4511,0.7580,0.4325,-0.4963,0.3292,
8.532234,-0.1492,0.9652,-0.1812,-0.3480,-0.4511,0.7580,0.3138,-0.3068,0.2669,
8.541558,-0.1492,0.9652,-0.1812,0.3202,0.3003,-0.3582,0.3138,-0.3068,0.2669,
8.561342,-0.1492,0.9652,-0.1812,0.4683,0.0416,-1.6097,0.3138,-0.3068,0.2669,
8.581242,-0.1492,0.9652,-0.1812,-0.6841,-0.2282,-1.3176,0.3138,-0.3068,0.2669,
8.596637,-0.0321,1.0090,-0.2503,-0.6841,-0.2282,-1.3176,0.3138,-0.3068,0.2669,
8.599370,-0.0321,1.0090,-0.2503,-0.6841,-0.2282,-1.3176,-0.0173,0.1078,0.1860,
8.600874,-0.0321,1.0090,-0.2503,0.6071,0.2925,-0.3664,-0.0173,0.1078,0.1860,
8.623417,-0.0321,1.0090,-0.2503,0.0452,0.0730,0.0427,-0.0173,0.1078,0.1860,
8.641687,-0.0321,1.0090,-0.2503,-0.7860,-0.2316,-1.0489,-0.0173,0.1078,0.1860,
8.661831,-0.0321,1.0090,-0.2503,-0.3995,-0.3119,-1.3558,-0.0173,0.1078,0.1860,
8.664868,-0.1268,0.9474,-0.3267,-0.3995,-0.3119,-1.3558,-0.0173,0.1078,0.1860,
8.665837,-0.1268,0.9474,-0.3267,-0.3995,-0.3119,-1.3558,0.0237,0.0131,0.2642,
8.681231,-0.1268,0.9474,-0.3267,-0.7704,-0.4414,-0.3995,0.0237,0.0131,0.2642,
8.701178,-0.1268,0.9474,-0.3267,0.3951,-0.0826,0.0589,0.0237,0.0131,0.2642,
8.721245,-0.1268,0.9474,-0.3267,1.4561,0.3918,0.5619,0.0237,0.0131,0.2642,
8.733948,-0.0297,1.0250,-0.1959,1.4561,0.3918,0.5619,0.0237,0.0131,0.2642,
8.736444,-0.0297,1.0250,-0.1959,1.4561,0.3918,0.5619,-0.1248,-0.0928,0.1982,
8.743832,-0.0297,1.0250,-0.1959,-0.9770,0.0133,-0.8810,-0.1248,-0.0928,0.1982,
8.761237,-0.0297,1.0250,-0.1959,-1.1206,-0.4256,-1.1176,-0.1248,-0.0928,0.1982,
8.781664,-0.0297,1.0250,-0.1959,-0.2143,-0.0835,1.0720,-0.1248,-0.0928,0.1982,
8.794785,-0.0194,1.0028,-0.0648,-0.2143,-0.0835,1.0720,-0.1248,-0.0928,0.1982,
8.797514,-0.0194,1.0028,-0.0648,-0.2143,-0.0835,1.0720,-0.1871,-0.0471,0.4745,
8.800945,-0.0194,1.0028,-0.0648,-0.1180,0.0921,0.7896,-0.1871,-0.0471,0.4745,
8.821517,-0.0194,1.0028,-0.0648,-0.7289,-0.1701,-1.1953,-0.1871,-0.0471,0.4745,
8.841026,-0.0194,1.0028,-0.0648,-0.5746,-0.0612,-1.8813,-0.1871,-0.0471,0.4745,
8.861273,0.0253,0.9915,-0.1168,-0.5746,-0.0612,-1.8813,-0.1871,-0.0471,0.4745,
8.864135,0.0253,0.9915,-0.1168,-0.5746,-0.0612,-1.8813,-0.4878,-0.1780,0.6470,
8.865390,0.0253,0.9915,-0.1168,0.3271,-0.2399,-0.0183,-0.4878,-0.1780,0.6470,
8.881394,0.0253,0.9915,-0.1168,-0.0503,0.6701,-0.1896,-0.4878,-0.1780,0.6470,
8.901132,0.0253,0.9915,-0.1168,-0.0219,-0.7046,-1.3188,-0.4878,-0.1780,0.6470,
8.921324,0.0253,0.9915,-0.1168,-1.1680,0.6684,-0.6699,-0.4878,-0.1780,0.6470,
8.926966,-0.1467,1.1019,-0.1530,-1.1680,0.6684,-0.6699,-0.4878,-0.1780,0.6470,
8.928515,-0.1467,1.1019,-0.1530,-1.1680,0.6684,-0.6699,-0.8429,0.0860,0.8120,
8.941817,-0.1467,1.1019,-0.1530,-2.8915,1.0022,-0.6932,-0.8429,0.0860,0.8120,
8.961287,-0.1467,1.1019,-0.1530,-4.1789,1.2071,-0.7935,-0.8429,0.0860,0.8120,
8.981340,-0.1467,1.1019,-0.1530,-2.9308,1.6331,-0.4774,-0.8429,0.0860,0.8120,
8.992992,0.2463,1.3049,-0.1579,-2.9308,1.6331,-0.4774,-0.8429,0.0860,0.8120,
8.996210,0.2463,1.3049,-0.1579,-2.9308,1.6331,-0.4774,-1.0462,-0.5283,1.7947,
9.001103,0.2463,1.3049,-0.1579,0.4846,3.5674,-1.3339,-1.0462,-0.5283,1.7947,
9.021720,0.2463,1.3049,-0.1579,-1.5693,2.2557,-2.2861,-1.0462,-0.5283,1.7947,
9.043915,0.2463,1.3049,-0.1579,-2.8437,1.6512,-2.2146,-1.0462,-0.5283,1.7947,
9.061020,-0.0478,1.2548,-0.2690,-2.8437,1.6512,-2.2146,-1.0462,-0.5283,1.7947,
9.064429,-0.0478,1.2548,-0.2690,-2.8437,1.6512,-2.2146,-1.5924,-0.8237,1.7089,
9.065911,-0.0478,1.2548,-0.2690,-2.9398,2.8061,-2.9022,-1.5924,-0.8237,1.7089,
9.081627,-0.0478,1.2548,-0.2690,-5.0991,4.1144,-2.6432,-1.5924,-0.8237,1.7089,
9.101657,-0.0478,1.2548,-0.2690,-3.3864,1.7789,-3.3237,-1.5924,-0.8237,1.7089,
9.121717,-0.0478,1.2548,-0.2690,-1.4729,1.6298,-4.5566,-1.5924,-0.8237,1.7089,
9.125444,0.3351,1.0590,-0.4907,-1.4729,1.6298,-4.5566,-1.5924,-0.8237,1.7089,
9.127181,0.3351,1.0590,-0.4907,-1.4729,1.6298,-4.5566,-0.8221,-1.8650,2.4872,
9.141214,0.3351,1.0590,-0.4907,-0.3883,0.3637,-5.9820,-0.8221,-1.8650,2.4872,
9.162151,0.3351,1.0590,-0.4907,0.6101,-4.2532,-5.0641,-0.8221,-1.8650,2.4872,
9.181881,0.3351,1.0590,-0.4907,0.5794,-1.3145,-5.3971,-0.8221,-1.8650,2.4872,
9.197965,0.2564,0.9521,-0.4549,0.5794,-1.3145,-5.3971,-0.8221,-1.8650,2.4872,
9.201069,0.2564,0.9521,-0.4549,0.5794,-1.3145,-5.3971,-1.0292,-5.5353,1.4673,
9.202679,0.2564,0.9521,-0.4549,-4.2292,1.2916,-4.4309,-1.0292,-5.5353,1.4673,
9.221219,0.2564,0.9521,-0.4549,-8.3567,-1.2697,-4.0444,-1.0292,-5.5353,1.4673,
9.241387,0.2564,0.9521,-0.4549,-6.2828,-1.8406,-5.4126,-1.0292,-5.5353,1.4673,
9.256875,0.2830,0.7457,-0.6261,-6.2828,-1.8406,-5.4126,-1.0292,-5.5353,1.4673,
9.258780,0.2830,0.7457,-0.6261,-6.2828,-1.8406,-5.4126,-0.6518,-4.5569,1.2639,
9.263478,0.2830,0.7457,-0.6261,-2.6407,-0.4520,-4.8123,-0.6518,-4.5569,1.2639,
9.281440,0.2830,0.7457,-0.6261,-1.4270,-0.1664,-3.9466,-0.6518,-4.5569,1.2639,
9.301532,0.2830,0.7457,-0.6261,-2.5742,-0.7706,-2.5332,-0.6518,-4.5569,1.2639,
9.321597,0.2830,0.7457,-0.6261,-3.2433,-1.3143,-2.0162,-0.6518,-4.5569,1.2639,
9.324253,0.2506,0.6694,-0.4312,-3.2433,-1.3143,-2.0162,-0.6518,-4.5569,1.2639,
9.325406,0.2506,0.6694,-0.4312,-3.2433,-1.3143,-2.0162,-0.9265,-2.7885,-0.5556,
9.342026,0.2506,0.6694,-0.4312,-1.9088,-0.5657,-2.0463,-0.9265,-2.7885,-0.5556,
9.361666,0.2506,0.6694,-0.4312,-1.6353,0.0488,-1.7344,-0.9265,-2.7885,-0.5556,
9.381179,0.2506,0.6694,-0.4312,-1.7459,-0.3432,-1.1196,-0.9265,-2.7885,-0.5556,
9.388577,0.3074,0.8101,-0.3652,-1.7459,-0.3432,-1.1196,-0.9265,-2.7885,-0.5556,
9.390286,0.3074,0.8101,-0.3652,-1.7459,-0.3432,-1.1196,-1.0707,-1.9730,-2.2148,
9.401308,0.3074,0.8101,-0.3652,-1.1370,-0.3840,-0.9380,-1.0707,-1.9730,-2.2148,
9.421635,0.3074,0.8101,-0.3652,-0.5866,-0.4758,-0.7724,-1.0707,-1.9730,-2.2148,
9.441059,0.3074,0.8101,-0.3652,-0.1970,-0.1709,-0.7350,-1.0707,-1.9730,-2.2148,
9.454524,0.2662,0.9579,-0.3302,-0.1970,-0.1709,-0.7350,-1.0707,-1.9730,-2.2148,
9.456218,0.2662,0.9579,-0.3302,-0.1970,-0.1709,-0.7350,-0.8344,-1.2283,-3.2736,
9.461746,0.2662,0.9579,-0.3302,-0.0489,0.4113,-0.8569,-0.8344,-1.2283,-3.2736,
9.481027,0.2662,0.9579,-0.3302,0.2070,0.7161,-1.3573,-0.8344,-1.2283,-3.2736,
9.501443,0.2662,0.9579,-0.3302,1.0638,1.2335,-1.1745,-0.8344,-1.2283,-3.2736,
9.520951,0.3833,1.2216,-0.3238,1.0638,1.2335,-1.1745,-0.8344,-1.2283,-3.2736,
9.523492,0.3833,1.2216,-0.3238,1.0638,1.2335,-1.1745,-0.6135,-0.1280,-3.4360,
9.524401,0.3833,1.2216,-0.3238,2.9885,2.3391,-1.0608,-0.6135,-0.1280,-3.4360,
9.541087,0.3833,1.2216,-0.3238,4.8360,2.2496,-1.0034,-0.6135,-0.1280,-3.4360,
9.562119,0.3833,1.2216,-0.3238,5.2918,1.1361,-0.6041,-0.6135,-0.1280,-3.4360,
9.581485,0.3833,1.2216,-0.3238,3.9853,0.3385,-0.3333,-0.6135,-0.1280,-3.4360,
9.586873,0.2255,1.0100,-0.2153,3.9853,0.3385,-0.3333,-0.6135,-0.1280,-3.4360,
9.588369,0.2255,1.0100,-0.2153,3.9853,0.3385,-0.3333,-0.3622,-0.1152,-3.7053,
9.601365,0.2255,1.0100,-0.2153,4.0258,0.5973,-0.5690,-0.3622,-0.1152,-3.7053,
9.621506,0.2255,1.0100,-0.2153,5.2981,0.1798,-0.7670,-0.3622,-0.1152,-3.7053,
9.641756,0.2255,1.0100,-0.2153,5.1746,-0.5322,-0.7714,-0.3622,-0.1152,-3.7053,
9.652810,0.0582,0.9662,-0.2188,5.1746,-0.5322,-0.7714,-0.3622,-0.1152,-3.7053,
9.653331,0.0582,0.9662,-0.2188,5.1746,-0.5322,-0.7714,-0.1248,-1.4391,-1.8933,
9.662533,0.0582,0.9662,-0.2188,3.8737,0.6772,-0.6456,-0.1248,-1.4391,-1.8933,
9.681016,0.0582,0.9662,-0.2188,2.7354,0.1868,-0.7103,-0.1248,-1.4391,-1.8933,
9.700603,0.0582,0.9662,-0.2188,4.1735,4.4312,-1.0602,-0.1248,-1.4391,-1.8933,
9.718871,-0.4597,1.4125,-0.2766,4.1735,4.4312,-1.0602,-0.1248,-1.4391,-1.8933,
9.720167,-0.4597,1.4125,-0.2766,4.1735,4.4312,-1.0602,0.7131,-0.6486,0.4383,
9.721710,-0.4597,1.4125,-0.2766,0.0696,5.2194,-1.6572,0.7131,-0.6486,0.4383,
9.741179,-0.4597,1.4125,-0.2766,4.5448,0.8531,-3.2567,0.7131,-0.6486,0.4383,
9.760905,-0.4597,1.4125,-0.2766,2.5316,-0.6199,-3.0091,0.7131,-0.6486,0.4383,
9.780838,-0.4597,1.4125,-0.2766,-5.8414,0.7177,1.7259,0.7131,-0.6486,0.4383,
9.784211,-0.9403,0.8881,0.1387,-5.8414,0.7177,1.7259,0.7131,-0.6486,0.4383,
9.784987,-0.9403,0.8881,0.1387,-5.8414,0.7177,1.7259,0.1914,-0.4729,0.6832,
9.801184,-0.9403,0.8881,0.1387,1.2900,-0.6829,2.9636,0.1914,-0.4729,0.6832,
9.821531,-0.9403,0.8881,0.1387,4.4827,1.1347,3.3344,0.1914,-0.4729,0.6832,
9.841068,-0.9403,0.8881,0.1387,2.0291,1.8837,2.6946,0.1914,-0.4729,0.6832,
9.851092,-0.2500,1.1209,0.0510,2.0291,1.8837,2.6946,0.1914,-0.4729,0.6832,
9.853416,-0.2500,1.1209,0.0510,2.0291,1.8837,2.6946,0.6705,0.5167,1.6557,
9.862806,-0.2500,1.1209,0.0510,3.1251,1.6555,-2.0286,0.6705,0.5167,1.6557,
9.884390,-0.2500,1.1209,0.0510,2.8433,0.9729,-3.0542,0.6705,0.5167,1.6557,
9.901266,-0.2500,1.1209,0.0510,-1.5138,-0.8088,-2.5671,0.6705,0.5167,1.6557,
9.916648,-0.2927,0.8808,-0.2826,-1.5138,-0.8088,-2.5671,0.6705,0.5167,1.6557,
9.918865,-0.2927,0.8808,-0.2826,-1.5138,-0.8088,-2.5671,0.4443,0.1653,1.6829,
9.920726,-0.2927,0.8808,-0.2826,-0.1712,-0.5302,-0.5810,0.4443,0.1653,1.6829,
9.940953,-0.2927,0.8808,-0.2826,2.9223,0.7324,1.3022,0.4443,0.1653,1.6829,
9.961137,-0.2927,0.8808,-0.2826,2.2928,0.9103,0.8834,0.4443,0.1653,1.6829,
9.981358,-0.2927,0.8808,-0.2826,0.2749,-0.2591,-0.7748,0.4443,0.1653,1.6829,
9.983686,-0.1925,0.9217,-0.3351,0.2749,-0.2591,-0.7748,0.4443,0.1653,1.6829,
9.984904,-0.1925,0.9217,-0.3351,0.2749,-0.2591,-0.7748,0.5156,0.1339,1.1452,
10.001219,-0.1925,0.9217,-0.3351,-0.8787,-0.6489,-1.2001,0.5156,0.1339,1.1452,
10.021408,-0.1925,0.9217,-0.3351,0.8383,0.1088,-0.0647,0.5156,0.1339,1.1452,
10.041125,-0.1925,0.9217,-0.3351,2.1348,0.4592,-0.0465,0.5156,0.1339,1.1452,
10.048752,0.0051,0.9997,-0.2832,2.1348,0.4592,-0.0465,0.5156,0.1339,1.1452,
10.051701,0.0051,0.9997,-0.2832,2.1348,0.4592,-0.0465,0.3894,0.2207,0.8636,
10.064424,0.0051,0.9997,-0.2832,0.2053,0.1159,-0.8050,0.3894,0.2207,0.8636,
10.082577,0.0051,0.9997,-0.2832,1.1806,0.0395,-1.1580,0.3894,0.2207,0.8636,
10.101557,0.0051,0.9997,-0.2832,2.1952,0.1225,0.2131,0.3894,0.2207,0.8636,
10.115084,-0.0188,1.0060,-0.2740,2.1952,0.1225,0.2131,0.3894,0.2207,0.8636,
10.118122,-0.0188,1.0060,-0.2740,2.1952,0.1225,0.2131,0.2377,0.3735,0.3994,
10.121699,-0.0188,1.0060,-0.2740,0.3497,0.2599,0.1053,0.2377,0.3735,0.3994,
10.141672,-0.0188,1.0060,-0.2740,0.2988,0.0437,-0.4621,0.2377,0.3735,0.3994,
10.161341,-0.0188,1.0060,-0.2740,0.2856,0.0341,-1.2676,0.2377,0.3735,0.3994,
10.181186,-0.0096,0.9322,-0.3361,0.2856,0.0341,-1.2676,0.2377,0.3735,0.3994,
10.184223,-0.0096,0.9322,-0.3361,0.2856,0.0341,-1.2676,0.1824,0.0668,0.2541,
10.185957,-0.0096,0.9322,-0.3361,0.2961,-0.2028,-0.8096,0.1824,0.0668,0.2541,
10.201203,-0.0096,0.9322,-0.3361,-2.7967,-0.2234,-0.2644,0.1824,0.0668,0.2541,
10.222034,-0.0096,0.9322,-0.3361,-0.8573,-0.2964,0.2809,0.1824,0.0668,0.2541,
10.241214,-0.0096,0.9322,-0.3361,0.5169,0.1239,0.3520,0.1824,0.0668,0.2541,
10.248726,0.1780,0.9863,-0.2946,0.5169,0.1239,0.3520,0.1824,0.0668,0.2541,
10.251946,0.1780,0.9863,-0.2946,0.5169,0.1239,0.3520,0.2090,0.1222,0.5511,
10.261254,0.1780,0.9863,-0.2946,2.1814,0.0969,0.0756,0.2090,0.1222,0.5511,
10.281819,0.1780,0.9863,-0.2946,-0.8936,0.2901,-0.3850,0.2090,0.1222,0.5511,
10.302566,0.1780,0.9863,-0.2946,-1.3574,-0.2468,-0.4991,0.2090,0.1222,0.5511,
10.314867,-0.1286,0.9332,-0.3424,-1.3574,-0.2468,-0.4991,0.2090,0.1222,0.5511,
10.317772,-0.1286,0.9332,-0.3424,-1.3574,-0.2468,-0.4991,0.1792,0.3644,0.5639,
10.321546,-0.1286,0.9332,-0.3424,-1.5600,-0.2425,-0.3291,0.1792,0.3644,0.5639,
10.341278,-0.1286,0.9332,-0.3424,-0.0700,-0.0891,-0.0547,0.1792,0.3644,0.5639,
10.361485,-0.1286,0.9332,-0.3424,0.7904,0.1957,-0.7579,0.1792,0.3644,0.5639,
10.381513,0.1553,0.9599,-0.3619,0.7904,0.1957,-0.7579,0.1792,0.3644,0.5639,
10.384455,0.1553,0.9599,-0.3619,0.7904,0.1957,-0.7579,0.1563,0.0929,0.5517,
10.385860,0.1553,0.9599,-0.3619,0.6911,0.1183,-0.4663,0.1563,0.0929,0.5517,
10.401181,0.1553,0.9599,-0.3619,-2.5147,0.4887,-0.3535,0.1563,0.0929,0.5517,
10.421386,0.1553,0.9599,-0.3619,-1.4143,0.3698,-0.3153,0.1563,0.0929,0.5517,
10.441265,0.1553,0.9599,-0.3619,-1.1775,1.4691,-0.1215,0.1563,0.0929,0.5517,
10.444394,0.0476,1.0762,-0.3291,-1.1775,1.4691,-0.1215,0.1563,0.0929,0.5517,
10.445962,0.0476,1.0762,-0.3291,-1.1775,1.4691,-0.1215,0.1350,0.5220,0.9275,
10.461384,0.0476,1.0762,-0.3291,-0.8224,1.3064,0.3492,0.1350,0.5220,0.9275,
10.481862,0.0476,1.0762,-0.3291,-2.1298,1.2635,0.2801,0.1350,0.5220,0.9275,
10.501231,0.0476,1.0762,-0.3291,-2.6226,1.3959,0.0435,0.1350,0.5220,0.9275,
10.510339,0.0025,1.0147,-0.3814,-2.6226,1.3959,0.0435,0.1350,0.5220,0.9275,
10.512279,0.0025,1.0147,-0.3814,-2.6226,1.3959,0.0435,0.0636,0.2995,1.4928,
10.521571,0.0025,1.0147,-0.3814,-1.7717,0.8965,-0.2610,0.0636,0.2995,1.4928,
10.541658,0.0025,1.0147,-0.3814,-2.6277,2.4990,-0.3788,0.0636,0.2995,1.4928,
10.561390,0.0025,1.0147,-0.3814,-4.5479,3.0105,-0.2563,0.0636,0.2995,1.4928,
10.576290,-0.2934,1.2135,-0.3370,-4.5479,3.0105,-0.2563,0.0636,0.2995,1.4928,
10.577907,-0.2934,1.2135,-0.3370,-4.5479,3.0105,-0.2563,0.0796,0.5534,2.0917,
10.581940,-0.2934,1.2135,-0.3370,-5.9930,3.1300,-0.2173,0.0796,0.5534,2.0917,
10.601277,-0.2934,1.2135,-0.3370,-5.9164,4.4245,-0.4858,0.0796,0.5534,2.0917,
10.621912,-0.2934,1.2135,-0.3370,-6.8982,4.5817,-0.1750,0.0796,0.5534,2.0917,
10.641657,-0.2934,1.2135,-0.3370,-7.0704,5.9041,0.5603,0.0796,0.5534,2.0917,
10.644437,-0.2405,1.4259,-0.2437,-7.0704,5.9041,0.5603,0.0796,0.5534,2.0917,
10.645762,-0.2405,1.4259,-0.2437,-7.0704,5.9041,0.5603,0.3995,1.1107,3.0126,
10.661367,-0.2405,1.4259,-0.2437,-4.8937,5.5730,0.1770,0.3995,1.1107,3.0126,
10.682537,-0.2405,1.4259,-0.2437,-4.3287,3.1947,-3.0778,0.3995,1.1107,3.0126,
10.702166,-0.2405,1.4259,-0.2437,-3.4926,3.1826,-2.2128,0.3995,1.1107,3.0126,
10.708928,0.5036,1.0166,-0.4673,-3.4926,3.1826,-2.2128,0.3995,1.1107,3.0126,
10.710519,0.5036,1.0166,-0.4673,-3.4926,3.1826,-2.2128,0.5997,0.4762,3.2569,
10.721367,0.5036,1.0166,-0.4673,0.7349,2.8815,-2.1166,0.5997,0.4762,3.2569,
10.741323,0.5036,1.0166,-0.4673,1.1826,2.4451,-0.0085,0.5997,0.4762,3.2569,
10.761601,0.5036,1.0166,-0.4673,-3.3099,-2.9477,-0.2870,0.5997,0.4762,3.2569,
10.774695,0.7178,0.0046,-0.4352,-3.3099,-2.9477,-0.2870,0.5997,0.4762,3.2569,
10.776534,0.7178,0.0046,-0.4352,-3.3099,-2.9477,-0.2870,0.0807,0.5321,-0.0993,
10.782802,0.7178,0.0046,-0.4352,0.3585,-6.3012,-1.1563,0.0807,0.5321,-0.0993,
10.801303,0.7178,0.0046,-0.4352,0.5873,-4.5066,0.9805,0.0807,0.5321,-0.0993,
10.822766,0.7178,0.0046,-0.4352,-1.9244,-1.9555,1.5961,0.0807,0.5321,-0.0993,
10.840804,0.2804,0.5237,-0.1348,-1.9244,-1.9555,1.5961,0.0807,0.5321,-0.0993,
10.843499,0.2804,0.5237,-0.1348,-1.9244,-1.9555,1.5961,-0.2696,-0.1759,-1.6282,
10.844431,0.2804,0.5237,-0.1348,-4.0088,-1.3878,1.2340,-0.2696,-0.1759,-1.6282,
10.861802,0.2804,0.5237,-0.1348,-5.0648,-1.9217,0.8367,-0.2696,-0.1759,-1.6282,
10.881220,0.2804,0.5237,-0.1348,-5.8924,-2.8196,0.9149,-0.2696,-0.1759,-1.6282,
10.907762,0.2804,0.5237,-0.1348,-3.7912,-2.7792,0.8837,-0.2696,-0.1759,-1.6282,
10.911016,0.3497,0.5265,-0.1814,-3.7912,-2.7792,0.8837,-0.2696,-0.1759,-1.6282,
10.912206,0.3497,0.5265,-0.1814,-3.7912,-2.7792,0.8837,-0.3915,-1.3092,-2.7945,
10.922813,0.3497,0.5265,-0.1814,-0.5492,-1.6999,0.6656,-0.3915,-1.3092,-2.7945,
10.941766,0.3497,0.5265,-0.1814,0.6447,-1.2053,0.2185,-0.3915,-1.3092,-2.7945,
10.962235,0.3497,0.5265,-0.1814,0.1480,-1.6556,-0.2494,-0.3915,-1.3092,-2.7945,
10.973307,0.3811,0.8013,-0.3244,0.1480,-1.6556,-0.2494,-0.3915,-1.3092,-2.7945,
10.975765,0.3811,0.8013,-0.3244,0.1480,-1.6556,-0.2494,-0.6901,-0.7417,-4.1008,
10.983581,0.3811,0.8013,-0.3244,0.2558,-0.4618,-0.6882,-0.6901,-0.7417,-4.1008,
11.001557,0.3811,0.8013,-0.3244,1.4458,0.3544,-0.1448,-0.6901,-0.7417,-4.1008,
11.021422,0.3811,0.8013,-0.3244,1.2706,0.5736,-0.3211,-0.6901,-0.7417,-4.1008,
11.039594,0.2200,1.0995,-0.2973,1.2706,0.5736,-0.3211,-0.6901,-0.7417,-4.1008,
11.042293,0.2200,1.0995,-0.2973,1.2706,0.5736,-0.3211,-0.5421,-0.5203,-4.4245,
11.043706,0.2200,1.0995,-0.2973,1.1763,1.3092,-0.5016,-0.5421,-0.5203,-4.4245,
11.061186,0.2200,1.0995,-0.2973,1.5332,2.2303,-0.2064,-0.5421,-0.5203,-4.4245,
11.081223,0.2200,1.0995,-0.2973,1.2569,2.8751,-0.6545,-0.5421,-0.5203,-4.4245,
11.101633,0.2200,1.0995,-0.2973,2.4412,4.0107,-0.5151,-0.5421,-0.5203,-4.4245,
11.104512,0.1375,1.3907,-0.2542,2.4412,4.0107,-0.5151,-0.5421,-0.5203,-4.4245,
11.105544,0.1375,1.3907,-0.2542,2.4412,4.0107,-0.5151,-0.2786,-1.2533,-3.6569,
11.121679,0.1375,1.3907,-0.2542,4.6129,3.6140,-0.2741,-0.2786,-1.2533,-3.6569,
11.141277,0.1375,1.3907,-0.2542,5.8390,1.3389,-0.4611,-0.2786,-1.2533,-3.6569,
11.161228,0.1375,1.3907,-0.2542,3.5636,2.0597,-0.6537,-0.2786,-1.2533,-3.6569,
11.170591,-0.1217,1.2131,-0.2055,3.5636,2.0597,-0.6537,-0.2786,-1.2533,-3.6569,
11.173101,-0.1217,1.2131,-0.2055,3.5636,2.0597,-0.6537,-0.4900,-0.7859,-2.2904,
11.182245,-0.1217,1.2131,-0.2055,2.6277,2.0651,-0.1430,-0.4900,-0.7859,-2.2904,
11.201161,-0.1217,1.2131,-0.2055,5.1750,-0.3946,0.1050,-0.4900,-0.7859,-2.2904,
11.221158,-0.1217,1.2131,-0.2055,5.3140,-0.9505,0.0808,-0.4900,-0.7859,-2.2904,
11.237056,-0.2062,1.3615,-0.2257,5.3140,-0.9505,0.0808,-0.4900,-0.7859,-2.2904,
11.240134,-0.2062,1.3615,-0.2257,5.3140,-0.9505,0.0808,0.2771,-0.2531,0.3276,
11.241631,-0.2062,1.3615,-0.2257,1.3054,5.6515,-0.8232,0.2771,-0.2531,0.3276,
11.261636,-0.2062,1.3615,-0.2257,-0.2753,1.5891,-2.2858,0.2771,-0.2531,0.3276,
11.281240,-0.2062,1.3615,-0.2257,4.4211,0.8631,-1.3888,0.2771,-0.2531,0.3276,
11.302140,-0.2062,1.3615,-0.2257,-0.3068,0.5592,-2.8573,0.2771,-0.2531,0.3276,
11.304689,-0.5239,0.9347,-0.5033,-0.3068,0.5592,-2.8573,0.2771,-0.2531,0.3276,
11.305850,-0.5239,0.9347,-0.5033,-0.3068,0.5592,-2.8573,0.5970,0.1371,0.2711,
11.321438,-0.5239,0.9347,-0.5033,-0.7031,0.0969,-1.5744,0.5970,0.1371,0.2711,
11.341752,-0.5239,0.9347,-0.5033,2.0267,0.7453,2.8314,0.5970,0.1371,0.2711,
11.361382,-0.5239,0.9347,-0.5033,3.2625,1.2325,3.5485,0.5970,0.1371,0.2711,
11.369872,-0.0998,1.0172,0.1921,3.2625,1.2325,3.5485,0.5970,0.1371,0.2711,
11.372778,-0.0998,1.0172,0.1921,3.2625,1.2325,3.5485,0.2723,-0.1163,0.3627,
11.381116,-0.0998,1.0172,0.1921,2.2466,1.0553,2.8630,0.2723,-0.1163,0.3627,
11.401183,-0.0998,1.0172,0.1921,0.7147,0.9725,1.1929,0.2723,-0.1163,0.3627,
11.421666,-0.0998,1.0172,0.1921,3.1023,1.0574,-5.2926,0.2723,-0.1163,0.3627,
11.435495,-0.4611,0.9027,-0.6017,3.1023,1.0574,-5.2926,0.2723,-0.1163,0.3627,
11.438332,-0.4611,0.9027,-0.6017,3.1023,1.0574,-5.2926,0.3564,0.6348,0.8950,
11.441451,-0.4611,0.9027,-0.6017,-2.3058,-0.8227,-3.7411,0.3564,0.6348,0.8950,
11.461301,-0.4611,0.9027,-0.6017,-1.0372,-0.5960,-1.0826,0.3564,0.6348,0.8950,
11.481251,-0.4611,0.9027,-0.6017,1.2997,0.0223,1.9291,0.3564,0.6348,0.8950,
11.503285,-0.0401,1.0355,-0.1086,1.2997,0.0223,1.9291,0.3564,0.6348,0.8950,
11.505656,-0.0401,1.0355,-0.1086,1.2997,0.0223,1.9291,0.4400,0.4246,1.2767,
11.507538,-0.0401,1.0355,-0.1086,2.4498,1.0121,1.2359,0.4400,0.4246,1.2767,
11.522097,-0.0401,1.0355,-0.1086,0.7798,0.0937,-0.0770,0.4400,0.4246,1.2767,
11.541468,-0.0401,1.0355,-0.1086,0.5403,-0.1524,-1.1048,0.4400,0.4246,1.2767,
11.561486,-0.0401,1.0355,-0.1086,0.6360,0.0004,-1.0925,0.4400,0.4246,1.2767,
11.569805,-0.0513,0.9798,-0.3943,0.6360,0.0004,-1.0925,0.4400,0.4246,1.2767,
11.572818,-0.0513,0.9798,-0.3943,0.6360,0.0004,-1.0925,0.3255,0.1967,0.9823,
11.581555,-0.0513,0.9798,-0.3943,0.2894,-0.0493,-0.8113,0.3255,0.1967,0.9823,
11.601928,-0.0513,0.9798,-0.3943,0.3278,0.1313,0.0343,0.3255,0.1967,0.9823,
11.621872,-0.0513,0.9798,-0.3943,1.7604,-0.0385,0.8345,0.3255,0.1967,0.9823,
11.632911,-0.1534,0.9829,-0.2958,1.7604,-0.0385,0.8345,0.3255,0.1967,0.9823,
11.634854,-0.1534,0.9829,-0.2958,1.7604,-0.0385,0.8345,0.2531,0.4443,0.6576,
11.641158,-0.1534,0.9829,-0.2958,0.3148,0.4315,-0.4851,0.2531,0.4443,0.6576,
11.661690,-0.1534,0.9829,-0.2958,0.2529,0.0971,-0.2647,0.2531,0.4443,0.6576,
11.681317,-0.1534,0.9829,-0.2958,0.8851,0.5320,-0.9067,0.2531,0.4443,0.6576,
11.699718,-0.1332,0.9352,-0.3949,0.8851,0.5320,-0.9067,0.2531,0.4443,0.6576,
11.703086,-0.1332,0.9352,-0.3949,0.8851,0.5320,-0.9067,0.1366,0.4326,0.3355,
11.704251,-0.1332,0.9352,-0.3949,-0.4617,-0.1585,-0.8913,0.1366,0.4326,0.3355,
11.721374,-0.1332,0.9352,-0.3949,-0.5411,-0.2442,-0.1954,0.1366,0.4326,0.3355,
11.741892,-0.1332,0.9352,-0.3949,0.5118,0.0921,-0.0345,0.1366,0.4326,0.3355,
11.761496,-0.1332,0.9352,-0.3949,1.0252,0.2922,0.1448,0.1366,0.4326,0.3355,
11.765146,0.1372,0.9840,-0.3331,1.0252,0.2922,0.1448,0.1366,0.4326,0.3355,
11.766721,0.1372,0.9840,-0.3331,1.0252,0.2922,0.1448,0.2180,0.0248,0.2786,
11.781226,0.1372,0.9840,-0.3331,-1.1867,-0.3063,-0.3540,0.2180,0.0248,0.2786,
11.801194,0.1372,0.9840,-0.3331,-1.5547,-0.0624,-0.5462,0.2180,0.0248,0.2786,
11.824143,0.1372,0.9840,-0.3331,0.5474,0.0521,-0.4565,0.2180,0.0248,0.2786,
11.830809,0.0519,0.9486,-0.3704,0.5474,0.0521,-0.4565,0.2180,0.0248,0.2786,
11.832173,0.0519,0.9486,-0.3704,0.5474,0.0521,-0.4565,0.1227,0.2723,0.3068,
11.841322,0.0519,0.9486,-0.3704,0.7515,0.0486,-0.3913,0.1227,0.2723,0.3068,
11.861305,0.0519,0.9486,-0.3704,0.5990,-0.0624,-0.0249,0.1227,0.2723,0.3068,
11.881236,0.0519,0.9486,-0.3704,-1.4646,-0.0842,-0.1188,0.1227,0.2723,0.3068,
11.896808,0.0151,0.9367,-0.3557,-1.4646,-0.0842,-0.1188,0.1227,0.2723,0.3068,
11.899452,0.0151,0.9367,-0.3557,-1.4646,-0.0842,-0.1188,0.0924,0.3027,0.3819,
11.901417,0.0151,0.9367,-0.3557,0.2746,-0.0588,-0.2572,0.0924,0.3027,0.3819,
11.921244,0.0151,0.9367,-0.3557,0.7740,-0.1412,-0.3782,0.0924,0.3027,0.3819,
11.941309,0.0151,0.9367,-0.3557,0.7078,-0.1257,0.5089,0.0924,0.3027,0.3819,
11.961156,0.0151,0.9367,-0.3557,-1.2191,0.0511,0.3683,0.0924,0.3027,0.3819,
11.963934,-0.0838,0.9459,-0.3116,-1.2191,0.0511,0.3683,0.0924,0.3027,0.3819,
11.964839,-0.0838,0.9459,-0.3116,-1.2191,0.0511,0.3683,0.1451,0.3351,0.3552,
11.981608,-0.0838,0.9459,-0.3116,-0.3835,-0.0560,-0.1179,0.1451,0.3351,0.3552,
12.001069,-0.0838,0.9459,-0.3116,0.1020,0.0732,-0.2023,0.1451,0.3351,0.3552,
12.021095,-0.0838,0.9459,-0.3116,-0.8545,-0.1602,-0.0234,0.1451,0.3351,0.3552,
12.028787,0.0335,0.9161,-0.3711,-0.8545,-0.1602,-0.0234,0.1451,0.3351,0.3552,
12.030522,0.0335,0.9161,-0.3711,-0.8545,-0.1602,-0.0234,0.1158,0.3133,0.4878,
12.041309,0.0335,0.9161,-0.3711,0.3401,0.0685,-0.7786,0.1158,0.3133,0.4878,
12.061955,0.0335,0.9161,-0.3711,0.4394,0.5395,-1.2017,0.1158,0.3133,0.4878,
12.081210,0.0335,0.9161,-0.3711,-2.1437,0.6616,-0.6277,0.1158,0.3133,0.4878,
12.094769,-0.0445,1.0188,-0.3809,-2.1437,0.6616,-0.6277,0.1158,0.3133,0.4878,
12.097417,-0.0445,1.0188,-0.3809,-2.1437,0.6616,-0.6277,-0.0354,0.4757,0.4920,
12.101087,-0.0445,1.0188,-0.3809,-0.9976,0.7536,-0.2310,-0.0354,0.4757,0.4920,
12.123179,-0.0445,1.0188,-0.3809,-0.6750,0.6235,-0.2978,-0.0354,0.4757,0.4920,
12.141655,-0.0445,1.0188,-0.3809,-0.6764,0.4329,-0.5451,-0.0354,0.4757,0.4920,
12.160771,0.0384,0.9823,-0.4344,-0.6764,0.4329,-0.5451,-0.0354,0.4757,0.4920,
12.163381,0.0384,0.9823,-0.4344,-0.6764,0.4329,-0.5451,-0.1557,0.6631,0.6230,
12.164419,0.0384,0.9823,-0.4344,-0.8397,0.4393,-0.9210,-0.1557,0.6631,0.6230,
12.181214,0.0384,0.9823,-0.4344,-1.2415,0.7495,-0.9175,-0.1557,0.6631,0.6230,
12.201696,0.0384,0.9823,-0.4344,-1.1212,0.6500,-0.3557,-0.1557,0.6631,0.6230,
12.222219,0.0384,0.9823,-0.4344,-1.3280,0.5831,-0.5305,-0.1557,0.6631,0.6230,
12.228126,0.0310,0.9972,-0.3769,-1.3280,0.5831,-0.5305,-0.1557,0.6631,0.6230,
12.229799,0.0310,0.9972,-0.3769,-1.3280,0.5831,-0.5305,-0.0753,0.9809,1.0196,
12.241570,0.0310,0.9972,-0.3769,-1.6102,0.6035,-0.5543,-0.0753,0.9809,1.0196,
12.262635,0.0310,0.9972,-0.3769,-1.2343,1.2005,-0.4458,-0.0753,0.9809,1.0196,
12.281184,0.0310,0.9972,-0.3769,-1.3404,1.4089,-0.7347,-0.0753,0.9809,1.0196,
12.292714,0.1255,1.1017,-0.4017,-1.3404,1.4089,-0.7347,-0.0753,0.9809,1.0196,
12.296102,0.1255,1.1017,-0.4017,-1.3404,1.4089,-0.7347,0.3133,1.8709,0.9621,
12.301400,0.1255,1.1017,-0.4017,-1.6192,1.9380,-1.0380,0.3133,1.8709,0.9621,
12.322179,0.1255,1.1017,-0.4017,-1.7859,2.1529,-1.0829,0.3133,1.8709,0.9621,
12.342736,0.1255,1.1017,-0.4017,-1.9247,0.8550,-0.9757,0.3133,1.8709,0.9621,
12.359424,0.2890,0.9640,-0.3569,-1.9247,0.8550,-0.9757,0.3133,1.8709,0.9621,
12.362217,0.2890,0.9640,-0.3569,-1.9247,0.8550,-0.9757,0.9414,2.7993,1.0435,
12.363457,0.2890,0.9640,-0.3569,-0.9655,0.8316,-0.6970,0.9414,2.7993,1.0435,
12.381701,0.2890,0.9640,-0.3569,0.5389,0.2955,-0.0741,0.9414,2.7993,1.0435,
12.401193,0.2890,0.9640,-0.3569,0.9622,-1.1630,-0.2700,0.9414,2.7993,1.0435,
12.422287,0.2890,0.9640,-0.3569,2.0057,-0.8731,-0.4506,0.9414,2.7993,1.0435,
12.425598,0.7378,0.7666,-0.3186,2.0057,-0.8731,-0.4506,0.9414,2.7993,1.0435,
12.427137,0.7378,0.7666,-0.3186,2.0057,-0.8731,-0.4506,1.3471,3.7111,0.0678,
12.441480,0.7378,0.7666,-0.3186,3.1512,-0.8066,-0.3830,1.3471,3.7111,0.0678,
12.462042,0.7378,0.7666,-0.3186,2.0606,-1.5875,-0.1923,1.3471,3.7111,0.0678,
12.481296,0.7378,0.7666,-0.3186,-0.5286,-2.5295,0.2520,1.3471,3.7111,0.0678,
12.490947,0.5167,0.4985,-0.1326,-0.5286,-2.5295,0.2520,1.3471,3.7111,0.0678,
12.493698,0.5167,0.4985,-0.1326,-0.5286,-2.5295,0.2520,1.7277,4.7279,-1.5116,
12.501274,0.5167,0.4985,-0.1326,0.0076,-4.2192,1.1267,1.7277,4.7279,-1.5116,
12.521268,0.5167,0.4985,-0.1326,1.4955,-3.1257,1.6404,1.7277,4.7279,-1.5116,
12.542287,0.5167,0.4985,-0.1326,-0.1091,-2.4532,0.8612,1.7277,4.7279,-1.5116,
12.557677,0.2591,0.6622,-0.0335,-0.1091,-2.4532,0.8612,1.7277,4.7279,-1.5116,
12.560722,0.2591,0.6622,-0.0335,-0.1091,-2.4532,0.8612,1.8964,3.8048,-1.9843,
12.562341,0.2591,0.6622,-0.0335,-2.2560,-1.9286,1.2987,1.8964,3.8048,-1.9843,
12.581283,0.2591,0.6622,-0.0335,-3.6502,-1.1712,1.7514,1.8964,3.8048,-1.9843,
12.601183,0.2591,0.6622,-0.0335,-4.8526,-0.8186,2.1616,1.8964,3.8048,-1.9843,
12.623261,0.2591,0.6622,-0.0335,-3.0833,-0.3595,2.0296,1.8964,3.8048,-1.9843,
12.625688,0.1358,0.8845,0.0205,-3.0833,-0.3595,2.0296,1.8964,3.8048,-1.9843,
12.626767,0.1358,0.8845,0.0205,-3.0833,-0.3595,2.0296,1.7043,1.7730,-1.9843,
12.643642,0.1358,0.8845,0.0205,-0.5910,0.4886,2.2108,1.7043,1.7730,-1.9843,
12.661607,0.1358,0.8845,0.0205,0.7824,0.8906,2.5919,1.7043,1.7730,-1.9843,
12.681207,0.1358,0.8845,0.0205,0.0715,0.7414,2.0175,1.7043,1.7730,-1.9843,
12.689758,0.2456,0.9882,-0.0358,0.0715,0.7414,2.0175,1.7043,1.7730,-1.9843,
12.692657,0.2456,0.9882,-0.0358,0.0715,0.7414,2.0175,1.0032,1.8672,-2.4826,
12.701213,0.2456,0.9882,-0.0358,-0.5319,0.2861,1.8119,1.0032,1.8672,-2.4826,
12.722960,0.2456,0.9882,-0.0358,-0.4445,0.3362,1.5193,1.0032,1.8672,-2.4826,
12.741400,0.2456,0.9882,-0.0358,-0.4254,0.5981,0.9637,1.0032,1.8672,-2.4826,
12.757526,0.0766,1.0221,-0.1553,-0.4254,0.5981,0.9637,1.0032,1.8672,-2.4826,
12.760821,0.0766,1.0221,-0.1553,-0.4254,0.5981,0.9637,0.1988,2.1243,-2.7109,
12.762339,0.0766,1.0221,-0.1553,-0.7370,0.6419,1.1201,0.1988,2.1243,-2.7109,
12.781681,0.0766,1.0221,-0.1553,-0.3531,0.6461,1.8451,0.1988,2.1243,-2.7109,
12.801251,0.0766,1.0221,-0.1553,0.4407,0.9231,1.0558,0.1988,2.1243,-2.7109,
12.821095,0.1089,1.1132,-0.1992,0.4407,0.9231,1.0558,0.1988,2.1243,-2.7109,
12.823975,0.1089,1.1132,-0.1992,0.4407,0.9231,1.0558,-0.1046,2.8850,-2.6519,
12.825046,0.1089,1.1132,-0.1992,0.8898,1.3629,0.4625,-0.1046,2.8850,-2.6519,
12.841723,0.1089,1.1132,-0.1992,0.4739,1.2104,0.4040,-0.1046,2.8850,-2.6519,
12.862576,0.1089,1.1132,-0.1992,-0.2840,0.5534,0.4196,-0.1046,2.8850,-2.6519,
12.881084,0.1089,1.1132,-0.1992,-0.5054,0.5178,0.4622,-0.1046,2.8850,-2.6519,
12.886916,-0.1458,1.0414,-0.1909,-0.5054,0.5178,0.4622,-0.1046,2.8850,-2.6519,
12.888637,-0.1458,1.0414,-0.1909,-0.5054,0.5178,0.4622,-0.2978,2.6444,-2.3042,
12.901193,-0.1458,1.0414,-0.1909,0.2350,0.9253,0.1986,-0.2978,2.6444,-2.3042,
12.921001,-0.1458,1.0414,-0.1909,0.2685,0.6953,0.2999,-0.2978,2.6444,-2.3042,
12.941406,-0.1458,1.0414,-0.1909,-0.1020,0.4743,0.4881,-0.2978,2.6444,-2.3042,
12.953120,-0.1458,1.0414,-0.1909,-0.1020,0.4743,0.4881,-0.4788,2.2398,-1.5686,
12.959462,-0.1982,0.9664,-0.1745,-0.1020,0.4743,0.4881,-0.4788,2.2398,-1.5686,
12.963678,-0.1982,0.9664,-0.1745,0.0803,0.1391,0.6191,-0.4788,2.2398,-1.5686,
12.982691,-0.2451,0.9304,-0.1476,0.0803,0.1391,0.6191,-0.4788,2.2398,-1.5686,
12.985213,-0.2451,0.9304,-0.1476,-0.2057,-0.1636,0.8776,-0.4788,2.2398,-1.5686,
13.010343,-0.2686,0.9185,-0.1785,-0.2057,-0.1636,0.8776,-0.4788,2.2398,-1.5686,
13.012300,-0.2686,0.9185,-0.1785,-0.2987,-0.2603,0.5779,-0.4788,2.2398,-1.5686,
13.019112,-0.2394,0.9365,-0.1978,-0.2987,-0.2603,0.5779,-0.4788,2.2398,-1.5686,
13.019973,-0.2394,0.9365,-0.1978,-0.2987,-0.2603,0.5779,-0.5198,1.0186,-0.6924,
13.023699,-0.2394,0.9365,-0.1978,0.0754,-0.0555,0.3530,-0.5198,1.0186,-0.6924,
13.040912,-0.1915,0.9499,-0.1898,0.0754,-0.0555,0.3530,-0.5198,1.0186,-0.6924,
13.042902,-0.1915,0.9499,-0.1898,0.6374,0.0922,0.3858,-0.5198,1.0186,-0.6924,
13.059608,-0.1240,0.9161,-0.2092,0.6374,0.0922,0.3858,-0.5198,1.0186,-0.6924,
13.062398,-0.1240,0.9161,-0.2092,1.3503,-0.2386,0.1462,-0.5198,1.0186,-0.6924,
13.079291,-0.0955,0.8790,-0.2867,1.3503,-0.2386,0.1462,-0.5198,1.0186,-0.6924,
13.084802,-0.0955,0.8790,-0.2867,1.6690,-0.6145,-0.6734,-0.5198,1.0186,-0.6924,
13.086124,-0.0955,0.8790,-0.2867,1.6690,-0.6145,-0.6734,-0.5986,1.0974,-0.3687,
13.099029,-0.1412,0.8887,-0.3182,1.6690,-0.6145,-0.6734,-0.5986,1.0974,-0.3687,
13.102565,-0.1412,0.8887,-0.3182,1.2434,-0.5221,-1.0337,-0.5986,1.0974,-0.3687,
13.119187,-0.1236,0.8888,-0.3367,1.2434,-0.5221,-1.0337,-0.5986,1.0974,-0.3687,
13.126396,-0.1236,0.8888,-0.3367,1.4147,-0.5275,-1.2403,-0.5986,1.0974,-0.3687,
13.139022,-0.0368,0.8531,-0.3099,1.4147,-0.5275,-1.2403,-0.5986,1.0974,-0.3687,
13.143130,-0.0368,0.8531,-0.3099,2.2559,-0.8835,-0.9835,-0.5986,1.0974,-0.3687,
13.150489,-0.0368,0.8531,-0.3099,2.2559,-0.8835,-0.9835,-0.4112,2.1323,-0.4981,
13.159412,-0.1290,0.7980,-0.3142,2.2559,-0.8835,-0.9835,-0.4112,2.1323,-0.4981,
13.161949,-0.1290,0.7980,-0.3142,1.3461,-1.4189,-0.9955,-0.4112,2.1323,-0.4981,
13.179034,-0.4056,1.3599,-0.3695,1.3461,-1.4189,-0.9955,-0.4112,2.1323,-0.4981,
13.182568,-0.4056,1.3599,-0.3695,-1.3670,4.1018,-1.5069,-0.4112,2.1323,-0.4981,
13.198943,-0.7616,0.6441,-0.4759,-1.3670,4.1018,-1.5069,-0.4112,2.1323,-0.4981,
13.201633,-0.7616,0.6441,-0.4759,-4.7819,-2.8804,-2.5015,-0.4112,2.1323,-0.4981,
13.217427,-0.7616,0.6441,-0.4759,-4.7819,-2.8804,-2.5015,0.0312,1.2140,-0.1233,
13.218681,-0.3097,0.8300,-0.3976,-4.7819,-2.8804,-2.5015,0.0312,1.2140,-0.1233,
13.221573,-0.3097,0.8300,-0.3976,-0.3883,-1.0527,-1.6642,0.0312,1.2140,-0.1233,
13.239540,-0.5294,0.9131,-0.5015,-0.3883,-1.0527,-1.6642,0.0312,1.2140,-0.1233,
13.241783,-0.5294,0.9131,-0.5015,-2.5718,-0.2284,-2.6115,0.0312,1.2140,-0.1233,
13.258844,-0.6168,1.1048,-0.2062,-2.5718,-0.2284,-2.6115,0.0312,1.2140,-0.1233,
13.262375,-0.6168,1.1048,-0.2062,-3.4195,1.6635,0.3288,0.0312,1.2140,-0.1233,
13.279025,-0.5243,0.9101,-0.1100,-3.4195,1.6635,0.3288,0.0312,1.2140,-0.1233,
13.282182,-0.5243,0.9101,-0.1100,-3.4195,1.6635,0.3288,0.0210,-0.3143,-0.4193,
13.283220,-0.5243,0.9101,-0.1100,-2.4662,-0.2264,1.2825,0.0210,-0.3143,-0.4193,
13.299365,-0.5301,0.8172,-0.0692,-2.4662,-0.2264,1.2825,0.0210,-0.3143,-0.4193,
13.301851,-0.5301,0.8172,-0.0692,-2.4327,-1.1146,1.6704,0.0210,-0.3143,-0.4193,
13.319203,-0.4170,0.9084,0.0419,-2.4327,-1.1146,1.6704,0.0210,-0.3143,-0.4193,
13.321806,-0.4170,0.9084,0.0419,-1.2924,-0.2141,2.7330,0.0210,-0.3143,-0.4193,
13.339148,0.1593,1.1399,-0.3828,-1.2924,-0.2141,2.7330,0.0210,-0.3143,-0.4193,
13.343235,0.1593,1.1399,-0.3828,4.2059,2.0255,-1.3431,0.0210,-0.3143,-0.4193,
13.348184,0.1593,1.1399,-0.3828,4.2059,2.0255,-1.3431,0.3607,0.5050,1.0872,
13.359192,0.0362,1.0793,-0.3712,4.2059,2.0255,-1.3431,0.3607,0.5050,1.0872,
13.361983,0.0362,1.0793,-0.3712,2.7447,1.3923,-1.1398,0.3607,0.5050,1.0872,
13.379217,-0.2517,0.8751,-0.3344,2.7447,1.3923,-1.1398,0.3607,0.5050,1.0872,
13.382345,-0.2517,0.8751,-0.3344,-0.2126,-0.6213,-0.6853,0.3607,0.5050,1.0872,
13.399214,-0.1200,0.9486,-0.2764,-0.2126,-0.6213,-0.6853,0.3607,0.5050,1.0872,
13.401737,-0.1200,0.9486,-0.2764,0.8833,0.0693,-0.0504,0.3607,0.5050,1.0872,
13.414337,-0.1200,0.9486,-0.2764,0.8833,0.0693,-0.0504,0.2957,0.2681,0.6832,
13.419524,-0.0467,0.9549,-0.2694,0.8833,0.0693,-0.0504,0.2957,0.2681,0.6832,
13.422731,-0.0467,0.9549,-0.2694,1.4408,0.1212,0.0839,0.2957,0.2681,0.6832,
13.439169,0.0005,1.0061,-0.2569,1.4408,0.1212,0.0839,0.2957,0.2681,0.6832,
13.442523,0.0005,1.0061,-0.2569,1.7502,0.6048,0.2760,0.2957,0.2681,0.6832,
13.459233,0.0012,1.0067,-0.1949,1.7502,0.6048,0.2760,0.2957,0.2681,0.6832,
13.461853,0.0012,1.0067,-0.1949,1.6542,0.6166,0.9391,0.2957,0.2681,0.6832,
13.479403,-0.0765,0.9804,-0.1797,1.6542,0.6166,0.9391,0.2957,0.2681,0.6832,
13.481142,-0.0765,0.9804,-0.1797,1.6542,0.6166,0.9391,0.3431,0.3761,0.1583,
13.481972,-0.0765,0.9804,-0.1797,0.8388,0.3703,1.1632,0.3431,0.3761,0.1583,
13.499386,-0.1890,0.9686,-0.3108,0.8388,0.3703,1.1632,0.3431,0.3761,0.1583,
13.502595,-0.1890,0.9686,-0.3108,-0.3114,0.2676,-0.0567,0.3431,0.3761,0.1583,
13.518843,-0.2101,0.9187,-0.4428,-0.3114,0.2676,-0.0567,0.3431,0.3761,0.1583,
13.521741,-0.2101,0.9187,-0.4428,-0.5533,-0.2043,-1.2727,0.3431,0.3761,0.1583,
13.539052,-0.0937,0.9355,-0.4189,-0.5533,-0.2043,-1.2727,0.3431,0.3761,0.1583,
13.541759,-0.0937,0.9355,-0.4189,0.5271,-0.0229,-0.9569,0.3431,0.3761,0.1583,
13.546220,-0.0937,0.9355,-0.4189,0.5271,-0.0229,-0.9569,0.2627,0.2936,0.1423,
13.559122,-0.0951,0.9543,-0.3698,0.5271,-0.0229,-0.9569,0.2627,0.2936,0.1423,
13.562416,-0.0951,0.9543,-0.3698,0.4571,0.1759,-0.4274,0.2627,0.2936,0.1423,
13.579108,-0.2089,0.9415,-0.3508,0.4571,0.1759,-0.4274,0.2627,0.2936,0.1423,
13.583669,-0.2089,0.9415,-0.3508,-0.6940,0.0611,-0.1810,0.2627,0.2936,0.1423,
13.599158,-0.1507,0.9156,-0.3754,-0.6940,0.0611,-0.1810,0.2627,0.2936,0.1423,
13.601959,-0.1507,0.9156,-0.3754,-0.1578,-0.1830,-0.3924,0.2627,0.2936,0.1423,
13.612521,-0.1507,0.9156,-0.3754,-0.1578,-0.1830,-0.3924,0.1749,0.2255,0.1215,
13.619185,0.0130,0.9595,-0.3710,-0.1578,-0.1830,-0.3924,0.1749,0.2255,0.1215,
13.624144,0.0130,0.9595,-0.3710,1.3813,0.2568,-0.3009,0.1749,0.2255,0.1215,
13.639368,-0.0656,0.9368,-0.3738,1.3813,0.2568,-0.3009,0.1749,0.2255,0.1215,
13.642142,-0.0656,0.9368,-0.3738,0.6000,0.0402,-0.2961,0.1749,0.2255,0.1215,
13.659380,-0.2013,0.9156,-0.3811,0.6000,0.0402,-0.2961,0.1749,0.2255,0.1215,
13.663730,-0.2013,0.9156,-0.3811,-0.7265,-0.1546,-0.3243,0.1749,0.2255,0.1215,
13.680255,-0.1258,0.9178,-0.3711,-0.7265,-0.1546,-0.3243,0.1749,0.2255,0.1215,
13.682146,-0.1258,0.9178,-0.3711,-0.7265,-0.1546,-0.3243,0.1169,0.2233,0.0103,
13.683056,-0.1258,0.9178,-0.3711,-0.0014,-0.1264,-0.2092,0.1169,0.2233,0.0103,
13.698886,-0.1004,0.9154,-0.3901,-0.0014,-0.1264,-0.2092,0.1169,0.2233,0.0103,
13.701812,-0.1004,0.9154,-0.3901,0.2362,-0.1383,-0.3689,0.1169,0.2233,0.0103,
13.719054,-0.1340,0.9238,-0.3729,0.2362,-0.1383,-0.3689,0.1169,0.2233,0.0103,
13.722491,-0.1340,0.9238,-0.3729,-0.1026,-0.0497,-0.1736,0.1169,0.2233,0.0103,
13.739261,-0.1594,0.9367,-0.3721,-0.1026,-0.0497,-0.1736,0.1169,0.2233,0.0103,
13.742875,-0.1594,0.9367,-0.3721,-0.3631,0.0871,-0.1375,0.1169,0.2233,0.0103,
13.744720,-0.1594,0.9367,-0.3721,-0.3631,0.0871,-0.1375,0.0988,0.2010,-0.0259,
13.760434,-0.1163,0.9290,-0.3796,-0.3631,0.0871,-0.1375,0.0988,0.2010,-0.0259,
13.763116,-0.1163,0.9290,-0.3796,0.0494,0.0161,-0.1837,0.0988,0.2010,-0.0259,
13.779211,-0.1098,0.9282,-0.3494,0.0494,0.0161,-0.1837,0.0988,0.2010,-0.0259,
13.783051,-0.1098,0.9282,-0.3494,0.1096,0.0138,0.1325,0.0988,0.2010,-0.0259,
13.799271,-0.1676,0.9465,-0.3456,0.1096,0.0138,0.1325,0.0988,0.2010,-0.0259,
13.802042,-0.1676,0.9465,-0.3456,-0.4554,0.2085,0.1951,0.0988,0.2010,-0.0259,
13.812108,-0.1676,0.9465,-0.3456,-0.4554,0.2085,0.1951,0.0886,0.2606,-0.0195,
13.819893,-0.1164,0.9482,-0.3678,-0.4554,0.2085,0.1951,0.0886,0.2606,-0.0195,
13.822668,-0.1164,0.9482,-0.3678,0.0205,0.2358,-0.0063,0.0886,0.2606,-0.0195,
13.839193,-0.1408,0.9171,-0.3959,0.0205,0.2358,-0.0063,0.0886,0.2606,-0.0195,
13.841979,-0.1408,0.9171,-0.3959,-0.2288,-0.0613,-0.2593,0.0886,0.2606,-0.0195,
13.859496,-0.1567,0.9130,-0.4222,-0.2288,-0.0613,-0.2593,0.0886,0.2606,-0.0195,
13.862547,-0.1567,0.9130,-0.4222,-0.4034,-0.0948,-0.4944,0.0886,0.2606,-0.0195,
13.877917,-0.1567,0.9130,-0.4222,-0.4034,-0.0948,-0.4944,0.0056,0.2537,0.0039,
13.880622,-0.0789,0.9513,-0.4207,-0.4034,-0.0948,-0.4944,0.0056,0.2537,0.0039,
13.882442,-0.0789,0.9513,-0.4207,0.3404,0.2808,-0.4609,0.0056,0.2537,0.0039,
13.899174,-0.0575,0.9325,-0.3504,0.3404,0.2808,-0.4609,0.0056,0.2537,0.0039,
13.902648,-0.0575,0.9325,-0.3504,0.5366,0.0946,0.2317,0.0056,0.2537,0.0039,
13.918760,-0.1881,0.9292,-0.3222,0.5366,0.0946,0.2317,0.0056,0.2537,0.0039,
13.921678,-0.1881,0.9292,-0.3222,-0.7579,0.0539,0.5056,0.0056,0.2537,0.0039,
13.939223,-0.2284,0.9212,-0.3549,-0.7579,0.0539,0.5056,0.0056,0.2537,0.0039,
13.943479,-0.2284,0.9212,-0.3549,-1.1680,-0.0257,0.1842,0.0056,0.2537,0.0039,
13.946105,-0.2284,0.9212,-0.3549,-1.1680,-0.0257,0.1842,0.0200,0.2739,0.1141,
13.960623,-0.1416,0.9042,-0.3761,-1.1680,-0.0257,0.1842,0.0200,0.2739,0.1141,
13.963518,-0.1416,0.9042,-0.3761,-0.3518,-0.1833,-0.0129,0.0200,0.2739,0.1141,
13.979649,-0.1692,0.9037,-0.3854,-0.3518,-0.1833,-0.0129,0.0200,0.2739,0.1141,
13.982963,-0.1692,0.9037,-0.3854,-0.6721,-0.1926,-0.0875,0.0200,0.2739,0.1141,
13.999424,-0.1915,0.9003,-0.3781,-0.6721,-0.1926,-0.0875,0.0200,0.2739,0.1141,
14.002009,-0.1915,0.9003,-0.3781,-0.9381,-0.2190,0.0112,0.0200,0.2739,0.1141,
14.009932,-0.1915,0.9003,-0.3781,-0.9381,-0.2190,0.0112,0.1291,0.2659,0.2706,
14.018987,-0.2472,0.9203,-0.3586,-0.9381,-0.2190,0.0112,0.1291,0.2659,0.2706,
14.021835,-0.2472,0.9203,-0.3586,-1.5540,-0.0286,0.2236,0.1291,0.2659,0.2706,
14.039397,-0.1285,0.9518,-0.3352,-1.5540,-0.0286,0.2236,0.1291,0.2659,0.2706,
14.044280,-0.1285,0.9518,-0.3352,-0.4691,0.2903,0.4794,0.1291,0.2659,0.2706,
14.062777,0.0835,0.9342,-0.3237,-0.4691,0.2903,0.4794,0.1291,0.2659,0.2706,
14.065448,0.0835,0.9342,-0.3237,1.4820,0.1188,0.6201,0.1291,0.2659,0.2706,
14.074528,0.0835,0.9342,-0.3237,1.4820,0.1188,0.6201,0.2249,0.4373,0.3137,
14.079285,-0.0900,0.9202,-0.3327,1.4820,0.1188,0.6201,0.2249,0.4373,0.3137,
14.082176,-0.0900,0.9202,-0.3327,-0.3000,-0.0084,0.5709,0.2249,0.4373,0.3137,
14.099667,-0.2630,0.8982,-0.3852,-0.3000,-0.0084,0.5709,0.2249,0.4373,0.3137,
14.102843,-0.2630,0.8982,-0.3852,-2.0872,-0.1997,0.1079,0.2249,0.4373,0.3137,
14.118908,-0.2633,0.8469,-0.4018,-2.0872,-0.1997,0.1079,0.2249,0.4373,0.3137,
14.123245,-0.2633,0.8469,-0.4018,-2.2075,-0.6879,0.0040,0.2249,0.4373,0.3137,
14.139228,-0.2613,0.8775,-0.4744,-2.2075,-0.6879,0.0040,0.2249,0.4373,0.3137,
14.142018,-0.2613,0.8775,-0.4744,-2.2075,-0.6879,0.0040,0.4384,0.5193,0.9089,
14.143866,-0.2613,0.8775,-0.4744,-2.3245,-0.3625,-0.6216,0.4384,0.5193,0.9089,
14.160272,0.0703,1.0079,-0.3670,-2.3245,-0.3625,-0.6216,0.4384,0.5193,0.9089,
14.164061,0.0703,1.0079,-0.3670,0.7040,0.9568,0.5102,0.4384,0.5193,0.9089,
14.179265,0.0103,1.0091,-0.2896,0.7040,0.9568,0.5102,0.4384,0.5193,0.9089,
14.182112,0.0103,1.0091,-0.2896,-0.1044,1.0018,1.3367,0.4384,0.5193,0.9089,
14.199672,-0.0715,1.0151,-0.4116,-0.1044,1.0018,1.3367,0.4384,0.5193,0.9089,
14.202156,-0.0715,1.0151,-0.4116,-1.1190,1.1013,0.2089,0.4384,0.5193,0.9089,
14.206262,-0.0715,1.0151,-0.4116,-1.1190,1.1013,0.2089,0.3537,0.5630,1.1846,
14.219846,-0.3063,1.0911,-0.4396,-1.1190,1.1013,0.2089,0.3537,0.5630,1.1846,
14.222912,-0.3063,1.0911,-0.4396,-3.6686,1.8933,0.0077,0.3537,0.5630,1.1846,
14.239377,-0.3432,1.1128,-0.3957,-3.6686,1.8933,0.0077,0.3537,0.5630,1.1846,
14.242169,-0.3432,1.1128,-0.3957,-4.3295,2.1592,0.4837,0.3537,0.5630,1.1846,
14.259450,-0.2554,1.0598,-0.3584,-4.3295,2.1592,0.4837,0.3537,0.5630,1.1846,
14.263484,-0.2554,1.0598,-0.3584,-3.7875,1.7134,0.9103,0.3537,0.5630,1.1846,
14.272564,-0.2554,1.0598,-0.3584,-3.7875,1.7134,0.9103,0.3394,0.7493,2.0443,
14.279692,-0.0753,1.2046,-0.2460,-3.7875,1.7134,0.9103,0.3394,0.7493,2.0443,
14.282581,-0.0753,1.2046,-0.2460,-2.4176,3.2237,2.0508,0.3394,0.7493,2.0443,
14.299480,-0.1680,1.2279,-0.1758,-2.4176,3.2237,2.0508,0.3394,0.7493,2.0443,
14.302828,-0.1680,1.2279,-0.1758,-3.7367,3.5581,2.7735,0.3394,0.7493,2.0443,
14.319250,-0.0681,1.1633,-0.2745,-3.7367,3.5581,2.7735,0.3394,0.7493,2.0443,
14.321981,-0.0681,1.1633,-0.2745,-3.2289,3.0711,1.8242,0.3394,0.7493,2.0443,
14.339437,0.0236,1.2420,-0.4141,-3.2289,3.0711,1.8242,0.3394,0.7493,2.0443,
14.342244,0.0236,1.2420,-0.4141,-3.2289,3.0711,1.8242,0.6290,1.1640,1.9778,
14.345393,0.0236,1.2420,-0.4141,-2.8153,4.0135,0.4835,0.6290,1.1640,1.9778,
14.359549,-0.1962,1.4185,-0.4839,-2.8153,4.0135,0.4835,0.6290,1.1640,1.9778,
14.364050,-0.1962,1.4185,-0.4839,-5.3776,5.9254,-0.1773,0.6290,1.1640,1.9778,
14.379311,-0.1428,1.1778,-0.5353,-5.3776,5.9254,-0.1773,0.6290,1.1640,1.9778,
14.382880,-0.1428,1.1778,-0.5353,-5.2586,3.7818,-0.6378,0.6290,1.1640,1.9778,
14.399399,0.1642,0.8552,-0.4631,-5.2586,3.7818,-0.6378,0.6290,1.1640,1.9778,
14.402723,0.1642,0.8552,-0.4631,-2.6752,0.9002,0.1644,0.6290,1.1640,1.9778,
14.404723,0.1642,0.8552,-0.4631,-2.6752,0.9002,0.1644,0.8919,1.2758,3.0371,
14.419278,0.8393,0.9433,-0.4514,-2.6752,0.9002,0.1644,0.8919,1.2758,3.0371,
14.422704,0.8393,0.9433,-0.4514,3.3864,2.1231,0.3095,0.8919,1.2758,3.0371,
14.439347,0.6175,1.0895,-0.4883,3.3864,2.1231,0.3095,0.8919,1.2758,3.0371,
14.442593,0.6175,1.0895,-0.4883,0.6994,3.8697,-0.1352,0.8919,1.2758,3.0371,
14.461055,0.0938,0.8870,-0.5953,0.6994,3.8697,-0.1352,0.8919,1.2758,3.0371,
14.464040,0.0938,0.8870,-0.5953,-4.8145,2.0904,-1.3564,0.8919,1.2758,3.0371,
14.470728,0.0938,0.8870,-0.5953,-4.8145,2.0904,-1.3564,0.1493,1.6718,-0.2228,
14.479411,-0.3273,1.0817,-0.2121,-4.8145,2.0904,-1.3564,0.1493,1.6718,-0.2228,
14.483355,-0.3273,1.0817,-0.2121,-9.1837,4.0964,2.1908,0.1493,1.6718,-0.2228,
14.499695,0.6125,0.0643,-0.6794,-9.1837,4.0964,2.1908,0.1493,1.6718,-0.2228,
14.502861,0.6125,0.0643,-0.6794,-0.0951,-5.8832,-2.5433,0.1493,1.6718,-0.2228,
14.519331,0.7554,0.1467,-0.2981,-0.0951,-5.8832,-2.5433,0.1493,1.6718,-0.2228,
14.522661,0.7554,0.1467,-0.2981,1.2171,-4.9633,1.2247,0.1493,1.6718,-0.2228,
14.536744,0.7554,0.1467,-0.2981,1.2171,-4.9633,1.2247,-0.0545,0.9361,0.3297,
14.539497,0.7322,0.7250,-0.2106,1.2171,-4.9633,1.2247,-0.0545,0.9361,0.3297,
14.542857,0.7322,0.7250,-0.2106,0.9474,0.7691,2.1350,-0.0545,0.9361,0.3297,
14.559474,0.4477,0.6935,-0.1510,0.9474,0.7691,2.1350,-0.0545,0.9361,0.3297,
14.564944,0.4477,0.6935,-0.1510,-1.9491,0.4768,2.5613,-0.0545,0.9361,0.3297,
14.579932,0.3164,0.5161,-0.1853,-1.9491,0.4768,2.5613,-0.0545,0.9361,0.3297,
14.582880,0.3164,0.5161,-0.1853,-3.2276,-1.4140,2.0008,-0.0545,0.9361,0.3297,
14.599277,0.2381,0.4413,-0.2046,-3.2276,-1.4140,2.0008,-0.0545,0.9361,0.3297,
14.602659,0.2381,0.4413,-0.2046,-3.8185,-2.3972,1.6578,-0.0545,0.9361,0.3297,
14.604378,0.2381,0.4413,-0.2046,-3.8185,-2.3972,1.6578,-0.6012,-0.1743,-2.4501,
14.619507,0.0471,0.4675,-0.2669,-3.8185,-2.3972,1.6578,-0.6012,-0.1743,-2.4501,
14.623284,0.0471,0.4675,-0.2669,-5.3601,-2.4667,0.9809,-0.6012,-0.1743,-2.4501,
14.639390,-0.0571,0.5343,-0.2875,-5.3601,-2.4667,0.9809,-0.6012,-0.1743,-2.4501,
14.642236,-0.0571,0.5343,-0.2875,-5.9217,-2.1766,0.7199,-0.6012,-0.1743,-2.4501,
14.659503,0.2803,0.6408,-0.2961,-5.9217,-2.1766,0.7199,-0.6012,-0.1743,-2.4501,
14.663126,0.2803,0.6408,-0.2961,-2.1535,-1.4891,0.5872,-0.6012,-0.1743,-2.4501,
14.668594,0.2803,0.6408,-0.2961,-2.1535,-1.4891,0.5872,-0.9573,-1.2219,-3.1506,
14.680362,0.4192,0.6919,-0.3507,-2.1535,-1.4891,0.5872,-0.9573,-1.2219,-3.1506,
14.684028,0.4192,0.6919,-0.3507,-0.2456,-1.3191,0.0183,-0.9573,-1.2219,-3.1506,
14.699414,0.4209,0.7762,-0.3682,-0.2456,-1.3191,0.0183,-0.9573,-1.2219,-3.1506,
14.702880,0.4209,0.7762,-0.3682,0.4098,-0.8363,-0.2356,-0.9573,-1.2219,-3.1506,
14.719196,0.3556,0.8329,-0.4423,0.4098,-0.8363,-0.2356,-0.9573,-1.2219,-3.1506,
14.721923,0.3556,0.8329,-0.4423,0.4800,-0.6099,-1.1116,-0.9573,-1.2219,-3.1506,
14.734834,0.3556,0.8329,-0.4423,0.4800,-0.6099,-1.1116,-1.1958,-0.2712,-4.3031,
14.739364,0.1831,0.9471,-0.4065,0.4800,-0.6099,-1.1116,-1.1958,-0.2712,-4.3031,
14.741834,0.1831,0.9471,-0.4065,-0.4351,0.2146,-0.9527,-1.1958,-0.2712,-4.3031,
14.759354,0.1192,1.0549,-0.4450,-0.4351,0.2146,-0.9527,-1.1958,-0.2712,-4.3031,
14.763311,0.1192,1.0549,-0.4450,-0.2570,1.0391,-1.5404,-1.1958,-0.2712,-4.3031,
14.780061,0.1710,1.1502,-0.3850,-0.2570,1.0391,-1.5404,-1.1958,-0.2712,-4.3031,
14.783205,0.1710,1.1502,-0.3850,1.0444,1.8302,-1.1268,-1.1958,-0.2712,-4.3031,
14.799877,0.1548,1.2156,-0.3574,1.0444,1.8302,-1.1268,-1.1958,-0.2712,-4.3031,
14.803673,0.1548,1.2156,-0.3574,1.0444,1.8302,-1.1268,-0.6923,-0.3153,-4.1061,
14.804898,0.1548,1.2156,-0.3574,1.6976,2.4047,-1.0292,-0.6923,-0.3153,-4.1061,
14.819664,0.2727,1.4164,-0.3399,1.6976,2.4047,-1.0292,-0.6923,-0.3153,-4.1061,
14.823579,0.2727,1.4164,-0.3399,3.6492,4.4000,-0.9898,-0.6923,-0.3153,-4.1061,
14.839449,0.4165,1.3872,-0.3451,3.6492,4.4000,-0.9898,-0.6923,-0.3153,-4.1061,
14.842152,0.4165,1.3872,-0.3451,5.8733,4.2007,-1.1508,-0.6923,-0.3153,-4.1061,
14.859337,0.2258,1.1038,-0.3798,5.8733,4.2007,-1.1508,-0.6923,-0.3153,-4.1061,
14.863306,0.2258,1.1038,-0.3798,4.8389,1.6016,-1.5846,-0.6923,-0.3153,-4.1061,
14.867237,0.2258,1.1038,-0.3798,4.8389,1.6016,-1.5846,-0.5879,-0.4106,-3.8868,
14.880884,-0.0396,1.0446,-0.3755,4.8389,1.6016,-1.5846,-0.5879,-0.4106,-3.8868,
14.884099,-0.0396,1.0446,-0.3755,3.0171,1.2378,-1.6876,-0.5879,-0.4106,-3.8868,
14.899443,-0.0797,1.0633,-0.2794,3.0171,1.2378,-1.6876,-0.5879,-0.4106,-3.8868,
14.902991,-0.0797,1.0633,-0.2794,3.2442,1.6647,-0.8667,-0.5879,-0.4106,-3.8868,
14.919674,0.0985,0.8757,-0.2356,3.2442,1.6647,-0.8667,-0.5879,-0.4106,-3.8868,
14.922688,0.0985,0.8757,-0.2356,5.4210,0.0317,-0.5426,-0.5879,-0.4106,-3.8868,
14.932735,0.0985,0.8757,-0.2356,5.4210,0.0317,-0.5426,0.1477,-0.3207,-0.8978,
14.939316,0.0507,0.7857,-0.1746,5.4210,0.0317,-0.5426,0.1477,-0.3207,-0.8978,
14.942517,0.0507,0.7857,-0.1746,5.2300,-0.7091,0.0148,0.1477,-0.3207,-0.8978,
14.959349,-0.2107,1.0600,-0.2213,5.2300,-0.7091,0.0148,0.1477,-0.3207,-0.8978,
14.962641,-0.2107,1.0600,-0.2213,2.8100,2.0335,-0.4349,0.1477,-0.3207,-0.8978,
14.980869,-1.0654,1.2753,-0.2218,2.8100,2.0335,-0.4349,0.1477,-0.3207,-0.8978,
14.984161,-1.0654,1.2753,-0.2218,-5.5830,4.1495,-0.4222,0.1477,-0.3207,-0.8978,
14.999891,-0.1672,0.9633,-0.3435,-5.5830,4.1495,-0.4222,0.1477,-0.3207,-0.8978,
15.002835,-0.1672,0.9633,-0.3435,-5.5830,4.1495,-0.4222,1.0703,-2.2977,1.6152,
15.004527,-0.1672,0.9633,-0.3435,3.0739,0.9936,-1.6249,1.0703,-2.2977,1.6152,
15.019310,-0.0204,0.8640,-0.3348,3.0739,0.9936,-1.6249,1.0703,-2.2977,1.6152,
15.024004,-0.0204,0.8640,-0.3348,4.3201,-0.0794,-1.5666,1.0703,-2.2977,1.6152,
15.039283,-0.5342,1.0396,-0.0960,4.3201,-0.0794,-1.5666,1.0703,-2.2977,1.6152,
15.041899,-0.5342,1.0396,-0.0960,-0.8146,1.5831,0.7441,1.0703,-2.2977,1.6152,
15.059310,-0.3521,0.9083,0.1124,-0.8146,1.5831,0.7441,1.0703,-2.2977,1.6152,
15.062517,-0.3521,0.9083,0.1124,0.9244,0.2652,2.7224,1.0703,-2.2977,1.6152,
15.067259,-0.3521,0.9083,0.1124,0.9244,0.2652,2.7224,0.2228,-0.7912,0.9046,
15.082167,-0.0363,0.9697,0.1951,0.9244,0.2652,2.7224,0.2228,-0.7912,0.9046,
15.083987,-0.0363,0.9697,0.1951,3.9025,0.8015,3.4903,0.2228,-0.7912,0.9046,
15.100057,0.0187,1.1958,0.3175,3.9025,0.8015,3.4903,0.2228,-0.7912,0.9046,
15.102988,0.0187,1.1958,0.3175,4.2416,2.9275,4.6888,0.2228,-0.7912,0.9046,
15.119568,0.1367,1.1624,-0.4258,4.2416,2.9275,4.6888,0.2228,-0.7912,0.9046,
15.123165,0.1367,1.1624,-0.4258,5.1065,2.4987,-2.4586,0.2228,-0.7912,0.9046,
15.131074,0.1367,1.1624,-0.4258,5.1065,2.4987,-2.4586,0.7221,0.6263,1.3198,
15.139307,-0.2272,0.9715,-0.5150,5.1065,2.4987,-2.4586,0.7221,0.6263,1.3198,
15.141932,-0.2272,0.9715,-0.5150,1.2361,0.5351,-3.1180,0.7221,0.6263,1.3198,
15.159342,-0.3117,0.7894,-0.5559,1.2361,0.5351,-3.1180,0.7221,0.6263,1.3198,
15.162476,-0.3117,0.7894,-0.5559,0.1799,-1.3004,-3.3601,0.7221,0.6263,1.3198,
15.180032,-0.0808,1.0126,-0.2824,0.1799,-1.3004,-3.3601,0.7221,0.6263,1.3198,
15.183066,-0.0808,1.0126,-0.2824,2.1334,0.8130,-0.5603,0.7221,0.6263,1.3198,
15.198509,-0.0808,1.0126,-0.2824,2.1334,0.8130,-0.5603,0.3697,0.6381,1.0435,
15.201118,-0.0669,0.9644,-0.1245,2.1334,0.8130,-0.5603,0.3697,0.6381,1.0435,
15.203917,-0.0669,0.9644,-0.1245,2.0089,0.2749,1.0702,0.3697,0.6381,1.0435,
15.219982,-0.0994,1.0123,-0.1203,2.0089,0.2749,1.0702,0.3697,0.6381,1.0435,
15.224737,-0.0994,1.0123,-0.1203,1.4770,0.7108,1.2103,0.3697,0.6381,1.0435,
15.239319,-0.2018,0.9687,-0.2542,1.4770,0.7108,1.2103,0.3697,0.6381,1.0435,
15.242242,-0.2018,0.9687,-0.2542,0.2702,0.2670,0.0112,0.3697,0.6381,1.0435,
15.259287,-0.2363,0.9038,-0.3227,0.2702,0.2670,0.0112,0.3697,0.6381,1.0435,
15.266453,-0.2363,0.9038,-0.3227,0.2702,0.2670,0.0112,0.3681,0.5646,0.7391,
15.268969,-0.2363,0.9038,-0.3227,-0.2458,-0.3835,-0.5585,0.3681,0.5646,0.7391,
15.283332,-0.1582,0.9872,-0.3299,-0.2458,-0.3835,-0.5585,0.3681,0.5646,0.7391,
15.286129,-0.1582,0.9872,-0.3299,0.3572,0.4323,-0.5337,0.3681,0.5646,0.7391,
15.299779,-0.0369,0.9721,-0.2725,0.3572,0.4323,-0.5337,0.3681,0.5646,0.7391,
15.302567,-0.0369,0.9721,-0.2725,1.3810,0.2669,0.1145,0.3681,0.5646,0.7391,
15.320011,-0.0726,0.9786,-0.2782,1.3810,0.2669,0.1145,0.3681,0.5646,0.7391,
15.322858,-0.0726,0.9786,-0.2782,0.9011,0.3339,0.1256,0.3681,0.5646,0.7391,
15.328735,-0.0726,0.9786,-0.2782,0.9011,0.3339,0.1256,0.2968,0.2755,0.4213,
15.339448,-0.0246,0.9791,-0.3745,0.9011,0.3339,0.1256,0.2968,0.2755,0.4213,
15.342810,-0.0246,0.9791,-0.3745,1.2615,0.3364,-0.7579,0.2968,0.2755,0.4213,
15.359096,-0.1481,0.9413,-0.3850,1.2615,0.3364,-0.7579,0.2968,0.2755,0.4213,
15.361977,-0.1481,0.9413,-0.3850,-0.0244,-0.0209,-0.7895,0.2968,0.2755,0.4213,
15.379260,-0.1557,0.9456,-0.3512,-0.0244,-0.0209,-0.7895,0.2968,0.2755,0.4213,
15.382467,-0.1557,0.9456,-0.3512,-0.1721,0.0230,-0.4192,0.2968,0.2755,0.4213,
15.394413,-0.1557,0.9456,-0.3512,-0.1721,0.0230,-0.4192,0.1392,0.2755,0.2647,
15.399502,-0.0573,0.9525,-0.3226,-0.1721,0.0230,-0.4192,0.1392,0.2755,0.2647,
15.402543,-0.0573,0.9525,-0.3226,0.7217,0.0928,-0.1078,0.1392,0.2755,0.2647,
15.420586,-0.1013,0.9534,-0.3501,0.7217,0.0928,-0.1078,0.1392,0.2755,0.2647,
15.424282,-0.1013,0.9534,-0.3501,0.2291,0.1052,-0.3401,0.1392,0.2755,0.2647,
15.439498,-0.2012,0.9339,-0.3540,0.2291,0.1052,-0.3401,0.1392,0.2755,0.2647,
15.442266,-0.2012,0.9339,-0.3540,-0.8061,-0.0877,-0.3491,0.1392,0.2755,0.2647,
15.459362,-0.2170,0.9256,-0.3214,-0.8061,-0.0877,-0.3491,0.1392,0.2755,0.2647,
15.462539,-0.2170,0.9256,-0.3214,-0.8061,-0.0877,-0.3491,0.1094,0.3533,0.3403,
15.464108,-0.2170,0.9256,-0.3214,-1.0321,-0.1651,0.0023,0.1094,0.3533,0.3403,
15.479448,-0.1035,0.9603,-0.3132,-1.0321,-0.1651,0.0023,0.1094,0.3533,0.3403,
15.483256,-0.1035,0.9603,-0.3132,0.0022,0.1683,0.1087,0.1094,0.3533,0.3403,
15.499334,-0.1350,0.9233,-0.3293,0.0022,0.1683,0.1087,0.1094,0.3533,0.3403,
15.503255,-0.1350,0.9233,-0.3293,-0.4019,-0.1941,-0.0201,0.1094,0.3533,0.3403,
15.519756,-0.0995,0.9403,-0.3118,-0.4019,-0.1941,-0.0201,0.1094,0.3533,0.3403,
15.522957,-0.0995,0.9403,-0.3118,-0.1329,-0.0175,0.1696,0.1094,0.3533,0.3403,
15.526328,-0.0995,0.9403,-0.3118,-0.1329,-0.0175,0.1696,0.1020,0.3085,0.3776,
15.539527,-0.1690,0.9456,-0.3480,-0.1329,-0.0175,0.1696,0.1020,0.3085,0.3776,
15.542027,-0.1690,0.9456,-0.3480,-0.8879,0.0335,-0.1583,0.1020,0.3085,0.3776,
15.559352,0.0214,0.9603,-0.3839,-0.8879,0.0335,-0.1583,0.1020,0.3085,0.3776,
15.562006,0.0214,0.9603,-0.3839,0.8412,0.1702,-0.4807,0.1020,0.3085,0.3776,
15.579411,-0.0817,0.9578,-0.3561,0.8412,0.1702,-0.4807,0.1020,0.3085,0.3776,
15.583651,-0.0817,0.9578,-0.3561,-0.2443,0.1617,-0.1950,0.1020,0.3085,0.3776,
15.592779,-0.0817,0.9578,-0.3561,-0.2443,0.1617,-0.1950,0.0610,0.4257,0.4713,
15.599957,-0.2453,0.9367,-0.3451,-0.2443,0.1617,-0.1950,0.0610,0.4257,0.4713,
15.602808,-0.2453,0.9367,-0.3451,-1.9273,-0.0533,-0.0721,0.0610,0.4257,0.4713,
15.621268,-0.0822,0.9176,-0.3288,-1.9273,-0.0533,-0.0721,0.0610,0.4257,0.4713,
15.625005,-0.0822,0.9176,-0.3288,-0.4666,-0.2399,0.0995,0.0610,0.4257,0.4713,
15.639807,-0.1515,0.8325,-0.3426,-0.4666,-0.2399,0.0995,0.0610,0.4257,0.4713,
15.642503,-0.1515,0.8325,-0.3426,-1.2835,-1.0708,-0.0094,0.0610,0.4257,0.4713,
15.659768,0.0370,0.9197,-0.3256,-1.2835,-1.0708,-0.0094,0.0610,0.4257,0.4713,
15.662983,0.0370,0.9197,-0.3256,-1.2835,-1.0708,-0.0094,0.1962,-0.2126,0.9328,
15.665114,0.0370,0.9197,-0.3256,0.3923,-0.2098,0.1746,0.1962,-0.2126,0.9328,
15.679469,-0.0642,1.0451,-0.3395,0.3923,-0.2098,0.1746,0.1962,-0.2126,0.9328,
15.683265,-0.0642,1.0451,-0.3395,-0.7359,1.0299,0.0834,0.1962,-0.2126,0.9328,
15.699886,-0.0092,0.9409,-0.3171,-0.7359,1.0299,0.0834,0.1962,-0.2126,0.9328,
15.703493,-0.0092,0.9409,-0.3171,-0.3763,0.0201,0.3153,0.1962,-0.2126,0.9328,
15.719421,0.0299,0.9167,-0.3635,-0.3763,0.0201,0.3153,0.1962,-0.2126,0.9328,
15.722782,0.0299,0.9167,-0.3635,-0.2057,-0.1901,-0.1169,0.1962,-0.2126,0.9328,
15.724380,0.0299,0.9167,-0.3635,-0.2057,-0.1901,-0.1169,0.2148,-0.2594,1.2602,
15.739775,-0.0735,0.9680,-0.3618,-0.2057,-0.1901,-0.1169,0.2148,-0.2594,1.2602,
15.743187,-0.0735,0.9680,-0.3618,-1.4229,0.3284,-0.0699,0.2148,-0.2594,1.2602,
15.759382,-0.0467,0.9839,-0.3552,-1.4229,0.3284,-0.0699,0.2148,-0.2594,1.2602,
15.762195,-0.0467,0.9839,-0.3552,-1.3859,0.5179,0.0278,0.2148,-0.2594,1.2602,
15.779376,0.0636,1.0720,-0.3586,-1.3859,0.5179,0.0278,0.2148,-0.2594,1.2602,
15.782224,0.0636,1.0720,-0.3586,-0.5921,1.4337,0.0186,0.2148,-0.2594,1.2602,
15.790806,0.0636,1.0720,-0.3586,-0.5921,1.4337,0.0186,0.1456,0.1339,1.3768,
15.800919,0.0742,1.0286,-0.3622,-0.5921,1.4337,0.0186,0.1456,0.1339,1.3768,
15.804247,0.0742,1.0286,-0.3622,-0.7605,1.0531,0.0181,0.1456,0.1339,1.3768,
15.819594,0.0767,0.9669,-0.4180,-0.7605,1.0531,0.0181,0.1456,0.1339,1.3768,
15.823301,0.0767,0.9669,-0.4180,-0.9917,0.4980,-0.5053,0.1456,0.1339,1.3768,
15.839766,0.0197,1.0333,-0.4302,-0.9917,0.4980,-0.5053,0.1456,0.1339,1.3768,
15.842751,0.0197,1.0333,-0.4302,-1.8218,1.2208,-0.6105,0.1456,0.1339,1.3768,
15.856994,0.0197,1.0333,-0.4302,-1.8218,1.2208,-0.6105,0.0120,-0.0816,1.8080,
15.859810,0.0832,1.0779,-0.4403,-1.8218,1.2208,-0.6105,0.0120,-0.0816,1.8080,
15.861840,0.0832,1.0779,-0.4403,-1.5002,1.7314,-0.6977,0.0120,-0.0816,1.8080,
15.879324,0.0779,1.0479,-0.3524,-1.5002,1.7314,-0.6977,0.0120,-0.0816,1.8080,
15.883100,0.0779,1.0479,-0.3524,-1.8726,1.5279,0.1710,0.0120,-0.0816,1.8080,
15.901186,0.0809,1.0626,-0.3257,-1.8726,1.5279,0.1710,0.0120,-0.0816,1.8080,
15.904548,0.0809,1.0626,-0.3257,-2.1582,1.7809,0.4377,0.0120,-0.0816,1.8080,
15.919519,0.0362,1.0536,-0.3468,-2.1582,1.7809,0.4377,0.0120,-0.0816,1.8080,
15.922587,0.0362,1.0536,-0.3468,-2.9068,1.8101,0.2476,0.0120,-0.0816,1.8080,
15.924183,0.0362,1.0536,-0.3468,-2.9068,1.8101,0.2476,0.1020,0.3234,1.9325,
15.939805,0.0243,1.1113,-0.3489,-2.9068,1.8101,0.2476,0.1020,0.3234,1.9325,
15.943211,0.0243,1.1113,-0.3489,-3.3789,2.5175,0.2243,0.1020,0.3234,1.9325,
15.959482,-0.0277,1.1792,-0.4147,-3.3789,2.5175,0.2243,0.1020,0.3234,1.9325,
15.962259,-0.0277,1.1792,-0.4147,-4.2315,3.3325,-0.4498,0.1020,0.3234,1.9325,
15.979428,-0.0851,1.3059,-0.4474,-4.2315,3.3325,-0.4498,0.1020,0.3234,1.9325,
15.985682,-0.0851,1.3059,-0.4474,-5.1689,4.7489,-0.8147,0.1020,0.3234,1.9325,
15.989153,-0.0851,1.3059,-0.4474,-5.1689,4.7489,-0.8147,0.0695,1.0953,2.0928,
16.002012,-0.1210,1.3383,-0.3319,-5.1689,4.7489,-0.8147,0.0695,1.0953,2.0928,
16.005229,-0.1210,1.3383,-0.3319,-5.9161,5.2534,0.2345,0.0695,1.0953,2.0928,
16.019771,-0.0324,1.1920,-0.3814,-5.9161,5.2534,0.2345,0.0695,1.0953,2.0928,
16.023293,-0.0324,1.1920,-0.3814,-5.4754,4.0543,-0.3307,0.0695,1.0953,2.0928,
16.040228,0.0005,1.3475,-0.5877,-5.4754,4.0543,-0.3307,0.0695,1.0953,2.0928,
16.044268,0.0005,1.3475,-0.5877,-5.5911,5.8621,-2.3981,0.0695,1.0953,2.0928,
16.054895,0.0005,1.3475,-0.5877,-5.5911,5.8621,-2.3981,0.3207,0.6476,3.2596,
16.059565,0.2135,1.0956,-0.6886,-5.5911,5.8621,-2.3981,0.3207,0.6476,3.2596,
16.063131,0.2135,1.0956,-0.6886,-4.0014,3.7966,-3.3983,0.3207,0.6476,3.2596,
16.079813,0.5381,0.9303,-0.5410,-4.0014,3.7966,-3.3983,0.3207,0.6476,3.2596,
16.083430,0.5381,0.9303,-0.5410,-1.2955,2.6112,-1.9977,0.3207,0.6476,3.2596,
16.101520,0.7808,0.8637,-0.4754,-1.2955,2.6112,-1.9977,0.3207,0.6476,3.2596,
16.106029,0.7808,0.8637,-0.4754,0.6932,2.3567,-1.3691,0.3207,0.6476,3.2596,
16.120217,0.4143,0.6334,-0.0813,0.6932,2.3567,-1.3691,0.3207,0.6476,3.2596,
16.122226,0.4143,0.6334,-0.0813,0.6932,2.3567,-1.3691,-0.1695,0.5433,-0.6066,
16.123251,0.4143,0.6334,-0.0813,-3.0516,0.2771,2.4737,-0.1695,0.5433,-0.6066,
16.139412,0.7866,-0.3926,-0.3717,-3.0516,0.2771,2.4737,-0.1695,0.5433,-0.6066,
16.142631,0.7866,-0.3926,-0.3717,0.6495,-9.8629,-0.4534,-0.1695,0.5433,-0.6066,
16.159254,0.6674,0.0677,-0.2678,0.6495,-9.8629,-0.4534,-0.1695,0.5433,-0.6066,
16.162004,0.6674,0.0677,-0.2678,-0.5608,-5.3844,0.4431,-0.1695,0.5433,-0.6066,
16.179112,0.5109,0.4691,-0.2314,-0.5608,-5.3844,0.4431,-0.1695,0.5433,-0.6066,
16.181992,0.5109,0.4691,-0.2314,-2.1390,-1.4451,0.7486,-0.1695,0.5433,-0.6066,
16.186854,0.5109,0.4691,-0.2314,-2.1390,-1.4451,0.7486,-0.9020,-0.2254,-0.2489,
16.199811,0.3888,0.4801,-0.1221,-2.1390,-1.4451,0.7486,-0.9020,-0.2254,-0.2489,
16.203855,0.3888,0.4801,-0.1221,-3.3163,-1.3907,1.7342,-0.9020,-0.2254,-0.2489,
16.220122,0.3655,0.4933,-0.1955,-3.3163,-1.3907,1.7342,-0.9020,-0.2254,-0.2489,
16.223200,0.3655,0.4933,-0.1955,-3.4412,-1.3962,0.9473,-0.9020,-0.2254,-0.2489,
16.239622,0.2801,0.5538,-0.2271,-3.4412,-1.3962,0.9473,-0.9020,-0.2254,-0.2489,
16.242884,0.2801,0.5538,-0.2271,-4.0745,-1.0379,0.6415,-0.9020,-0.2254,-0.2489,
16.253550,0.2801,0.5538,-0.2271,-4.0745,-1.0379,0.6415,-1.2571,-1.2123,-2.0801,
16.259524,0.2152,0.5819,-0.2585,-4.0745,-1.0379,0.6415,-1.2571,-1.2123,-2.0801,
16.261968,0.2152,0.5819,-0.2585,-4.4034,-1.0622,0.3427,-1.2571,-1.2123,-2.0801,
16.282070,0.2970,0.6110,-0.2987,-4.4034,-1.0622,0.3427,-1.2571,-1.2123,-2.0801,
16.285372,0.2970,0.6110,-0.2987,-3.2390,-1.1241,-0.0715,-1.2571,-1.2123,-2.0801,
16.299300,0.5029,0.6509,-0.3745,-3.2390,-1.1241,-0.0715,-1.2571,-1.2123,-2.0801,
16.303840,0.5029,0.6509,-0.3745,-0.7969,-1.0885,-0.8620,-1.2571,-1.2123,-2.0801,
16.320428,0.5220,0.7835,-0.3862,-0.7969,-1.0885,-0.8620,-1.2571,-1.2123,-2.0801,
16.323974,0.5220,0.7835,-0.3862,-0.7969,-1.0885,-0.8620,-1.7085,-1.5610,-3.0191,
16.325411,0.5220,0.7835,-0.3862,-0.1010,-0.1719,-1.0286,-1.7085,-1.5610,-3.0191,
16.340022,0.4558,0.8620,-0.4168,-0.1010,-0.1719,-1.0286,-1.7085,-1.5610,-3.0191,
16.342579,0.4558,0.8620,-0.4168,-0.1788,0.2133,-1.4535,-1.7085,-1.5610,-3.0191,
16.359301,0.3613,0.9649,-0.3881,-0.1788,0.2133,-1.4535,-1.7085,-1.5610,-3.0191,
16.361954,0.3613,0.9649,-0.3881,-0.4822,0.8403,-1.3356,-1.7085,-1.5610,-3.0191,
16.379241,0.3061,1.1373,-0.4179,-0.4822,0.8403,-1.3356,-1.7085,-1.5610,-3.0191,
16.387407,0.3061,1.1373,-0.4179,-0.3441,2.1948,-1.7992,-1.7085,-1.5610,-3.0191,
16.389352,0.2780,1.1451,-0.4250,-0.3441,2.1948,-1.7992,-1.7085,-1.5610,-3.0191,
16.390268,0.2780,1.1451,-0.4250,-0.3441,2.1948,-1.7992,-1.7276,-2.2296,-3.5068,
16.403798,0.2780,1.1451,-0.4250,-0.2765,1.2699,-2.1031,-1.7276,-2.2296,-3.5068,
16.422118,0.2780,1.1451,-0.4250,1.0270,1.7891,-2.0593,-1.7276,-2.2296,-3.5068,
16.441602,0.2780,1.1451,-0.4250,1.8478,1.9503,-2.5135,-1.7276,-2.2296,-3.5068,
16.453369,0.3102,1.2101,-0.4099,1.8478,1.9503,-2.5135,-1.7276,-2.2296,-3.5068,
16.456160,0.3102,1.2101,-0.4099,1.8478,1.9503,-2.5135,-1.5488,-2.5756,-3.0484,
16.461613,0.3102,1.2101,-0.4099,2.2128,2.3450,-2.5824,-1.5488,-2.5756,-3.0484,
16.481001,0.3102,1.2101,-0.4099,1.7511,2.4797,-2.9572,-1.5488,-2.5756,-3.0484,
16.500901,0.3102,1.2101,-0.4099,2.4961,2.6935,-2.9250,-1.5488,-2.5756,-3.0484,
16.516486,0.1651,1.1589,-0.3610,2.4961,2.6935,-2.9250,-1.5488,-2.5756,-3.0484,
16.517981,0.1651,1.1589,-0.3610,2.4961,2.6935,-2.9250,-0.9952,-2.4989,-2.4698,
16.522528,0.1651,1.1589,-0.3610,2.8604,1.4523,-2.9404,-0.9952,-2.4989,-2.4698,
16.541499,0.1651,1.1589,-0.3610,2.1539,0.3257,-3.1399,-0.9952,-2.4989,-2.4698,
16.561330,0.1651,1.1589,-0.3610,1.5964,0.3917,-3.1763,-0.9952,-2.4989,-2.4698,
16.581089,0.1651,1.1589,-0.3610,1.9736,-0.1356,-3.0017,-0.9952,-2.4989,-2.4698,
16.583870,-0.0299,0.9363,-0.2995,1.9736,-0.1356,-3.0017,-0.9952,-2.4989,-2.4698,
16.586877,-0.0299,0.9363,-0.2995,1.9736,-0.1356,-3.0017,-0.2920,-2.9706,-0.9484,
16.601962,-0.0299,0.9363,-0.2995,3.0467,-0.5132,-2.9252,-0.2920,-2.9706,-0.9484,
16.621685,-0.0299,0.9363,-0.2995,2.2120,-0.4333,-3.1581,-0.2920,-2.9706,-0.9484,
16.641625,-0.0299,0.9363,-0.2995,1.1095,-0.8974,-3.7236,-0.2920,-2.9706,-0.9484,
16.648627,-0.2175,0.8539,-0.2908,1.1095,-0.8974,-3.7236,-0.2920,-2.9706,-0.9484,
16.650485,-0.2175,0.8539,-0.2908,1.1095,-0.8974,-3.7236,0.2393,-4.1167,0.6895,
16.661387,-0.2175,0.8539,-0.2908,0.8955,-1.1668,-3.8803,0.2393,-4.1167,0.6895,
16.681233,-0.2175,0.8539,-0.2908,2.0420,-1.3299,-4.5393,0.2393,-4.1167,0.6895,
16.702332,-0.2175,0.8539,-0.2908,3.3913,-1.1012,-5.3980,0.2393,-4.1167,0.6895,
16.714626,0.2470,0.8638,-0.4659,3.3913,-1.1012,-5.3980,0.2393,-4.1167,0.6895,
16.716227,0.2470,0.8638,-0.4659,3.3913,-1.1012,-5.3980,0.7594,-4.3940,1.4822,
16.721376,0.2470,0.8638,-0.4659,4.0126,-1.2133,-5.7723,0.7594,-4.3940,1.4822,
16.741542,0.2470,0.8638,-0.4659,3.5349,-1.5970,-5.3011,0.7594,-4.3940,1.4822,
16.761243,0.2470,0.8638,-0.4659,1.6456,-0.1727,-4.0028,0.7594,-4.3940,1.4822,
16.781390,-0.1298,1.1839,0.1671,1.6456,-0.1727,-4.0028,0.7594,-4.3940,1.4822,
16.784143,-0.1298,1.1839,0.1671,1.6456,-0.1727,-4.0028,0.4336,-2.4185,0.6895,
16.785183,-0.1298,1.1839,0.1671,-0.4770,1.5230,0.3441,0.4336,-2.4185,0.6895,
16.802552,-0.1298,1.1839,0.1671,-2.0748,3.8205,3.2338,0.4336,-2.4185,0.6895,
16.821369,-0.1298,1.1839,0.1671,1.3139,1.0638,-1.1938,0.4336,-2.4185,0.6895,
16.841308,-0.1298,1.1839,0.1671,4.5294,0.6200,-3.5120,0.4336,-2.4185,0.6895,
16.846643,0.5719,1.0301,-0.2872,4.5294,0.6200,-3.5120,0.4336,-2.4185,0.6895,
16.848120,0.5719,1.0301,-0.2872,4.5294,0.6200,-3.5120,0.9217,-4.1012,0.7454,
16.861642,0.5719,1.0301,-0.2872,6.6909,0.9275,-1.3779,0.9217,-4.1012,0.7454,
16.881193,0.5719,1.0301,-0.2872,6.6006,1.1520,2.3582,0.9217,-4.1012,0.7454,
16.901316,0.5719,1.0301,-0.2872,2.2400,0.0525,0.0722,0.9217,-4.1012,0.7454,
16.912668,0.1819,1.0274,0.0397,2.2400,0.0525,0.0722,0.9217,-4.1012,0.7454,
16.914540,0.1819,1.0274,0.0397,2.2400,0.0525,0.0722,0.9074,-0.2067,0.0380,
16.921083,0.1819,1.0274,0.0397,1.1260,0.2493,0.3131,0.9074,-0.2067,0.0380,
16.942095,0.1819,1.0274,0.0397,0.9802,-0.0716,-0.7159,0.9074,-0.2067,0.0380,
16.961371,0.1819,1.0274,0.0397,-0.0366,0.0606,-1.0171,0.9074,-0.2067,0.0380,
16.979273,-0.0753,0.9970,-0.2270,-0.0366,0.0606,-1.0171,0.9074,-0.2067,0.0380,
16.981959,-0.0753,0.9970,-0.2270,-0.0366,0.0606,-1.0171,0.8259,-0.4644,-0.0770,
16.983024,-0.0753,0.9970,-0.2270,-1.2114,-0.0085,-1.6044,0.8259,-0.4644,-0.0770,
17.001339,-0.0753,0.9970,-0.2270,-0.9470,-0.1558,-1.9064,0.8259,-0.4644,-0.0770,
17.021458,-0.0753,0.9970,-0.2270,-0.2426,0.2483,-1.5605,0.8259,-0.4644,-0.0770,
17.041144,-0.0753,0.9970,-0.2270,-0.4574,-0.2313,-1.4443,0.8259,-0.4644,-0.0770,
17.044659,0.0681,0.9371,-0.3207,-0.4574,-0.2313,-1.4443,0.8259,-0.4644,-0.0770,
17.046207,0.0681,0.9371,-0.3207,-0.4574,-0.2313,-1.4443,0.5411,-0.3877,0.0667,
17.061427,0.0681,0.9371,-0.3207,2.8545,0.2124,0.4827,0.5411,-0.3877,0.0667,
17.081006,0.0681,0.9371,-0.3207,1.0180,0.6239,0.4811,0.5411,-0.3877,0.0667,
17.101788,0.0681,0.9371,-0.3207,-2.8057,-0.6410,-0.7775,0.5411,-0.3877,0.0667,
17.110605,-0.3245,0.9247,-0.2329,-2.8057,-0.6410,-0.7775,0.5411,-0.3877,0.0667,
17.112001,-0.3245,0.9247,-0.2329,-2.8057,-0.6410,-0.7775,0.4884,-0.0854,-0.0727,
17.121946,-0.3245,0.9247,-0.2329,-3.2019,-0.5105,-0.7067,0.4884,-0.0854,-0.0727,
17.141059,-0.3245,0.9247,-0.2329,-1.9811,-0.6238,-1.0845,0.4884,-0.0854,-0.0727,
17.161121,-0.3245,0.9247,-0.2329,4.5598,0.3151,1.2557,0.4884,-0.0854,-0.0727,
17.176804,0.0521,1.0055,-0.1520,4.5598,0.3151,1.2557,0.4884,-0.0854,-0.0727,
17.179682,0.0521,1.0055,-0.1520,4.5598,0.3151,1.2557,0.4293,-0.1248,0.1359,
17.181267,0.0521,1.0055,-0.1520,-0.3942,0.1535,0.0866,0.4293,-0.1248,0.1359,
17.201095,0.0521,1.0055,-0.1520,-3.3131,-0.3114,-1.4505,0.4293,-0.1248,0.1359,
17.222667,0.0521,1.0055,-0.1520,-0.2591,-0.0375,-1.9268,0.4293,-0.1248,0.1359,
17.241270,0.0521,1.0055,-0.1520,2.7977,-0.0795,0.4615,0.4293,-0.1248,0.1359,
17.243836,0.3346,0.9680,-0.1152,2.7977,-0.0795,0.4615,0.4293,-0.1248,0.1359,
17.244605,0.3346,0.9680,-0.1152,2.7977,-0.0795,0.4615,0.2228,-0.1120,0.3563,
17.261823,0.3346,0.9680,-0.1152,0.6577,0.0710,-0.1523,0.2228,-0.1120,0.3563,
17.281153,0.3346,0.9680,-0.1152,0.1199,0.1424,-1.1083,0.2228,-0.1120,0.3563,
17.301154,0.3346,0.9680,-0.1152,-0.3287,-0.1902,-1.4870,0.2228,-0.1120,0.3563,
17.308871,0.0935,0.9767,-0.3330,-0.3287,-0.1902,-1.4870,0.2228,-0.1120,0.3563,
17.311637,0.0935,0.9767,-0.3330,-0.3287,-0.1902,-1.4870,0.0381,-0.1530,0.3164,
17.322501,0.0935,0.9767,-0.3330,0.8533,0.0241,-0.7815,0.0381,-0.1530,0.3164,
17.341989,0.0935,0.9767,-0.3330,1.2058,0.0290,1.1919,0.0381,-0.1530,0.3164,
17.361222,0.0935,0.9767,-0.3330,-0.6169,0.0113,-0.0270,0.0381,-0.1530,0.3164,
17.374830,0.1263,0.9649,-0.3280,-0.6169,0.0113,-0.0270,0.0381,-0.1530,0.3164,
17.376671,0.1263,0.9649,-0.3280,-0.6169,0.0113,-0.0270,-0.0221,-0.3366,0.2168,
17.380856,0.1263,0.9649,-0.3280,-0.3207,-0.2386,-1.0990,-0.0221,-0.3366,0.2168,
17.401236,0.1263,0.9649,-0.3280,-0.7722,-0.7071,-1.6122,-0.0221,-0.3366,0.2168,
17.421555,0.1263,0.9649,-0.3280,0.8877,-0.0675,-0.1780,-0.0221,-0.3366,0.2168,
17.441197,0.2301,1.0040,-0.1818,0.8877,-0.0675,-0.1780,-0.0221,-0.3366,0.2168,
17.444601,0.2301,1.0040,-0.1818,0.8877,-0.0675,-0.1780,-0.1179,-0.0034,0.1562,
17.445464,0.2301,1.0040,-0.1818,1.3557,0.2768,0.4183,-0.1179,-0.0034,0.1562,
17.461272,0.2301,1.0040,-0.1818,-1.2247,-0.2537,-0.4267,-0.1179,-0.0034,0.1562,
17.481187,0.2301,1.0040,-0.1818,-0.7066,-0.4611,0.2781,-0.1179,-0.0034,0.1562,
17.501928,0.2301,1.0040,-0.1818,-0.3897,0.3072,-0.9406,-0.1179,-0.0034,0.1562,
17.509360,0.1100,0.9809,-0.2536,-0.3897,0.3072,-0.9406,-0.1179,-0.0034,0.1562,
17.512265,0.1100,0.9809,-0.2536,-0.3897,0.3072,-0.9406,-0.2366,-0.0651,0.5080,
17.524039,0.1100,0.9809,-0.2536,-0.4817,-0.1995,-0.3474,-0.2366,-0.0651,0.5080,
17.541785,0.1100,0.9809,-0.2536,-0.1005,-0.6951,-0.6508,-0.2366,-0.0651,0.5080,
17.561565,0.1100,0.9809,-0.2536,0.3784,0.9148,0.2079,-0.2366,-0.0651,0.5080,
17.574964,0.1575,1.0036,-0.2352,0.3784,0.9148,0.2079,-0.2366,-0.0651,0.5080,
17.577653,0.1575,1.0036,-0.2352,0.3784,0.9148,0.2079,-0.3409,-0.2163,0.6848,
17.581662,0.1575,1.0036,-0.2352,-0.5728,-0.3888,-0.7236,-0.3409,-0.2163,0.6848,
17.601251,0.1575,1.0036,-0.2352,-0.3456,-0.1586,-0.2498,-0.3409,-0.2163,0.6848,
17.621891,0.1575,1.0036,-0.2352,-0.0397,0.3957,-0.6689,-0.3409,-0.2163,0.6848,
17.643445,0.2342,0.9585,-0.2268,-0.0397,0.3957,-0.6689,-0.3409,-0.2163,0.6848,
17.647339,0.2342,0.9585,-0.2268,-0.0397,0.3957,-0.6689,-0.5826,-0.5048,0.8860,
17.649217,0.2342,0.9585,-0.2268,0.2116,-0.0777,-0.6904,-0.5826,-0.5048,0.8860,
17.662262,0.2342,0.9585,-0.2268,0.1233,0.9116,-0.3680,-0.5826,-0.5048,0.8860,
17.681332,0.2342,0.9585,-0.2268,-0.5409,-0.1184,-1.3675,-0.5826,-0.5048,0.8860,
17.701049,0.2342,0.9585,-0.2268,-0.7313,1.0077,-0.3996,-0.5826,-0.5048,0.8860,
17.704791,0.2053,1.0678,-0.1602,-0.7313,1.0077,-0.3996,-0.5826,-0.5048,0.8860,
17.706491,0.2053,1.0678,-0.1602,-0.7313,1.0077,-0.3996,-0.8828,-0.4979,1.0702,
17.721070,0.2053,1.0678,-0.1602,-0.4660,0.6704,-0.0837,-0.8828,-0.4979,1.0702,
17.741937,0.2053,1.0678,-0.1602,-0.4599,0.8915,0.3316,-0.8828,-0.4979,1.0702,
17.761217,0.2053,1.0678,-0.1602,-0.4373,2.3744,-0.2695,-0.8828,-0.4979,1.0702,
