time,gFx,gFy,gFz,ax,ay,az,wx,wy,wz,P
0.001,-0.08,0.98,0.05,-0.02,0.00,-0.04,-0.03,0.00,-0.00,1018.98
0.002,-0.09,0.97,0.05,-0.02,0.00,-0.04,-0.03,0.00,-0.00,1018.98
0.003,-0.09,0.97,0.05,-0.02,0.00,-0.04,-0.01,-0.01,-0.01,1018.98
0.025,-0.09,0.98,0.08,-0.02,0.00,-0.04,-0.01,-0.01,-0.01,1018.98
0.025,-0.09,0.98,0.08,-0.01,0.04,0.17,-0.01,-0.01,-0.01,1018.98
0.047,-0.08,0.98,0.04,-0.01,0.04,0.17,-0.01,-0.01,-0.01,1018.98
0.047,-0.08,0.98,0.04,-0.01,0.04,0.17,-0.01,-0.01,-0.01,1018.98
0.064,-0.08,0.98,0.04,-0.01,0.04,0.17,-0.01,-0.01,-0.01,1018.98
0.075,-0.08,0.98,0.04,-0.01,0.04,0.17,-0.04,-0.02,-0.01,1018.98
0.096,-0.08,0.98,0.04,0.03,-0.02,-0.10,-0.04,-0.02,-0.01,1018.98
0.097,-0.09,0.97,0.07,0.03,-0.02,-0.10,-0.04,-0.02,-0.01,1018.98
0.098,-0.09,0.98,0.08,0.03,-0.02,-0.10,-0.04,-0.02,-0.01,1018.98
0.132,-0.10,0.97,0.09,0.03,-0.02,-0.10,-0.04,-0.02,-0.01,1018.98
0.134,-0.10,0.97,0.09,0.03,-0.02,-0.10,-0.04,-0.02,-0.01,1018.97
0.145,-0.10,0.97,0.09,0.03,-0.02,-0.10,-0.04,-0.02,-0.01,1018.97
0.145,-0.10,0.97,0.09,0.03,-0.02,-0.10,-0.03,-0.01,-0.01,1018.97
0.164,-0.09,0.98,0.06,0.03,-0.02,-0.10,-0.03,-0.01,-0.01,1018.97
0.165,-0.09,0.98,0.06,0.01,0.00,-0.10,-0.03,-0.01,-0.01,1018.97
0.166,-0.09,0.98,0.06,0.01,0.00,-0.10,-0.03,-0.01,-0.01,1018.98
0.201,-0.10,0.98,0.06,0.01,0.00,-0.10,-0.03,-0.01,-0.01,1018.98
0.202,-0.11,0.99,0.06,0.01,0.00,-0.10,-0.03,-0.01,-0.01,1018.98
0.214,-0.11,0.99,0.06,0.01,0.00,-0.10,-0.01,0.01,0.03,1018.98
0.235,-0.11,0.99,0.06,-0.12,-0.01,0.09,-0.01,0.01,0.03,1018.98
0.236,-0.11,0.99,0.06,-0.12,-0.01,0.09,-0.01,0.01,0.03,1018.98
0.236,-0.12,0.98,0.09,-0.12,-0.01,0.09,-0.01,0.01,0.03,1018.98
0.247,-0.12,0.98,0.09,-0.12,-0.01,0.09,-0.01,0.01,0.03,1018.98
0.264,-0.09,0.97,0.11,-0.12,-0.01,0.09,-0.01,0.01,0.03,1018.98
0.284,-0.09,0.97,0.11,-0.12,-0.01,0.09,0.03,0.01,0.12,1018.98
0.285,-0.09,0.97,0.06,-0.12,-0.01,0.09,0.03,0.01,0.12,1018.98
0.305,-0.10,0.97,0.10,-0.12,-0.01,0.09,0.03,0.01,0.12,1018.98
0.305,-0.10,0.97,0.10,-0.31,0.05,0.01,0.03,0.01,0.12,1018.98
0.328,-0.08,0.97,0.09,-0.31,0.05,0.01,0.03,0.01,0.12,1018.98
0.329,-0.08,0.97,0.09,-0.31,0.05,0.01,0.03,0.01,0.12,1018.97
0.355,-0.08,0.97,0.09,-0.31,0.05,0.01,0.10,-0.00,0.14,1018.97
0.356,-0.05,0.97,0.04,-0.31,0.05,0.01,0.10,-0.00,0.14,1018.97
0.367,-0.03,0.98,0.02,-0.31,0.05,0.01,0.10,-0.00,0.14,1018.97
0.367,-0.03,0.98,0.02,-0.31,0.05,0.01,0.10,-0.00,0.14,1018.99
0.375,-0.05,0.99,0.05,-0.31,0.05,0.01,0.10,-0.00,0.14,1018.99
0.376,-0.05,0.99,0.05,-0.19,-0.08,0.29,0.10,-0.00,0.14,1018.99
0.396,-0.06,0.99,0.07,-0.19,-0.08,0.29,0.10,-0.00,0.14,1018.99
0.425,-0.07,1.00,0.05,-0.19,-0.08,0.29,0.10,-0.00,0.14,1018.99
0.426,-0.07,1.00,0.05,-0.19,-0.08,0.29,0.07,-0.05,0.05,1018.99
0.445,-0.05,0.98,0.11,-0.19,-0.08,0.29,0.07,-0.05,0.05,1018.99
0.446,-0.05,0.98,0.11,0.21,0.01,-0.12,0.07,-0.05,0.05,1018.99
0.448,-0.05,0.98,0.11,0.21,0.01,-0.12,0.07,-0.05,0.05,1018.99
0.463,-0.06,0.99,0.10,0.21,0.01,-0.12,0.07,-0.05,0.05,1018.99
0.5,-0.06,0.99,0.10,0.21,0.01,-0.12,0.25,-0.15,0.01,1018.99
0.501,-0.07,1.00,0.04,0.21,0.01,-0.12,0.25,-0.15,0.01,1018.99
0.515,-0.07,0.99,0.06,0.21,0.01,-0.12,0.25,-0.15,0.01,1018.99
0.516,-0.09,0.98,0.06,0.21,0.01,-0.12,0.25,-0.15,0.01,1018.99
0.516,-0.09,0.98,0.06,0.07,0.06,0.43,0.25,-0.15,0.01,1018.99
0.528,-0.09,0.98,0.06,0.07,0.06,0.43,0.25,-0.15,0.01,1018.89
0.564,-0.09,0.98,0.06,0.07,0.06,0.43,0.36,-0.22,0.15,1018.89
0.566,-0.14,1.00,0.02,0.07,0.06,0.43,0.36,-0.22,0.15,1018.89
0.567,-0.21,1.03,0.02,0.07,0.06,0.43,0.36,-0.22,0.15,1018.89
0.568,-0.21,1.03,0.02,0.07,0.06,0.43,0.36,-0.22,0.15,1018.88
0.585,-0.23,1.09,-0.01,0.07,0.06,0.43,0.36,-0.22,0.15,1018.88
0.586,-0.23,1.09,-0.01,-0.25,0.09,0.36,0.36,-0.22,0.15,1018.88
0.594,-0.25,1.12,-0.02,-0.25,0.09,0.36,0.36,-0.22,0.15,1018.88
0.635,-0.25,1.12,-0.02,-0.25,0.09,0.36,0.28,-0.31,0.81,1018.88
0.637,-0.24,1.16,-0.05,-0.25,0.09,0.36,0.28,-0.31,0.81,1018.88
0.647,-0.21,1.14,-0.06,-0.25,0.09,0.36,0.28,-0.31,0.81,1018.88
0.647,-0.21,1.14,-0.06,-0.25,0.09,0.36,0.28,-0.31,0.81,1018.86
0.654,-0.10,1.03,0.22,-0.25,0.09,0.36,0.28,-0.31,0.81,1018.86
0.655,-0.10,1.03,0.22,-2.03,0.58,0.01,0.28,-0.31,0.81,1018.86
0.704,-0.10,1.03,0.22,-2.03,0.58,0.01,0.57,0.11,1.11,1018.86
0.706,0.07,0.87,0.37,-2.03,0.58,0.01,0.57,0.11,1.11,1018.86
0.706,0.14,0.91,0.16,-2.03,0.58,0.01,0.57,0.11,1.11,1018.86
0.724,0.20,0.97,0.00,-2.03,0.58,0.01,0.57,0.11,1.11,1018.86
0.725,0.20,0.97,0.00,-2.35,1.12,0.64,0.57,0.11,1.11,1018.86
0.727,0.20,0.97,0.00,-2.35,1.12,0.64,0.57,0.11,1.11,1018.81
0.767,0.20,0.97,0.00,-2.35,1.12,0.64,0.57,0.11,1.11,1018.74
0.768,0.15,0.95,-0.00,-2.35,1.12,0.64,0.57,0.11,1.11,1018.74
0.768,-0.42,0.79,0.06,-2.35,1.12,0.64,0.57,0.11,1.11,1018.74
0.774,-0.42,0.79,0.06,-2.35,1.12,0.64,0.32,1.81,-0.43,1018.74
0.795,-0.73,0.82,-0.08,-2.35,1.12,0.64,0.32,1.81,-0.43,1018.74
0.796,-0.57,0.83,-0.05,-2.35,1.12,0.64,0.32,1.81,-0.43,1018.74
0.796,-0.57,0.83,-0.05,1.30,-0.62,1.73,0.32,1.81,-0.43,1018.74
0.844,-0.40,0.82,0.04,1.30,-0.62,1.73,0.32,1.81,-0.43,1018.74
0.845,-0.32,0.85,-0.02,1.30,-0.62,1.73,0.32,1.81,-0.43,1018.74
0.846,-0.32,0.85,-0.02,1.30,-0.62,1.73,-0.01,0.83,-0.97,1018.74
0.847,-0.32,0.85,-0.02,1.30,-0.62,1.73,-0.01,0.83,-0.97,1018.74
0.864,-0.33,0.87,-0.08,1.30,-0.62,1.73,-0.01,0.83,-0.97,1018.74
0.865,-0.33,0.87,-0.08,-3.84,-1.53,0.15,-0.01,0.83,-0.97,1018.74
0.914,-0.33,0.90,-0.07,-3.84,-1.53,0.15,-0.01,0.83,-0.97,1018.74
0.916,-0.33,0.93,-0.06,-3.84,-1.53,0.15,-0.01,0.83,-0.97,1018.74
0.916,-0.33,0.93,-0.06,-3.84,-1.53,0.15,0.12,0.52,-1.21,1018.74
0.927,-0.30,0.99,-0.06,-3.84,-1.53,0.15,0.12,0.52,-1.21,1018.74
0.927,-0.30,0.99,-0.06,-3.84,-1.53,0.15,0.12,0.52,-1.21,1018.76
0.934,-0.24,1.04,-0.07,-3.84,-1.53,0.15,0.12,0.52,-1.21,1018.76
0.935,-0.24,1.04,-0.07,-1.72,-1.07,0.19,0.12,0.52,-1.21,1018.76
0.967,-0.18,1.05,-0.09,-1.72,-1.07,0.19,0.12,0.52,-1.21,1018.76
0.969,-0.18,1.05,-0.09,-1.72,-1.07,0.19,0.12,0.52,-1.21,1018.82
0.986,-0.11,1.04,-0.11,-1.72,-1.07,0.19,0.12,0.52,-1.21,1018.82
0.987,-0.11,1.04,-0.11,-1.72,-1.07,0.19,0.03,0.21,-1.00,1018.82
0.997,-0.02,1.04,-0.16,-1.72,-1.07,0.19,0.03,0.21,-1.00,1018.82
1.004,-0.02,1.04,-0.16,-0.50,0.24,-0.23,0.03,0.21,-1.00,1018.82
1.048,0.03,1.00,-0.19,-0.50,0.24,-0.23,0.03,0.21,-1.00,1018.82
1.05,0.05,0.97,-0.18,-0.50,0.24,-0.23,0.03,0.21,-1.00,1018.82
1.051,0.05,0.97,-0.18,-0.50,0.24,-0.23,0.03,0.21,-1.00,1018.84
1.054,0.05,0.97,-0.18,-0.50,0.24,-0.23,-0.26,-0.71,-0.86,1018.84
1.064,0.12,0.88,-0.10,-0.50,0.24,-0.23,-0.26,-0.71,-0.86,1018.84
1.075,0.30,0.77,-0.04,-0.50,0.24,-0.23,-0.26,-0.71,-0.86,1018.84
1.075,0.30,0.77,-0.04,1.82,0.90,-1.11,-0.26,-0.71,-0.86,1018.84
1.124,0.66,0.79,-0.14,1.82,0.90,-1.11,-0.26,-0.71,-0.86,1018.84
1.126,0.40,1.65,0.33,1.82,0.90,-1.11,-0.26,-0.71,-0.86,1018.84
1.127,0.40,1.65,0.33,1.82,0.90,-1.11,-0.09,-0.12,1.29,1018.84
1.127,0.40,1.65,0.33,1.82,0.90,-1.11,-0.09,-0.12,1.29,1019.02
1.144,2.91,1.36,-0.26,1.82,0.90,-1.11,-0.09,-0.12,1.29,1019.02
1.145,2.91,1.36,-0.26,3.20,-0.69,-0.97,-0.09,-0.12,1.29,1019.02
1.167,-0.77,1.32,0.25,3.20,-0.69,-0.97,-0.09,-0.12,1.29,1019.02
1.169,-0.77,1.32,0.25,3.20,-0.69,-0.97,-0.09,-0.12,1.29,1020.18
1.195,-0.90,0.99,-1.11,3.20,-0.69,-0.97,-0.09,-0.12,1.29,1020.18
1.195,-0.90,0.99,-1.11,3.20,-0.69,-0.97,0.00,0.38,-0.02,1020.18
1.203,0.46,1.07,0.15,3.20,-0.69,-0.97,0.00,0.38,-0.02,1020.18
1.215,-0.28,0.86,-0.23,3.20,-0.69,-0.97,0.00,0.38,-0.02,1020.18
1.217,-0.28,0.86,-0.23,12.28,3.04,1.14,0.00,0.38,-0.02,1020.18
1.247,0.01,0.95,0.11,12.28,3.04,1.14,0.00,0.38,-0.02,1020.18
1.248,0.01,0.95,0.11,12.28,3.04,1.14,0.00,0.38,-0.02,1019.53
1.265,-0.22,0.97,0.05,12.28,3.04,1.14,0.00,0.38,-0.02,1019.53
1.266,-0.22,0.97,0.05,12.28,3.04,1.14,-0.38,0.04,0.12,1019.53
1.284,-0.09,1.00,0.06,12.28,3.04,1.14,-0.38,0.04,0.12,1019.53
1.286,-0.09,1.00,0.06,-3.08,0.29,-3.80,-0.38,0.04,0.12,1019.53
1.327,-0.09,1.00,0.06,-3.08,0.29,-3.80,-0.38,0.04,0.12,1019.41
1.329,-0.12,0.98,0.06,-3.08,0.29,-3.80,-0.38,0.04,0.12,1019.41
1.329,-0.14,1.01,0.00,-3.08,0.29,-3.80,-0.38,0.04,0.12,1019.41
1.334,-0.14,1.01,0.00,-3.08,0.29,-3.80,-0.08,0.08,0.15,1019.41
1.355,-0.14,1.01,0.00,0.10,-0.08,0.61,-0.08,0.08,0.15,1019.41
1.356,-0.11,1.01,-0.09,0.10,-0.08,0.61,-0.08,0.08,0.15,1019.41
1.357,-0.06,0.99,-0.01,0.10,-0.08,0.61,-0.08,0.08,0.15,1019.41
1.367,-0.06,0.99,-0.01,0.10,-0.08,0.61,-0.08,0.08,0.15,1019.24
1.396,-0.08,0.98,-0.00,0.10,-0.08,0.61,-0.08,0.08,0.15,1019.24
1.397,-0.09,0.99,0.01,0.10,-0.08,0.61,-0.08,0.08,0.15,1019.24
1.405,-0.09,0.99,0.01,0.10,-0.08,0.61,-0.06,0.03,0.07,1019.24
1.424,-0.09,0.99,0.01,0.10,-0.08,0.61,-0.06,0.03,0.07,1019.24
1.425,-0.09,0.99,0.01,-0.07,0.16,-0.12,-0.06,0.03,0.07,1019.24
1.447,-0.10,0.99,-0.02,-0.07,0.16,-0.12,-0.06,0.03,0.07,1019.24
1.449,-0.10,0.99,-0.02,-0.07,0.16,-0.12,-0.06,0.03,0.07,1019.12
1.464,-0.10,0.99,-0.02,-0.07,0.16,-0.12,-0.06,0.03,0.07,1019.12
1.475,-0.10,0.99,-0.02,-0.07,0.16,-0.12,-0.01,-0.01,0.00,1019.12
1.496,-0.10,0.99,-0.02,0.16,0.04,-0.01,-0.01,-0.01,0.00,1019.12
1.497,-0.10,0.98,-0.02,0.16,0.04,-0.01,-0.01,-0.01,0.00,1019.12
1.497,-0.11,0.98,-0.01,0.16,0.04,-0.01,-0.01,-0.01,0.00,1019.12
1.527,-0.12,0.98,-0.01,0.16,0.04,-0.01,-0.01,-0.01,0.00,1019.12
1.529,-0.12,0.98,-0.01,0.16,0.04,-0.01,-0.01,-0.01,0.00,1019.03
1.545,-0.12,0.98,-0.01,0.16,0.04,-0.01,-0.04,-0.02,0.02,1019.03
1.546,-0.12,0.97,0.01,0.16,0.04,-0.01,-0.04,-0.02,0.02,1019.03
1.565,-0.14,0.97,0.01,0.16,0.04,-0.01,-0.04,-0.02,0.02,1019.03
1.566,-0.14,0.97,0.01,-0.02,0.02,-0.22,-0.04,-0.02,0.02,1019.03
1.567,-0.14,0.97,0.01,-0.02,0.02,-0.22,-0.04,-0.02,0.02,1018.97
1.594,-0.12,0.98,-0.01,-0.02,0.02,-0.22,-0.04,-0.02,0.02,1018.97
1.596,-0.13,0.98,-0.00,-0.02,0.02,-0.22,-0.04,-0.02,0.02,1018.97
1.615,-0.13,0.98,-0.00,-0.02,0.02,-0.22,-0.01,-0.03,0.13,1018.97
1.635,-0.13,0.98,-0.00,-0.31,-0.08,-0.05,-0.01,-0.03,0.13,1018.97
1.636,-0.11,0.99,-0.00,-0.31,-0.08,-0.05,-0.01,-0.03,0.13,1018.97
1.637,-0.09,0.99,-0.01,-0.31,-0.08,-0.05,-0.01,-0.03,0.13,1018.97
1.646,-0.09,0.99,-0.01,-0.31,-0.08,-0.05,-0.01,-0.03,0.13,1018.95
1.663,-0.11,0.98,0.00,-0.31,-0.08,-0.05,-0.01,-0.03,0.13,1018.95
1.684,-0.10,0.98,0.01,-0.31,-0.08,-0.05,-0.01,-0.03,0.13,1018.95
1.685,-0.10,0.98,0.01,-0.31,-0.08,-0.05,0.00,-0.06,0.17,1018.95
1.704,-0.12,0.96,0.04,-0.31,-0.08,-0.05,0.00,-0.06,0.17,1018.95
1.705,-0.12,0.96,0.04,-0.30,-0.01,-0.12,0.00,-0.06,0.17,1018.95
1.727,-0.12,0.98,0.03,-0.30,-0.01,-0.12,0.00,-0.06,0.17,1018.95
1.728,-0.12,0.98,0.03,-0.30,-0.01,-0.12,0.00,-0.06,0.17,1018.96
1.755,-0.12,0.98,0.03,-0.30,-0.01,-0.12,0.11,-0.05,0.30,1018.96
1.757,-0.10,0.99,0.00,-0.30,-0.01,-0.12,0.11,-0.05,0.30,1018.96
1.766,-0.10,0.99,-0.01,-0.30,-0.01,-0.12,0.11,-0.05,0.30,1018.96
1.767,-0.10,0.99,-0.01,-0.30,-0.01,-0.12,0.11,-0.05,0.30,1018.98
1.774,-0.12,1.00,0.03,-0.30,-0.01,-0.12,0.11,-0.05,0.30,1018.98
1.775,-0.12,1.00,0.03,-0.53,-0.12,0.26,0.11,-0.05,0.30,1018.98
1.797,-0.10,1.01,-0.03,-0.53,-0.12,0.26,0.11,-0.05,0.30,1018.98
1.825,-0.10,1.01,-0.03,-0.53,-0.12,0.26,0.19,-0.12,0.50,1018.98
1.826,-0.12,1.04,-0.03,-0.53,-0.12,0.26,0.19,-0.12,0.50,1018.98
1.844,-0.16,1.07,-0.05,-0.53,-0.12,0.26,0.19,-0.12,0.50,1018.98
1.845,-0.16,1.07,-0.05,-0.80,0.04,0.21,0.19,-0.12,0.50,1018.98
1.846,-0.16,1.07,-0.05,-0.80,0.04,0.21,0.19,-0.12,0.50,1018.96
1.864,-0.29,1.13,-0.07,-0.80,0.04,0.21,0.19,-0.12,0.50,1018.96
1.895,-0.35,1.20,-0.13,-0.80,0.04,0.21,0.19,-0.12,0.50,1018.96
1.896,-0.35,1.20,-0.13,-0.80,0.04,0.21,0.09,-0.14,1.30,1018.96
1.916,-0.35,1.20,-0.13,-2.11,0.57,-0.27,0.09,-0.14,1.30,1018.96
1.917,-0.40,1.31,-0.26,-2.11,0.57,-0.27,0.09,-0.14,1.30,1018.96
1.918,-0.45,1.38,-0.28,-2.11,0.57,-0.27,0.09,-0.14,1.30,1018.96
1.927,-0.45,1.38,-0.28,-2.11,0.57,-0.27,0.09,-0.14,1.30,1018.96
1.965,-0.45,1.38,-0.28,-2.11,0.57,-0.27,-0.48,-0.34,3.21,1018.96
1.967,-0.54,1.42,-0.17,-2.11,0.57,-0.27,-0.48,-0.34,3.21,1018.96
1.967,-0.69,1.38,-0.23,-2.11,0.57,-0.27,-0.48,-0.34,3.21,1018.96
1.968,-0.69,1.38,-0.23,-2.11,0.57,-0.27,-0.48,-0.34,3.21,1018.89
1.984,-0.63,1.25,0.18,-2.11,0.57,-0.27,-0.48,-0.34,3.21,1018.89
1.985,-0.63,1.25,0.18,-6.85,3.28,-2.04,-0.48,-0.34,3.21,1018.89
1.996,-0.32,1.32,0.04,-6.85,3.28,-2.04,-0.48,-0.34,3.21,1018.89
2.035,-0.32,1.32,0.04,-6.85,3.28,-2.04,-0.33,-0.95,5.12,1018.89
2.037,0.13,1.33,0.24,-6.85,3.28,-2.04,-0.33,-0.95,5.12,1018.89
2.047,0.20,1.30,0.29,-6.85,3.28,-2.04,-0.33,-0.95,5.12,1018.89
2.047,0.20,1.30,0.29,-6.85,3.28,-2.04,-0.33,-0.95,5.12,1018.28
2.055,-0.03,1.16,0.22,-6.85,3.28,-2.04,-0.33,-0.95,5.12,1018.28
2.056,-0.03,1.16,0.22,-11.60,5.45,-0.38,-0.33,-0.95,5.12,1018.28
2.095,0.28,0.47,-0.00,-11.60,5.45,-0.38,-0.33,-0.95,5.12,1018.28
2.105,0.28,0.47,-0.00,-11.60,5.45,-0.38,-0.05,-0.60,2.52,1018.28
2.106,1.15,1.01,0.22,-11.60,5.45,-0.38,-0.05,-0.60,2.52,1018.28
2.125,-0.43,0.48,0.24,-11.60,5.45,-0.38,-0.05,-0.60,2.52,1018.28
2.126,-0.43,0.48,0.24,-5.53,4.98,2.38,-0.05,-0.60,2.52,1018.28
2.126,-0.43,0.48,0.24,-5.53,4.98,2.38,-0.05,-0.60,2.52,1018.33
2.167,-0.43,0.48,0.24,-5.53,4.98,2.38,-0.05,-0.60,2.52,1018.66
2.167,-0.73,0.49,-0.04,-5.53,4.98,2.38,-0.05,-0.60,2.52,1018.66
2.168,-0.25,0.51,-0.13,-5.53,4.98,2.38,-0.05,-0.60,2.52,1018.66
2.175,-0.25,0.51,-0.13,-5.53,4.98,2.38,-0.01,0.24,-1.44,1018.66
2.195,-0.25,0.51,-0.13,-3.13,-2.12,1.32,-0.01,0.24,-1.44,1018.66
2.195,0.07,0.52,0.05,-3.13,-2.12,1.32,-0.01,0.24,-1.44,1018.66
2.196,-0.00,0.52,0.06,-3.13,-2.12,1.32,-0.01,0.24,-1.44,1018.66
2.237,-0.22,0.59,-0.01,-3.13,-2.12,1.32,-0.01,0.24,-1.44,1018.66
2.238,-0.23,0.70,-0.01,-3.13,-2.12,1.32,-0.01,0.24,-1.44,1018.66
2.244,-0.23,0.70,-0.01,-3.13,-2.12,1.32,0.18,0.72,-4.02,1018.66
2.246,-0.23,0.70,-0.01,-3.13,-2.12,1.32,0.18,0.72,-4.02,1018.87
2.264,-0.17,0.83,-0.03,-3.13,-2.12,1.32,0.18,0.72,-4.02,1018.87
2.265,-0.17,0.83,-0.03,-3.40,-4.21,-0.21,0.18,0.72,-4.02,1018.87
2.316,-0.17,0.83,-0.03,-3.40,-4.21,-0.21,0.42,0.14,-4.92,1018.87
2.317,-0.15,1.00,-0.06,-3.40,-4.21,-0.21,0.42,0.14,-4.92,1018.87
2.318,-0.11,1.17,-0.08,-3.40,-4.21,-0.21,0.42,0.14,-4.92,1018.87
2.328,-0.12,1.35,-0.11,-3.40,-4.21,-0.21,0.42,0.14,-4.92,1018.87
2.328,-0.12,1.35,-0.11,-3.40,-4.21,-0.21,0.42,0.14,-4.92,1018.88
2.335,-0.14,1.51,-0.15,-3.40,-4.21,-0.21,0.42,0.14,-4.92,1018.88
2.336,-0.14,1.51,-0.15,-0.65,-2.02,0.07,0.42,0.14,-4.92,1018.88
2.367,-0.19,1.64,-0.17,-0.65,-2.02,0.07,0.42,0.14,-4.92,1018.88
2.368,-0.19,1.64,-0.17,-0.65,-2.02,0.07,0.42,0.14,-4.92,1018.78
2.385,-0.05,1.81,-0.25,-0.65,-2.02,0.07,0.42,0.14,-4.92,1018.78
2.386,-0.05,1.81,-0.25,-0.65,-2.02,0.07,0.31,0.19,-4.30,1018.78
2.397,0.47,1.87,-0.15,-0.65,-2.02,0.07,0.31,0.19,-4.30,1018.78
2.405,0.47,1.87,-0.15,2.39,4.03,-0.54,0.31,0.19,-4.30,1018.78
2.436,1.27,1.76,-0.12,2.39,4.03,-0.54,0.31,0.19,-4.30,1018.78
2.437,1.81,1.51,0.09,2.39,4.03,-0.54,0.31,0.19,-4.30,1018.78
2.448,1.81,1.51,0.09,2.39,4.03,-0.54,0.31,0.19,-4.30,1018.83
2.455,1.81,1.51,0.09,2.39,4.03,-0.54,0.13,0.23,-2.52,1018.83
2.464,2.23,1.21,0.12,2.39,4.03,-0.54,0.13,0.23,-2.52,1018.83
2.476,2.23,1.21,0.12,6.63,8.94,-1.24,0.13,0.23,-2.52,1018.83
2.477,2.06,0.96,0.15,6.63,8.94,-1.24,0.13,0.23,-2.52,1018.83
2.525,2.06,0.96,0.15,6.63,8.94,-1.24,-0.40,0.32,2.62,1018.83
2.526,0.50,1.24,0.24,6.63,8.94,-1.24,-0.40,0.32,2.62,1018.83
2.526,-0.21,1.07,-0.47,6.63,8.94,-1.24,-0.40,0.32,2.62,1018.83
2.526,-0.21,1.07,-0.47,6.63,8.94,-1.24,-0.40,0.32,2.62,1019.11
2.545,-0.21,1.42,0.50,6.63,8.94,-1.24,-0.40,0.32,2.62,1019.11
2.545,-0.21,1.42,0.50,20.84,3.34,1.35,-0.40,0.32,2.62,1019.11
2.567,1.22,1.08,-0.75,20.84,3.34,1.35,-0.40,0.32,2.62,1019.11
2.568,1.22,1.08,-0.75,20.84,3.34,1.35,-0.40,0.32,2.62,1019.68
2.596,1.41,1.75,0.62,20.84,3.34,1.35,-0.40,0.32,2.62,1019.68
2.598,1.41,1.75,0.62,20.84,3.34,1.35,-0.30,0.46,1.13,1019.68
2.598,-0.83,0.88,-1.21,20.84,3.34,1.35,-0.30,0.46,1.13,1019.68
2.615,-0.12,0.97,0.42,20.84,3.34,1.35,-0.30,0.46,1.13,1019.68
2.616,-0.12,0.97,0.42,3.05,2.26,-0.92,-0.30,0.46,1.13,1019.68
2.648,-0.12,0.97,0.42,3.05,2.26,-0.92,-0.30,0.46,1.13,1019.53
2.649,-0.15,0.99,0.06,3.05,2.26,-0.92,-0.30,0.46,1.13,1019.53
2.664,-0.13,0.97,0.06,3.05,2.26,-0.92,-0.30,0.46,1.13,1019.53
2.665,-0.13,0.97,0.06,3.05,2.26,-0.92,-0.34,0.04,0.19,1019.53
2.688,-0.13,0.97,0.06,4.57,2.23,-0.59,-0.34,0.04,0.19,1019.53
2.689,-0.10,0.98,0.05,4.57,2.23,-0.59,-0.34,0.04,0.19,1019.53
2.728,-0.03,0.98,0.01,4.57,2.23,-0.59,-0.34,0.04,0.19,1019.53
2.73,-0.05,1.00,-0.01,4.57,2.23,-0.59,-0.34,0.04,0.19,1019.53
2.73,-0.05,1.00,-0.01,4.57,2.23,-0.59,-0.34,0.04,0.19,1019.15
2.735,-0.05,1.00,-0.01,4.57,2.23,-0.59,-0.08,0.05,0.18,1019.15
2.755,-0.05,1.00,-0.01,0.01,0.02,0.53,-0.08,0.05,0.18,1019.15
2.756,-0.06,1.00,-0.02,0.01,0.02,0.53,-0.08,0.05,0.18,1019.15
2.757,-0.10,0.99,-0.00,0.01,0.02,0.53,-0.08,0.05,0.18,1019.15
2.767,-0.10,0.99,-0.00,0.01,0.02,0.53,-0.08,0.05,0.18,1019.03
2.797,-0.09,0.99,0.00,0.01,0.02,0.53,-0.08,0.05,0.18,1019.03
2.797,-0.08,0.98,0.01,0.01,0.02,0.53,-0.08,0.05,0.18,1019.03
2.805,-0.08,0.98,0.01,0.01,0.02,0.53,-0.05,0.00,0.08,1019.03
2.825,-0.10,0.98,-0.01,0.01,0.02,0.53,-0.05,0.00,0.08,1019.03
2.826,-0.10,0.98,-0.01,0.41,0.14,-0.10,-0.05,0.00,0.08,1019.03
2.848,-0.10,0.98,-0.01,0.41,0.14,-0.10,-0.05,0.00,0.08,1018.93
2.849,-0.12,0.98,0.00,0.41,0.14,-0.10,-0.05,0.00,0.08,1018.93
2.864,-0.14,0.98,0.02,0.41,0.14,-0.10,-0.05,0.00,0.08,1018.93
2.875,-0.14,0.98,0.02,0.41,0.14,-0.10,-0.02,-0.03,0.17,1018.93
2.895,-0.14,0.98,0.02,-0.04,0.03,-0.02,-0.02,-0.03,0.17,1018.93
2.896,-0.11,0.98,0.02,-0.04,0.03,-0.02,-0.02,-0.03,0.17,1018.93
2.896,-0.08,0.98,-0.01,-0.04,0.03,-0.02,-0.02,-0.03,0.17,1018.93
2.927,-0.05,0.98,-0.00,-0.04,0.03,-0.02,-0.02,-0.03,0.17,1018.93
2.928,-0.05,0.98,-0.00,-0.04,0.03,-0.02,-0.02,-0.03,0.17,1018.91
2.945,-0.05,0.98,-0.00,-0.04,0.03,-0.02,0.01,-0.07,0.24,1018.91
2.945,-0.05,0.98,-0.00,-0.04,0.03,-0.02,0.01,-0.07,0.24,1018.91
2.965,-0.06,0.97,0.03,-0.04,0.03,-0.02,0.01,-0.07,0.24,1018.91
2.966,-0.06,0.97,0.03,-0.34,0.00,0.10,0.01,-0.07,0.24,1018.91
2.966,-0.06,0.97,0.03,-0.34,0.00,0.10,0.01,-0.07,0.24,1018.93
2.997,-0.04,0.97,0.04,-0.34,0.00,0.10,0.01,-0.07,0.24,1018.93
2.998,-0.06,0.97,0.03,-0.34,0.00,0.10,0.01,-0.07,0.24,1018.93
3.016,-0.06,0.97,0.03,-0.34,0.00,0.10,0.09,-0.09,0.22,1018.93
3.036,-0.06,0.97,0.03,0.11,-0.06,0.24,0.09,-0.09,0.22,1018.93
3.037,-0.08,0.98,0.04,0.11,-0.06,0.24,0.09,-0.09,0.22,1018.93
3.038,-0.09,1.00,-0.02,0.11,-0.06,0.24,0.09,-0.09,0.22,1018.93
3.047,-0.09,1.00,-0.02,0.11,-0.06,0.24,0.09,-0.09,0.22,1019.04
3.064,-0.09,1.03,-0.04,0.11,-0.06,0.24,0.09,-0.09,0.22,1019.04
3.086,-0.12,1.04,-0.03,0.11,-0.06,0.24,0.09,-0.09,0.22,1019.04
3.086,-0.12,1.04,-0.03,0.11,-0.06,0.24,0.14,-0.12,0.39,1019.04
3.105,-0.17,1.07,-0.10,0.11,-0.06,0.24,0.14,-0.12,0.39,1019.04
3.106,-0.17,1.07,-0.10,-0.44,-0.01,0.30,0.14,-0.12,0.39,1019.04
3.128,-0.21,1.10,-0.11,-0.44,-0.01,0.30,0.14,-0.12,0.39,1019.04
3.128,-0.21,1.10,-0.11,-0.44,-0.01,0.30,0.14,-0.12,0.39,1019.08
3.156,-0.23,1.11,-0.02,-0.44,-0.01,0.30,0.14,-0.12,0.39,1019.08
3.157,-0.23,1.11,-0.02,-0.44,-0.01,0.30,-0.02,-0.09,1.09,1019.08
3.168,-0.30,1.17,-0.08,-0.44,-0.01,0.30,-0.02,-0.09,1.09,1019.08
3.168,-0.30,1.17,-0.08,-0.44,-0.01,0.30,-0.02,-0.09,1.09,1019.06
3.176,-0.33,1.27,-0.18,-0.44,-0.01,0.30,-0.02,-0.09,1.09,1019.06
3.177,-0.33,1.27,-0.18,-2.02,0.70,-0.52,-0.02,-0.09,1.09,1019.06
3.196,-0.43,1.36,-0.24,-2.02,0.70,-0.52,-0.02,-0.09,1.09,1019.06
3.225,-0.64,1.46,-0.25,-2.02,0.70,-0.52,-0.02,-0.09,1.09,1019.06
3.225,-0.64,1.46,-0.25,-2.02,0.70,-0.52,-0.33,-0.14,2.69,1019.06
3.245,-0.94,1.47,-0.14,-2.02,0.70,-0.52,-0.33,-0.14,2.69,1019.06
3.245,-0.94,1.47,-0.14,-5.57,2.29,-1.11,-0.33,-0.14,2.69,1019.06
3.248,-0.94,1.47,-0.14,-5.57,2.29,-1.11,-0.33,-0.14,2.69,1019.00
3.264,-0.90,1.50,-0.01,-5.57,2.29,-1.11,-0.33,-0.14,2.69,1019.00
3.296,-0.90,1.50,-0.01,-5.57,2.29,-1.11,-0.54,-0.78,5.70,1019.00
3.297,-0.45,1.47,0.20,-5.57,2.29,-1.11,-0.54,-0.78,5.70,1019.00
3.316,-0.45,1.47,0.20,-13.14,6.84,-1.91,-0.54,-0.78,5.70,1019.00
3.317,0.25,1.46,0.46,-13.14,6.84,-1.91,-0.54,-0.78,5.70,1019.00
3.317,0.31,1.33,0.47,-13.14,6.84,-1.91,-0.54,-0.78,5.70,1019.00
3.328,0.31,1.33,0.47,-13.14,6.84,-1.91,-0.54,-0.78,5.70,1018.43
3.365,0.31,1.33,0.47,-13.14,6.84,-1.91,0.25,-0.51,4.47,1018.43
3.366,-0.20,0.96,0.39,-13.14,6.84,-1.91,0.25,-0.51,4.47,1018.43
3.367,0.76,0.37,-0.05,-13.14,6.84,-1.91,0.25,-0.51,4.47,1018.43
3.367,0.76,0.37,-0.05,-13.14,6.84,-1.91,0.25,-0.51,4.47,1018.28
3.386,1.67,0.88,0.28,-13.14,6.84,-1.91,0.25,-0.51,4.47,1018.28
3.386,1.67,0.88,0.28,-8.00,7.55,3.39,0.25,-0.51,4.47,1018.28
3.397,-0.31,0.26,0.41,-8.00,7.55,3.39,0.25,-0.51,4.47,1018.28
3.435,-0.31,0.26,0.41,-8.00,7.55,3.39,0.40,0.51,-1.86,1018.28
3.436,-0.64,0.24,-0.04,-8.00,7.55,3.39,0.40,0.51,-1.86,1018.28
3.437,-0.31,0.29,-0.23,-8.00,7.55,3.39,0.40,0.51,-1.86,1018.28
3.448,-0.31,0.29,-0.23,-8.00,7.55,3.39,0.40,0.51,-1.86,1018.66
3.456,0.09,0.32,0.13,-8.00,7.55,3.39,0.40,0.51,-1.86,1018.66
3.456,0.09,0.32,0.13,-0.08,-0.84,2.41,0.40,0.51,-1.86,1018.66
3.507,0.09,0.32,0.13,-0.08,-0.84,2.41,0.64,0.85,-3.77,1018.66
3.508,0.19,0.39,0.26,-0.08,-0.84,2.41,0.64,0.85,-3.77,1018.66
3.509,0.02,0.50,0.08,-0.08,-0.84,2.41,0.64,0.85,-3.77,1018.66
3.525,-0.08,0.66,-0.01,-0.08,-0.84,2.41,0.64,0.85,-3.77,1018.66
3.526,-0.08,0.66,-0.01,-6.47,-6.00,0.19,0.64,0.85,-3.77,1018.66
3.527,-0.08,0.66,-0.01,-6.47,-6.00,0.19,0.64,0.85,-3.77,1018.87
3.568,-0.08,0.66,-0.01,-6.47,-6.00,0.19,0.64,0.85,-3.77,1018.94
3.569,-0.01,0.81,0.11,-6.47,-6.00,0.19,0.64,0.85,-3.77,1018.94
3.569,0.10,0.96,0.22,-6.47,-6.00,0.19,0.64,0.85,-3.77,1018.94
3.576,0.10,0.96,0.22,-6.47,-6.00,0.19,0.87,1.17,-4.64,1018.94
3.595,0.29,1.16,0.23,-6.47,-6.00,0.19,0.87,1.17,-4.64,1018.94
3.597,0.39,1.39,0.16,-6.47,-6.00,0.19,0.87,1.17,-4.64,1018.94
3.598,0.39,1.39,0.16,-0.17,-3.93,1.51,0.87,1.17,-4.64,1018.94
3.638,0.19,1.49,0.20,-0.17,-3.93,1.51,0.87,1.17,-4.64,1018.94
3.638,0.06,1.60,0.31,-0.17,-3.93,1.51,0.87,1.17,-4.64,1018.94
3.645,0.06,1.60,0.31,-0.17,-3.93,1.51,0.68,1.73,-4.97,1018.94
3.646,0.06,1.60,0.31,-0.17,-3.93,1.51,0.68,1.73,-4.97,1018.91
3.664,0.20,1.70,0.29,-0.17,-3.93,1.51,0.68,1.73,-4.97,1018.91
3.665,0.20,1.70,0.29,4.73,2.04,2.81,0.68,1.73,-4.97,1018.91
3.717,0.20,1.70,0.29,4.73,2.04,2.81,0.21,0.88,-4.15,1018.91
3.717,0.42,1.68,0.23,4.73,2.04,2.81,0.21,0.88,-4.15,1018.91
3.718,0.58,1.58,0.21,4.73,2.04,2.81,0.21,0.88,-4.15,1018.91
3.727,0.78,1.41,0.21,4.73,2.04,2.81,0.21,0.88,-4.15,1018.91
3.727,0.78,1.41,0.21,4.73,2.04,2.81,0.21,0.88,-4.15,1018.90
3.736,0.78,1.41,0.21,6.28,7.59,3.63,0.21,0.88,-4.15,1018.90
3.737,0.97,1.27,0.21,6.28,7.59,3.63,0.21,0.88,-4.15,1018.90
3.768,1.22,1.24,-0.01,6.28,7.59,3.63,0.21,0.88,-4.15,1018.90
3.768,1.22,1.24,-0.01,6.28,7.59,3.63,0.21,0.88,-4.15,1019.01
3.786,1.22,1.24,-0.01,6.28,7.59,3.63,-0.32,1.00,-1.19,1019.01
3.787,1.44,1.12,0.01,6.28,7.59,3.63,-0.32,1.00,-1.19,1019.01
3.799,-0.04,1.69,-0.03,6.28,7.59,3.63,-0.32,1.00,-1.19,1019.01
3.809,-0.04,1.69,-0.03,11.08,5.76,3.21,-0.32,1.00,-1.19,1019.01
3.838,0.19,0.61,-0.41,11.08,5.76,3.21,-0.32,1.00,-1.19,1019.01
3.839,-0.99,0.94,0.03,11.08,5.76,3.21,-0.32,1.00,-1.19,1019.01
3.848,-0.99,0.94,0.03,11.08,5.76,3.21,-0.32,1.00,-1.19,1019.17
3.855,-0.99,0.94,0.03,11.08,5.76,3.21,-1.05,1.78,3.48,1019.17
3.864,0.51,1.18,-0.51,11.08,5.76,3.21,-1.05,1.78,3.48,1019.17
3.876,1.72,1.31,0.74,11.08,5.76,3.21,-1.05,1.78,3.48,1019.17
3.877,1.72,1.31,0.74,10.34,2.24,0.53,-1.05,1.78,3.48,1019.17
3.925,1.72,1.31,0.74,10.34,2.24,0.53,-0.63,0.23,0.44,1019.17
3.926,0.10,1.39,-0.84,10.34,2.24,0.53,-0.63,0.23,0.44,1019.17
3.927,-0.08,1.02,-0.26,10.34,2.24,0.53,-0.63,0.23,0.44,1019.17
3.927,-0.08,1.02,-0.26,10.34,2.24,0.53,-0.63,0.23,0.44,1019.75
3.946,-0.23,0.93,-0.13,10.34,2.24,0.53,-0.63,0.23,0.44,1019.75
3.947,-0.23,0.93,-0.13,4.45,1.97,0.01,-0.63,0.23,0.44,1019.75
3.967,-0.24,0.91,0.36,4.45,1.97,0.01,-0.63,0.23,0.44,1019.75
3.968,-0.24,0.91,0.36,4.45,1.97,0.01,-0.63,0.23,0.44,1019.27
3.996,-0.24,0.91,0.36,4.45,1.97,0.01,-0.42,0.02,0.17,1019.27
3.997,-0.17,0.90,0.17,4.45,1.97,0.01,-0.42,0.02,0.17,1019.27
3.997,-0.09,0.97,0.00,4.45,1.97,0.01,-0.42,0.02,0.17,1019.27
4.017,-0.08,1.01,-0.06,4.45,1.97,0.01,-0.42,0.02,0.17,1019.27
4.017,-0.08,1.01,-0.06,0.62,1.36,-2.86,-0.42,0.02,0.17,1019.27
4.038,-0.12,1.02,-0.06,0.62,1.36,-2.86,-0.42,0.02,0.17,1019.27
4.047,-0.12,1.02,-0.06,0.62,1.36,-2.86,-0.42,0.02,0.17,1019.16
4.064,-0.17,0.99,-0.03,0.62,1.36,-2.86,-0.42,0.02,0.17,1019.16
4.065,-0.17,0.99,-0.03,0.62,1.36,-2.86,-0.21,0.04,0.06,1019.16
4.086,-0.17,0.97,0.05,0.62,1.36,-2.86,-0.21,0.04,0.06,1019.16
4.087,-0.17,0.97,0.05,0.28,-0.01,1.10,-0.21,0.04,0.06,1019.16
4.127,-0.17,0.97,0.05,0.28,-0.01,1.10,-0.21,0.04,0.06,1018.99
4.127,-0.18,0.98,0.04,0.28,-0.01,1.10,-0.21,0.04,0.06,1018.99
4.128,-0.16,0.98,0.01,0.28,-0.01,1.10,-0.21,0.04,0.06,1018.99
4.136,-0.16,0.98,0.01,0.28,-0.01,1.10,-0.10,0.01,0.15,1018.99
4.157,-0.16,0.98,0.01,-0.13,0.35,-0.00,-0.10,0.01,0.15,1018.99
4.157,-0.15,0.98,-0.01,-0.13,0.35,-0.00,-0.10,0.01,0.15,1018.99
4.158,-0.12,0.98,-0.02,-0.13,0.35,-0.00,-0.10,0.01,0.15,1018.99
4.167,-0.12,0.98,-0.02,-0.13,0.35,-0.00,-0.10,0.01,0.15,1018.90
4.197,-0.13,0.97,0.01,-0.13,0.35,-0.00,-0.10,0.01,0.15,1018.90
4.198,-0.12,0.98,0.01,-0.13,0.35,-0.00,-0.10,0.01,0.15,1018.90
4.205,-0.12,0.98,0.01,-0.13,0.35,-0.00,-0.10,0.01,0.21,1018.90
4.225,-0.09,0.97,0.02,-0.13,0.35,-0.00,-0.10,0.01,0.21,1018.90
4.226,-0.09,0.97,0.02,-0.21,0.26,-0.01,-0.10,0.01,0.21,1018.90
4.238,-0.09,0.96,0.02,-0.21,0.26,-0.01,-0.10,0.01,0.21,1018.90
4.247,-0.09,0.96,0.02,-0.21,0.26,-0.01,-0.10,0.01,0.21,1018.88
4.263,-0.09,0.97,0.02,-0.21,0.26,-0.01,-0.10,0.01,0.21,1018.88
4.276,-0.09,0.97,0.02,-0.21,0.26,-0.01,-0.06,-0.04,0.15,1018.88
4.296,-0.09,0.97,0.02,0.09,0.14,0.09,-0.06,-0.04,0.15,1018.88
4.297,-0.09,0.97,0.04,0.09,0.14,0.09,-0.06,-0.04,0.15,1018.88
4.297,-0.09,0.97,0.03,0.09,0.14,0.09,-0.06,-0.04,0.15,1018.88
4.328,-0.11,0.97,0.04,0.09,0.14,0.09,-0.06,-0.04,0.15,1018.88
4.328,-0.11,0.97,0.04,0.09,0.14,0.09,-0.06,-0.04,0.15,1018.93
4.346,-0.11,0.97,0.04,0.09,0.14,0.09,-0.01,-0.02,0.13,1018.93
4.346,-0.12,0.97,0.03,0.09,0.14,0.09,-0.01,-0.02,0.13,1018.93
4.366,-0.11,0.98,0.01,0.09,0.14,0.09,-0.01,-0.02,0.13,1018.93
4.367,-0.11,0.98,0.01,0.19,0.08,0.25,-0.01,-0.02,0.13,1018.93
4.367,-0.11,0.98,0.01,0.19,0.08,0.25,-0.01,-0.02,0.13,1019.01
4.397,-0.14,0.99,0.01,0.19,0.08,0.25,-0.01,-0.02,0.13,1019.01
4.398,-0.12,1.00,-0.00,0.19,0.08,0.25,-0.01,-0.02,0.13,1019.01
4.42,-0.12,1.00,-0.00,0.19,0.08,0.25,0.02,-0.03,0.25,1019.01
4.436,-0.12,1.00,-0.00,-0.26,0.16,0.21,0.02,-0.03,0.25,1019.01
4.437,-0.13,1.01,0.01,-0.26,0.16,0.21,0.02,-0.03,0.25,1019.01
4.437,-0.12,1.01,0.01,-0.26,0.16,0.21,0.02,-0.03,0.25,1019.01
4.447,-0.12,1.01,0.01,-0.26,0.16,0.21,0.02,-0.03,0.25,1019.00
4.463,-0.12,1.01,0.01,-0.26,0.16,0.21,0.02,-0.03,0.25,1019.00
4.485,-0.12,1.01,0.01,-0.26,0.16,0.21,0.07,-0.10,0.42,1019.00
4.486,-0.10,1.02,-0.00,-0.26,0.16,0.21,0.07,-0.10,0.42,1019.00
4.506,-0.12,1.03,-0.03,-0.26,0.16,0.21,0.07,-0.10,0.42,1019.00
4.506,-0.12,1.03,-0.03,-0.61,0.40,0.08,0.07,-0.10,0.42,1019.00
4.527,-0.16,1.03,0.02,-0.61,0.40,0.08,0.07,-0.10,0.42,1019.00
4.527,-0.16,1.03,0.02,-0.61,0.40,0.08,0.07,-0.10,0.42,1019.01
4.557,-0.16,1.03,0.02,-0.61,0.40,0.08,0.06,-0.16,0.78,1019.01
4.558,-0.17,1.05,0.01,-0.61,0.40,0.08,0.06,-0.16,0.78,1019.01
4.567,-0.24,1.10,-0.03,-0.61,0.40,0.08,0.06,-0.16,0.78,1019.01
4.567,-0.24,1.10,-0.03,-0.61,0.40,0.08,0.06,-0.16,0.78,1019.05
4.577,-0.37,1.21,-0.09,-0.61,0.40,0.08,0.06,-0.16,0.78,1019.05
4.578,-0.37,1.21,-0.09,-1.11,0.46,0.04,0.06,-0.16,0.78,1019.05
4.596,-0.48,1.30,-0.12,-1.11,0.46,0.04,0.06,-0.16,0.78,1019.05
4.625,-0.48,1.30,-0.12,-1.11,0.46,0.04,-0.08,-0.21,2.13,1019.05
4.626,-0.59,1.41,-0.24,-1.11,0.46,0.04,-0.08,-0.21,2.13,1019.05
4.638,-0.72,1.46,-0.26,-1.11,0.46,0.04,-0.08,-0.21,2.13,1019.05
4.646,-0.72,1.46,-0.26,-4.13,1.47,-0.38,-0.08,-0.21,2.13,1019.05
4.647,-0.72,1.46,-0.26,-4.13,1.47,-0.38,-0.08,-0.21,2.13,1019.01
4.664,-0.87,1.42,-0.25,-4.13,1.47,-0.38,-0.08,-0.21,2.13,1019.01
4.696,-0.87,1.42,-0.25,-4.13,1.47,-0.38,-0.45,-0.41,4.73,1019.01
4.696,-0.46,1.36,0.14,-4.13,1.47,-0.38,-0.45,-0.41,4.73,1019.01
4.719,-0.46,1.36,0.14,-10.96,5.43,-2.18,-0.45,-0.41,4.73,1019.01
4.72,-0.02,1.28,0.34,-10.96,5.43,-2.18,-0.45,-0.41,4.73,1019.01
4.72,0.34,1.17,0.47,-10.96,5.43,-2.18,-0.45,-0.41,4.73,1019.01
4.729,0.34,1.17,0.47,-10.96,5.43,-2.18,-0.45,-0.41,4.73,1018.55
4.766,0.34,1.17,0.47,-10.96,5.43,-2.18,0.70,0.28,4.74,1018.55
4.767,0.16,0.94,0.49,-10.96,5.43,-2.18,0.70,0.28,4.74,1018.55
4.768,0.11,0.47,0.29,-10.96,5.43,-2.18,0.70,0.28,4.74,1018.55
4.768,0.11,0.47,0.29,-10.96,5.43,-2.18,0.70,0.28,4.74,1018.25
4.786,1.37,0.54,0.04,-10.96,5.43,-2.18,0.70,0.28,4.74,1018.25
4.787,1.37,0.54,0.04,-8.02,5.60,2.39,0.70,0.28,4.74,1018.25
4.797,0.59,0.61,0.15,-8.02,5.60,2.39,0.70,0.28,4.74,1018.25
4.836,0.59,0.61,0.15,-8.02,5.60,2.39,1.25,0.86,-1.01,1018.25
4.836,-0.58,0.31,0.17,-8.02,5.60,2.39,1.25,0.86,-1.01,1018.25
4.837,-0.56,0.30,0.10,-8.02,5.60,2.39,1.25,0.86,-1.01,1018.25
4.847,-0.56,0.30,0.10,-8.02,5.60,2.39,1.25,0.86,-1.01,1018.68
4.857,-0.01,0.43,0.08,-8.02,5.60,2.39,1.25,0.86,-1.01,1018.68
4.858,-0.01,0.43,0.08,0.77,-0.97,2.78,1.25,0.86,-1.01,1018.68
4.906,0.24,0.55,0.09,0.77,-0.97,2.78,1.25,0.86,-1.01,1018.68
4.906,0.05,0.59,0.15,0.77,-0.97,2.78,1.25,0.86,-1.01,1018.68
4.907,0.05,0.59,0.15,0.77,-0.97,2.78,1.40,1.44,-2.99,1018.68
4.925,-0.12,0.66,0.21,0.77,-0.97,2.78,1.40,1.44,-2.99,1018.68
4.928,-0.12,0.66,0.21,-6.72,-5.32,1.77,1.40,1.44,-2.99,1018.68
4.929,-0.12,0.66,0.21,-6.72,-5.32,1.77,1.40,1.44,-2.99,1018.87
4.967,-0.12,0.66,0.21,-6.72,-5.32,1.77,1.40,1.44,-2.99,1018.93
4.968,-0.14,0.77,0.27,-6.72,-5.32,1.77,1.40,1.44,-2.99,1018.93
4.969,-0.14,0.93,0.30,-6.72,-5.32,1.77,1.40,1.44,-2.99,1018.93
4.975,-0.14,0.93,0.30,-6.72,-5.32,1.77,1.44,1.85,-4.52,1018.93
4.997,-0.14,0.93,0.30,-0.28,-3.17,2.76,1.44,1.85,-4.52,1018.93
4.997,-0.12,1.09,0.33,-0.28,-3.17,2.76,1.44,1.85,-4.52,1018.93
4.998,-0.15,1.27,0.30,-0.28,-3.17,2.76,1.44,1.85,-4.52,1018.93
5.046,-0.17,1.42,0.33,-0.28,-3.17,2.76,1.44,1.85,-4.52,1018.93
5.047,-0.17,1.50,0.41,-0.28,-3.17,2.76,1.44,1.85,-4.52,1018.93
5.048,-0.17,1.50,0.41,-0.28,-3.17,2.76,0.86,1.70,-4.57,1018.93
5.048,-0.17,1.50,0.41,-0.28,-3.17,2.76,0.86,1.70,-4.57,1018.95
5.064,-0.04,1.60,0.38,-0.28,-3.17,2.76,0.86,1.70,-4.57,1018.95
5.066,-0.04,1.60,0.38,0.80,1.40,4.54,0.86,1.70,-4.57,1018.95
5.094,0.15,1.63,0.23,0.80,1.40,4.54,0.86,1.70,-4.57,1018.95
5.116,0.13,1.64,0.19,0.80,1.40,4.54,0.86,1.70,-4.57,1018.95
5.116,0.13,1.64,0.19,0.80,1.40,4.54,-0.06,2.57,-3.65,1018.95
5.127,0.41,1.60,0.46,0.80,1.40,4.54,-0.06,2.57,-3.65,1018.95
5.127,0.41,1.60,0.46,0.80,1.40,4.54,-0.06,2.57,-3.65,1018.92
5.137,0.41,1.60,0.46,2.59,6.44,5.45,-0.06,2.57,-3.65,1018.92
5.138,0.80,1.48,0.45,2.59,6.44,5.45,-0.06,2.57,-3.65,1018.92
5.167,1.04,1.40,0.36,2.59,6.44,5.45,-0.06,2.57,-3.65,1018.92
5.167,1.04,1.40,0.36,2.59,6.44,5.45,-0.06,2.57,-3.65,1018.75
5.186,1.04,1.40,0.36,2.59,6.44,5.45,-0.73,2.74,-1.07,1018.75
5.187,1.39,1.25,0.26,2.59,6.44,5.45,-0.73,2.74,-1.07,1018.75
5.197,1.31,1.02,0.32,2.59,6.44,5.45,-0.73,2.74,-1.07,1018.75
5.206,1.31,1.02,0.32,7.35,6.87,5.16,-0.73,2.74,-1.07,1018.75
5.247,1.31,1.02,0.32,7.35,6.87,5.16,-0.73,2.74,-1.07,1018.87
5.247,0.76,0.87,0.29,7.35,6.87,5.16,-0.73,2.74,-1.07,1018.87
5.248,-0.37,1.56,-0.11,7.35,6.87,5.16,-0.73,2.74,-1.07,1018.87
5.256,-0.37,1.56,-0.11,7.35,6.87,5.16,-1.17,2.52,1.74,1018.87
5.263,-0.23,1.01,-0.21,7.35,6.87,5.16,-1.17,2.52,1.74,1018.87
5.28,2.51,1.47,-1.39,7.35,6.87,5.16,-1.17,2.52,1.74,1018.87
5.281,2.51,1.47,-1.39,13.43,2.39,4.44,-1.17,2.52,1.74,1018.87
5.325,-0.83,1.08,0.52,13.43,2.39,4.44,-1.17,2.52,1.74,1018.87
5.326,-0.56,0.95,0.07,13.43,2.39,4.44,-1.17,2.52,1.74,1018.87
5.326,-0.56,0.95,0.07,13.43,2.39,4.44,-1.06,0.29,0.23,1018.87
5.327,-0.56,0.95,0.07,13.43,2.39,4.44,-1.06,0.29,0.23,1019.86
5.346,-0.10,1.02,-0.21,13.43,2.39,4.44,-1.06,0.29,0.23,1019.86
5.346,-0.10,1.02,-0.21,7.70,3.20,-3.46,-1.06,0.29,0.23,1019.86
5.367,-0.10,1.02,-0.21,7.70,3.20,-3.46,-1.06,0.29,0.23,1019.53
5.367,-0.09,0.94,0.11,7.70,3.20,-3.46,-1.06,0.29,0.23,1019.53
5.398,-0.07,0.94,0.06,7.70,3.20,-3.46,-1.06,0.29,0.23,1019.53
5.399,-0.07,0.94,0.06,7.70,3.20,-3.46,-0.42,0.14,0.34,1019.53
5.399,-0.02,0.96,-0.01,7.70,3.20,-3.46,-0.42,0.14,0.34,1019.53
5.416,-0.05,0.98,-0.04,7.70,3.20,-3.46,-0.42,0.14,0.34,1019.53
5.417,-0.05,0.98,-0.04,-3.16,0.51,1.80,-0.42,0.14,0.34,1019.53
5.437,-0.11,0.99,-0.05,-3.16,0.51,1.80,-0.42,0.14,0.34,1019.53
5.447,-0.11,0.99,-0.05,-3.16,0.51,1.80,-0.42,0.14,0.34,1019.28
5.463,-0.14,1.01,-0.06,-3.16,0.51,1.80,-0.42,0.14,0.34,1019.28
5.466,-0.14,1.01,-0.06,-3.16,0.51,1.80,-0.24,0.13,0.10,1019.28
5.486,-0.15,0.99,0.02,-3.16,0.51,1.80,-0.24,0.13,0.10,1019.28
5.488,-0.15,0.99,0.02,0.96,0.04,0.89,-0.24,0.13,0.10,1019.28
5.527,-0.15,0.99,0.02,0.96,0.04,0.89,-0.24,0.13,0.10,1019.09
5.527,-0.15,0.98,0.02,0.96,0.04,0.89,-0.24,0.13,0.10,1019.09
5.528,-0.14,0.99,-0.03,0.96,0.04,0.89,-0.24,0.13,0.10,1019.09
5.536,-0.14,0.99,-0.03,0.96,0.04,0.89,-0.05,0.09,0.18,1019.09
5.557,-0.14,0.99,-0.03,-0.23,0.35,0.35,-0.05,0.09,0.18,1019.09
5.558,-0.16,0.99,-0.04,-0.23,0.35,0.35,-0.05,0.09,0.18,1019.09
5.558,-0.13,1.00,-0.07,-0.23,0.35,0.35,-0.05,0.09,0.18,1019.09
5.568,-0.13,1.00,-0.07,-0.23,0.35,0.35,-0.05,0.09,0.18,1018.98
5.594,-0.12,1.00,-0.05,-0.23,0.35,0.35,-0.05,0.09,0.18,1018.98
5.596,-0.09,0.99,-0.05,-0.23,0.35,0.35,-0.05,0.09,0.18,1018.98
5.606,-0.09,0.99,-0.05,-0.23,0.35,0.35,-0.02,0.08,0.33,1018.98
5.63,-0.07,0.98,-0.01,-0.23,0.35,0.35,-0.02,0.08,0.33,1018.98
5.631,-0.07,0.98,-0.01,-0.50,0.30,0.16,-0.02,0.08,0.33,1018.98
5.637,-0.02,0.97,-0.04,-0.50,0.30,0.16,-0.02,0.08,0.33,1018.98
5.647,-0.02,0.97,-0.04,-0.50,0.30,0.16,-0.02,0.08,0.33,1018.89
5.664,-0.02,0.95,-0.01,-0.50,0.30,0.16,-0.02,0.08,0.33,1018.89
5.678,-0.02,0.95,-0.01,-0.50,0.30,0.16,0.03,-0.01,0.25,1018.89
5.697,-0.02,0.95,-0.01,-0.13,0.25,0.27,0.03,-0.01,0.25,1018.89
5.698,-0.07,0.95,0.02,-0.13,0.25,0.27,0.03,-0.01,0.25,1018.89
5.698,-0.05,0.97,-0.00,-0.13,0.25,0.27,0.03,-0.01,0.25,1018.89
5.732,-0.06,0.96,-0.01,-0.13,0.25,0.27,0.03,-0.01,0.25,1018.89
5.734,-0.06,0.96,-0.01,-0.13,0.25,0.27,0.03,-0.01,0.25,1018.98
5.746,-0.08,0.98,-0.02,-0.13,0.25,0.27,0.03,-0.01,0.25,1018.98
5.746,-0.08,0.98,-0.02,-0.13,0.25,0.27,0.15,-0.04,0.23,1018.98
5.766,-0.08,0.99,-0.04,-0.13,0.25,0.27,0.15,-0.04,0.23,1018.98
5.766,-0.08,0.99,-0.04,0.19,-0.01,0.62,0.15,-0.04,0.23,1018.98
5.767,-0.08,0.99,-0.04,0.19,-0.01,0.62,0.15,-0.04,0.23,1019.11
5.797,-0.12,0.99,-0.02,0.19,-0.01,0.62,0.15,-0.04,0.23,1019.11
5.798,-0.11,1.01,-0.06,0.19,-0.01,0.62,0.15,-0.04,0.23,1019.11
5.818,-0.11,1.01,-0.06,0.19,-0.01,0.62,0.25,0.04,0.43,1019.11
5.837,-0.10,1.04,-0.10,0.19,-0.01,0.62,0.25,0.04,0.43,1019.11
5.837,-0.19,1.08,-0.15,0.19,-0.01,0.62,0.25,0.04,0.43,1019.11
5.838,-0.19,1.08,-0.15,-0.53,0.20,0.65,0.25,0.04,0.43,1019.11
5.847,-0.19,1.08,-0.15,-0.53,0.20,0.65,0.25,0.04,0.43,1019.07
5.864,-0.16,1.08,-0.11,-0.53,0.20,0.65,0.25,0.04,0.43,1019.07
5.887,-0.16,1.08,-0.11,-0.53,0.20,0.65,0.24,0.11,1.01,1019.07
5.888,-0.21,1.10,-0.10,-0.53,0.20,0.65,0.24,0.11,1.01,1019.07
5.907,-0.24,1.16,-0.13,-0.53,0.20,0.65,0.24,0.11,1.01,1019.07
5.907,-0.24,1.16,-0.13,-1.88,0.77,0.14,0.24,0.11,1.01,1019.07
5.927,-0.27,1.22,-0.16,-1.88,0.77,0.14,0.24,0.11,1.01,1019.07
5.927,-0.27,1.22,-0.16,-1.88,0.77,0.14,0.24,0.11,1.01,1019.04
5.956,-0.27,1.22,-0.16,-1.88,0.77,0.14,0.28,0.14,2.21,1019.04
5.957,-0.36,1.30,-0.21,-1.88,0.77,0.14,0.28,0.14,2.21,1019.04
5.967,-0.48,1.31,-0.16,-1.88,0.77,0.14,0.28,0.14,2.21,1019.04
5.968,-0.48,1.31,-0.16,-1.88,0.77,0.14,0.28,0.14,2.21,1018.95
5.977,-0.56,1.31,-0.09,-1.88,0.77,0.14,0.28,0.14,2.21,1018.95
5.977,-0.56,1.31,-0.09,-4.35,1.90,0.03,0.28,0.14,2.21,1018.95
5.997,-0.48,1.23,0.08,-4.35,1.90,0.03,0.28,0.14,2.21,1018.95
6.026,-0.14,1.28,0.16,-4.35,1.90,0.03,0.28,0.14,2.21,1018.95
6.027,-0.14,1.28,0.16,-4.35,1.90,0.03,0.31,-0.09,4.27,1018.95
6.037,0.20,1.29,0.44,-4.35,1.90,0.03,0.31,-0.09,4.27,1018.95
6.046,0.20,1.29,0.44,-9.28,4.79,-0.04,0.31,-0.09,4.27,1018.95
6.047,0.20,1.29,0.44,-9.28,4.79,-0.04,0.31,-0.09,4.27,1018.29
6.064,0.23,1.23,0.41,-9.28,4.79,-0.04,0.31,-0.09,4.27,1018.29
6.094,0.09,1.07,0.37,-9.28,4.79,-0.04,0.31,-0.09,4.27,1018.29
6.096,0.09,1.07,0.37,-9.28,4.79,-0.04,1.25,0.22,4.75,1018.29
6.117,0.09,1.07,0.37,-7.61,6.12,4.18,1.25,0.22,4.75,1018.29
6.118,0.20,0.57,0.31,-7.61,6.12,4.18,1.25,0.22,4.75,1018.29
6.118,2.19,1.24,-0.21,-7.61,6.12,4.18,1.25,0.22,4.75,1018.29
6.127,2.19,1.24,-0.21,-7.61,6.12,4.18,1.25,0.22,4.75,1018.17
6.166,2.19,1.24,-0.21,-7.61,6.12,4.18,0.41,2.86,-0.81,1018.17
6.167,0.19,0.71,0.05,-7.61,6.12,4.18,0.41,2.86,-0.81,1018.17
6.168,-0.49,0.58,0.03,-7.61,6.12,4.18,0.41,2.86,-0.81,1018.17
6.168,-0.49,0.58,0.03,-7.61,6.12,4.18,0.41,2.86,-0.81,1018.58
6.186,-0.53,0.50,-0.04,-7.61,6.12,4.18,0.41,2.86,-0.81,1018.58
6.187,-0.53,0.50,-0.04,1.03,2.51,2.22,0.41,2.86,-0.81,1018.58
6.197,-0.24,0.48,0.27,1.03,2.51,2.22,0.41,2.86,-0.81,1018.58
6.237,-0.24,0.48,0.27,1.03,2.51,2.22,0.28,1.95,-2.71,1018.58
6.238,0.04,0.44,0.36,1.03,2.51,2.22,0.28,1.95,-2.71,1018.58
6.247,-0.03,0.46,0.29,1.03,2.51,2.22,0.28,1.95,-2.71,1018.58
6.247,-0.03,0.46,0.29,1.03,2.51,2.22,0.28,1.95,-2.71,1018.83
6.257,-0.12,0.57,0.20,1.03,2.51,2.22,0.28,1.95,-2.71,1018.83
6.257,-0.12,0.57,0.20,-7.11,-2.64,0.43,0.28,1.95,-2.71,1018.83
6.307,-0.12,0.57,0.20,-7.11,-2.64,0.43,0.94,0.73,-4.13,1018.83
6.308,-0.06,0.70,0.18,-7.11,-2.64,0.43,0.94,0.73,-4.13,1018.83
6.308,0.06,0.84,0.22,-7.11,-2.64,0.43,0.94,0.73,-4.13,1018.83
6.327,0.14,0.99,0.26,-7.11,-2.64,0.43,0.94,0.73,-4.13,1018.83
6.327,0.14,0.99,0.26,-2.12,-4.37,3.28,0.94,0.73,-4.13,1018.83
6.328,0.14,0.99,0.26,-2.12,-4.37,3.28,0.94,0.73,-4.13,1018.92
6.367,0.14,0.99,0.26,-2.12,-4.37,3.28,0.94,0.73,-4.13,1018.96
6.368,0.13,1.14,0.24,-2.12,-4.37,3.28,0.94,0.73,-4.13,1018.96
6.369,0.05,1.32,0.18,-2.12,-4.37,3.28,0.94,0.73,-4.13,1018.96
6.378,0.05,1.32,0.18,-2.12,-4.37,3.28,0.65,0.95,-4.68,1018.96
6.397,0.05,1.32,0.18,1.92,-0.54,2.84,0.65,0.95,-4.68,1018.96
6.398,0.01,1.44,0.18,1.92,-0.54,2.84,0.65,0.95,-4.68,1018.96
6.399,0.03,1.50,0.19,1.92,-0.54,2.84,0.65,0.95,-4.68,1018.96
6.447,0.00,1.57,0.10,1.92,-0.54,2.84,0.65,0.95,-4.68,1018.96
6.447,-0.10,1.64,0.01,1.92,-0.54,2.84,0.65,0.95,-4.68,1018.96
6.448,-0.10,1.64,0.01,1.92,-0.54,2.84,-0.19,1.56,-4.22,1018.96
6.448,-0.10,1.64,0.01,1.92,-0.54,2.84,-0.19,1.56,-4.22,1018.84
6.463,-0.02,1.67,0.02,1.92,-0.54,2.84,-0.19,1.56,-4.22,1018.84
6.469,-0.02,1.67,0.02,3.99,4.98,2.53,-0.19,1.56,-4.22,1018.84
6.518,-0.02,1.67,0.02,3.99,4.98,2.53,0.02,0.93,-2.72,1018.84
6.519,0.41,1.56,0.14,3.99,4.98,2.53,0.02,0.93,-2.72,1018.84
6.52,1.00,1.40,0.18,3.99,4.98,2.53,0.02,0.93,-2.72,1018.84
6.527,1.65,1.29,0.14,3.99,4.98,2.53,0.02,0.93,-2.72,1018.84
6.528,1.65,1.29,0.14,3.99,4.98,2.53,0.02,0.93,-2.72,1018.89
6.537,1.73,1.11,0.08,3.99,4.98,2.53,0.02,0.93,-2.72,1018.89
6.538,1.73,1.11,0.08,4.84,7.86,1.42,0.02,0.93,-2.72,1018.89
6.567,0.21,1.07,0.03,4.84,7.86,1.42,0.02,0.93,-2.72,1018.89
6.568,0.21,1.07,0.03,4.84,7.86,1.42,0.02,0.93,-2.72,1019.00
6.586,0.21,1.07,0.03,4.84,7.86,1.42,-0.14,0.01,1.70,1019.00
6.587,0.57,0.54,-0.19,4.84,7.86,1.42,-0.14,0.01,1.70,1019.00
6.597,-0.60,1.19,-0.17,4.84,7.86,1.42,-0.14,0.01,1.70,1019.00
6.607,-0.60,1.19,-0.17,15.40,3.70,2.09,-0.14,0.01,1.70,1019.00
6.641,0.28,1.73,0.08,15.40,3.70,2.09,-0.14,0.01,1.70,1019.00
6.649,1.57,1.15,-0.05,15.40,3.70,2.09,-0.14,0.01,1.70,1019.00
6.65,1.57,1.15,-0.05,15.40,3.70,2.09,-0.14,0.01,1.70,1019.56
6.658,1.57,1.15,-0.05,15.40,3.70,2.09,-0.48,1.02,2.45,1019.56
6.663,1.54,1.86,0.33,15.40,3.70,2.09,-0.48,1.02,2.45,1019.56
6.677,-1.06,0.81,-1.06,15.40,3.70,2.09,-0.48,1.02,2.45,1019.56
6.678,-1.06,0.81,-1.06,1.09,1.66,-0.11,-0.48,1.02,2.45,1019.56
6.726,0.03,0.97,0.36,1.09,1.66,-0.11,-0.48,1.02,2.45,1019.56
6.727,-0.14,0.97,-0.05,1.09,1.66,-0.11,-0.48,1.02,2.45,1019.56
6.727,-0.14,0.97,-0.05,1.09,1.66,-0.11,-0.59,0.10,0.21,1019.56
6.728,-0.14,0.97,-0.05,1.09,1.66,-0.11,-0.59,0.10,0.21,1019.65
6.747,-0.28,0.93,0.24,1.09,1.66,-0.11,-0.59,0.10,0.21,1019.65
6.748,-0.28,0.93,0.24,8.77,3.09,-1.96,-0.59,0.10,0.21,1019.65
6.767,-0.12,0.97,-0.00,8.77,3.09,-1.96,-0.59,0.10,0.21,1019.65
6.768,-0.12,0.97,-0.00,8.77,3.09,-1.96,-0.59,0.10,0.21,1019.18
6.797,-0.06,0.98,0.03,8.77,3.09,-1.96,-0.59,0.10,0.21,1019.18
6.798,-0.06,0.98,0.03,8.77,3.09,-1.96,-0.11,0.09,0.25,1019.18
6.798,-0.08,1.02,-0.09,8.77,3.09,-1.96,-0.11,0.09,0.25,1019.18
6.818,-0.08,1.02,-0.09,-0.09,0.03,1.67,-0.11,0.09,0.25,1019.18
6.819,-0.11,1.01,-0.04,-0.09,0.03,1.67,-0.11,0.09,0.25,1019.18
6.846,-0.12,0.98,0.01,-0.09,0.03,1.67,-0.11,0.09,0.25,1019.18
6.847,-0.12,0.98,0.01,-0.09,0.03,1.67,-0.11,0.09,0.25,1019.07
6.863,-0.13,0.97,0.06,-0.09,0.03,1.67,-0.11,0.09,0.25,1019.07
6.866,-0.13,0.97,0.06,-0.09,0.03,1.67,-0.13,-0.00,0.13,1019.07
6.887,-0.12,0.98,0.05,-0.09,0.03,1.67,-0.13,-0.00,0.13,1019.07
6.888,-0.12,0.98,0.05,0.18,0.36,-0.03,-0.13,-0.00,0.13,1019.07
6.927,-0.12,0.98,0.05,0.18,0.36,-0.03,-0.13,-0.00,0.13,1018.96
6.928,-0.10,0.98,0.00,0.18,0.36,-0.03,-0.13,-0.00,0.13,1018.96
6.928,-0.11,0.98,-0.01,0.18,0.36,-0.03,-0.13,-0.00,0.13,1018.96
6.937,-0.11,0.98,-0.01,0.18,0.36,-0.03,-0.02,-0.01,0.14,1018.96
6.958,-0.11,0.98,-0.01,-0.19,0.17,0.48,-0.02,-0.01,0.14,1018.96
6.959,-0.13,0.98,-0.00,-0.19,0.17,0.48,-0.02,-0.01,0.14,1018.96
6.959,-0.13,0.97,0.03,-0.19,0.17,0.48,-0.02,-0.01,0.14,1018.96
6.968,-0.13,0.97,0.03,-0.19,0.17,0.48,-0.02,-0.01,0.14,1018.96
6.986,-0.14,0.96,0.05,-0.19,0.17,0.48,-0.02,-0.01,0.14,1018.96
6.998,-0.12,0.97,0.04,-0.19,0.17,0.48,-0.02,-0.01,0.14,1018.96
7.007,-0.12,0.97,0.04,-0.19,0.17,0.48,0.03,-0.05,0.23,1018.96
7.026,-0.09,0.98,0.02,-0.19,0.17,0.48,0.03,-0.05,0.23,1018.96
7.027,-0.09,0.98,0.02,-0.37,0.18,0.20,0.03,-0.05,0.23,1018.96
7.048,-0.09,0.98,0.02,-0.37,0.18,0.20,0.03,-0.05,0.23,1018.97
7.048,-0.08,0.98,0.02,-0.37,0.18,0.20,0.03,-0.05,0.23,1018.97
7.065,-0.08,0.97,0.03,-0.37,0.18,0.20,0.03,-0.05,0.23,1018.97
7.078,-0.08,0.97,0.03,-0.37,0.18,0.20,0.11,-0.06,0.27,1018.97
7.094,-0.06,0.99,0.00,-0.37,0.18,0.20,0.11,-0.06,0.27,1018.97
7.098,-0.08,0.99,0.01,-0.37,0.18,0.20,0.11,-0.06,0.27,1018.97
7.099,-0.08,0.99,0.01,-0.45,0.07,0.55,0.11,-0.06,0.27,1018.97
7.127,-0.09,0.99,0.02,-0.45,0.07,0.55,0.11,-0.06,0.27,1018.97
7.128,-0.09,0.99,0.02,-0.45,0.07,0.55,0.11,-0.06,0.27,1019.01
7.147,-0.09,1.00,-0.02,-0.45,0.07,0.55,0.11,-0.06,0.27,1019.01
7.148,-0.09,1.00,-0.02,-0.45,0.07,0.55,0.17,-0.08,0.31,1019.01
7.168,-0.09,1.03,-0.06,-0.45,0.07,0.55,0.17,-0.08,0.31,1019.01
7.169,-0.09,1.03,-0.06,-0.29,0.17,0.46,0.17,-0.08,0.31,1019.01
7.169,-0.09,1.03,-0.06,-0.29,0.17,0.46,0.17,-0.08,0.31,1019.08
7.198,-0.12,1.03,-0.06,-0.29,0.17,0.46,0.17,-0.08,0.31,1019.08
7.198,-0.15,1.08,-0.09,-0.29,0.17,0.46,0.17,-0.08,0.31,1019.08
7.228,-0.15,1.08,-0.09,-0.29,0.17,0.46,0.07,-0.09,0.58,1019.08
7.237,-0.15,1.08,-0.09,-1.01,0.43,0.08,0.07,-0.09,0.58,1019.08
7.238,-0.21,1.09,-0.13,-1.01,0.43,0.08,0.07,-0.09,0.58,1019.08
7.238,-0.23,1.11,-0.04,-1.01,0.43,0.08,0.07,-0.09,0.58,1019.08
7.246,-0.23,1.11,-0.04,-1.01,0.43,0.08,0.07,-0.09,0.58,1019.08
7.263,-0.27,1.17,-0.09,-1.01,0.43,0.08,0.07,-0.09,0.58,1019.08
7.287,-0.27,1.17,-0.09,-1.01,0.43,0.08,-0.11,-0.03,1.50,1019.08
7.288,-0.32,1.24,-0.15,-1.01,0.43,0.08,-0.11,-0.03,1.50,1019.08
7.307,-0.43,1.34,-0.19,-1.01,0.43,0.08,-0.11,-0.03,1.50,1019.08
7.308,-0.43,1.34,-0.19,-3.07,1.24,-0.57,-0.11,-0.03,1.50,1019.08
7.327,-0.59,1.37,-0.11,-3.07,1.24,-0.57,-0.11,-0.03,1.50,1019.08
7.328,-0.59,1.37,-0.11,-3.07,1.24,-0.57,-0.11,-0.03,1.50,1019.02
7.357,-0.59,1.37,-0.11,-3.07,1.24,-0.57,-0.36,-0.37,3.56,1019.02
7.358,-0.82,1.37,-0.06,-3.07,1.24,-0.57,-0.36,-0.37,3.56,1019.02
7.367,-0.82,1.37,-0.06,-3.07,1.24,-0.57,-0.36,-0.37,3.56,1018.75
7.368,-0.80,1.42,0.01,-3.07,1.24,-0.57,-0.36,-0.37,3.56,1018.75
7.377,-0.49,1.33,0.19,-3.07,1.24,-0.57,-0.36,-0.37,3.56,1018.75
7.378,-0.49,1.33,0.19,-7.56,3.82,-1.34,-0.36,-0.37,3.56,1018.75
7.397,0.15,1.38,0.28,-7.56,3.82,-1.34,-0.36,-0.37,3.56,1018.75
7.427,0.15,1.38,0.28,-7.56,3.82,-1.34,-0.06,-0.85,5.60,1018.75
7.428,0.25,1.31,0.43,-7.56,3.82,-1.34,-0.06,-0.85,5.60,1018.75
7.447,-0.02,1.16,0.39,-7.56,3.82,-1.34,-0.06,-0.85,5.60,1018.75
7.448,-0.02,1.16,0.39,-13.50,6.84,0.84,-0.06,-0.85,5.60,1018.75
7.448,-0.02,1.16,0.39,-13.50,6.84,0.84,-0.06,-0.85,5.60,1018.23
7.464,-0.05,0.40,0.21,-13.50,6.84,0.84,-0.06,-0.85,5.60,1018.23
7.499,-0.05,0.40,0.21,-13.50,6.84,0.84,0.35,0.15,1.90,1018.23
7.5,2.09,1.07,-0.08,-13.50,6.84,0.84,0.35,0.15,1.90,1018.23
7.52,0.00,0.45,0.31,-13.50,6.84,0.84,0.35,0.15,1.90,1018.23
7.523,-0.63,0.33,0.04,-13.50,6.84,0.84,0.35,0.15,1.90,1018.23
7.524,-0.63,0.33,0.04,-5.94,4.91,3.71,0.35,0.15,1.90,1018.23
7.527,-0.63,0.33,0.04,-5.94,4.91,3.71,0.35,0.15,1.90,1018.42
7.567,-0.63,0.33,0.04,-5.94,4.91,3.71,0.12,0.96,-2.48,1018.42
7.569,-0.50,0.32,-0.12,-5.94,4.91,3.71,0.12,0.96,-2.48,1018.42
7.569,-0.11,0.30,0.06,-5.94,4.91,3.71,0.12,0.96,-2.48,1018.42
7.57,-0.11,0.30,0.06,-5.94,4.91,3.71,0.12,0.96,-2.48,1018.73
7.587,-0.03,0.34,0.12,-5.94,4.91,3.71,0.12,0.96,-2.48,1018.73
7.587,-0.03,0.34,0.12,-0.47,-2.53,1.05,0.12,0.96,-2.48,1018.73
7.597,-0.10,0.46,0.11,-0.47,-2.53,1.05,0.12,0.96,-2.48,1018.73
7.637,-0.10,0.46,0.11,-0.47,-2.53,1.05,0.50,0.81,-4.54,1018.73
7.638,-0.10,0.63,0.05,-0.47,-2.53,1.05,0.50,0.81,-4.54,1018.73
7.647,-0.06,0.85,0.03,-0.47,-2.53,1.05,0.50,0.81,-4.54,1018.73
7.648,-0.06,0.85,0.03,-0.47,-2.53,1.05,0.50,0.81,-4.54,1018.83
7.658,0.07,1.03,0.02,-0.47,-2.53,1.05,0.50,0.81,-4.54,1018.83
7.658,0.07,1.03,0.02,-3.84,-5.78,0.46,0.50,0.81,-4.54,1018.83
7.707,0.07,1.03,0.02,-3.84,-5.78,0.46,0.63,1.03,-5.21,1018.83
7.708,0.07,1.15,0.01,-3.84,-5.78,0.46,0.63,1.03,-5.21,1018.83
7.708,-0.05,1.33,-0.09,-3.84,-5.78,0.46,0.63,1.03,-5.21,1018.83
7.729,-0.05,1.48,-0.10,-3.84,-5.78,0.46,0.63,1.03,-5.21,1018.83
7.73,-0.05,1.48,-0.10,-3.84,-5.78,0.46,0.63,1.03,-5.21,1018.94
7.73,-0.05,1.48,-0.10,0.95,-1.34,0.88,0.63,1.03,-5.21,1018.94
7.768,-0.05,1.48,-0.10,0.95,-1.34,0.88,0.63,1.03,-5.21,1018.93
7.769,-0.04,1.54,0.00,0.95,-1.34,0.88,0.63,1.03,-5.21,1018.93
7.769,-0.03,1.64,0.02,0.95,-1.34,0.88,0.63,1.03,-5.21,1018.93
7.777,-0.03,1.64,0.02,0.95,-1.34,0.88,0.54,1.94,-4.82,1018.93
7.798,0.02,1.75,0.02,0.95,-1.34,0.88,0.54,1.94,-4.82,1018.93
7.799,-0.02,2.00,0.20,0.95,-1.34,0.88,0.54,1.94,-4.82,1018.93
7.799,-0.02,2.00,0.20,3.72,4.89,0.67,0.54,1.94,-4.82,1018.93
7.848,-0.02,2.00,0.20,3.72,4.89,0.67,0.41,1.24,-2.25,1018.93
7.848,-0.02,2.00,0.20,3.72,4.89,0.67,0.41,1.24,-2.25,1018.96
7.849,1.03,1.32,0.46,3.72,4.89,0.67,0.41,1.24,-2.25,1018.96
7.849,1.11,1.65,0.25,3.72,4.89,0.67,0.41,1.24,-2.25,1018.96
7.864,2.03,1.46,0.13,3.72,4.89,0.67,0.41,1.24,-2.25,1018.96
7.867,2.03,1.46,0.13,4.29,9.16,2.22,0.41,1.24,-2.25,1018.96
7.919,2.03,1.46,0.13,4.29,9.16,2.22,-1.00,1.07,2.11,1018.96
7.92,0.89,1.50,0.37,4.29,9.16,2.22,-1.00,1.07,2.11,1018.96
7.92,0.49,0.88,0.05,4.29,9.16,2.22,-1.00,1.07,2.11,1018.96
7.927,-0.43,0.86,0.26,4.29,9.16,2.22,-1.00,1.07,2.11,1018.96
7.928,-0.43,0.86,0.26,4.29,9.16,2.22,-1.00,1.07,2.11,1018.99
7.939,-0.28,1.44,0.48,4.29,9.16,2.22,-1.00,1.07,2.11,1018.99
7.94,-0.28,1.44,0.48,16.05,4.89,4.04,-1.00,1.07,2.11,1018.99
7.967,1.43,1.33,-0.34,16.05,4.89,4.04,-1.00,1.07,2.11,1018.99
7.967,1.43,1.33,-0.34,16.05,4.89,4.04,-1.00,1.07,2.11,1019.95
7.987,0.38,1.50,0.21,16.05,4.89,4.04,-1.00,1.07,2.11,1019.95
7.987,0.38,1.50,0.21,16.05,4.89,4.04,-0.91,1.12,1.63,1019.95
8.007,-0.45,0.96,-0.52,16.05,4.89,4.04,-0.91,1.12,1.63,1019.95
8.007,-0.45,0.96,-0.52,1.21,2.32,3.29,-0.91,1.12,1.63,1019.95
8.047,-0.45,0.96,-0.52,1.21,2.32,3.29,-0.91,1.12,1.63,1019.62
8.047,-0.10,1.01,-0.14,1.21,2.32,3.29,-0.91,1.12,1.63,1019.62
8.047,-0.13,0.99,0.15,1.21,2.32,3.29,-0.91,1.12,1.63,1019.62
8.057,-0.13,0.99,0.15,1.21,2.32,3.29,-0.61,0.04,0.37,1019.62
8.063,-0.13,0.93,0.11,1.21,2.32,3.29,-0.61,0.04,0.37,1019.62
8.078,-0.08,0.94,0.13,1.21,2.32,3.29,-0.61,0.04,0.37,1019.62
8.078,-0.08,0.94,0.13,5.67,2.85,-1.42,-0.61,0.04,0.37,1019.62
8.127,-0.08,0.94,0.13,5.67,2.85,-1.42,-0.17,0.08,0.23,1019.62
8.128,-0.10,0.98,-0.01,5.67,2.85,-1.42,-0.17,0.08,0.23,1019.62
8.128,-0.12,1.00,0.01,5.67,2.85,-1.42,-0.17,0.08,0.23,1019.62
8.128,-0.12,1.00,0.01,5.67,2.85,-1.42,-0.17,0.08,0.23,1019.18
8.147,-0.15,0.98,0.03,5.67,2.85,-1.42,-0.17,0.08,0.23,1019.18
8.148,-0.15,0.98,0.03,-0.65,-0.12,0.92,-0.17,0.08,0.23,1019.18
8.168,-0.13,0.99,0.01,-0.65,-0.12,0.92,-0.17,0.08,0.23,1019.18
8.169,-0.13,0.99,0.01,-0.65,-0.12,0.92,-0.17,0.08,0.23,1019.04
8.198,-0.13,0.99,0.01,-0.65,-0.12,0.92,-0.01,0.05,0.21,1019.04
8.199,-0.12,0.98,0.01,-0.65,-0.12,0.92,-0.01,0.05,0.21,1019.04
8.199,-0.10,0.98,-0.02,-0.65,-0.12,0.92,-0.01,0.05,0.21,1019.04
8.23,-0.10,0.98,-0.01,-0.65,-0.12,0.92,-0.01,0.05,0.21,1019.04
8.231,-0.10,0.98,-0.01,-0.18,0.29,0.36,-0.01,0.05,0.21,1019.04
8.247,-0.11,0.97,0.01,-0.18,0.29,0.36,-0.01,0.05,0.21,1019.04
8.247,-0.11,0.97,0.01,-0.18,0.29,0.36,-0.01,0.05,0.21,1018.99
8.263,-0.11,0.98,-0.02,-0.18,0.29,0.36,-0.01,0.05,0.21,1018.99
8.275,-0.11,0.98,-0.02,-0.18,0.29,0.36,0.03,0.02,0.19,1018.99
8.291,-0.09,0.98,-0.02,-0.18,0.29,0.36,0.03,0.02,0.19,1018.99
8.291,-0.09,0.98,-0.02,-0.20,0.24,0.23,0.03,0.02,0.19,1018.99
8.328,-0.09,0.98,-0.02,-0.20,0.24,0.23,0.03,0.02,0.19,1018.96
8.328,-0.08,0.98,-0.01,-0.20,0.24,0.23,0.03,0.02,0.19,1018.96
8.328,-0.08,0.98,-0.01,-0.20,0.24,0.23,0.03,0.02,0.19,1018.96
8.341,-0.08,0.98,-0.01,-0.20,0.24,0.23,0.05,-0.01,0.17,1018.96
8.359,-0.09,0.97,0.01,-0.20,0.24,0.23,0.05,-0.01,0.17,1018.96
8.36,-0.07,0.97,0.00,-0.20,0.24,0.23,0.05,-0.01,0.17,1018.96
8.36,-0.07,0.97,0.00,-0.19,0.19,0.20,0.05,-0.01,0.17,1018.96
8.374,-0.07,0.97,0.00,-0.19,0.19,0.20,0.05,-0.01,0.17,1019.04
8.398,-0.09,0.97,0.01,-0.19,0.19,0.20,0.05,-0.01,0.17,1019.04
8.409,-0.09,0.97,0.01,-0.19,0.19,0.20,0.11,-0.01,0.17,1019.04
8.409,-0.12,0.98,-0.02,-0.19,0.19,0.20,0.11,-0.01,0.17,1019.04
8.428,-0.12,1.00,-0.03,-0.19,0.19,0.20,0.11,-0.01,0.17,1019.04
8.429,-0.12,1.00,-0.03,-0.11,0.13,0.40,0.11,-0.01,0.17,1019.04
8.448,-0.11,1.01,-0.03,-0.11,0.13,0.40,0.11,-0.01,0.17,1019.04
8.449,-0.11,1.01,-0.03,-0.11,0.13,0.40,0.11,-0.01,0.17,1019.07
8.464,-0.11,1.01,-0.04,-0.11,0.13,0.40,0.11,-0.01,0.17,1019.07
8.478,-0.11,1.01,-0.04,-0.11,0.13,0.40,0.15,0.03,0.34,1019.07
8.497,-0.11,1.01,-0.04,-0.67,0.23,0.34,0.15,0.03,0.34,1019.07
8.498,-0.12,1.00,-0.02,-0.67,0.23,0.34,0.15,0.03,0.34,1019.07
8.499,-0.11,1.00,-0.02,-0.67,0.23,0.34,0.15,0.03,0.34,1019.07
8.528,-0.11,1.01,-0.02,-0.67,0.23,0.34,0.15,0.03,0.34,1019.07
8.529,-0.11,1.01,-0.02,-0.67,0.23,0.34,0.15,0.03,0.34,1019.02
8.548,-0.11,1.01,-0.02,-0.67,0.23,0.34,0.21,0.06,0.62,1019.02
8.548,-0.16,1.04,-0.06,-0.67,0.23,0.34,0.21,0.06,0.62,1019.02
8.568,-0.13,1.05,-0.08,-0.67,0.23,0.34,0.21,0.06,0.62,1019.02
8.568,-0.13,1.05,-0.08,-1.16,0.42,0.34,0.21,0.06,0.62,1019.02
8.57,-0.13,1.05,-0.08,-1.16,0.42,0.34,0.21,0.06,0.62,1019.04
8.594,-0.18,1.09,-0.07,-1.16,0.42,0.34,0.21,0.06,0.62,1019.04
8.618,-0.18,1.09,-0.07,-1.16,0.42,0.34,0.22,0.15,1.28,1019.04
8.619,-0.22,1.14,-0.11,-1.16,0.42,0.34,0.22,0.15,1.28,1019.04
8.639,-0.24,1.18,-0.12,-1.16,0.42,0.34,0.22,0.15,1.28,1019.04
8.64,-0.24,1.18,-0.12,-2.41,0.82,0.22,0.22,0.15,1.28,1019.04
8.64,-0.30,1.26,-0.19,-2.41,0.82,0.22,0.22,0.15,1.28,1019.04
8.647,-0.30,1.26,-0.19,-2.41,0.82,0.22,0.22,0.15,1.28,1019.05
8.663,-0.37,1.27,-0.13,-2.41,0.82,0.22,0.22,0.15,1.28,1019.05
8.687,-0.37,1.27,-0.13,-2.41,0.82,0.22,0.22,0.13,2.63,1019.05
8.688,-0.50,1.27,-0.16,-2.41,0.82,0.22,0.22,0.13,2.63,1019.05
8.708,-0.49,1.33,-0.05,-2.41,0.82,0.22,0.22,0.13,2.63,1019.05
8.708,-0.49,1.33,-0.05,-5.41,2.66,-0.36,0.22,0.13,2.63,1019.05
8.727,-0.43,1.28,0.12,-5.41,2.66,-0.36,0.22,0.13,2.63,1019.05
8.728,-0.43,1.28,0.12,-5.41,2.66,-0.36,0.22,0.13,2.63,1018.77
8.757,-0.43,1.28,0.12,-5.41,2.66,-0.36,0.47,0.01,4.59,1018.77
8.758,-0.09,1.26,0.30,-5.41,2.66,-0.36,0.47,0.01,4.59,1018.77
8.767,0.26,1.21,0.38,-5.41,2.66,-0.36,0.47,0.01,4.59,1018.77
8.768,0.26,1.21,0.38,-5.41,2.66,-0.36,0.47,0.01,4.59,1018.16
8.778,0.24,1.00,0.40,-5.41,2.66,-0.36,0.47,0.01,4.59,1018.16
8.778,0.24,1.00,0.40,-10.24,5.11,0.50,0.47,0.01,4.59,1018.16
8.827,0.24,1.00,0.40,-10.24,5.11,0.50,1.66,0.88,4.14,1018.16
8.828,0.17,0.85,0.32,-10.24,5.11,0.50,1.66,0.88,4.14,1018.16
8.828,0.44,0.33,0.30,-10.24,5.11,0.50,1.66,0.88,4.14,1018.16
8.848,2.52,1.20,-0.25,-10.24,5.11,0.50,1.66,0.88,4.14,1018.16
8.849,2.52,1.20,-0.25,-6.07,5.20,4.53,1.66,0.88,4.14,1018.16
8.849,2.52,1.20,-0.25,-6.07,5.20,4.53,1.66,0.88,4.14,1018.25
8.864,0.05,0.58,0.06,-6.07,5.20,4.53,1.66,0.88,4.14,1018.25
8.898,0.05,0.58,0.06,-6.07,5.20,4.53,0.73,2.72,-2.37,1018.25
8.898,-0.51,0.49,0.01,-6.07,5.20,4.53,0.73,2.72,-2.37,1018.25
8.919,-0.51,0.49,0.01,3.68,0.09,1.41,0.73,2.72,-2.37,1018.25
8.92,-0.55,0.43,0.05,3.68,0.09,1.41,0.73,2.72,-2.37,1018.25
8.92,-0.19,0.42,0.39,3.68,0.09,1.41,0.73,2.72,-2.37,1018.25
8.927,-0.19,0.42,0.39,3.68,0.09,1.41,0.73,2.72,-2.37,1018.73
8.968,-0.19,0.42,0.39,3.68,0.09,1.41,1.08,1.97,-3.36,1018.73
8.969,-0.19,0.42,0.39,3.68,0.09,1.41,1.08,1.97,-3.36,1018.93
8.969,0.00,0.45,0.37,3.68,0.09,1.41,1.08,1.97,-3.36,1018.93
8.97,-0.02,0.57,0.28,3.68,0.09,1.41,1.08,1.97,-3.36,1018.93
8.988,-0.03,0.71,0.26,3.68,0.09,1.41,1.08,1.97,-3.36,1018.93
8.989,-0.03,0.71,0.26,-7.46,-4.22,1.87,1.08,1.97,-3.36,1018.93
9.04,-0.03,0.71,0.26,-7.46,-4.22,1.87,1.31,1.92,-4.30,1018.93
9.041,-0.03,0.81,0.33,-7.46,-4.22,1.87,1.31,1.92,-4.30,1018.93
9.041,-0.01,0.94,0.36,-7.46,-4.22,1.87,1.31,1.92,-4.30,1018.93
9.047,-0.03,1.09,0.36,-7.46,-4.22,1.87,1.31,1.92,-4.30,1018.93
9.048,-0.03,1.09,0.36,-7.46,-4.22,1.87,1.31,1.92,-4.30,1018.96
9.058,-0.07,1.25,0.37,-7.46,-4.22,1.87,1.31,1.92,-4.30,1018.96
9.058,-0.07,1.25,0.37,-0.98,-3.24,3.82,1.31,1.92,-4.30,1018.96
9.094,-0.13,1.34,0.40,-0.98,-3.24,3.82,1.31,1.92,-4.30,1018.96
9.107,-0.18,1.40,0.42,-0.98,-3.24,3.82,1.31,1.92,-4.30,1018.96
9.107,-0.18,1.40,0.42,-0.98,-3.24,3.82,0.57,1.93,-4.26,1018.96
9.127,-0.20,1.47,0.37,-0.98,-3.24,3.82,0.57,1.93,-4.26,1018.96
9.128,-0.20,1.47,0.37,-0.98,-3.24,3.82,0.57,1.93,-4.26,1018.92
9.128,-0.20,1.47,0.37,1.33,1.28,4.53,0.57,1.93,-4.26,1018.92
9.168,-0.20,1.47,0.37,1.33,1.28,4.53,0.57,1.93,-4.26,1018.76
9.168,-0.26,1.51,0.30,1.33,1.28,4.53,0.57,1.93,-4.26,1018.76
9.169,-0.21,1.60,0.16,1.33,1.28,4.53,0.57,1.93,-4.26,1018.76
9.178,0.17,1.66,0.10,1.33,1.28,4.53,0.57,1.93,-4.26,1018.76
9.179,0.17,1.66,0.10,1.33,1.28,4.53,-0.36,1.29,-3.24,1018.76
9.197,0.66,1.51,0.18,1.33,1.28,4.53,-0.36,1.29,-3.24,1018.76
9.198,0.66,1.51,0.18,1.57,5.20,4.56,-0.36,1.29,-3.24,1018.76
9.247,1.18,1.30,0.14,1.57,5.20,4.56,-0.36,1.29,-3.24,1018.76
9.248,1.30,1.14,0.11,1.57,5.20,4.56,-0.36,1.29,-3.24,1018.76
9.248,1.30,1.14,0.11,1.57,5.20,4.56,-0.29,0.59,-2.02,1018.76
9.248,1.30,1.14,0.11,1.57,5.20,4.56,-0.29,0.59,-2.02,1018.91
9.263,1.36,1.07,-0.05,1.57,5.20,4.56,-0.29,0.59,-2.02,1018.91
9.267,1.36,1.07,-0.05,5.22,6.93,2.33,-0.29,0.59,-2.02,1018.91
9.317,1.36,1.07,-0.05,5.22,6.93,2.33,-0.66,1.13,2.23,1018.91
9.318,1.37,0.96,-0.11,5.22,6.93,2.33,-0.66,1.13,2.23,1018.91
9.318,1.20,0.93,0.08,5.22,6.93,2.33,-0.66,1.13,2.23,1018.91
9.327,-0.26,2.34,0.50,5.22,6.93,2.33,-0.66,1.13,2.23,1018.91
9.327,-0.26,2.34,0.50,5.22,6.93,2.33,-0.66,1.13,2.23,1018.84
9.338,0.03,1.09,-1.12,5.22,6.93,2.33,-0.66,1.13,2.23,1018.84
9.339,0.03,1.09,-1.12,14.65,2.08,1.06,-0.66,1.13,2.23,1018.84
9.368,0.18,0.96,-1.16,14.65,2.08,1.06,-0.66,1.13,2.23,1018.84
9.368,0.18,0.96,-1.16,14.65,2.08,1.06,-0.66,1.13,2.23,1019.98
9.388,0.90,1.49,1.48,14.65,2.08,1.06,-0.66,1.13,2.23,1019.98
9.388,0.90,1.49,1.48,14.65,2.08,1.06,-0.48,0.75,1.10,1019.98
9.408,-0.83,0.88,-1.08,14.65,2.08,1.06,-0.48,0.75,1.10,1019.98
9.408,-0.83,0.88,-1.08,6.01,4.18,-1.28,-0.48,0.75,1.10,1019.98
9.442,0.24,1.06,0.32,6.01,4.18,-1.28,-0.48,0.75,1.10,1019.98
9.447,-0.26,0.93,-0.05,6.01,4.18,-1.28,-0.48,0.75,1.10,1019.98
9.448,-0.26,0.93,-0.05,6.01,4.18,-1.28,-0.48,0.75,1.10,1019.49
9.457,-0.26,0.93,-0.05,6.01,4.18,-1.28,-0.42,0.17,0.26,1019.49
9.463,-0.16,0.97,0.14,6.01,4.18,-1.28,-0.42,0.17,0.26,1019.49
9.479,-0.16,0.97,0.14,2.78,1.59,-1.36,-0.42,0.17,0.26,1019.49
9.479,-0.10,0.99,-0.04,2.78,1.59,-1.36,-0.42,0.17,0.26,1019.49
9.527,-0.09,0.99,-0.04,2.78,1.59,-1.36,-0.42,0.17,0.26,1019.49
9.528,-0.13,1.00,-0.01,2.78,1.59,-1.36,-0.42,0.17,0.26,1019.49
9.528,-0.13,1.00,-0.01,2.78,1.59,-1.36,-0.16,0.10,0.13,1019.49
9.528,-0.13,1.00,-0.01,2.78,1.59,-1.36,-0.16,0.10,0.13,1019.24
9.55,-0.18,1.00,-0.04,2.78,1.59,-1.36,-0.16,0.10,0.13,1019.24
9.551,-0.18,1.00,-0.04,-0.40,0.00,0.55,-0.16,0.10,0.13,1019.24
9.568,-0.15,0.99,0.01,-0.40,0.00,0.55,-0.16,0.10,0.13,1019.24
9.569,-0.15,0.99,0.01,-0.40,0.00,0.55,-0.16,0.10,0.13,1019.09
9.594,-0.14,0.97,0.04,-0.40,0.00,0.55,-0.16,0.10,0.13,1019.09
9.597,-0.14,0.97,0.04,-0.40,0.00,0.55,-0.11,0.02,0.13,1019.09
9.618,-0.14,0.97,0.04,-0.24,0.35,-0.23,-0.11,0.02,0.13,1019.09
9.618,-0.12,0.98,0.00,-0.24,0.35,-0.23,-0.11,0.02,0.13,1019.09
9.618,-0.13,0.98,-0.01,-0.24,0.35,-0.23,-0.11,0.02,0.13,1019.09
9.647,-0.15,0.98,-0.02,-0.24,0.35,-0.23,-0.11,0.02,0.13,1019.09
9.648,-0.15,0.98,-0.02,-0.24,0.35,-0.23,-0.11,0.02,0.13,1018.96
9.663,-0.15,0.98,0.01,-0.24,0.35,-0.23,-0.11,0.02,0.13,1018.96
9.667,-0.15,0.98,0.01,-0.24,0.35,-0.23,-0.07,0.03,0.19,1018.96
9.689,-0.14,0.98,0.02,-0.24,0.35,-0.23,-0.07,0.03,0.19,1018.96
9.689,-0.14,0.98,0.02,-0.36,0.17,0.12,-0.07,0.03,0.19,1018.96
9.731,-0.14,0.98,0.02,-0.36,0.17,0.12,-0.07,0.03,0.19,1018.92
9.731,-0.13,0.98,0.03,-0.36,0.17,0.12,-0.07,0.03,0.19,1018.92
9.731,-0.11,0.99,0.01,-0.36,0.17,0.12,-0.07,0.03,0.19,1018.92
9.738,-0.11,0.99,0.01,-0.36,0.17,0.12,-0.00,-0.05,0.27,1018.92
9.758,-0.10,0.98,0.01,-0.36,0.17,0.12,-0.00,-0.05,0.27,1018.92
9.758,-0.09,0.97,0.03,-0.36,0.17,0.12,-0.00,-0.05,0.27,1018.92
9.758,-0.09,0.97,0.03,-0.64,0.16,0.06,-0.00,-0.05,0.27,1018.92
9.767,-0.09,0.97,0.03,-0.64,0.16,0.06,-0.00,-0.05,0.27,1018.91
9.796,-0.08,0.98,0.01,-0.64,0.16,0.06,-0.00,-0.05,0.27,1018.91
9.807,-0.08,0.98,0.01,-0.64,0.16,0.06,0.07,-0.08,0.26,1018.91
9.808,-0.09,0.97,0.04,-0.64,0.16,0.06,0.07,-0.08,0.26,1018.91
9.828,-0.07,0.98,0.01,-0.64,0.16,0.06,0.07,-0.08,0.26,1018.91
9.828,-0.07,0.98,0.01,-0.36,0.14,0.25,0.07,-0.08,0.26,1018.91
9.847,-0.10,0.98,-0.00,-0.36,0.14,0.25,0.07,-0.08,0.26,1018.91
9.847,-0.10,0.98,-0.00,-0.36,0.14,0.25,0.07,-0.08,0.26,1018.99
9.863,-0.11,0.99,0.01,-0.36,0.14,0.25,0.07,-0.08,0.26,1018.99
9.877,-0.11,0.99,0.01,-0.36,0.14,0.25,0.12,-0.10,0.31,1018.99
9.898,-0.11,0.99,0.01,-0.40,0.09,0.27,0.12,-0.10,0.31,1018.99
9.899,-0.13,1.02,-0.01,-0.40,0.09,0.27,0.12,-0.10,0.31,1018.99
9.9,-0.15,1.06,-0.08,-0.40,0.09,0.27,0.12,-0.10,0.31,1018.99
9.927,-0.21,1.09,-0.11,-0.40,0.09,0.27,0.12,-0.10,0.31,1018.99
9.928,-0.21,1.09,-0.11,-0.40,0.09,0.27,0.12,-0.10,0.31,1019.06
9.948,-0.21,1.09,-0.11,-0.40,0.09,0.27,0.03,-0.09,0.76,1019.06
9.948,-0.25,1.10,-0.07,-0.40,0.09,0.27,0.03,-0.09,0.76,1019.06
9.967,-0.30,1.13,0.01,-0.40,0.09,0.27,0.03,-0.09,0.76,1019.06
9.968,-0.30,1.13,0.01,-0.40,0.09,0.27,0.03,-0.09,0.76,1019.07
9.968,-0.30,1.13,0.01,-1.52,0.49,-0.11,0.03,-0.09,0.76,1019.07
9.998,-0.36,1.22,-0.12,-1.52,0.49,-0.11,0.03,-0.09,0.76,1019.07
10.012,-0.39,1.28,-0.15,-1.52,0.49,-0.11,0.03,-0.09,0.76,1019.07
10.018,-0.39,1.28,-0.15,-1.52,0.49,-0.11,-0.11,-0.10,2.02,1019.07
10.038,-0.39,1.28,-0.15,-4.50,1.69,-0.57,-0.11,-0.10,2.02,1019.07
10.039,-0.49,1.39,-0.26,-4.50,1.69,-0.57,-0.11,-0.10,2.02,1019.07
10.039,-0.70,1.38,-0.07,-4.50,1.69,-0.57,-0.11,-0.10,2.02,1019.07
10.047,-0.70,1.38,-0.07,-4.50,1.69,-0.57,-0.11,-0.10,2.02,1019.02
10.063,-0.83,1.37,-0.01,-4.50,1.69,-0.57,-0.11,-0.10,2.02,1019.02
10.087,-0.83,1.37,-0.01,-4.50,1.69,-0.57,-0.47,-0.59,4.47,1019.02
10.088,-0.70,1.35,0.10,-4.50,1.69,-0.57,-0.47,-0.59,4.47,1019.02
10.108,-0.18,1.45,0.17,-4.50,1.69,-0.57,-0.47,-0.59,4.47,1019.02
10.109,-0.18,1.45,0.17,-9.85,4.93,-1.63,-0.47,-0.59,4.47,1019.02
10.127,0.14,1.37,0.36,-9.85,4.93,-1.63,-0.47,-0.59,4.47,1019.02
10.128,0.14,1.37,0.36,-9.85,4.93,-1.63,-0.47,-0.59,4.47,1018.59
10.157,0.14,1.37,0.36,-9.85,4.93,-1.63,0.06,-1.11,5.71,1018.59
10.158,0.07,1.25,0.43,-9.85,4.93,-1.63,0.06,-1.11,5.71,1018.59
10.168,-0.26,0.91,0.31,-9.85,4.93,-1.63,0.06,-1.11,5.71,1018.59
10.169,-0.26,0.91,0.31,-9.85,4.93,-1.63,0.06,-1.11,5.71,1018.25
10.178,0.87,0.41,-0.12,-9.85,4.93,-1.63,0.06,-1.11,5.71,1018.25
10.178,0.87,0.41,-0.12,-11.87,7.72,1.62,0.06,-1.11,5.71,1018.25
10.229,0.87,0.41,-0.12,-11.87,7.72,1.62,-0.22,0.02,0.01,1018.25
10.229,1.87,1.07,0.16,-11.87,7.72,1.62,-0.22,0.02,0.01,1018.25
10.23,-0.42,0.35,0.27,-11.87,7.72,1.62,-0.22,0.02,0.01,1018.25
10.248,-0.65,0.34,-0.08,-11.87,7.72,1.62,-0.22,0.02,0.01,1018.25
10.249,-0.65,0.34,-0.08,-11.87,7.72,1.62,-0.22,0.02,0.01,1018.57
10.249,-0.65,0.34,-0.08,-4.34,2.15,2.34,-0.22,0.02,0.01,1018.57
10.263,-0.31,0.38,-0.11,-4.34,2.15,2.34,-0.22,0.02,0.01,1018.57
10.298,0.09,0.40,0.05,-4.34,2.15,2.34,-0.22,0.02,0.01,1018.57
10.299,0.09,0.40,0.05,-4.34,2.15,2.34,-0.70,0.55,-2.85,1018.57
10.318,0.09,0.40,0.05,-2.87,-2.71,0.28,-0.70,0.55,-2.85,1018.57
10.318,-0.01,0.42,0.03,-2.87,-2.71,0.28,-0.70,0.55,-2.85,1018.57
10.319,-0.26,0.52,-0.10,-2.87,-2.71,0.28,-0.70,0.55,-2.85,1018.57
10.327,-0.26,0.52,-0.10,-2.87,-2.71,0.28,-0.70,0.55,-2.85,1018.72
10.367,-0.26,0.52,-0.10,-2.87,-2.71,0.28,-0.70,0.55,-2.85,1018.75
10.368,-0.27,0.68,-0.12,-2.87,-2.71,0.28,-0.70,0.55,-2.85,1018.75
10.368,-0.13,0.85,-0.11,-2.87,-2.71,0.28,-0.70,0.55,-2.85,1018.75
10.369,-0.13,0.85,-0.11,-2.87,-2.71,0.28,-0.21,0.04,-4.56,1018.75
10.388,-0.00,1.06,-0.17,-2.87,-2.71,0.28,-0.21,0.04,-4.56,1018.75
10.389,-0.00,1.06,-0.17,-2.28,-4.77,-0.66,-0.21,0.04,-4.56,1018.75
10.438,-0.00,1.06,-0.17,-2.28,-4.77,-0.66,0.24,-0.04,-5.19,1018.75
10.439,0.02,1.20,-0.19,-2.28,-4.77,-0.66,0.24,-0.04,-5.19,1018.75
10.439,-0.06,1.32,-0.28,-2.28,-4.77,-0.66,0.24,-0.04,-5.19,1018.75
10.447,-0.12,1.49,-0.27,-2.28,-4.77,-0.66,0.24,-0.04,-5.19,1018.75
10.447,-0.12,1.49,-0.27,-2.28,-4.77,-0.66,0.24,-0.04,-5.19,1018.81
10.461,-0.12,1.49,-0.27,0.67,-0.15,-1.62,0.24,-0.04,-5.19,1018.81
10.462,-0.11,1.63,-0.26,0.67,-0.15,-1.62,0.24,-0.04,-5.19,1018.81
10.508,-0.11,1.63,-0.26,0.67,-0.15,-1.62,0.54,0.18,-4.33,1018.81
10.509,-0.02,1.77,-0.30,0.67,-0.15,-1.62,0.54,0.18,-4.33,1018.81
10.509,0.20,1.89,-0.33,0.67,-0.15,-1.62,0.54,0.18,-4.33,1018.81
10.518,0.86,1.90,-0.23,0.67,-0.15,-1.62,0.54,0.18,-4.33,1018.81
10.53,0.86,1.90,-0.23,0.67,-0.15,-1.62,0.54,0.18,-4.33,1018.82
10.531,0.86,1.90,-0.23,3.13,5.74,-2.35,0.54,0.18,-4.33,1018.82
10.567,1.76,1.54,0.20,3.13,5.74,-2.35,0.54,0.18,-4.33,1018.82
10.568,2.47,1.18,0.61,3.13,5.74,-2.35,0.54,0.18,-4.33,1018.82
10.568,2.47,1.18,0.61,3.13,5.74,-2.35,0.54,0.18,-4.33,1019.30
10.578,2.47,1.18,0.61,3.13,5.74,-2.35,0.85,-0.32,-2.04,1019.30
10.594,1.34,1.54,0.09,3.13,5.74,-2.35,0.85,-0.32,-2.04,1019.30
10.598,0.05,0.37,-0.27,3.13,5.74,-2.35,0.85,-0.32,-2.04,1019.30
10.599,0.05,0.37,-0.27,8.89,9.36,-1.85,0.85,-0.32,-2.04,1019.30
10.647,-0.66,0.94,0.11,8.89,9.36,-1.85,0.85,-0.32,-2.04,1019.30
10.647,0.43,2.03,0.83,8.89,9.36,-1.85,0.85,-0.32,-2.04,1019.30
10.648,0.43,2.03,0.83,8.89,9.36,-1.85,0.85,-0.32,-2.04,1019.32
10.648,0.43,2.03,0.83,8.89,9.36,-1.85,-0.52,0.98,4.47,1019.32
10.664,2.28,1.23,-0.47,8.89,9.36,-1.85,-0.52,0.98,4.47,1019.32
10.668,2.28,1.23,-0.47,15.02,1.39,2.03,-0.52,0.98,4.47,1019.32
10.719,2.28,1.23,-0.47,15.02,1.39,2.03,-0.18,0.38,0.21,1019.32
10.719,0.56,1.75,0.73,15.02,1.39,2.03,-0.18,0.38,0.21,1019.32
10.72,-0.53,0.88,-1.50,15.02,1.39,2.03,-0.18,0.38,0.21,1019.32
10.728,-0.02,0.98,0.41,15.02,1.39,2.03,-0.18,0.38,0.21,1019.32
10.728,-0.02,0.98,0.41,15.02,1.39,2.03,-0.18,0.38,0.21,1019.96
10.738,-0.18,0.98,-0.05,15.02,1.39,2.03,-0.18,0.38,0.21,1019.96
10.739,-0.18,0.98,-0.05,10.50,5.60,3.69,-0.18,0.38,0.21,1019.96
10.767,-0.23,0.97,0.13,10.50,5.60,3.69,-0.18,0.38,0.21,1019.96
10.767,-0.23,0.97,0.13,10.50,5.60,3.69,-0.18,0.38,0.21,1019.24
10.789,-0.23,0.97,0.13,10.50,5.60,3.69,-0.26,0.05,0.24,1019.24
10.789,-0.10,0.98,-0.05,10.50,5.60,3.69,-0.26,0.05,0.24,1019.24
10.808,-0.07,0.96,0.13,10.50,5.60,3.69,-0.26,0.05,0.24,1019.24
10.809,-0.07,0.96,0.13,-3.00,0.27,-3.31,-0.26,0.05,0.24,1019.24
10.838,-0.12,0.98,0.05,-3.00,0.27,-3.31,-0.26,0.05,0.24,1019.24
10.847,-0.14,1.01,-0.08,-3.00,0.27,-3.31,-0.26,0.05,0.24,1019.24
10.847,-0.14,1.01,-0.08,-3.00,0.27,-3.31,-0.26,0.05,0.24,1019.13
10.86,-0.14,1.01,-0.08,-3.00,0.27,-3.31,-0.04,0.05,0.19,1019.13
10.863,-0.10,1.00,-0.03,-3.00,0.27,-3.31,-0.04,0.05,0.19,1019.13
10.878,-0.10,1.00,-0.03,-3.00,0.27,-3.31,-0.04,0.05,0.19,1019.13
10.878,-0.10,1.00,-0.03,-0.32,0.10,0.79,-0.04,0.05,0.19,1019.13
10.929,-0.10,1.00,-0.03,-0.32,0.10,0.79,-0.04,0.05,0.19,1018.99
10.93,-0.09,0.99,0.01,-0.32,0.10,0.79,-0.04,0.05,0.19,1018.99
10.93,-0.08,0.98,0.03,-0.32,0.10,0.79,-0.04,0.05,0.19,1018.99
10.931,-0.08,0.98,0.03,-0.32,0.10,0.79,-0.09,-0.01,0.14,1018.99
10.949,-0.08,0.97,0.03,-0.32,0.10,0.79,-0.09,-0.01,0.14,1018.99
10.949,-0.08,0.97,0.03,-0.31,0.38,-0.39,-0.09,-0.01,0.14,1018.99
10.967,-0.09,0.97,0.00,-0.31,0.38,-0.39,-0.09,-0.01,0.14,1018.99
10.968,-0.09,0.97,0.00,-0.31,0.38,-0.39,-0.09,-0.01,0.14,1018.92
10.996,-0.10,0.98,0.00,-0.31,0.38,-0.39,-0.09,-0.01,0.14,1018.92
10.997,-0.10,0.98,0.00,-0.31,0.38,-0.39,-0.04,-0.05,0.07,1018.92
11.019,-0.10,0.98,0.00,-0.01,0.17,0.16,-0.04,-0.05,0.07,1018.92
11.02,-0.13,0.98,0.01,-0.01,0.17,0.16,-0.04,-0.05,0.07,1018.92
11.02,-0.15,0.97,0.06,-0.01,0.17,0.16,-0.04,-0.05,0.07,1018.92
11.047,-0.14,0.98,0.02,-0.01,0.17,0.16,-0.04,-0.05,0.07,1018.92
11.047,-0.14,0.98,0.02,-0.01,0.17,0.16,-0.04,-0.05,0.07,1018.94
11.064,-0.11,0.99,0.00,-0.01,0.17,0.16,-0.04,-0.05,0.07,1018.94
11.067,-0.11,0.99,0.00,-0.01,0.17,0.16,0.03,-0.10,0.21,1018.94
11.089,-0.08,1.00,-0.03,-0.01,0.17,0.16,0.03,-0.10,0.21,1018.94
11.09,-0.08,1.00,-0.03,-0.55,0.14,0.18,0.03,-0.10,0.21,1018.94
11.128,-0.08,1.00,-0.03,-0.55,0.14,0.18,0.03,-0.10,0.21,1018.97
11.129,-0.08,0.99,-0.02,-0.55,0.14,0.18,0.03,-0.10,0.21,1018.97
11.129,-0.09,0.99,0.04,-0.55,0.14,0.18,0.03,-0.10,0.21,1018.97
11.138,-0.09,0.99,0.04,-0.55,0.14,0.18,0.02,-0.12,0.28,1018.97
11.159,-0.09,0.99,0.04,-0.57,0.26,-0.04,0.02,-0.12,0.28,1018.97
11.16,-0.11,0.98,0.06,-0.57,0.26,-0.04,0.02,-0.12,0.28,1018.97
11.16,-0.12,1.00,0.03,-0.57,0.26,-0.04,0.02,-0.12,0.28,1018.97
11.167,-0.12,1.00,0.03,-0.57,0.26,-0.04,0.02,-0.12,0.28,1019.05
11.197,-0.16,1.04,-0.03,-0.57,0.26,-0.04,0.02,-0.12,0.28,1019.05
11.209,-0.16,1.04,-0.03,-0.57,0.26,-0.04,0.09,-0.17,0.54,1019.05
11.209,-0.19,1.07,-0.07,-0.57,0.26,-0.04,0.09,-0.17,0.54,1019.05
11.229,-0.21,1.11,-0.17,-0.57,0.26,-0.04,0.09,-0.17,0.54,1019.05
11.23,-0.21,1.11,-0.17,-1.03,0.25,0.38,0.09,-0.17,0.54,1019.05
11.248,-0.26,1.12,-0.08,-1.03,0.25,0.38,0.09,-0.17,0.54,1019.05
11.248,-0.26,1.12,-0.08,-1.03,0.25,0.38,0.09,-0.17,0.54,1019.08
11.263,-0.33,1.15,-0.00,-1.03,0.25,0.38,0.09,-0.17,0.54,1019.08
11.279,-0.33,1.15,-0.00,-1.03,0.25,0.38,-0.21,-0.13,1.41,1019.08
11.279,-0.36,1.23,-0.10,-1.03,0.25,0.38,-0.21,-0.13,1.41,1019.08
11.299,-0.51,1.34,-0.21,-1.03,0.25,0.38,-0.21,-0.13,1.41,1019.08
11.299,-0.51,1.34,-0.21,-3.06,1.20,-1.10,-0.21,-0.13,1.41,1019.08
11.329,-0.72,1.45,-0.20,-3.06,1.20,-1.10,-0.21,-0.13,1.41,1019.08
11.329,-0.72,1.45,-0.20,-3.06,1.20,-1.10,-0.21,-0.13,1.41,1019.06
11.348,-0.72,1.45,-0.20,-3.06,1.20,-1.10,-0.58,-0.43,3.52,1019.06
11.349,-1.05,1.50,-0.12,-3.06,1.20,-1.10,-0.58,-0.43,3.52,1019.06
11.367,-1.08,1.47,-0.06,-3.06,1.20,-1.10,-0.58,-0.43,3.52,1019.06
11.367,-1.08,1.47,-0.06,-3.06,1.20,-1.10,-0.58,-0.43,3.52,1018.77
11.368,-1.08,1.47,-0.06,-7.65,3.37,-1.39,-0.58,-0.43,3.52,1018.77
11.396,-0.38,1.55,0.25,-7.65,3.37,-1.39,-0.58,-0.43,3.52,1018.77
11.419,-0.38,1.55,0.25,-7.65,3.37,-1.39,-0.50,-1.14,6.24,1018.77
11.419,0.08,1.45,0.53,-7.65,3.37,-1.39,-0.50,-1.14,6.24,1018.77
11.438,0.08,1.45,0.53,-15.71,8.16,-0.78,-0.50,-1.14,6.24,1018.77
11.439,0.03,1.34,0.44,-15.71,8.16,-0.78,-0.50,-1.14,6.24,1018.77
11.44,-0.32,1.02,0.34,-15.71,8.16,-0.78,-0.50,-1.14,6.24,1018.77
11.448,-0.32,1.02,0.34,-15.71,8.16,-0.78,-0.50,-1.14,6.24,1018.26
11.463,0.85,0.44,-0.17,-15.71,8.16,-0.78,-0.50,-1.14,6.24,1018.26
11.488,0.85,0.44,-0.17,-15.71,8.16,-0.78,0.05,-0.53,2.28,1018.26
11.489,1.74,0.92,0.49,-15.71,8.16,-0.78,0.05,-0.53,2.28,1018.26
11.509,-0.59,0.19,0.42,-15.71,8.16,-0.78,0.05,-0.53,2.28,1018.26
11.51,-0.59,0.19,0.42,-7.66,6.51,3.96,0.05,-0.53,2.28,1018.26
11.532,-0.67,0.23,-0.04,-7.66,6.51,3.96,0.05,-0.53,2.28,1018.26
11.532,-0.67,0.23,-0.04,-7.66,6.51,3.96,0.05,-0.53,2.28,1018.61
11.559,-0.67,0.23,-0.04,-7.66,6.51,3.96,0.11,0.24,-2.58,1018.61
11.559,-0.30,0.31,-0.28,-7.66,6.51,3.96,0.11,0.24,-2.58,1018.61
11.567,0.04,0.33,0.09,-7.66,6.51,3.96,0.11,0.24,-2.58,1018.61
11.567,0.04,0.33,0.09,-7.66,6.51,3.96,0.11,0.24,-2.58,1018.87
11.58,0.05,0.37,0.21,-7.66,6.51,3.96,0.11,0.24,-2.58,1018.87
11.58,0.05,0.37,0.21,-0.58,-3.05,2.03,0.11,0.24,-2.58,1018.87
11.63,0.05,0.37,0.21,-0.58,-3.05,2.03,0.33,0.14,-4.86,1018.87
11.631,-0.17,0.48,0.02,-0.58,-3.05,2.03,0.33,0.14,-4.86,1018.87
11.631,-0.23,0.69,-0.07,-0.58,-3.05,2.03,0.33,0.14,-4.86,1018.87
11.647,-0.09,0.91,-0.12,-0.58,-3.05,2.03,0.33,0.14,-4.86,1018.87
11.648,-0.09,0.91,-0.12,-0.58,-3.05,2.03,0.33,0.14,-4.86,1018.86
11.648,-0.09,0.91,-0.12,-3.58,-5.80,-0.12,0.33,0.14,-4.86,1018.86
11.665,0.06,1.09,-0.06,-3.58,-5.80,-0.12,0.33,0.14,-4.86,1018.86
11.699,0.06,1.09,-0.06,-3.58,-5.80,-0.12,0.39,-0.13,-5.66,1018.86
11.7,0.08,1.20,-0.10,-3.58,-5.80,-0.12,0.39,-0.13,-5.66,1018.86
11.719,0.08,1.20,-0.10,0.20,-1.71,-0.26,0.39,-0.13,-5.66,1018.86
11.719,-0.08,1.40,-0.23,0.20,-1.71,-0.26,0.39,-0.13,-5.66,1018.86
11.72,-0.13,1.58,-0.29,0.20,-1.71,-0.26,0.39,-0.13,-5.66,1018.86
11.73,-0.13,1.58,-0.29,0.20,-1.71,-0.26,0.39,-0.13,-5.66,1018.93
11.767,-0.13,1.58,-0.29,0.20,-1.71,-0.26,0.39,-0.13,-5.66,1018.91
11.768,-0.12,1.79,-0.26,0.20,-1.71,-0.26,0.39,-0.13,-5.66,1018.91
11.768,0.19,1.96,-0.23,0.20,-1.71,-0.26,0.39,-0.13,-5.66,1018.91
11.768,0.19,1.96,-0.23,0.20,-1.71,-0.26,0.04,0.45,-4.95,1018.91
11.789,0.49,1.90,0.02,0.20,-1.71,-0.26,0.04,0.45,-4.95,1018.91
11.789,0.49,1.90,0.02,3.85,5.04,-1.34,0.04,0.45,-4.95,1018.91
11.799,1.26,1.53,-0.11,3.85,5.04,-1.34,0.04,0.45,-4.95,1018.91
11.839,1.26,1.53,-0.11,3.85,5.04,-1.34,0.30,0.43,-2.40,1018.91
11.84,1.50,1.64,0.35,3.85,5.04,-1.34,0.30,0.43,-2.40,1018.91
11.849,1.52,1.52,0.12,3.85,5.04,-1.34,0.30,0.43,-2.40,1018.91
11.85,1.52,1.52,0.12,3.85,5.04,-1.34,0.30,0.43,-2.40,1019.06
11.858,0.98,1.09,-0.02,3.85,5.04,-1.34,0.30,0.43,-2.40,1019.06
11.859,0.98,1.09,-0.02,6.68,10.06,-0.14,0.30,0.43,-2.40,1019.06
11.909,0.98,1.09,-0.02,6.68,10.06,-0.14,-0.74,0.76,3.62,1019.06
11.91,0.94,0.96,0.08,6.68,10.06,-0.14,-0.74,0.76,3.62,1019.06
11.911,-0.71,1.04,-0.65,6.68,10.06,-0.14,-0.74,0.76,3.62,1019.06
11.927,1.51,1.86,0.71,6.68,10.06,-0.14,-0.74,0.76,3.62,1019.06
11.929,1.51,1.86,0.71,6.68,10.06,-0.14,-0.74,0.76,3.62,1019.12
11.929,1.51,1.86,0.71,16.08,4.77,0.76,-0.74,0.76,3.62,1019.12
11.97,1.51,1.86,0.71,16.08,4.77,0.76,-0.74,0.76,3.62,1019.67
11.971,0.71,1.44,0.62,16.08,4.77,0.76,-0.74,0.76,3.62,1019.67
11.971,-0.23,1.12,-0.84,16.08,4.77,0.76,-0.74,0.76,3.62,1019.67
11.98,-0.23,1.12,-0.84,16.08,4.77,0.76,-0.25,0.48,0.88,1019.67
11.998,-0.01,0.97,-0.56,16.08,4.77,0.76,-0.25,0.48,0.88,1019.67
11.999,-0.22,0.94,0.54,16.08,4.77,0.76,-0.25,0.48,0.88,1019.67
11.999,-0.22,0.94,0.54,7.69,3.39,1.17,-0.25,0.48,0.88,1019.67
12.038,-0.28,0.95,-0.08,7.69,3.39,1.17,-0.25,0.48,0.88,1019.67
12.05,-0.09,1.00,0.01,7.69,3.39,1.17,-0.25,0.48,0.88,1019.67
12.051,-0.09,1.00,0.01,7.69,3.39,1.17,-0.25,0.48,0.88,1019.33
12.051,-0.09,1.00,0.01,7.69,3.39,1.17,-0.24,0.08,0.41,1019.33
12.066,-0.17,0.96,0.05,7.69,3.39,1.17,-0.24,0.08,0.41,1019.33
12.068,-0.17,0.96,0.05,0.72,1.43,-1.04,-0.24,0.08,0.41,1019.33
12.094,-0.12,0.99,0.08,0.72,1.43,-1.04,-0.24,0.08,0.41,1019.33
12.119,-0.12,0.99,0.08,0.72,1.43,-1.04,-0.04,0.08,0.38,1019.33
12.12,-0.13,1.00,-0.06,0.72,1.43,-1.04,-0.04,0.08,0.38,1019.33
12.127,0.02,1.04,-0.10,0.72,1.43,-1.04,-0.04,0.08,0.38,1019.33
12.127,0.02,1.04,-0.10,0.72,1.43,-1.04,-0.04,0.08,0.38,1019.14
12.14,-0.18,0.98,-0.06,0.72,1.43,-1.04,-0.04,0.08,0.38,1019.14
12.14,-0.18,0.98,-0.06,-0.59,0.24,0.22,-0.04,0.08,0.38,1019.14
12.167,-0.11,0.99,0.05,-0.59,0.24,0.22,-0.04,0.08,0.38,1019.14
12.167,-0.11,0.99,0.05,-0.59,0.24,0.22,-0.04,0.08,0.38,1018.95
12.189,-0.11,0.99,0.05,-0.59,0.24,0.22,-0.14,-0.03,0.22,1018.95
12.19,-0.12,0.99,-0.02,-0.59,0.24,0.22,-0.14,-0.03,0.22,1018.95
12.21,-0.10,0.98,0.02,-0.59,0.24,0.22,-0.14,-0.03,0.22,1018.95
12.21,-0.10,0.98,0.02,-0.07,0.51,-0.51,-0.14,-0.03,0.22,1018.95
12.237,-0.09,0.97,0.00,-0.07,0.51,-0.51,-0.14,-0.03,0.22,1018.95
12.25,-0.09,0.98,-0.02,-0.07,0.51,-0.51,-0.14,-0.03,0.22,1018.95
12.251,-0.09,0.98,-0.02,-0.07,0.51,-0.51,-0.14,-0.03,0.22,1018.90
12.259,-0.09,0.98,-0.02,-0.07,0.51,-0.51,-0.12,-0.04,0.16,1018.90
12.264,-0.08,0.97,0.00,-0.07,0.51,-0.51,-0.12,-0.04,0.16,1018.90
12.279,-0.11,0.97,0.03,-0.07,0.51,-0.51,-0.12,-0.04,0.16,1018.90
12.279,-0.11,0.97,0.03,-0.19,0.30,0.14,-0.12,-0.04,0.16,1018.90
12.327,-0.11,0.97,0.03,-0.19,0.30,0.14,-0.12,-0.04,0.16,1018.93
12.328,-0.11,0.97,0.04,-0.19,0.30,0.14,-0.12,-0.04,0.16,1018.93
12.328,-0.12,0.97,0.04,-0.19,0.30,0.14,-0.12,-0.04,0.16,1018.93
12.329,-0.12,0.97,0.04,-0.19,0.30,0.14,-0.10,-0.10,0.13,1018.93
12.349,-0.14,0.98,0.06,-0.19,0.30,0.14,-0.10,-0.10,0.13,1018.93
12.349,-0.14,0.98,0.06,-0.16,0.18,-0.04,-0.10,-0.10,0.13,1018.93
12.367,-0.16,1.00,0.00,-0.16,0.18,-0.04,-0.10,-0.10,0.13,1018.93
12.367,-0.16,1.00,0.00,-0.16,0.18,-0.04,-0.10,-0.10,0.13,1018.99
12.397,-0.19,1.00,0.03,-0.16,0.18,-0.04,-0.10,-0.10,0.13,1018.99
12.398,-0.19,1.00,0.03,-0.16,0.18,-0.04,-0.01,-0.10,0.35,1018.99
12.42,-0.19,1.00,0.03,-0.76,0.19,0.29,-0.01,-0.10,0.35,1018.99
12.421,-0.18,1.01,0.01,-0.76,0.19,0.29,-0.01,-0.10,0.35,1018.99
12.421,-0.18,1.01,0.03,-0.76,0.19,0.29,-0.01,-0.10,0.35,1018.99
12.449,-0.15,1.01,0.04,-0.76,0.19,0.29,-0.01,-0.10,0.35,1018.99
12.449,-0.15,1.01,0.04,-0.76,0.19,0.29,-0.01,-0.10,0.35,1018.96
12.463,-0.13,1.04,-0.03,-0.76,0.19,0.29,-0.01,-0.10,0.35,1018.96
12.469,-0.13,1.04,-0.03,-0.76,0.19,0.29,0.04,-0.11,0.77,1018.96
12.49,-0.13,1.04,-0.03,-1.87,0.48,0.12,0.04,-0.11,0.77,1018.96
12.49,-0.13,1.06,-0.02,-1.87,0.48,0.12,0.04,-0.11,0.77,1018.96
12.528,-0.13,1.06,-0.02,-1.87,0.48,0.12,0.04,-0.11,0.77,1018.93
12.529,-0.23,1.10,-0.03,-1.87,0.48,0.12,0.04,-0.11,0.77,1018.93
12.529,-0.27,1.17,-0.05,-1.87,0.48,0.12,0.04,-0.11,0.77,1018.93
12.541,-0.27,1.17,-0.05,-1.87,0.48,0.12,-0.03,-0.17,1.50,1018.93
12.542,-0.40,1.26,-0.17,-1.87,0.48,0.12,-0.03,-0.17,1.50,1018.93
12.559,-0.52,1.37,-0.26,-1.87,0.48,0.12,-0.03,-0.17,1.50,1018.93
12.559,-0.52,1.37,-0.26,-2.81,0.92,-0.20,-0.03,-0.17,1.50,1018.93
12.568,-0.52,1.37,-0.26,-2.81,0.92,-0.20,-0.03,-0.17,1.50,1018.94
12.594,-0.75,1.55,-0.42,-2.81,0.92,-0.20,-0.03,-0.17,1.50,1018.94
12.609,-0.75,1.55,-0.42,-2.81,0.92,-0.20,-0.80,-0.58,3.70,1018.94
12.609,-1.11,1.50,-0.37,-2.81,0.92,-0.20,-0.80,-0.58,3.70,1018.94
12.629,-0.99,1.50,0.12,-2.81,0.92,-0.20,-0.80,-0.58,3.70,1018.94
12.63,-0.99,1.50,0.12,-7.80,3.79,-1.95,-0.80,-0.58,3.70,1018.94
12.647,-0.32,1.58,0.26,-7.80,3.79,-1.95,-0.80,-0.58,3.70,1018.94
12.648,-0.32,1.58,0.26,-7.80,3.79,-1.95,-0.80,-0.58,3.70,1018.64
12.666,0.17,1.42,0.62,-7.80,3.79,-1.95,-0.80,-0.58,3.70,1018.64
12.679,0.17,1.42,0.62,-7.80,3.79,-1.95,-0.67,-1.23,6.28,1018.64
12.701,0.17,1.42,0.62,-15.89,8.91,-1.92,-0.67,-1.23,6.28,1018.64
12.702,0.08,1.37,0.38,-15.89,8.91,-1.92,-0.67,-1.23,6.28,1018.64
12.703,-0.47,0.77,0.34,-15.89,8.91,-1.92,-0.67,-1.23,6.28,1018.64
12.727,1.36,0.40,-0.14,-15.89,8.91,-1.92,-0.67,-1.23,6.28,1018.64
12.727,1.36,0.40,-0.14,-15.89,8.91,-1.92,-0.67,-1.23,6.28,1018.25
12.751,1.36,0.74,0.58,-15.89,8.91,-1.92,-0.67,-1.23,6.28,1018.25
12.752,1.36,0.74,0.58,-15.89,8.91,-1.92,-0.03,-0.50,1.86,1018.25
12.767,-0.52,0.24,0.21,-15.89,8.91,-1.92,-0.03,-0.50,1.86,1018.25
12.767,-0.52,0.24,0.21,-15.89,8.91,-1.92,-0.03,-0.50,1.86,1018.63
12.768,-0.52,0.24,0.21,-7.35,5.83,4.06,-0.03,-0.50,1.86,1018.63
12.797,-0.67,0.22,-0.22,-7.35,5.83,4.06,-0.03,-0.50,1.86,1018.63
12.819,-0.67,0.22,-0.22,-7.35,5.83,4.06,-0.11,0.22,-3.05,1018.63
12.82,-0.30,0.24,-0.09,-7.35,5.83,4.06,-0.11,0.22,-3.05,1018.63
12.837,0.01,0.27,0.17,-7.35,5.83,4.06,-0.11,0.22,-3.05,1018.63
12.839,0.00,0.37,0.12,-7.35,5.83,4.06,-0.11,0.22,-3.05,1018.63
12.839,0.00,0.37,0.12,0.24,-3.60,1.24,-0.11,0.22,-3.05,1018.63
12.848,0.00,0.37,0.12,0.24,-3.60,1.24,-0.11,0.22,-3.05,1018.80
12.864,-0.16,0.56,-0.06,0.24,-3.60,1.24,-0.11,0.22,-3.05,1018.80
12.889,-0.16,0.56,-0.06,0.24,-3.60,1.24,0.26,0.11,-4.93,1018.80
12.89,-0.13,0.75,-0.12,0.24,-3.60,1.24,0.26,0.11,-4.93,1018.80
12.909,-0.02,0.94,-0.08,0.24,-3.60,1.24,0.26,0.11,-4.93,1018.80
12.909,-0.02,0.94,-0.08,-3.43,-6.15,-0.11,0.26,0.11,-4.93,1018.80
12.928,-0.01,1.10,-0.08,-3.43,-6.15,-0.11,0.26,0.11,-4.93,1018.80
12.928,-0.01,1.10,-0.08,-3.43,-6.15,-0.11,0.26,0.11,-4.93,1018.87
12.959,-0.05,1.24,-0.17,-3.43,-6.15,-0.11,0.26,0.11,-4.93,1018.87
12.96,-0.05,1.24,-0.17,-3.43,-6.15,-0.11,0.38,-0.11,-5.58,1018.87
12.967,-0.11,1.46,-0.25,-3.43,-6.15,-0.11,0.38,-0.11,-5.58,1018.87
12.968,-0.11,1.46,-0.25,-3.43,-6.15,-0.11,0.38,-0.11,-5.58,1018.92
12.98,-0.08,1.60,-0.23,-3.43,-6.15,-0.11,0.38,-0.11,-5.58,1018.92
12.981,-0.08,1.60,-0.23,0.90,-1.14,-0.77,0.38,-0.11,-5.58,1018.92
13.029,-0.08,1.60,-0.23,0.90,-1.14,-0.77,0.45,0.41,-5.10,1018.92
13.03,-0.05,1.79,-0.25,0.90,-1.14,-0.77,0.45,0.41,-5.10,1018.92
13.03,0.05,1.93,-0.25,0.90,-1.14,-0.77,0.45,0.41,-5.10,1018.92
13.047,0.27,1.89,-0.09,0.90,-1.14,-0.77,0.45,0.41,-5.10,1018.92
13.048,0.27,1.89,-0.09,0.90,-1.14,-0.77,0.45,0.41,-5.10,1019.00
13.05,0.27,1.89,-0.09,3.77,5.68,-1.45,0.45,0.41,-5.10,1019.00
13.06,0.74,1.74,0.01,3.77,5.68,-1.45,0.45,0.41,-5.10,1019.00
13.094,1.63,1.59,0.09,3.77,5.68,-1.45,0.45,0.41,-5.10,1019.00
13.099,1.63,1.59,0.09,3.77,5.68,-1.45,0.40,0.20,-2.64,1019.00
13.119,2.19,1.30,0.34,3.77,5.68,-1.45,0.40,0.20,-2.64,1019.00
13.12,-0.07,1.37,-0.04,3.77,5.68,-1.45,0.40,0.20,-2.64,1019.00
13.121,-0.07,1.37,-0.04,6.28,10.31,-1.06,0.40,0.20,-2.64,1019.00
13.127,-0.07,1.37,-0.04,6.28,10.31,-1.06,0.40,0.20,-2.64,1019.14
13.167,-0.07,1.37,-0.04,6.28,10.31,-1.06,0.40,0.20,-2.64,1019.25
13.168,0.63,1.00,-0.14,6.28,10.31,-1.06,0.40,0.20,-2.64,1019.25
13.168,-0.71,0.97,-0.19,6.28,10.31,-1.06,0.40,0.20,-2.64,1019.25
13.169,-0.71,0.97,-0.19,6.28,10.31,-1.06,-0.54,0.06,4.04,1019.25
13.19,0.66,1.38,-0.33,6.28,10.31,-1.06,-0.54,0.06,4.04,1019.25
13.191,0.66,1.38,-0.33,13.78,5.26,1.24,-0.54,0.06,4.04,1019.25
13.237,1.10,1.37,1.18,13.78,5.26,1.24,-0.54,0.06,4.04,1019.25
13.238,0.31,1.35,0.08,13.78,5.26,1.24,-0.54,0.06,4.04,1019.25
13.239,0.31,1.35,0.08,13.78,5.26,1.24,-0.53,0.81,1.76,1019.25
13.247,0.31,1.35,0.08,13.78,5.26,1.24,-0.53,0.81,1.76,1019.77
13.247,0.05,1.07,-0.92,13.78,5.26,1.24,-0.53,0.81,1.76,1019.77
13.26,-0.00,1.03,0.51,13.78,5.26,1.24,-0.53,0.81,1.76,1019.77
13.261,-0.00,1.03,0.51,4.73,2.11,-1.11,-0.53,0.81,1.76,1019.77
13.31,-0.00,1.03,0.51,4.73,2.11,-1.11,-0.20,0.13,0.40,1019.77
13.31,-0.06,1.02,-0.21,4.73,2.11,-1.11,-0.20,0.13,0.40,1019.77
13.311,-0.12,1.02,0.01,4.73,2.11,-1.11,-0.20,0.13,0.40,1019.77
13.328,-0.14,0.98,0.01,4.73,2.11,-1.11,-0.20,0.13,0.40,1019.77
13.328,-0.14,0.98,0.01,4.73,2.11,-1.11,-0.20,0.13,0.40,1019.28
13.329,-0.14,0.98,0.01,3.34,2.31,1.69,-0.20,0.13,0.40,1019.28
13.367,-0.14,0.98,0.01,3.34,2.31,1.69,-0.20,0.13,0.40,1019.04
13.368,-0.09,0.97,0.14,3.34,2.31,1.69,-0.20,0.13,0.40,1019.04
13.368,-0.12,0.99,0.02,3.34,2.31,1.69,-0.20,0.13,0.40,1019.04
13.379,-0.12,0.99,0.02,3.34,2.31,1.69,-0.07,0.05,0.27,1019.04
13.397,-0.11,0.99,0.02,3.34,2.31,1.69,-0.07,0.05,0.27,1019.04
13.402,-0.11,0.99,-0.02,3.34,2.31,1.69,-0.07,0.05,0.27,1019.04
13.403,-0.11,0.99,-0.02,-0.10,0.53,-0.31,-0.07,0.05,0.27,1019.04
13.438,-0.08,0.98,0.01,-0.10,0.53,-0.31,-0.07,0.05,0.27,1019.04
13.447,-0.09,0.98,0.04,-0.10,0.53,-0.31,-0.07,0.05,0.27,1019.04
13.447,-0.09,0.98,0.04,-0.10,0.53,-0.31,-0.07,0.05,0.27,1018.88
13.449,-0.09,0.98,0.04,-0.10,0.53,-0.31,-0.04,-0.02,0.19,1018.88
13.463,-0.07,0.97,0.04,-0.10,0.53,-0.31,-0.04,-0.02,0.19,1018.88
13.471,-0.07,0.97,0.04,-0.31,0.39,0.11,-0.04,-0.02,0.19,1018.88
13.519,-0.07,0.97,0.04,-0.31,0.39,0.11,0.00,-0.06,0.09,1018.88
13.519,-0.05,0.97,0.03,-0.31,0.39,0.11,0.00,-0.06,0.09,1018.88
13.52,-0.07,0.97,0.02,-0.31,0.39,0.11,0.00,-0.06,0.09,1018.88
13.527,-0.12,0.97,0.04,-0.31,0.39,0.11,0.00,-0.06,0.09,1018.88
13.527,-0.12,0.97,0.04,-0.31,0.39,0.11,0.00,-0.06,0.09,1018.86
13.54,-0.12,0.97,0.02,-0.31,0.39,0.11,0.00,-0.06,0.09,1018.86
13.541,-0.12,0.97,0.02,-0.04,0.26,0.21,0.00,-0.06,0.09,1018.86
13.568,-0.12,0.97,0.03,-0.04,0.26,0.21,0.00,-0.06,0.09,1018.86
13.568,-0.12,0.97,0.03,-0.04,0.26,0.21,0.00,-0.06,0.09,1018.93
13.59,-0.12,0.97,0.03,-0.04,0.26,0.21,0.03,-0.07,0.15,1018.93
13.591,-0.10,0.97,0.03,-0.04,0.26,0.21,0.03,-0.07,0.15,1018.93
13.609,-0.11,0.98,0.03,-0.04,0.26,0.21,0.03,-0.07,0.15,1018.93
13.61,-0.11,0.98,0.03,-0.32,0.19,0.22,0.03,-0.07,0.15,1018.93
13.648,-0.11,0.98,0.03,-0.32,0.19,0.22,0.03,-0.07,0.15,1018.97
13.649,-0.09,1.00,-0.01,-0.32,0.19,0.22,0.03,-0.07,0.15,1018.97
13.649,-0.10,1.01,-0.00,-0.32,0.19,0.22,0.03,-0.07,0.15,1018.97
13.663,-0.10,1.01,-0.00,-0.32,0.19,0.22,0.04,-0.08,0.25,1018.97
13.664,-0.11,1.02,0.02,-0.32,0.19,0.22,0.04,-0.08,0.25,1018.97
13.68,-0.15,1.01,0.04,-0.32,0.19,0.22,0.04,-0.08,0.25,1018.97
13.68,-0.15,1.01,0.04,-0.63,0.24,0.20,0.04,-0.08,0.25,1018.97
13.727,-0.15,1.01,0.04,-0.63,0.24,0.20,0.04,-0.08,0.25,1019.01
13.728,-0.14,1.03,-0.01,-0.63,0.24,0.20,0.04,-0.08,0.25,1019.01
13.728,-0.22,1.09,-0.08,-0.63,0.24,0.20,0.04,-0.08,0.25,1019.01
13.729,-0.22,1.09,-0.08,-0.63,0.24,0.20,0.07,-0.17,0.52,1019.01
13.75,-0.22,1.14,-0.11,-0.63,0.24,0.20,0.07,-0.17,0.52,1019.01
13.751,-0.22,1.14,-0.11,-1.14,0.55,0.12,0.07,-0.17,0.52,1019.01
13.77,-0.38,1.17,-0.07,-1.14,0.55,0.12,0.07,-0.17,0.52,1019.01
13.771,-0.38,1.17,-0.07,-1.14,0.55,0.12,0.07,-0.17,0.52,1019.05
13.79,-0.40,1.21,-0.09,-1.14,0.55,0.12,0.07,-0.17,0.52,1019.05
13.799,-0.40,1.21,-0.09,-1.14,0.55,0.12,-0.20,-0.27,1.55,1019.05
13.82,-0.43,1.30,-0.21,-1.14,0.55,0.12,-0.20,-0.27,1.55,1019.05
13.82,-0.58,1.37,-0.25,-1.14,0.55,0.12,-0.20,-0.27,1.55,1019.05
13.821,-0.58,1.37,-0.25,-3.42,1.46,-0.91,-0.20,-0.27,1.55,1019.05
13.847,-0.84,1.49,-0.38,-3.42,1.46,-0.91,-0.20,-0.27,1.55,1019.05
13.848,-0.84,1.49,-0.38,-3.42,1.46,-0.91,-0.20,-0.27,1.55,1018.91
13.864,-1.18,1.48,-0.25,-3.42,1.46,-0.91,-0.20,-0.27,1.55,1018.91
13.869,-1.18,1.48,-0.25,-3.42,1.46,-0.91,-0.84,-0.63,3.95,1018.91
13.889,-0.73,1.46,0.27,-3.42,1.46,-0.91,-0.84,-0.63,3.95,1018.91
13.89,-0.73,1.46,0.27,-8.72,4.20,-2.19,-0.84,-0.63,3.95,1018.91
13.927,-0.73,1.46,0.27,-8.72,4.20,-2.19,-0.84,-0.63,3.95,1018.53
13.928,-0.06,1.56,0.46,-8.72,4.20,-2.19,-0.84,-0.63,3.95,1018.53
13.928,0.11,1.42,0.65,-8.72,4.20,-2.19,-0.84,-0.63,3.95,1018.53
13.939,0.11,1.42,0.65,-8.72,4.20,-2.19,-0.47,-0.97,6.04,1018.53
13.96,-0.20,1.36,0.45,-8.72,4.20,-2.19,-0.47,-0.97,6.04,1018.53
13.961,-0.28,0.41,0.29,-8.72,4.20,-2.19,-0.47,-0.97,6.04,1018.53
13.961,-0.28,0.41,0.29,-14.85,8.45,-0.81,-0.47,-0.97,6.04,1018.53
13.967,-0.28,0.41,0.29,-14.85,8.45,-0.81,-0.47,-0.97,6.04,1018.39
13.996,2.24,1.05,0.25,-14.85,8.45,-0.81,-0.47,-0.97,6.04,1018.39
14.01,2.24,1.05,0.25,-14.85,8.45,-0.81,0.14,-0.13,1.10,1018.39
14.01,-0.02,0.41,0.25,-14.85,8.45,-0.81,0.14,-0.13,1.10,1018.39
14.029,-0.77,0.28,0.09,-14.85,8.45,-0.81,0.14,-0.13,1.10,1018.39
14.03,-0.77,0.28,0.09,-7.42,4.48,4.26,0.14,-0.13,1.10,1018.39
14.047,-0.77,0.28,0.09,-7.42,4.48,4.26,0.14,-0.13,1.10,1018.68
14.047,-0.44,0.26,-0.08,-7.42,4.48,4.26,0.14,-0.13,1.10,1018.68
14.064,0.02,0.28,0.08,-7.42,4.48,4.26,0.14,-0.13,1.10,1018.68
14.079,0.02,0.28,0.08,-7.42,4.48,4.26,0.20,0.53,-2.44,1018.68
14.094,0.06,0.32,0.09,-7.42,4.48,4.26,0.20,0.53,-2.44,1018.68
14.1,-0.14,0.39,0.04,-7.42,4.48,4.26,0.20,0.53,-2.44,1018.68
14.101,-0.14,0.39,0.04,-1.50,-2.63,1.00,0.20,0.53,-2.44,1018.68
14.127,-0.20,0.51,0.03,-1.50,-2.63,1.00,0.20,0.53,-2.44,1018.68
14.128,-0.20,0.51,0.03,-1.50,-2.63,1.00,0.20,0.53,-2.44,1018.81
14.15,-0.20,0.51,0.03,-1.50,-2.63,1.00,0.62,0.27,-4.67,1018.81
14.151,-0.13,0.70,0.02,-1.50,-2.63,1.00,0.62,0.27,-4.67,1018.81
14.167,-0.04,0.87,0.01,-1.50,-2.63,1.00,0.62,0.27,-4.67,1018.81
14.168,-0.04,0.87,0.01,-1.50,-2.63,1.00,0.62,0.27,-4.67,1018.87
14.172,-0.04,0.87,0.01,-2.34,-5.72,0.37,0.62,0.27,-4.67,1018.87
14.196,0.00,1.02,0.04,-2.34,-5.72,0.37,0.62,0.27,-4.67,1018.87
14.22,0.00,1.02,0.04,-2.34,-5.72,0.37,0.56,0.45,-5.43,1018.87
14.221,-0.03,1.15,-0.03,-2.34,-5.72,0.37,0.56,0.45,-5.43,1018.87
14.24,-0.03,1.15,-0.03,0.65,-1.71,0.35,0.56,0.45,-5.43,1018.87
14.241,-0.16,1.35,-0.05,0.65,-1.71,0.35,0.56,0.45,-5.43,1018.87
14.242,-0.24,1.55,-0.00,0.65,-1.71,0.35,0.56,0.45,-5.43,1018.87
14.248,-0.24,1.55,-0.00,0.65,-1.71,0.35,0.56,0.45,-5.43,1018.82
14.264,-0.25,1.78,0.02,0.65,-1.71,0.35,0.56,0.45,-5.43,1018.82
14.29,-0.25,1.78,0.02,0.65,-1.71,0.35,0.47,1.12,-4.72,1018.82
14.291,-0.12,2.04,0.04,0.65,-1.71,0.35,0.47,1.12,-4.72,1018.82
14.31,0.37,2.22,0.11,0.65,-1.71,0.35,0.47,1.12,-4.72,1018.82
14.31,0.37,2.22,0.11,2.87,4.69,0.49,0.47,1.12,-4.72,1018.82
14.323,1.35,2.02,0.34,2.87,4.69,0.49,0.47,1.12,-4.72,1018.82
14.327,1.35,2.02,0.34,2.87,4.69,0.49,0.47,1.12,-4.72,1018.87
14.359,1.35,2.02,0.34,2.87,4.69,0.49,0.43,0.47,-2.70,1018.87
14.36,2.40,1.59,0.46,2.87,4.69,0.49,0.43,0.47,-2.70,1018.87
14.368,2.68,1.34,0.34,2.87,4.69,0.49,0.43,0.47,-2.70,1018.87
14.368,2.68,1.34,0.34,2.87,4.69,0.49,0.43,0.47,-2.70,1019.17
14.379,0.06,1.42,0.08,2.87,4.69,0.49,0.43,0.47,-2.70,1019.17
14.38,0.06,1.42,0.08,6.23,12.01,1.65,0.43,0.47,-2.70,1019.17
14.43,0.06,1.42,0.08,6.23,12.01,1.65,-0.84,0.94,3.42,1019.17
14.431,0.10,0.65,-0.50,6.23,12.01,1.65,-0.84,0.94,3.42,1019.17
14.432,-0.22,0.97,-0.10,6.23,12.01,1.65,-0.84,0.94,3.42,1019.17
14.447,-0.43,1.05,0.25,6.23,12.01,1.65,-0.84,0.94,3.42,1019.17
14.448,-0.43,1.05,0.25,6.23,12.01,1.65,-0.84,0.94,3.42,1019.27
14.449,-0.43,1.05,0.25,18.56,5.80,3.57,-0.84,0.94,3.42,1019.27
14.463,1.30,1.32,-0.31,18.56,5.80,3.57,-0.84,0.94,3.42,1019.27
14.499,1.30,1.32,-0.31,18.56,5.80,3.57,-0.51,0.83,1.67,1019.27
14.5,0.87,1.54,1.02,18.56,5.80,3.57,-0.51,0.83,1.67,1019.27
14.521,0.87,1.54,1.02,1.74,0.45,-1.80,-0.51,0.83,1.67,1019.27
14.521,-0.34,1.02,-1.13,1.74,0.45,-1.80,-0.51,0.83,1.67,1019.27
14.522,0.07,1.07,-0.01,1.74,0.45,-1.80,-0.51,0.83,1.67,1019.27
14.527,0.07,1.07,-0.01,1.74,0.45,-1.80,-0.51,0.83,1.67,1019.84
14.567,0.07,1.07,-0.01,1.74,0.45,-1.80,-0.51,0.83,1.67,1019.21
14.568,-0.21,0.97,0.02,1.74,0.45,-1.80,-0.51,0.83,1.67,1019.21
14.568,-0.26,0.95,0.17,1.74,0.45,-1.80,-0.51,0.83,1.67,1019.21
14.571,-0.26,0.95,0.17,1.74,0.45,-1.80,-0.46,0.02,0.26,1019.21
14.589,-0.13,0.96,0.02,1.74,0.45,-1.80,-0.46,0.02,0.26,1019.21
14.59,-0.13,0.96,0.02,4.62,2.57,0.02,-0.46,0.02,0.26,1019.21
14.638,-0.06,0.95,0.16,4.62,2.57,0.02,-0.46,0.02,0.26,1019.21
14.638,-0.07,0.99,-0.00,4.62,2.57,0.02,-0.46,0.02,0.26,1019.21
14.64,-0.07,0.99,-0.00,4.62,2.57,0.02,-0.09,0.06,0.24,1019.21
14.647,-0.07,0.99,-0.00,4.62,2.57,0.02,-0.09,0.06,0.24,1019.06
14.647,-0.10,1.02,-0.06,4.62,2.57,0.02,-0.09,0.06,0.24,1019.06
14.66,-0.12,1.00,-0.03,4.62,2.57,0.02,-0.09,0.06,0.24,1019.06
14.661,-0.12,1.00,-0.03,-0.78,0.16,0.86,-0.09,0.06,0.24,1019.06
14.71,-0.12,1.00,-0.03,-0.78,0.16,0.86,-0.07,-0.03,0.14,1019.06
14.711,-0.14,0.98,0.03,-0.78,0.16,0.86,-0.07,-0.03,0.14,1019.06
14.712,-0.14,0.98,0.05,-0.78,0.16,0.86,-0.07,-0.03,0.14,1019.06
14.727,-0.14,0.97,0.05,-0.78,0.16,0.86,-0.07,-0.03,0.14,1019.06
14.727,-0.14,0.97,0.05,-0.78,0.16,0.86,-0.07,-0.03,0.14,1018.98
14.73,-0.14,0.97,0.05,0.07,0.51,-0.08,-0.07,-0.03,0.14,1018.98
14.767,-0.14,0.97,0.05,0.07,0.51,-0.08,-0.07,-0.03,0.14,1018.95
14.767,-0.12,0.98,-0.01,0.07,0.51,-0.08,-0.07,-0.03,0.14,1018.95
14.768,-0.13,0.99,0.00,0.07,0.51,-0.08,-0.07,-0.03,0.14,1018.95
14.78,-0.13,0.99,0.00,0.07,0.51,-0.08,0.03,-0.03,0.20,1018.95
14.796,-0.14,0.98,0.01,0.07,0.51,-0.08,0.03,-0.03,0.20,1018.95
14.8,-0.11,0.96,0.03,0.07,0.51,-0.08,0.03,-0.03,0.20,1018.95
14.801,-0.11,0.96,0.03,-0.55,0.33,0.39,0.03,-0.03,0.20,1018.95
14.838,-0.11,0.97,0.03,-0.55,0.33,0.39,0.03,-0.03,0.20,1018.95
14.847,-0.10,0.98,0.03,-0.55,0.33,0.39,0.03,-0.03,0.20,1018.95
14.848,-0.10,0.98,0.03,-0.55,0.33,0.39,0.03,-0.03,0.20,1018.95
14.849,-0.10,0.98,0.03,-0.55,0.33,0.39,0.08,-0.04,0.25,1018.95
14.864,-0.09,0.98,0.01,-0.55,0.33,0.39,0.08,-0.04,0.25,1018.95
14.871,-0.09,0.98,0.01,-0.56,0.31,0.17,0.08,-0.04,0.25,1018.95
14.921,-0.09,0.98,0.01,-0.56,0.31,0.17,0.13,-0.06,0.27,1018.95
14.921,-0.08,0.99,-0.00,-0.56,0.31,0.17,0.13,-0.06,0.27,1018.95
14.922,-0.08,0.98,0.01,-0.56,0.31,0.17,0.13,-0.06,0.27,1018.95
14.927,-0.09,0.98,0.00,-0.56,0.31,0.17,0.13,-0.06,0.27,1018.95
14.927,-0.09,0.98,0.00,-0.56,0.31,0.17,0.13,-0.06,0.27,1019.02
14.94,-0.09,0.98,0.00,-0.46,0.27,0.36,0.13,-0.06,0.27,1019.02
14.941,-0.12,0.99,0.02,-0.46,0.27,0.36,0.13,-0.06,0.27,1019.02
14.967,-0.14,1.01,-0.00,-0.46,0.27,0.36,0.13,-0.06,0.27,1019.02
14.967,-0.14,1.01,-0.00,-0.46,0.27,0.36,0.13,-0.06,0.27,1019.07
14.99,-0.15,1.03,-0.04,-0.46,0.27,0.36,0.13,-0.06,0.27,1019.07
14.991,-0.15,1.03,-0.04,-0.46,0.27,0.36,0.19,-0.05,0.45,1019.07
15.01,-0.21,1.04,-0.01,-0.46,0.27,0.36,0.19,-0.05,0.45,1019.07
15.011,-0.21,1.04,-0.01,-0.83,0.34,0.34,0.19,-0.05,0.45,1019.07
15.047,-0.21,1.04,-0.01,-0.83,0.34,0.34,0.19,-0.05,0.45,1019.10
15.048,-0.21,1.09,-0.08,-0.83,0.34,0.34,0.19,-0.05,0.45,1019.10
15.048,-0.25,1.13,-0.09,-0.83,0.34,0.34,0.19,-0.05,0.45,1019.10
15.06,-0.25,1.13,-0.09,-0.83,0.34,0.34,0.14,0.04,1.16,1019.10
15.063,-0.30,1.18,-0.10,-0.83,0.34,0.34,0.14,0.04,1.16,1019.10
15.08,-0.37,1.28,-0.15,-0.83,0.34,0.34,0.14,0.04,1.16,1019.10
15.081,-0.37,1.28,-0.15,-2.53,0.85,0.09,0.14,0.04,1.16,1019.10
15.127,-0.37,1.28,-0.15,-2.53,0.85,0.09,0.14,0.04,1.16,1019.04
15.128,-0.47,1.37,-0.16,-2.53,0.85,0.09,0.14,0.04,1.16,1019.04
15.128,-0.67,1.43,-0.17,-2.53,0.85,0.09,0.14,0.04,1.16,1019.04
15.13,-0.67,1.43,-0.17,-2.53,0.85,0.09,0.00,0.02,2.75,1019.04
15.15,-0.88,1.45,-0.13,-2.53,0.85,0.09,0.00,0.02,2.75,1019.04
15.15,-0.88,1.45,-0.13,-5.81,2.71,-0.75,0.00,0.02,2.75,1019.04
15.167,-0.94,1.39,0.07,-5.81,2.71,-0.75,0.00,0.02,2.75,1019.04
15.167,-0.94,1.39,0.07,-5.81,2.71,-0.75,0.00,0.02,2.75,1018.66
15.196,-0.42,1.40,0.22,-5.81,2.71,-0.75,0.00,0.02,2.75,1018.66
15.199,-0.42,1.40,0.22,-5.81,2.71,-0.75,-0.02,-0.57,5.55,1018.66
15.221,-0.42,1.40,0.22,-12.96,6.83,-0.54,-0.02,-0.57,5.55,1018.66
15.222,0.18,1.39,0.41,-12.96,6.83,-0.54,-0.02,-0.57,5.55,1018.66
15.222,0.29,1.16,0.52,-12.96,6.83,-0.54,-0.02,-0.57,5.55,1018.66
15.247,-0.07,0.90,0.35,-12.96,6.83,-0.54,-0.02,-0.57,5.55,1018.66
15.248,-0.07,0.90,0.35,-12.96,6.83,-0.54,-0.02,-0.57,5.55,1018.31
15.263,0.89,0.45,0.22,-12.96,6.83,-0.54,-0.02,-0.57,5.55,1018.31
15.269,0.89,0.45,0.22,-12.96,6.83,-0.54,1.12,0.36,4.46,1018.31
15.29,2.11,1.12,-0.08,-12.96,6.83,-0.54,1.12,0.36,4.46,1018.31
15.291,2.11,1.12,-0.08,-8.14,6.90,3.98,1.12,0.36,4.46,1018.31
15.327,2.11,1.12,-0.08,-8.14,6.90,3.98,1.12,0.36,4.46,1018.57
15.327,-0.47,0.30,0.28,-8.14,6.90,3.98,1.12,0.36,4.46,1018.57
15.328,-0.65,0.25,0.07,-8.14,6.90,3.98,1.12,0.36,4.46,1018.57
15.34,-0.65,0.25,0.07,-8.14,6.90,3.98,0.84,1.72,-2.18,1018.57
15.36,-0.65,0.25,0.07,1.79,0.22,2.12,0.84,1.72,-2.18,1018.57
15.361,-0.41,0.32,0.08,1.79,0.22,2.12,0.84,1.72,-2.18,1018.57
15.361,0.12,0.41,0.18,1.79,0.22,2.12,0.84,1.72,-2.18,1018.57
15.367,0.12,0.41,0.18,1.79,0.22,2.12,0.84,1.72,-2.18,1018.77
15.397,0.04,0.42,0.25,1.79,0.22,2.12,0.84,1.72,-2.18,1018.77
15.41,0.04,0.42,0.25,1.79,0.22,2.12,1.17,1.48,-3.91,1018.77
15.41,-0.07,0.48,0.27,1.79,0.22,2.12,1.17,1.48,-3.91,1018.77
15.43,-0.02,0.62,0.23,1.79,0.22,2.12,1.17,1.48,-3.91,1018.77
15.43,-0.02,0.62,0.23,-6.74,-5.34,1.62,1.17,1.48,-3.91,1018.77
15.447,-0.05,0.77,0.25,-6.74,-5.34,1.62,1.17,1.48,-3.91,1018.77
15.448,-0.05,0.77,0.25,-6.74,-5.34,1.62,1.17,1.48,-3.91,1018.88
15.463,-0.02,0.92,0.31,-6.74,-5.34,1.62,1.17,1.48,-3.91,1018.88
15.481,-0.02,0.92,0.31,-6.74,-5.34,1.62,1.33,1.57,-4.95,1018.88
15.501,-0.02,0.92,0.31,-0.47,-3.74,3.33,1.33,1.57,-4.95,1018.88
15.501,-0.00,1.11,0.31,-0.47,-3.74,3.33,1.33,1.57,-4.95,1018.88
15.502,-0.05,1.34,0.30,-0.47,-3.74,3.33,1.33,1.57,-4.95,1018.88
15.527,-0.08,1.50,0.34,-0.47,-3.74,3.33,1.33,1.57,-4.95,1018.88
15.528,-0.08,1.50,0.34,-0.47,-3.74,3.33,1.33,1.57,-4.95,1018.93
15.55,-0.08,1.50,0.34,-0.47,-3.74,3.33,0.56,1.86,-4.81,1018.93
15.551,-0.12,1.61,0.37,-0.47,-3.74,3.33,0.56,1.86,-4.81,1018.93
15.567,-0.09,1.69,0.38,-0.47,-3.74,3.33,0.56,1.86,-4.81,1018.93
15.567,-0.09,1.69,0.38,-0.47,-3.74,3.33,0.56,1.86,-4.81,1018.87
15.57,-0.09,1.69,0.38,2.16,1.90,4.10,0.56,1.86,-4.81,1018.87
15.594,-0.02,1.74,0.24,2.16,1.90,4.10,0.56,1.86,-4.81,1018.87
15.621,-0.02,1.74,0.24,2.16,1.90,4.10,-0.45,1.53,-3.89,1018.87
15.622,0.04,1.77,0.13,2.16,1.90,4.10,-0.45,1.53,-3.89,1018.87
15.623,0.42,1.63,0.45,2.16,1.90,4.10,-0.45,1.53,-3.89,1018.87
15.643,0.82,1.40,0.41,2.16,1.90,4.10,-0.45,1.53,-3.89,1018.87
15.643,0.82,1.40,0.41,3.41,7.82,4.55,-0.45,1.53,-3.89,1018.87
15.647,0.82,1.40,0.41,3.41,7.82,4.55,-0.45,1.53,-3.89,1018.86
15.663,1.24,1.30,0.27,3.41,7.82,4.55,-0.45,1.53,-3.89,1018.86
15.693,1.24,1.30,0.27,3.41,7.82,4.55,-0.36,0.09,-1.87,1018.86
15.694,1.45,1.09,0.25,3.41,7.82,4.55,-0.36,0.09,-1.87,1018.86
15.71,0.91,1.04,0.06,3.41,7.82,4.55,-0.36,0.09,-1.87,1018.86
15.711,0.91,1.04,0.06,8.13,7.97,3.75,-0.36,0.09,-1.87,1018.86
15.727,0.72,1.12,-0.14,8.13,7.97,3.75,-0.36,0.09,-1.87,1018.86
15.727,0.72,1.12,-0.14,8.13,7.97,3.75,-0.36,0.09,-1.87,1018.93
15.761,0.72,1.12,-0.14,8.13,7.97,3.75,-0.82,1.40,2.63,1018.93
15.761,-0.59,1.43,-0.02,8.13,7.97,3.75,-0.82,1.40,2.63,1018.93
15.767,-0.24,1.08,-1.43,8.13,7.97,3.75,-0.82,1.40,2.63,1018.93
15.767,-0.24,1.08,-1.43,8.13,7.97,3.75,-0.82,1.40,2.63,1019.32
15.781,-0.67,0.94,-0.07,8.13,7.97,3.75,-0.82,1.40,2.63,1019.32
15.781,-0.67,0.94,-0.07,13.30,2.22,1.92,-0.82,1.40,2.63,1019.32
15.83,-0.67,0.94,-0.07,13.30,2.22,1.92,-0.96,0.94,2.05,1019.32
15.831,1.19,1.28,0.06,13.30,2.22,1.92,-0.96,0.94,2.05,1019.32
15.832,1.24,1.73,0.67,13.30,2.22,1.92,-0.96,0.94,2.05,1019.32
15.847,-0.56,0.98,-0.93,13.30,2.22,1.92,-0.96,0.94,2.05,1019.32
15.848,-0.56,0.98,-0.93,13.30,2.22,1.92,-0.96,0.94,2.05,1019.81
15.85,-0.56,0.98,-0.93,-1.55,2.20,-4.29,-0.96,0.94,2.05,1019.81
15.864,-0.01,1.00,0.10,-1.55,2.20,-4.29,-0.96,0.94,2.05,1019.81
15.901,-0.17,0.92,0.15,-1.55,2.20,-4.29,-0.96,0.94,2.05,1019.81
15.901,-0.17,0.92,0.15,-1.55,2.20,-4.29,-0.58,0.08,0.36,1019.81
15.92,-0.15,0.94,0.17,-1.55,2.20,-4.29,-0.58,0.08,0.36,1019.81
15.921,-0.14,0.95,0.07,-1.55,2.20,-4.29,-0.58,0.08,0.36,1019.81
15.922,-0.14,0.95,0.07,6.64,3.52,-0.62,-0.58,0.08,0.36,1019.81
15.928,-0.14,0.95,0.07,6.64,3.52,-0.62,-0.58,0.08,0.36,1019.18
15.967,-0.14,0.95,0.07,6.64,3.52,-0.62,-0.58,0.08,0.36,1019.09
15.967,-0.06,0.98,0.06,6.64,3.52,-0.62,-0.58,0.08,0.36,1019.09
15.968,-0.09,1.04,-0.10,6.64,3.52,-0.62,-0.58,0.08,0.36,1019.09
15.97,-0.09,1.04,-0.10,6.64,3.52,-0.62,-0.15,0.07,0.24,1019.09
15.993,-0.15,1.02,-0.09,6.64,3.52,-0.62,-0.15,0.07,0.24,1019.09
15.994,-0.15,1.02,-0.09,-0.37,-0.03,1.16,-0.15,0.07,0.24,1019.09
16.037,-0.15,0.97,0.06,-0.37,-0.03,1.16,-0.15,0.07,0.24,1019.09
16.038,-0.18,0.97,0.08,-0.37,-0.03,1.16,-0.15,0.07,0.24,1019.09
16.042,-0.18,0.97,0.08,-0.37,-0.03,1.16,-0.14,-0.03,0.19,1019.09
16.047,-0.17,0.98,0.07,-0.37,-0.03,1.16,-0.14,-0.03,0.19,1019.09
16.048,-0.17,0.98,0.07,-0.37,-0.03,1.16,-0.14,-0.03,0.19,1018.93
16.06,-0.13,0.98,0.02,-0.37,-0.03,1.16,-0.14,-0.03,0.19,1018.93
16.061,-0.13,0.98,0.02,-0.06,0.68,-0.52,-0.14,-0.03,0.19,1018.93
16.093,-0.14,0.99,0.01,-0.06,0.68,-0.52,-0.14,-0.03,0.19,1018.93
16.111,-0.14,0.99,0.01,-0.06,0.68,-0.52,-0.01,-0.03,0.31,1018.93
16.112,-0.13,0.99,0.01,-0.06,0.68,-0.52,-0.01,-0.03,0.31,1018.93
16.128,-0.09,0.98,0.02,-0.06,0.68,-0.52,-0.01,-0.03,0.31,1018.93
16.128,-0.09,0.98,0.02,-0.06,0.68,-0.52,-0.01,-0.03,0.31,1018.89
16.131,-0.09,0.98,0.02,-0.74,0.32,0.31,-0.01,-0.03,0.31,1018.89
16.167,-0.09,0.98,0.02,-0.74,0.32,0.31,-0.01,-0.03,0.31,1018.91
16.167,-0.09,0.97,0.04,-0.74,0.32,0.31,-0.01,-0.03,0.31,1018.91
16.168,-0.07,0.97,0.04,-0.74,0.32,0.31,-0.01,-0.03,0.31,1018.91
16.18,-0.07,0.97,0.04,-0.74,0.32,0.31,0.03,-0.08,0.30,1018.91
16.196,-0.09,0.97,0.04,-0.74,0.32,0.31,0.03,-0.08,0.30,1018.91
16.2,-0.09,0.97,0.04,-0.50,0.38,-0.04,0.03,-0.08,0.30,1018.91
16.201,-0.06,0.98,0.02,-0.50,0.38,-0.04,0.03,-0.08,0.30,1018.91
16.238,-0.07,0.97,0.04,-0.50,0.38,-0.04,0.03,-0.08,0.30,1018.91
16.247,-0.08,0.96,0.07,-0.50,0.38,-0.04,0.03,-0.08,0.30,1018.91
16.247,-0.08,0.96,0.07,-0.50,0.38,-0.04,0.03,-0.08,0.30,1019.01
16.25,-0.08,0.96,0.07,-0.50,0.38,-0.04,0.09,-0.07,0.29,1019.01
16.263,-0.08,0.97,0.04,-0.50,0.38,-0.04,0.09,-0.07,0.29,1019.01
16.271,-0.08,0.97,0.04,-0.29,0.25,0.22,0.09,-0.07,0.29,1019.01
16.321,-0.08,0.97,0.04,-0.29,0.25,0.22,0.15,-0.04,0.42,1019.01
16.322,-0.08,1.01,-0.01,-0.29,0.25,0.22,0.15,-0.04,0.42,1019.01
16.322,-0.12,1.02,-0.02,-0.29,0.25,0.22,0.15,-0.04,0.42,1019.01
16.327,-0.12,1.03,-0.03,-0.29,0.25,0.22,0.15,-0.04,0.42,1019.01
16.328,-0.12,1.03,-0.03,-0.29,0.25,0.22,0.15,-0.04,0.42,1019.11
16.344,-0.15,1.04,0.00,-0.29,0.25,0.22,0.15,-0.04,0.42,1019.11
16.345,-0.15,1.04,0.00,-0.66,0.22,0.36,0.15,-0.04,0.42,1019.11
16.367,-0.18,1.07,-0.04,-0.66,0.22,0.36,0.15,-0.04,0.42,1019.11
16.367,-0.18,1.07,-0.04,-0.66,0.22,0.36,0.15,-0.04,0.42,1019.11
16.391,-0.18,1.07,-0.04,-0.66,0.22,0.36,0.11,-0.02,0.94,1019.11
16.391,-0.24,1.10,-0.06,-0.66,0.22,0.36,0.11,-0.02,0.94,1019.11
16.41,-0.27,1.13,-0.03,-0.66,0.22,0.36,0.11,-0.02,0.94,1019.11
16.411,-0.27,1.13,-0.03,-1.87,0.80,-0.17,0.11,-0.02,0.94,1019.11
16.437,-0.30,1.18,-0.04,-1.87,0.80,-0.17,0.11,-0.02,0.94,1019.11
16.447,-0.37,1.29,-0.12,-1.87,0.80,-0.17,0.11,-0.02,0.94,1019.11
16.447,-0.37,1.29,-0.12,-1.87,0.80,-0.17,0.11,-0.02,0.94,1019.11
16.462,-0.37,1.29,-0.12,-1.87,0.80,-0.17,0.06,0.03,2.21,1019.11
16.463,-0.53,1.39,-0.16,-1.87,0.80,-0.17,0.06,0.03,2.21,1019.11
16.48,-0.53,1.39,-0.16,-4.73,1.90,-0.35,0.06,0.03,2.21,1019.11
16.481,-0.78,1.44,-0.15,-4.73,1.90,-0.35,0.06,0.03,2.21,1019.11
16.529,-0.78,1.44,-0.15,-4.73,1.90,-0.35,0.06,0.03,2.21,1018.81
16.529,-0.86,1.46,0.02,-4.73,1.90,-0.35,0.06,0.03,2.21,1018.81
16.529,-0.67,1.42,0.25,-4.73,1.90,-0.35,0.06,0.03,2.21,1018.81
16.53,-0.67,1.42,0.25,-4.73,1.90,-0.35,-0.13,-0.36,4.87,1018.81
16.552,0.02,1.50,0.44,-4.73,1.90,-0.35,-0.13,-0.36,4.87,1018.81
16.554,0.02,1.50,0.44,-10.58,5.69,-1.08,-0.13,-0.36,4.87,1018.81
16.567,0.20,1.40,0.48,-10.58,5.69,-1.08,-0.13,-0.36,4.87,1018.81
16.567,0.20,1.40,0.48,-10.58,5.69,-1.08,-0.13,-0.36,4.87,1018.27
16.594,0.14,1.28,0.38,-10.58,5.69,-1.08,-0.13,-0.36,4.87,1018.27
16.601,0.14,1.28,0.38,-10.58,5.69,-1.08,0.77,-0.34,5.50,1018.27
16.621,0.14,1.28,0.38,-11.03,8.27,3.06,0.77,-0.34,5.50,1018.27
16.622,0.24,0.39,0.22,-11.03,8.27,3.06,0.77,-0.34,5.50,1018.27
16.623,2.80,1.33,-0.09,-11.03,8.27,3.06,0.77,-0.34,5.50,1018.27
16.647,-0.32,0.42,0.33,-11.03,8.27,3.06,0.77,-0.34,5.50,1018.27
16.647,-0.32,0.42,0.33,-11.03,8.27,3.06,0.77,-0.34,5.50,1018.56
16.664,-0.68,0.39,0.01,-11.03,8.27,3.06,0.77,-0.34,5.50,1018.56
16.67,-0.68,0.39,0.01,-11.03,8.27,3.06,0.46,1.36,-1.78,1018.56
16.691,-0.17,0.38,-0.07,-11.03,8.27,3.06,0.46,1.36,-1.78,1018.56
16.692,-0.17,0.38,-0.07,3.31,3.13,1.96,0.46,1.36,-1.78,1018.56
16.728,0.11,0.29,0.20,3.31,3.13,1.96,0.46,1.36,-1.78,1018.56
16.728,-0.03,0.20,0.27,3.31,3.13,1.96,0.46,1.36,-1.78,1018.56
16.728,-0.03,0.20,0.27,3.31,3.13,1.96,0.46,1.36,-1.78,1018.79
16.742,-0.03,0.20,0.27,3.31,3.13,1.96,0.40,1.50,-3.63,1018.79
16.766,-0.03,0.20,0.27,-6.64,-4.70,0.68,0.40,1.50,-3.63,1018.79
16.767,-0.18,0.27,0.21,-6.64,-4.70,0.68,0.40,1.50,-3.63,1018.79
16.767,-0.24,0.39,0.18,-6.64,-4.70,0.68,0.40,1.50,-3.63,1018.79
16.767,-0.24,0.39,0.18,-6.64,-4.70,0.68,0.40,1.50,-3.63,1018.90
16.797,-0.18,0.57,0.16,-6.64,-4.70,0.68,0.40,1.50,-3.63,1018.90
16.812,-0.18,0.57,0.16,-6.64,-4.70,0.68,0.87,0.56,-4.36,1018.90
16.813,-0.02,0.76,0.21,-6.64,-4.70,0.68,0.87,0.56,-4.36,1018.90
16.83,0.08,0.89,0.23,-6.64,-4.70,0.68,0.87,0.56,-4.36,1018.90
16.831,0.08,0.89,0.23,-1.81,-6.28,2.31,0.87,0.56,-4.36,1018.90
16.848,0.04,1.09,0.09,-1.81,-6.28,2.31,0.87,0.56,-4.36,1018.90
16.848,0.04,1.09,0.09,-1.81,-6.28,2.31,0.87,0.56,-4.36,1018.92
16.866,-0.10,1.25,0.04,-1.81,-6.28,2.31,0.87,0.56,-4.36,1018.92
16.88,-0.10,1.25,0.04,-1.81,-6.28,2.31,0.34,0.91,-4.27,1018.92
16.901,-0.10,1.25,0.04,1.50,-1.23,2.00,0.34,0.91,-4.27,1018.92
16.901,-0.12,1.38,0.03,1.50,-1.23,2.00,0.34,0.91,-4.27,1018.92
16.901,-0.06,1.42,0.05,1.50,-1.23,2.00,0.34,0.91,-4.27,1018.92
16.927,0.02,1.50,0.07,1.50,-1.23,2.00,0.34,0.91,-4.27,1018.92
16.927,0.02,1.50,0.07,1.50,-1.23,2.00,0.34,0.91,-4.27,1018.77
16.951,0.33,1.64,0.04,1.50,-1.23,2.00,0.34,0.91,-4.27,1018.77
16.952,0.33,1.64,0.04,1.50,-1.23,2.00,-0.26,1.39,-3.32,1018.77
16.967,0.58,1.65,0.05,1.50,-1.23,2.00,-0.26,1.39,-3.32,1018.77
16.968,0.58,1.65,0.05,1.50,-1.23,2.00,-0.26,1.39,-3.32,1018.77
16.97,0.58,1.65,0.05,2.87,4.63,0.80,-0.26,1.39,-3.32,1018.77
16.981,0.74,1.66,0.13,2.87,4.63,0.80,-0.26,1.39,-3.32,1018.77
17.021,0.74,1.66,0.13,2.87,4.63,0.80,0.36,1.33,-2.75,1018.77
17.021,1.02,1.52,0.29,2.87,4.63,0.80,0.36,1.33,-2.75,1018.77
17.037,1.34,1.43,0.31,2.87,4.63,0.80,0.36,1.33,-2.75,1018.77
17.041,1.84,1.34,0.23,2.87,4.63,0.80,0.36,1.33,-2.75,1018.77
17.041,1.84,1.34,0.23,8.18,7.87,1.34,0.36,1.33,-2.75,1018.77
17.047,1.84,1.34,0.23,8.18,7.87,1.34,0.36,1.33,-2.75,1019.02
17.063,-0.12,1.91,0.08,8.18,7.87,1.34,0.36,1.33,-2.75,1019.02
17.09,-0.12,1.91,0.08,8.18,7.87,1.34,-0.55,0.46,1.84,1019.02
17.091,-0.90,0.50,-0.46,8.18,7.87,1.34,-0.55,0.46,1.84,1019.02
17.114,-1.34,0.64,-0.13,8.18,7.87,1.34,-0.55,0.46,1.84,1019.02
17.115,-1.34,0.64,-0.13,15.24,5.49,2.94,-0.55,0.46,1.84,1019.02
17.13,1.28,1.44,-0.18,15.24,5.49,2.94,-0.55,0.46,1.84,1019.02
17.13,1.28,1.44,-0.18,15.24,5.49,2.94,-0.55,0.46,1.84,1019.47
17.167,1.26,1.33,1.25,15.24,5.49,2.94,-0.55,0.46,1.84,1019.47
17.168,1.26,1.33,1.25,15.24,5.49,2.94,-0.68,0.79,2.39,1019.47
17.168,0.12,1.41,-1.08,15.24,5.49,2.94,-0.68,0.79,2.39,1019.47
17.169,0.12,1.41,-1.08,15.24,5.49,2.94,-0.68,0.79,2.39,1019.78
17.184,0.08,1.08,-0.21,15.24,5.49,2.94,-0.68,0.79,2.39,1019.78
17.185,0.08,1.08,-0.21,-3.78,1.50,-1.33,-0.68,0.79,2.39,1019.78
17.23,0.08,1.08,-0.21,-3.78,1.50,-1.33,-0.55,0.05,0.34,1019.78
17.231,-0.21,0.95,0.12,-3.78,1.50,-1.33,-0.55,0.05,0.34,1019.78
17.231,-0.20,0.93,0.28,-3.78,1.50,-1.33,-0.55,0.05,0.34,1019.78
17.247,-0.14,0.98,-0.00,-3.78,1.50,-1.33,-0.55,0.05,0.34,1019.78
17.248,-0.14,0.98,-0.00,-3.78,1.50,-1.33,-0.55,0.05,0.34,1019.20
17.25,-0.14,0.98,-0.00,7.77,3.56,-0.66,-0.55,0.05,0.34,1019.20
17.264,-0.08,0.98,0.09,7.77,3.56,-0.66,-0.55,0.05,0.34,1019.20
17.301,-0.08,0.98,0.09,7.77,3.56,-0.66,-0.11,0.04,0.22,1019.20
17.301,-0.09,1.00,-0.02,7.77,3.56,-0.66,-0.11,0.04,0.22,1019.20
17.321,-0.09,1.00,-0.02,-0.48,0.19,1.16,-0.11,0.04,0.22,1019.20
17.321,-0.11,1.01,-0.06,-0.48,0.19,1.16,-0.11,0.04,0.22,1019.20
17.322,-0.14,0.99,0.01,-0.48,0.19,1.16,-0.11,0.04,0.22,1019.20
17.328,-0.14,0.99,0.01,-0.48,0.19,1.16,-0.11,0.04,0.22,1019.02
17.367,-0.14,0.99,0.01,-0.48,0.19,1.16,-0.11,0.04,0.22,1018.90
17.367,-0.17,0.97,0.07,-0.48,0.19,1.16,-0.11,0.04,0.22,1018.90
17.368,-0.14,0.97,0.05,-0.48,0.19,1.16,-0.11,0.04,0.22,1018.90
17.37,-0.14,0.97,0.05,-0.48,0.19,1.16,-0.05,-0.02,0.16,1018.90
17.392,-0.11,0.97,0.03,-0.48,0.19,1.16,-0.05,-0.02,0.16,1018.90
17.392,-0.11,0.97,0.03,0.08,0.60,-0.29,-0.05,-0.02,0.16,1018.90
17.437,-0.11,0.97,0.01,0.08,0.60,-0.29,-0.05,-0.02,0.16,1018.90
17.438,-0.12,0.98,-0.01,0.08,0.60,-0.29,-0.05,-0.02,0.16,1018.90
17.441,-0.12,0.98,-0.01,0.08,0.60,-0.29,0.02,-0.03,0.17,1018.90
17.45,-0.15,0.98,0.00,0.08,0.60,-0.29,0.02,-0.03,0.17,1018.90
17.45,-0.15,0.98,0.00,0.08,0.60,-0.29,0.02,-0.03,0.17,1018.92
17.461,-0.13,0.97,0.01,0.08,0.60,-0.29,0.02,-0.03,0.17,1018.92
17.462,-0.13,0.97,0.01,-0.31,0.30,0.24,0.02,-0.03,0.17,1018.92
17.514,-0.13,0.97,0.01,-0.31,0.30,0.24,0.01,-0.05,0.24,1018.92
17.514,-0.12,0.98,0.00,-0.31,0.30,0.24,0.01,-0.05,0.24,1018.92
17.515,-0.11,0.98,0.01,-0.31,0.30,0.24,0.01,-0.05,0.24,1018.92
17.528,-0.09,0.98,0.03,-0.31,0.30,0.24,0.01,-0.05,0.24,1018.92
17.529,-0.09,0.98,0.03,-0.31,0.30,0.24,0.01,-0.05,0.24,1018.93
17.532,-0.09,0.98,0.03,-0.41,0.34,-0.11,0.01,-0.05,0.24,1018.93
17.568,-0.09,0.98,0.03,-0.41,0.34,-0.11,0.01,-0.05,0.24,1019.00
17.569,-0.08,0.97,0.03,-0.41,0.34,-0.11,0.01,-0.05,0.24,1019.00
17.569,-0.09,0.97,0.04,-0.41,0.34,-0.11,0.01,-0.05,0.24,1019.00
17.589,-0.09,0.97,0.04,-0.41,0.34,-0.11,0.07,-0.06,0.25,1019.00
17.593,-0.09,0.99,0.02,-0.41,0.34,-0.11,0.07,-0.06,0.25,1019.00
17.601,-0.12,1.00,0.01,-0.41,0.34,-0.11,0.07,-0.06,0.25,1019.00
17.602,-0.12,1.00,0.01,-0.31,0.36,0.07,0.07,-0.06,0.25,1019.00
17.648,-0.12,1.00,0.01,-0.31,0.36,0.07,0.07,-0.06,0.25,1019.04
17.649,-0.13,1.00,0.00,-0.31,0.36,0.07,0.07,-0.06,0.25,1019.04
17.649,-0.13,1.01,-0.02,-0.31,0.36,0.07,0.07,-0.06,0.25,1019.04
17.65,-0.13,1.01,-0.02,-0.31,0.36,0.07,0.14,-0.05,0.38,1019.04
17.665,-0.14,1.04,-0.03,-0.31,0.36,0.07,0.14,-0.05,0.38,1019.04
17.671,-0.14,1.04,-0.03,-0.57,0.35,0.23,0.14,-0.05,0.38,1019.04
17.721,-0.14,1.04,-0.03,-0.57,0.35,0.23,0.11,-0.04,0.87,1019.04
17.722,-0.19,1.06,-0.05,-0.57,0.35,0.23,0.11,-0.04,0.87,1019.04
17.722,-0.20,1.08,-0.05,-0.57,0.35,0.23,0.11,-0.04,0.87,1019.04
17.728,-0.27,1.11,-0.05,-0.57,0.35,0.23,0.11,-0.04,0.87,1019.04
17.729,-0.27,1.11,-0.05,-0.57,0.35,0.23,0.11,-0.04,0.87,1019.06
17.741,-0.30,1.16,-0.05,-0.57,0.35,0.23,0.11,-0.04,0.87,1019.06
17.742,-0.30,1.16,-0.05,-1.70,0.75,-0.15,0.11,-0.04,0.87,1019.06
17.761,-0.39,1.25,-0.08,-1.70,0.75,-0.15,0.11,-0.04,0.87,1019.06
17.771,-0.39,1.25,-0.08,-1.70,0.75,-0.15,0.11,-0.04,0.87,1019.02
17.791,-0.39,1.25,-0.08,-1.70,0.75,-0.15,0.07,-0.04,2.12,1019.02
17.792,-0.49,1.36,-0.19,-1.70,0.75,-0.15,0.07,-0.04,2.12,1019.02
17.811,-0.66,1.38,-0.15,-1.70,0.75,-0.15,0.07,-0.04,2.12,1019.02
17.812,-0.66,1.38,-0.15,-4.40,1.81,-0.38,0.07,-0.04,2.12,1019.02
17.837,-0.84,1.43,-0.13,-4.40,1.81,-0.38,0.07,-0.04,2.12,1019.02
17.849,-0.73,1.41,0.06,-4.40,1.81,-0.38,0.07,-0.04,2.12,1019.02
17.85,-0.73,1.41,0.06,-4.40,1.81,-0.38,0.07,-0.04,2.12,1018.70
17.861,-0.73,1.41,0.06,-4.40,1.81,-0.38,-0.14,-0.41,4.64,1018.70
17.866,-0.27,1.41,0.28,-4.40,1.81,-0.38,-0.14,-0.41,4.64,1018.70
17.886,-0.27,1.41,0.28,-10.43,5.26,-1.16,-0.14,-0.41,4.64,1018.70
17.887,0.16,1.32,0.51,-10.43,5.26,-1.16,-0.14,-0.41,4.64,1018.70
17.928,0.16,1.32,0.51,-10.43,5.26,-1.16,-0.14,-0.41,4.64,1018.36
17.928,0.23,1.16,0.55,-10.43,5.26,-1.16,-0.14,-0.41,4.64,1018.36
17.929,-0.04,0.79,0.29,-10.43,5.26,-1.16,-0.14,-0.41,4.64,1018.36
17.931,-0.04,0.79,0.29,-10.43,5.26,-1.16,0.86,-0.08,5.28,1018.36
17.951,1.16,0.53,0.11,-10.43,5.26,-1.16,0.86,-0.08,5.28,1018.36
17.952,1.16,0.53,0.11,-10.32,7.36,2.74,0.86,-0.08,5.28,1018.36
17.968,1.49,0.94,0.06,-10.32,7.36,2.74,0.86,-0.08,5.28,1018.36
17.969,1.49,0.94,0.06,-10.32,7.36,2.74,0.86,-0.08,5.28,1018.58
17.998,-0.60,0.33,0.18,-10.32,7.36,2.74,0.86,-0.08,5.28,1018.58
18.001,-0.60,0.33,0.18,-10.32,7.36,2.74,0.70,1.33,-0.89,1018.58
18.022,-0.60,0.33,0.18,1.34,1.72,2.48,0.70,1.33,-0.89,1018.58
18.022,-0.57,0.35,0.01,1.34,1.72,2.48,0.70,1.33,-0.89,1018.58
18.023,-0.08,0.42,0.07,1.34,1.72,2.48,0.70,1.33,-0.89,1018.58
18.047,0.14,0.40,0.21,1.34,1.72,2.48,0.70,1.33,-0.89,1018.58
18.047,0.14,0.40,0.21,1.34,1.72,2.48,0.70,1.33,-0.89,1018.73
18.067,-0.05,0.38,0.30,1.34,1.72,2.48,0.70,1.33,-0.89,1018.73
18.071,-0.05,0.38,0.30,1.34,1.72,2.48,0.65,1.44,-3.02,1018.73
18.094,-0.09,0.47,0.31,1.34,1.72,2.48,0.65,1.44,-3.02,1018.73
18.094,-0.09,0.47,0.31,-6.74,-4.43,1.15,0.65,1.44,-3.02,1018.73
18.127,-0.09,0.47,0.31,-6.74,-4.43,1.15,0.65,1.44,-3.02,1018.88
18.128,-0.01,0.62,0.27,-6.74,-4.43,1.15,0.65,1.44,-3.02,1018.88
18.128,0.07,0.80,0.24,-6.74,-4.43,1.15,0.65,1.44,-3.02,1018.88
18.141,0.07,0.80,0.24,-6.74,-4.43,1.15,1.27,1.18,-4.51,1018.88
18.161,0.07,0.80,0.24,-1.04,-4.71,3.22,1.27,1.18,-4.51,1018.88
18.162,0.11,0.90,0.35,-1.04,-4.71,3.22,1.27,1.18,-4.51,1018.88
18.162,0.09,1.04,0.30,-1.04,-4.71,3.22,1.27,1.18,-4.51,1018.88
18.168,0.09,1.04,0.30,-1.04,-4.71,3.22,1.27,1.18,-4.51,1018.98
18.192,-0.04,1.28,0.16,-1.04,-4.71,3.22,1.27,1.18,-4.51,1018.98
18.212,-0.04,1.28,0.16,-1.04,-4.71,3.22,0.85,1.95,-4.79,1018.98
18.213,-0.17,1.42,0.22,-1.04,-4.71,3.22,0.85,1.95,-4.79,1018.98
18.231,-0.18,1.48,0.33,-1.04,-4.71,3.22,0.85,1.95,-4.79,1018.98
18.232,-0.18,1.48,0.33,2.57,-0.21,3.71,0.85,1.95,-4.79,1018.98
18.247,-0.15,1.56,0.30,2.57,-0.21,3.71,0.85,1.95,-4.79,1018.98
18.248,-0.15,1.56,0.30,2.57,-0.21,3.71,0.85,1.95,-4.79,1018.87
18.268,-0.07,1.65,0.16,2.57,-0.21,3.71,0.85,1.95,-4.79,1018.87
18.282,-0.07,1.65,0.16,2.57,-0.21,3.71,-0.03,2.41,-3.80,1018.87
18.301,0.10,1.70,0.17,2.57,-0.21,3.71,-0.03,2.41,-3.80,1018.87
18.302,0.50,1.63,0.41,2.57,-0.21,3.71,-0.03,2.41,-3.80,1018.87
18.302,0.50,1.63,0.41,2.19,5.56,3.61,-0.03,2.41,-3.80,1018.87
18.328,0.95,1.49,0.51,2.19,5.56,3.61,-0.03,2.41,-3.80,1018.87
18.329,0.95,1.49,0.51,2.19,5.56,3.61,-0.03,2.41,-3.80,1018.81
18.352,0.95,1.49,0.51,2.19,5.56,3.61,-0.38,2.21,-1.92,1018.81
18.353,1.33,1.39,0.35,2.19,5.56,3.61,-0.38,2.21,-1.92,1018.81
18.375,1.66,1.28,0.19,2.19,5.56,3.61,-0.38,2.21,-1.92,1018.81
18.375,1.66,1.28,0.19,2.19,5.56,3.61,-0.38,2.21,-1.92,1018.81
18.375,1.66,1.28,0.19,5.35,8.03,3.83,-0.38,2.21,-1.92,1018.81
18.397,1.32,1.04,0.23,5.35,8.03,3.83,-0.38,2.21,-1.92,1018.81
18.421,1.32,1.04,0.23,5.35,8.03,3.83,-1.28,2.20,0.89,1018.81
18.422,0.67,0.85,0.19,5.35,8.03,3.83,-1.28,2.20,0.89,1018.81
18.441,0.67,0.85,0.19,15.48,4.37,4.35,-1.28,2.20,0.89,1018.81
18.442,-0.83,1.32,-0.59,15.48,4.37,4.35,-1.28,2.20,0.89,1018.81
18.442,-0.40,1.28,0.05,15.48,4.37,4.35,-1.28,2.20,0.89,1018.81
18.446,-0.40,1.28,0.05,15.48,4.37,4.35,-1.28,2.20,0.89,1019.42
18.463,2.02,1.59,-0.82,15.48,4.37,4.35,-1.28,2.20,0.89,1019.42
18.491,2.02,1.59,-0.82,15.48,4.37,4.35,-1.20,1.28,1.41,1019.42
18.491,-0.86,1.21,0.27,15.48,4.37,4.35,-1.20,1.28,1.41,1019.42
18.511,0.05,1.06,-0.06,15.48,4.37,4.35,-1.20,1.28,1.41,1019.42
18.511,0.05,1.06,-0.06,1.97,2.04,-0.07,-1.20,1.28,1.41,1019.42
18.527,0.05,1.06,-0.06,1.97,2.04,-0.07,-1.20,1.28,1.41,1020.02
18.527,-0.30,0.96,-0.33,1.97,2.04,-0.07,-1.20,1.28,1.41,1020.02
18.561,-0.30,0.96,-0.33,1.97,2.04,-0.07,-0.55,0.14,0.47,1020.02
18.561,-0.09,0.94,0.27,1.97,2.04,-0.07,-0.55,0.14,0.47,1020.02
18.567,-0.11,0.92,0.10,1.97,2.04,-0.07,-0.55,0.14,0.47,1020.02
18.567,-0.11,0.92,0.10,1.97,2.04,-0.07,-0.55,0.14,0.47,1019.42
18.582,-0.07,0.98,-0.02,1.97,2.04,-0.07,-0.55,0.14,0.47,1019.42
18.582,-0.07,0.98,-0.02,4.77,3.07,-1.74,-0.55,0.14,0.47,1019.42
18.632,-0.07,0.98,-0.02,4.77,3.07,-1.74,-0.24,0.08,0.22,1019.42
18.632,-0.07,1.01,-0.07,4.77,3.07,-1.74,-0.24,0.08,0.22,1019.42
18.633,-0.15,1.02,-0.08,4.77,3.07,-1.74,-0.24,0.08,0.22,1019.42
18.646,-0.20,1.00,-0.02,4.77,3.07,-1.74,-0.24,0.08,0.22,1019.42
18.647,-0.20,1.00,-0.02,4.77,3.07,-1.74,-0.24,0.08,0.22,1019.21
18.651,-0.20,1.00,-0.02,-0.02,0.08,0.64,-0.24,0.08,0.22,1019.21
18.663,-0.17,0.98,0.04,-0.02,0.08,0.64,-0.24,0.08,0.22,1019.21
18.701,-0.17,0.98,0.04,-0.02,0.08,0.64,-0.10,0.03,0.25,1019.21
18.702,-0.13,0.97,0.05,-0.02,0.08,0.64,-0.10,0.03,0.25,1019.21
18.722,-0.13,0.97,0.05,-0.15,0.70,-0.27,-0.10,0.03,0.25,1019.21
18.724,-0.12,0.98,-0.01,-0.15,0.70,-0.27,-0.10,0.03,0.25,1019.21
18.724,-0.11,0.97,-0.00,-0.15,0.70,-0.27,-0.10,0.03,0.25,1019.21
18.727,-0.11,0.97,-0.00,-0.15,0.70,-0.27,-0.10,0.03,0.25,1019.01
18.767,-0.11,0.97,-0.00,-0.15,0.70,-0.27,-0.10,0.03,0.25,1018.91
18.767,-0.11,0.97,-0.02,-0.15,0.70,-0.27,-0.10,0.03,0.25,1018.91
18.767,-0.09,0.98,-0.03,-0.15,0.70,-0.27,-0.10,0.03,0.25,1018.91
18.771,-0.09,0.98,-0.03,-0.15,0.70,-0.27,-0.00,0.09,0.24,1018.91
18.791,-0.10,0.98,-0.02,-0.15,0.70,-0.27,-0.00,0.09,0.24,1018.91
18.792,-0.10,0.98,-0.02,-0.13,0.31,0.36,-0.00,0.09,0.24,1018.91
18.837,-0.09,0.97,0.00,-0.13,0.31,0.36,-0.00,0.09,0.24,1018.91
18.838,-0.10,0.96,0.01,-0.13,0.31,0.36,-0.00,0.09,0.24,1018.91
18.841,-0.10,0.96,0.01,-0.13,0.31,0.36,0.04,0.05,0.21,1018.91
18.847,-0.10,0.96,0.01,-0.13,0.31,0.36,0.04,0.05,0.21,1018.90
18.847,-0.09,0.97,0.00,-0.13,0.31,0.36,0.04,0.05,0.21,1018.90
18.862,-0.10,0.98,0.00,-0.13,0.31,0.36,0.04,0.05,0.21,1018.90
18.863,-0.10,0.98,0.00,0.01,0.33,0.05,0.04,0.05,0.21,1018.90
18.911,-0.10,0.98,0.00,0.01,0.33,0.05,0.13,0.01,0.24,1018.90
18.912,-0.09,0.98,-0.02,0.01,0.33,0.05,0.13,0.01,0.24,1018.90
18.912,-0.08,0.99,-0.05,0.01,0.33,0.05,0.13,0.01,0.24,1018.90
18.927,-0.13,1.00,-0.03,0.01,0.33,0.05,0.13,0.01,0.24,1018.90
18.927,-0.13,1.00,-0.03,0.01,0.33,0.05,0.13,0.01,0.24,1018.98
18.931,-0.13,1.00,-0.03,-0.17,0.28,0.36,0.13,0.01,0.24,1018.98
18.972,-0.13,1.00,-0.03,-0.17,0.28,0.36,0.13,0.01,0.24,1019.05
18.973,-0.13,1.00,-0.03,-0.17,0.28,0.36,0.13,0.01,0.24,1019.05
18.973,-0.11,1.01,-0.03,-0.17,0.28,0.36,0.13,0.01,0.24,1019.05
18.981,-0.11,1.01,-0.03,-0.17,0.28,0.36,0.20,0.05,0.42,1019.05
18.997,-0.12,1.02,-0.05,-0.17,0.28,0.36,0.20,0.05,0.42,1019.05
19.002,-0.16,1.05,-0.08,-0.17,0.28,0.36,0.20,0.05,0.42,1019.05
19.002,-0.16,1.05,-0.08,-0.55,0.48,0.14,0.20,0.05,0.42,1019.05
19.037,-0.17,1.06,-0.10,-0.55,0.48,0.14,0.20,0.05,0.42,1019.05
19.047,-0.20,1.08,-0.12,-0.55,0.48,0.14,0.20,0.05,0.42,1019.05
19.047,-0.20,1.08,-0.12,-0.55,0.48,0.14,0.20,0.05,0.42,1019.02
19.051,-0.20,1.08,-0.12,-0.55,0.48,0.14,0.23,0.08,0.87,1019.02
19.063,-0.20,1.09,-0.10,-0.55,0.48,0.14,0.23,0.08,0.87,1019.02
19.071,-0.20,1.09,-0.10,-1.50,0.76,0.10,0.23,0.08,0.87,1019.02
19.094,-0.23,1.16,-0.11,-1.50,0.76,0.10,0.23,0.08,0.87,1019.02
19.112,-0.36,1.24,-0.12,-1.50,0.76,0.10,0.23,0.08,0.87,1019.02
19.121,-0.36,1.24,-0.12,-1.50,0.76,0.10,0.27,0.14,1.88,1019.02
19.127,-0.47,1.34,-0.17,-1.50,0.76,0.10,0.27,0.14,1.88,1019.02
19.127,-0.47,1.34,-0.17,-1.50,0.76,0.10,0.27,0.14,1.88,1019.02
19.142,-0.60,1.35,-0.23,-1.50,0.76,0.10,0.27,0.14,1.88,1019.02
19.142,-0.60,1.35,-0.23,-3.57,1.50,-0.25,0.27,0.14,1.88,1019.02
19.174,-0.56,1.38,-0.16,-3.57,1.50,-0.25,0.27,0.14,1.88,1019.02
19.18,-0.56,1.38,-0.16,-3.57,1.50,-0.25,0.27,0.14,1.88,1018.97
19.191,-0.56,1.38,-0.16,-3.57,1.50,-0.25,0.21,0.01,3.92,1018.97
19.191,-0.45,1.31,0.11,-3.57,1.50,-0.25,0.21,0.01,3.92,1018.97
19.211,-0.10,1.30,0.40,-3.57,1.50,-0.25,0.21,0.01,3.92,1018.97
19.212,-0.10,1.30,0.40,-8.65,4.46,-0.65,0.21,0.01,3.92,1018.97
19.237,0.23,1.12,0.52,-8.65,4.46,-0.65,0.21,0.01,3.92,1018.97
19.247,0.20,0.93,0.46,-8.65,4.46,-0.65,0.21,0.01,3.92,1018.97
19.247,0.20,0.93,0.46,-8.65,4.46,-0.65,0.21,0.01,3.92,1018.40
19.262,0.20,0.93,0.46,-8.65,4.46,-0.65,1.41,0.69,4.91,1018.40
19.263,0.10,0.81,0.32,-8.65,4.46,-0.65,1.41,0.69,4.91,1018.40
19.282,0.78,0.43,0.28,-8.65,4.46,-0.65,1.41,0.69,4.91,1018.40
19.282,0.78,0.43,0.28,-9.41,6.39,3.04,1.41,0.69,4.91,1018.40
19.327,0.78,0.43,0.28,-9.41,6.39,3.04,1.41,0.69,4.91,1018.27
19.328,2.38,1.30,-0.48,-9.41,6.39,3.04,1.41,0.69,4.91,1018.27
19.328,-0.46,0.47,-0.13,-9.41,6.39,3.04,1.41,0.69,4.91,1018.27
19.331,-0.46,0.47,-0.13,-9.41,6.39,3.04,1.29,2.84,-0.12,1018.27
19.352,-0.63,0.46,0.15,-9.41,6.39,3.04,1.29,2.84,-0.12,1018.27
19.353,-0.63,0.46,0.15,-2.43,0.49,4.05,1.29,2.84,-0.12,1018.27
19.369,-0.44,0.41,0.17,-2.43,0.49,4.05,1.29,2.84,-0.12,1018.27
19.37,-0.44,0.41,0.17,-2.43,0.49,4.05,1.29,2.84,-0.12,1018.62
19.397,-0.03,0.51,0.33,-2.43,0.49,4.05,1.29,2.84,-0.12,1018.62
19.403,-0.03,0.51,0.33,-2.43,0.49,4.05,0.87,1.99,-2.58,1018.62
19.422,-0.03,0.51,0.33,-1.41,-1.39,-0.73,0.87,1.99,-2.58,1018.62
19.423,0.01,0.56,0.40,-1.41,-1.39,-0.73,0.87,1.99,-2.58,1018.62
19.423,-0.00,0.59,0.48,-1.41,-1.39,-0.73,0.87,1.99,-2.58,1018.62
19.447,0.12,0.72,0.46,-1.41,-1.39,-0.73,0.87,1.99,-2.58,1018.62
19.447,0.12,0.72,0.46,-1.41,-1.39,-0.73,0.87,1.99,-2.58,1018.86
19.464,0.36,0.93,0.26,-1.41,-1.39,-0.73,0.87,1.99,-2.58,1018.86
19.471,0.36,0.93,0.26,-1.41,-1.39,-0.73,1.61,0.67,-3.74,1018.86
19.491,0.43,1.05,0.25,-1.41,-1.39,-0.73,1.61,0.67,-3.74,1018.86
19.492,0.43,1.05,0.25,-2.45,-3.60,4.69,1.61,0.67,-3.74,1018.86
19.527,0.43,1.05,0.25,-2.45,-3.60,4.69,1.61,0.67,-3.74,1018.96
19.528,0.26,1.14,0.37,-2.45,-3.60,4.69,1.61,0.67,-3.74,1018.96
19.528,0.21,1.16,0.50,-2.45,-3.60,4.69,1.61,0.67,-3.74,1018.96
19.542,0.21,1.16,0.50,-2.45,-3.60,4.69,0.39,2.83,-3.96,1018.96
19.562,0.21,1.16,0.50,3.18,0.06,3.94,0.39,2.83,-3.96,1018.96
19.563,0.21,1.18,0.46,3.18,0.06,3.94,0.39,2.83,-3.96,1018.96
19.563,0.06,1.16,0.43,3.18,0.06,3.94,0.39,2.83,-3.96,1018.96
19.568,0.06,1.16,0.43,3.18,0.06,3.94,0.39,2.83,-3.96,1018.99
19.596,-0.12,1.12,0.45,3.18,0.06,3.94,0.39,2.83,-3.96,1018.99
19.612,-0.12,1.12,0.45,3.18,0.06,3.94,-0.38,3.62,-3.54,1018.99
19.612,-0.20,1.13,0.43,3.18,0.06,3.94,-0.38,3.62,-3.54,1018.99
19.632,-0.26,1.16,0.37,3.18,0.06,3.94,-0.38,3.62,-3.54,1018.99
19.633,-0.26,1.16,0.37,3.76,2.55,5.20,-0.38,3.62,-3.54,1018.99
19.647,-0.25,1.20,0.27,3.76,2.55,5.20,-0.38,3.62,-3.54,1018.99
19.647,-0.25,1.20,0.27,3.76,2.55,5.20,-0.38,3.62,-3.54,1018.87
19.665,-0.11,1.32,0.19,3.76,2.55,5.20,-0.38,3.62,-3.54,1018.87
19.682,-0.11,1.32,0.19,3.76,2.55,5.20,0.06,2.13,-2.61,1018.87
19.704,-0.11,1.32,0.19,1.30,2.73,5.07,0.06,2.13,-2.61,1018.87
19.705,0.31,1.47,0.18,1.30,2.73,5.07,0.06,2.13,-2.61,1018.87
19.705,0.89,1.53,0.16,1.30,2.73,5.07,0.06,2.13,-2.61,1018.87
19.727,1.21,1.38,0.28,1.30,2.73,5.07,0.06,2.13,-2.61,1018.87
19.727,1.21,1.38,0.28,1.30,2.73,5.07,0.06,2.13,-2.61,1018.77
19.754,1.68,1.23,0.25,1.30,2.73,5.07,0.06,2.13,-2.61,1018.77
19.754,1.68,1.23,0.25,1.30,2.73,5.07,-0.03,1.04,-0.92,1018.77
19.768,1.72,1.07,0.24,1.30,2.73,5.07,-0.03,1.04,-0.92,1018.77
19.768,1.72,1.07,0.24,1.30,2.73,5.07,-0.03,1.04,-0.92,1018.99
19.772,1.72,1.07,0.24,6.03,5.30,2.89,-0.03,1.04,-0.92,1018.99
19.796,1.17,0.91,0.32,6.03,5.30,2.89,-0.03,1.04,-0.92,1018.99
19.821,1.17,0.91,0.32,6.03,5.30,2.89,-0.78,1.46,1.55,1018.99
19.822,-0.61,1.84,0.05,6.03,5.30,2.89,-0.78,1.46,1.55,1018.99
19.842,-0.61,1.84,0.05,16.69,2.62,3.27,-0.78,1.46,1.55,1018.99
19.843,-0.25,1.37,-1.64,16.69,2.62,3.27,-0.78,1.46,1.55,1018.99
19.843,0.55,1.07,0.57,16.69,2.62,3.27,-0.78,1.46,1.55,1018.99
19.847,0.55,1.07,0.57,16.69,2.62,3.27,-0.78,1.46,1.55,1019.41
19.863,0.11,1.25,-0.25,16.69,2.62,3.27,-0.78,1.46,1.55,1019.41
19.892,0.11,1.25,-0.25,16.69,2.62,3.27,-0.82,0.15,0.39,1019.41
19.892,-0.33,0.94,-0.18,16.69,2.62,3.27,-0.82,0.15,0.39,1019.41
19.912,-0.10,0.93,0.09,16.69,2.62,3.27,-0.82,0.15,0.39,1019.41
19.912,-0.10,0.93,0.09,2.36,4.20,-2.03,-0.82,0.15,0.39,1019.41
19.927,-0.22,0.91,0.16,2.36,4.20,-2.03,-0.82,0.15,0.39,1019.41
19.928,-0.22,0.91,0.16,2.36,4.20,-2.03,-0.82,0.15,0.39,1019.84
19.962,-0.22,0.91,0.16,2.36,4.20,-2.03,-0.35,0.09,0.17,1019.84
19.963,-0.12,0.95,0.11,2.36,4.20,-2.03,-0.35,0.09,0.17,1019.84
19.967,-0.12,0.97,-0.03,2.36,4.20,-2.03,-0.35,0.09,0.17,1019.84
19.967,-0.12,0.97,-0.03,2.36,4.20,-2.03,-0.35,0.09,0.17,1019.28
19.982,-0.12,1.00,-0.07,2.36,4.20,-2.03,-0.35,0.09,0.17,1019.28
19.983,-0.12,1.00,-0.07,0.38,0.94,-0.65,-0.35,0.09,0.17,1019.28
20.032,-0.12,1.00,-0.07,0.38,0.94,-0.65,-0.24,0.09,0.06,1019.28
20.032,-0.18,0.99,-0.02,0.38,0.94,-0.65,-0.24,0.09,0.06,1019.28
20.033,-0.20,0.97,0.02,0.38,0.94,-0.65,-0.24,0.09,0.06,1019.28
20.047,-0.20,0.96,0.05,0.38,0.94,-0.65,-0.24,0.09,0.06,1019.28
20.047,-0.20,0.96,0.05,0.38,0.94,-0.65,-0.24,0.09,0.06,1019.18
20.051,-0.20,0.96,0.05,0.41,0.34,0.47,-0.24,0.09,0.06,1019.18
20.064,-0.19,0.97,0.06,0.41,0.34,0.47,-0.24,0.09,0.06,1019.18
20.095,-0.19,0.99,0.01,0.41,0.34,0.47,-0.24,0.09,0.06,1019.18
20.102,-0.19,0.99,0.01,0.41,0.34,0.47,-0.05,0.08,0.18,1019.18
20.123,-0.17,0.99,-0.01,0.41,0.34,0.47,-0.05,0.08,0.18,1019.18
20.123,-0.16,0.98,-0.02,0.41,0.34,0.47,-0.05,0.08,0.18,1019.18
20.124,-0.16,0.98,-0.02,-0.41,0.40,0.34,-0.05,0.08,0.18,1019.18
20.127,-0.16,0.98,-0.02,-0.41,0.40,0.34,-0.05,0.08,0.18,1019.05
20.167,-0.16,0.98,-0.02,-0.41,0.40,0.34,-0.05,0.08,0.18,1018.99
20.167,-0.15,0.98,-0.01,-0.41,0.40,0.34,-0.05,0.08,0.18,1018.99
20.168,-0.16,0.97,0.00,-0.41,0.40,0.34,-0.05,0.08,0.18,1018.99
20.175,-0.16,0.97,0.00,-0.41,0.40,0.34,-0.03,0.06,0.22,1018.99
20.192,-0.14,0.98,0.01,-0.41,0.40,0.34,-0.03,0.06,0.22,1018.99
20.193,-0.14,0.98,0.01,-0.33,0.47,0.08,-0.03,0.06,0.22,1018.99
20.243,-0.14,0.98,0.01,-0.33,0.47,0.08,0.00,0.01,0.22,1018.99
20.244,-0.13,0.98,-0.00,-0.33,0.47,0.08,0.00,0.01,0.22,1018.99
20.244,-0.10,0.98,0.01,-0.33,0.47,0.08,0.00,0.01,0.22,1018.99
20.247,-0.11,0.97,0.02,-0.33,0.47,0.08,0.00,0.01,0.22,1018.99
20.248,-0.11,0.97,0.02,-0.33,0.47,0.08,0.00,0.01,0.22,1018.94
20.263,-0.12,0.97,0.02,-0.33,0.47,0.08,0.00,0.01,0.22,1018.94
20.264,-0.12,0.97,0.02,-0.21,0.35,0.09,0.00,0.01,0.22,1018.94
20.312,-0.12,0.97,0.02,-0.21,0.35,0.09,0.07,-0.01,0.19,1018.94
20.313,-0.11,0.98,0.01,-0.21,0.35,0.09,0.07,-0.01,0.19,1018.94
20.313,-0.12,0.98,0.02,-0.21,0.35,0.09,0.07,-0.01,0.19,1018.94
20.327,-0.12,0.98,0.01,-0.21,0.35,0.09,0.07,-0.01,0.19,1018.94
