time,gFx,gFy,gFz,ax,ay,az,wx,wy,wz,P
0.002,-0.07,0.96,0.11,-0.04,-0.02,-0.03,-0.06,-0.00,0.03,1019.01
0.007,-0.06,0.97,0.12,-0.04,-0.02,-0.03,-0.06,-0.00,0.03,1019.01
0.028,-0.06,0.97,0.12,-0.04,-0.02,-0.03,-0.01,-0.01,0.04,1019.01
0.047,-0.06,0.97,0.12,-0.05,-0.08,0.04,-0.01,-0.01,0.04,1019.01
0.078,-0.05,0.98,0.11,-0.05,-0.08,0.04,-0.01,-0.01,0.04,1019.01
0.081,-0.05,0.98,0.11,-0.05,-0.08,0.04,-0.01,-0.01,0.04,1018.92
0.097,-0.05,0.98,0.11,-0.05,-0.08,0.04,-0.05,0.01,0.06,1018.92
0.118,-0.05,0.98,0.11,-0.08,0.02,-0.10,-0.05,0.01,0.06,1018.92
0.12,-0.05,0.98,0.11,-0.08,0.02,-0.10,-0.05,0.01,0.06,1018.94
0.148,-0.05,0.97,0.13,-0.08,0.02,-0.10,-0.05,0.01,0.06,1018.94
0.167,-0.05,0.97,0.13,-0.08,0.02,-0.10,-0.04,0.01,0.05,1018.94
0.188,-0.05,0.97,0.13,-0.02,0.03,-0.05,-0.04,0.01,0.05,1018.94
0.201,-0.05,0.97,0.13,-0.02,0.03,-0.05,-0.04,0.01,0.05,1018.98
0.217,-0.04,0.97,0.14,-0.02,0.03,-0.05,-0.04,0.01,0.05,1018.98
0.238,-0.04,0.97,0.14,-0.02,0.03,-0.05,0.01,0.01,0.05,1018.98
0.257,-0.04,0.97,0.14,0.04,-0.02,0.17,0.01,0.01,0.05,1018.98
0.281,-0.04,0.97,0.14,0.04,-0.02,0.17,0.01,0.01,0.05,1018.98
0.288,-0.04,0.98,0.13,0.04,-0.02,0.17,0.01,0.01,0.05,1018.98
0.308,-0.04,0.98,0.13,0.04,-0.02,0.17,0.01,0.01,0.04,1018.98
0.322,-0.04,0.98,0.13,0.04,-0.02,0.17,0.01,0.01,0.04,1018.97
0.327,-0.04,0.98,0.13,0.02,0.04,-0.00,0.01,0.01,0.04,1018.97
0.358,-0.05,0.97,0.13,0.02,0.04,-0.00,0.01,0.01,0.04,1018.97
0.377,-0.05,0.97,0.13,0.02,0.04,-0.00,0.02,0.01,0.08,1018.97
0.397,-0.05,0.97,0.13,-0.09,-0.06,0.09,0.02,0.01,0.08,1018.97
0.401,-0.05,0.97,0.13,-0.09,-0.06,0.09,0.02,0.01,0.08,1018.99
0.428,-0.04,0.97,0.13,-0.09,-0.06,0.09,0.02,0.01,0.08,1018.99
0.447,-0.04,0.97,0.13,-0.09,-0.06,0.09,0.06,0.00,0.08,1018.99
0.467,-0.04,0.97,0.13,-0.06,0.02,0.13,0.06,0.00,0.08,1018.99
0.481,-0.04,0.97,0.13,-0.06,0.02,0.13,0.06,0.00,0.08,1018.97
0.498,-0.02,0.98,0.13,-0.06,0.02,0.13,0.06,0.00,0.08,1018.97
0.517,-0.02,0.98,0.13,-0.06,0.02,0.13,0.10,0.00,0.05,1018.97
0.52,-0.02,0.98,0.13,-0.06,0.02,0.13,0.10,0.00,0.05,1018.97
0.537,-0.02,0.98,0.13,0.04,0.01,0.06,0.10,0.00,0.05,1018.97
0.567,-0.02,0.98,0.14,0.04,0.01,0.06,0.10,0.00,0.05,1018.97
0.587,-0.02,0.98,0.14,0.04,0.01,0.06,0.22,-0.00,0.03,1018.97
0.601,-0.02,0.98,0.14,0.04,0.01,0.06,0.22,-0.00,0.03,1019.01
0.607,-0.02,0.98,0.14,0.02,-0.03,0.41,0.22,-0.00,0.03,1019.01
0.637,-0.04,0.98,0.10,0.02,-0.03,0.41,0.22,-0.00,0.03,1019.01
0.657,-0.04,0.98,0.10,0.02,-0.03,0.41,0.27,0.03,0.09,1019.01
0.677,-0.04,0.98,0.10,-0.11,-0.02,0.21,0.27,0.03,0.09,1019.01
0.682,-0.04,0.98,0.10,-0.11,-0.02,0.21,0.27,0.03,0.09,1018.97
0.707,-0.07,0.98,0.11,-0.11,-0.02,0.21,0.27,0.03,0.09,1018.97
0.721,-0.07,0.98,0.11,-0.11,-0.02,0.21,0.27,0.03,0.09,1018.99
0.727,-0.07,0.98,0.11,-0.11,-0.02,0.21,0.49,0.06,0.25,1018.99
0.748,-0.07,0.98,0.11,-0.49,0.02,0.60,0.49,0.06,0.25,1018.99
0.777,-0.09,0.95,0.16,-0.49,0.02,0.60,0.49,0.06,0.25,1018.99
0.797,-0.09,0.95,0.16,-0.49,0.02,0.60,0.99,-0.15,0.67,1018.99
0.8,-0.09,0.95,0.16,-0.49,0.02,0.60,0.99,-0.15,0.67,1018.90
0.817,-0.09,0.95,0.16,-1.76,-0.16,1.58,0.99,-0.15,0.67,1018.90
0.847,0.01,1.00,-0.09,-1.76,-0.16,1.58,0.99,-0.15,0.67,1018.90
0.867,0.01,1.00,-0.09,-1.76,-0.16,1.58,0.92,-0.57,0.68,1018.90
0.883,0.01,1.00,-0.09,-1.76,-0.16,1.58,0.92,-0.57,0.68,1019.04
0.887,0.01,1.00,-0.09,-0.21,0.08,0.88,0.92,-0.57,0.68,1019.04
0.918,0.07,1.00,-0.00,-0.21,0.08,0.88,0.92,-0.57,0.68,1019.04
0.921,0.07,1.00,-0.00,-0.21,0.08,0.88,0.92,-0.57,0.68,1018.96
0.937,0.07,1.00,-0.00,-0.21,0.08,0.88,0.91,-2.44,0.40,1018.96
0.958,0.07,1.00,-0.00,-0.62,0.24,0.37,0.91,-2.44,0.40,1018.96
0.987,0.67,1.08,-0.17,-0.62,0.24,0.37,0.91,-2.44,0.40,1018.96
1.001,0.67,1.08,-0.17,-0.62,0.24,0.37,0.91,-2.44,0.40,1019.01
1.007,0.67,1.08,-0.17,-0.62,0.24,0.37,-0.17,-3.11,0.33,1019.01
1.028,0.67,1.08,-0.17,3.01,1.47,-0.50,-0.17,-3.11,0.33,1019.01
1.057,0.94,0.76,-0.06,3.01,1.47,-0.50,-0.17,-3.11,0.33,1019.01
1.077,0.94,0.76,-0.06,3.01,1.47,-0.50,-0.01,-1.11,0.88,1019.01
1.08,0.94,0.76,-0.06,3.01,1.47,-0.50,-0.01,-1.11,0.88,1018.84
1.097,0.94,0.76,-0.06,7.45,-1.26,0.79,-0.01,-1.11,0.88,1018.84
1.121,0.94,0.76,-0.06,7.45,-1.26,0.79,-0.01,-1.11,0.88,1018.93
1.127,0.48,0.81,-0.21,7.45,-1.26,0.79,-0.01,-1.11,0.88,1018.93
1.147,0.48,0.81,-0.21,7.45,-1.26,0.79,0.08,0.01,1.45,1018.93
1.168,0.48,0.81,-0.21,3.97,-1.54,0.48,0.08,0.01,1.45,1018.93
1.197,0.04,0.92,-0.28,3.97,-1.54,0.48,0.08,0.01,1.45,1018.93
1.2,0.04,0.92,-0.28,3.97,-1.54,0.48,0.08,0.01,1.45,1018.94
1.217,0.04,0.92,-0.28,3.97,-1.54,0.48,-0.10,-0.46,1.54,1018.94
1.238,0.04,0.92,-0.28,-1.77,-0.51,-1.67,-0.10,-0.46,1.54,1018.94
1.269,-0.35,1.04,-0.11,-1.77,-0.51,-1.67,-0.10,-0.46,1.54,1018.94
1.281,-0.35,1.04,-0.11,-1.77,-0.51,-1.67,-0.10,-0.46,1.54,1018.96
1.287,-0.35,1.04,-0.11,-1.77,-0.51,-1.67,-0.50,-0.69,-0.29,1018.96
1.308,-0.35,1.04,-0.11,-3.88,0.90,-1.00,-0.50,-0.69,-0.29,1018.96
1.321,-0.35,1.04,-0.11,-3.88,0.90,-1.00,-0.50,-0.69,-0.29,1019.06
1.338,0.17,1.21,-0.36,-3.88,0.90,-1.00,-0.50,-0.69,-0.29,1019.06
1.357,0.17,1.21,-0.36,-3.88,0.90,-1.00,-0.84,-1.17,-2.66,1019.06
1.378,0.17,1.21,-0.36,-4.22,1.94,-1.34,-0.84,-1.17,-2.66,1019.06
1.401,0.17,1.21,-0.36,-4.22,1.94,-1.34,-0.84,-1.17,-2.66,1019.38
1.407,-0.43,1.02,-0.03,-4.22,1.94,-1.34,-0.84,-1.17,-2.66,1019.38
1.427,-0.43,1.02,-0.03,-4.22,1.94,-1.34,-0.69,-0.67,-1.22,1019.38
1.448,-0.43,1.02,-0.03,-0.94,0.70,-0.79,-0.69,-0.67,-1.22,1019.38
1.478,-0.15,0.98,-0.01,-0.94,0.70,-0.79,-0.69,-0.67,-1.22,1019.38
1.487,-0.15,0.98,-0.01,-0.94,0.70,-0.79,-0.69,-0.67,-1.22,1019.31
1.498,-0.15,0.98,-0.01,-0.94,0.70,-0.79,-0.49,-0.25,-0.72,1019.31
1.518,-0.15,0.98,-0.01,-0.39,-0.11,-0.47,-0.49,-0.25,-0.72,1019.31
1.52,-0.15,0.98,-0.01,-0.39,-0.11,-0.47,-0.49,-0.25,-0.72,1019.27
1.548,-0.12,1.00,-0.02,-0.39,-0.11,-0.47,-0.49,-0.25,-0.72,1019.27
1.568,-0.12,1.00,-0.02,-0.39,-0.11,-0.47,-0.31,0.01,-0.23,1019.27
1.588,-0.12,1.00,-0.02,-1.76,0.01,-0.38,-0.31,0.01,-0.23,1019.27
1.601,-0.12,1.00,-0.02,-1.76,0.01,-0.38,-0.31,0.01,-0.23,1019.03
1.618,-0.08,0.99,0.01,-1.76,0.01,-0.38,-0.31,0.01,-0.23,1019.03
1.637,-0.08,0.99,0.01,-1.76,0.01,-0.38,-0.09,0.04,-0.22,1019.03
1.658,-0.08,0.99,0.01,-0.04,-0.05,0.34,-0.09,0.04,-0.22,1019.03
1.687,-0.08,0.99,0.01,-0.04,-0.05,0.34,-0.09,0.04,-0.22,1018.94
1.69,-0.08,0.99,0.01,-0.04,-0.05,0.34,-0.09,0.04,-0.22,1018.94
1.708,-0.08,0.99,0.01,-0.04,-0.05,0.34,-0.02,0.12,-0.27,1018.94
1.721,-0.08,0.99,0.01,-0.04,-0.05,0.34,-0.02,0.12,-0.27,1018.88
1.728,-0.08,0.99,0.01,0.10,0.06,-0.10,-0.02,0.12,-0.27,1018.88
1.758,-0.11,0.98,0.00,0.10,0.06,-0.10,-0.02,0.12,-0.27,1018.88
1.778,-0.11,0.98,0.00,0.10,0.06,-0.10,0.08,0.12,-0.30,1018.88
1.798,-0.11,0.98,0.00,0.11,-0.05,0.17,0.08,0.12,-0.30,1018.88
1.8,-0.11,0.98,0.00,0.11,-0.05,0.17,0.08,0.12,-0.30,1018.83
1.828,-0.12,0.99,-0.00,0.11,-0.05,0.17,0.08,0.12,-0.30,1018.83
1.847,-0.12,0.99,-0.00,0.11,-0.05,0.17,0.16,0.10,-0.40,1018.83
1.868,-0.12,0.99,-0.00,0.32,0.04,0.11,0.16,0.10,-0.40,1018.83
1.881,-0.12,0.99,-0.00,0.32,0.04,0.11,0.16,0.10,-0.40,1018.87
1.898,-0.11,1.02,-0.06,0.32,0.04,0.11,0.16,0.10,-0.40,1018.87
1.919,-0.11,1.02,-0.06,0.32,0.04,0.11,0.09,0.16,-0.64,1018.87
1.921,-0.11,1.02,-0.06,0.32,0.04,0.11,0.09,0.16,-0.64,1018.95
1.938,-0.11,1.02,-0.06,0.62,0.23,-0.19,0.09,0.16,-0.64,1018.95
1.97,-0.03,1.11,-0.09,0.62,0.23,-0.19,0.09,0.16,-0.64,1018.95
1.988,-0.03,1.11,-0.09,0.62,0.23,-0.19,-0.06,0.18,-1.41,1018.95
2.002,-0.03,1.11,-0.09,0.62,0.23,-0.19,-0.06,0.18,-1.41,1018.99
2.008,-0.03,1.11,-0.09,2.49,1.27,-0.34,-0.06,0.18,-1.41,1018.99
2.038,0.01,1.30,-0.17,2.49,1.27,-0.34,-0.06,0.18,-1.41,1018.99
2.058,0.01,1.30,-0.17,2.49,1.27,-0.34,-0.27,0.08,-2.60,1018.99
2.078,0.01,1.30,-0.17,4.19,3.09,-1.51,-0.27,0.08,-2.60,1018.99
2.081,0.01,1.30,-0.17,4.19,3.09,-1.51,-0.27,0.08,-2.60,1019.02
2.108,0.43,1.58,-0.08,4.19,3.09,-1.51,-0.27,0.08,-2.60,1019.02
2.121,0.43,1.58,-0.08,4.19,3.09,-1.51,-0.27,0.08,-2.60,1018.82
2.128,0.43,1.58,-0.08,4.19,3.09,-1.51,-0.69,0.48,-5.22,1018.82
2.148,0.43,1.58,-0.08,10.16,8.75,-1.59,-0.69,0.48,-5.22,1018.82
2.178,-0.34,1.15,0.23,10.16,8.75,-1.59,-0.69,0.48,-5.22,1018.82
2.197,-0.34,1.15,0.23,10.16,8.75,-1.59,0.10,-0.32,-4.74,1018.82
2.2,-0.34,1.15,0.23,10.16,8.75,-1.59,0.10,-0.32,-4.74,1018.68
2.219,-0.34,1.15,0.23,8.14,8.86,1.05,0.10,-0.32,-4.74,1018.68
2.248,-0.42,0.35,-0.05,8.14,8.86,1.05,0.10,-0.32,-4.74,1018.68
2.268,-0.42,0.35,-0.05,8.14,8.86,1.05,-0.31,-0.02,1.79,1018.68
2.281,-0.42,0.35,-0.05,8.14,8.86,1.05,-0.31,-0.02,1.79,1018.74
2.29,-0.42,0.35,-0.05,-1.11,-0.73,-0.64,-0.31,-0.02,1.79,1018.74
2.318,-0.01,0.31,-0.05,-1.11,-0.73,-0.64,-0.31,-0.02,1.79,1018.74
2.321,-0.01,0.31,-0.05,-1.11,-0.73,-0.64,-0.31,-0.02,1.79,1018.81
2.338,-0.01,0.31,-0.05,-1.11,-0.73,-0.64,0.06,0.70,4.39,1018.81
2.359,-0.01,0.31,-0.05,7.09,-4.75,0.87,0.06,0.70,4.39,1018.81
2.389,0.09,0.76,-0.25,7.09,-4.75,0.87,0.06,0.70,4.39,1018.81
2.401,0.09,0.76,-0.25,7.09,-4.75,0.87,0.06,0.70,4.39,1018.88
2.408,0.09,0.76,-0.25,7.09,-4.75,0.87,0.19,1.48,5.52,1018.88
2.429,0.09,0.76,-0.25,2.61,-4.31,-0.70,0.19,1.48,5.52,1018.88
2.459,-0.10,1.52,-0.61,2.61,-4.31,-0.70,0.19,1.48,5.52,1018.88
2.478,-0.10,1.52,-0.61,2.61,-4.31,-0.70,0.30,0.51,4.95,1018.88
2.48,-0.10,1.52,-0.61,2.61,-4.31,-0.70,0.30,0.51,4.95,1018.91
2.498,-0.10,1.52,-0.61,-2.13,2.23,-3.81,0.30,0.51,4.95,1018.91
2.522,-0.10,1.52,-0.61,-2.13,2.23,-3.81,0.30,0.51,4.95,1018.82
2.528,-0.98,1.75,-0.18,-2.13,2.23,-3.81,0.30,0.51,4.95,1018.82
2.548,-0.98,1.75,-0.18,-2.13,2.23,-3.81,0.40,0.83,4.46,1018.82
2.568,-0.98,1.75,-0.18,-8.67,9.83,-4.81,0.40,0.83,4.46,1018.82
2.598,-2.05,1.04,-0.12,-8.67,9.83,-4.81,0.40,0.83,4.46,1018.82
2.601,-2.05,1.04,-0.12,-8.67,9.83,-4.81,0.40,0.83,4.46,1019.13
2.618,-2.05,1.04,-0.12,-8.67,9.83,-4.81,-0.27,-1.27,-0.52,1019.13
2.639,-2.05,1.04,-0.12,-20.26,3.92,1.61,-0.27,-1.27,-0.52,1019.13
2.668,0.45,1.34,-0.43,-20.26,3.92,1.61,-0.27,-1.27,-0.52,1019.13
2.681,0.45,1.34,-0.43,-20.26,3.92,1.61,-0.27,-1.27,-0.52,1019.19
2.69,0.45,1.34,-0.43,-20.26,3.92,1.61,-0.95,-1.31,-3.41,1019.19
2.708,0.45,1.34,-0.43,-1.04,2.22,-2.23,-0.95,-1.31,-3.41,1019.19
2.731,0.45,1.34,-0.43,-1.04,2.22,-2.23,-0.95,-1.31,-3.41,1019.54
2.741,-0.60,1.05,0.05,-1.04,2.22,-2.23,-0.95,-1.31,-3.41,1019.54
2.758,-0.60,1.05,0.05,-1.04,2.22,-2.23,-0.78,-0.37,-0.92,1019.54
2.778,-0.60,1.05,0.05,-6.42,1.24,-0.41,-0.78,-0.37,-0.92,1019.54
2.801,-0.60,1.05,0.05,-6.42,1.24,-0.41,-0.78,-0.37,-0.92,1019.26
2.808,-0.13,0.97,0.11,-6.42,1.24,-0.41,-0.78,-0.37,-0.92,1019.26
2.828,-0.13,0.97,0.11,-6.42,1.24,-0.41,-0.36,0.01,-0.35,1019.26
2.849,-0.13,0.97,0.11,-1.79,0.23,-0.01,-0.36,0.01,-0.35,1019.26
2.879,-0.10,0.99,0.00,-1.79,0.23,-0.01,-0.36,0.01,-0.35,1019.26
2.881,-0.10,0.99,0.00,-1.79,0.23,-0.01,-0.36,0.01,-0.35,1018.92
2.899,-0.10,0.99,0.00,-1.79,0.23,-0.01,-0.16,0.10,-0.19,1018.92
2.92,-0.10,0.99,0.00,-0.53,0.05,0.46,-0.16,0.10,-0.19,1018.92
2.921,-0.10,0.99,0.00,-0.53,0.05,0.46,-0.16,0.10,-0.19,1018.79
2.949,-0.09,0.98,0.03,-0.53,0.05,0.46,-0.16,0.10,-0.19,1018.79
2.974,-0.09,0.98,0.03,-0.53,0.05,0.46,-0.04,0.12,-0.22,1018.79
2.99,-0.09,0.98,0.03,0.14,0.14,0.11,-0.04,0.12,-0.22,1018.79
3.002,-0.09,0.98,0.03,0.14,0.14,0.11,-0.04,0.12,-0.22,1018.84
3.022,-0.08,0.98,0.01,0.14,0.14,0.11,-0.04,0.12,-0.22,1018.84
3.039,-0.08,0.98,0.01,0.14,0.14,0.11,-0.00,0.12,-0.28,1018.84
3.06,-0.08,0.98,0.01,0.16,0.05,0.21,-0.00,0.12,-0.28,1018.84
3.082,-0.08,0.98,0.01,0.16,0.05,0.21,-0.00,0.12,-0.28,1019.02
3.088,-0.12,0.97,0.04,0.16,0.05,0.21,-0.00,0.12,-0.28,1019.02
3.108,-0.12,0.97,0.04,0.16,0.05,0.21,0.09,0.06,-0.31,1019.02
3.121,-0.12,0.97,0.04,0.16,0.05,0.21,0.09,0.06,-0.31,1018.97
3.129,-0.12,0.97,0.04,0.13,0.04,0.17,0.09,0.06,-0.31,1018.97
3.16,-0.12,0.99,0.02,0.13,0.04,0.17,0.09,0.06,-0.31,1018.97
3.179,-0.12,0.99,0.02,0.13,0.04,0.17,0.25,0.12,-0.42,1018.97
3.199,-0.12,0.99,0.02,0.35,0.18,0.57,0.25,0.12,-0.42,1018.97
3.205,-0.12,0.99,0.02,0.35,0.18,0.57,0.25,0.12,-0.42,1018.95
3.229,-0.03,1.09,-0.05,0.35,0.18,0.57,0.25,0.12,-0.42,1018.95
3.249,-0.03,1.09,-0.05,0.35,0.18,0.57,0.22,0.25,-1.04,1018.95
3.27,-0.03,1.09,-0.05,1.74,0.87,0.41,0.22,0.25,-1.04,1018.95
3.281,-0.03,1.09,-0.05,1.74,0.87,0.41,0.22,0.25,-1.04,1019.02
3.299,-0.04,1.22,-0.15,1.74,0.87,0.41,0.22,0.25,-1.04,1019.02
3.319,-0.04,1.22,-0.15,1.74,0.87,0.41,-0.06,0.13,-2.04,1019.02
3.321,-0.04,1.22,-0.15,1.74,0.87,0.41,-0.06,0.13,-2.04,1018.97
3.339,-0.04,1.22,-0.15,3.52,2.57,-1.10,-0.06,0.13,-2.04,1018.97
3.37,0.23,1.48,-0.14,3.52,2.57,-1.10,-0.06,0.13,-2.04,1018.97
3.391,0.23,1.48,-0.14,3.52,2.57,-1.10,-0.38,0.34,-4.02,1018.97
3.401,0.23,1.48,-0.14,3.52,2.57,-1.10,-0.38,0.34,-4.02,1018.93
3.409,0.23,1.48,-0.14,7.04,6.19,-1.56,-0.38,0.34,-4.02,1018.93
3.44,-0.09,1.38,0.14,7.04,6.19,-1.56,-0.38,0.34,-4.02,1018.93
3.459,-0.09,1.38,0.14,7.04,6.19,-1.56,-0.35,0.29,-5.68,1018.93
3.48,-0.09,1.38,0.14,11.44,10.28,0.11,-0.35,0.29,-5.68,1018.93
3.482,-0.09,1.38,0.14,11.44,10.28,0.11,-0.35,0.29,-5.68,1018.79
3.509,-0.66,0.63,-0.03,11.44,10.28,0.11,-0.35,0.29,-5.68,1018.79
3.521,-0.66,0.63,-0.03,11.44,10.28,0.11,-0.35,0.29,-5.68,1018.62
3.529,-0.66,0.63,-0.03,11.44,10.28,0.11,-0.14,0.02,-0.36,1018.62
3.549,-0.66,0.63,-0.03,2.10,3.39,2.03,-0.14,0.02,-0.36,1018.62
3.579,0.11,0.37,0.07,2.10,3.39,2.03,-0.14,0.02,-0.36,1018.62
3.608,0.11,0.37,0.07,2.10,3.39,2.03,0.03,0.05,3.00,1018.62
3.609,0.11,0.37,0.07,2.10,3.39,2.03,0.03,0.05,3.00,1018.80
3.62,0.11,0.37,0.07,5.04,-2.14,-0.22,0.03,0.05,3.00,1018.80
3.648,0.05,0.56,-0.06,5.04,-2.14,-0.22,0.03,0.05,3.00,1018.80
3.669,0.05,0.56,-0.06,5.04,-2.14,-0.22,0.10,1.25,5.09,1018.80
3.681,0.05,0.56,-0.06,5.04,-2.14,-0.22,0.10,1.25,5.09,1018.84
3.69,0.05,0.56,-0.06,2.62,-4.92,0.87,0.10,1.25,5.09,1018.84
3.72,-0.10,1.16,-0.33,2.62,-4.92,0.87,0.10,1.25,5.09,1018.84
3.721,-0.10,1.16,-0.33,2.62,-4.92,0.87,0.10,1.25,5.09,1018.97
3.738,-0.10,1.16,-0.33,2.62,-4.92,0.87,0.02,0.77,4.63,1018.97
3.76,-0.10,1.16,-0.33,-0.18,-0.71,-1.37,0.02,0.77,4.63,1018.97
3.79,-0.68,1.51,-0.42,-0.18,-0.71,-1.37,0.02,0.77,4.63,1018.97
3.801,-0.68,1.51,-0.42,-0.18,-0.71,-1.37,0.02,0.77,4.63,1018.98
3.809,-0.68,1.51,-0.42,-0.18,-0.71,-1.37,0.31,-0.54,4.73,1018.98
3.83,-0.68,1.51,-0.42,-7.74,5.10,-2.51,0.31,-0.54,4.73,1018.98
3.859,-0.91,1.45,-0.16,-7.74,5.10,-2.51,0.31,-0.54,4.73,1018.98
3.88,-0.91,1.45,-0.16,-7.74,5.10,-2.51,0.23,0.04,2.96,1018.98
3.882,-0.91,1.45,-0.16,-7.74,5.10,-2.51,0.23,0.04,2.96,1018.94
3.901,-0.91,1.45,-0.16,-10.43,6.13,-1.46,0.23,0.04,2.96,1018.94
3.923,-0.91,1.45,-0.16,-10.43,6.13,-1.46,0.23,0.04,2.96,1019.00
3.929,-1.66,0.85,-0.02,-10.43,6.13,-1.46,0.23,0.04,2.96,1019.00
3.949,-1.66,0.85,-0.02,-10.43,6.13,-1.46,-0.29,-1.30,-1.27,1019.00
3.969,-1.66,0.85,-0.02,-17.20,1.10,0.71,-0.29,-1.30,-1.27,1019.00
4.002,0.60,1.24,-0.35,-17.20,1.10,0.71,-0.29,-1.30,-1.27,1019.00
4.003,0.60,1.24,-0.35,-17.20,1.10,0.71,-0.29,-1.30,-1.27,1019.21
4.02,0.60,1.24,-0.35,-17.20,1.10,0.71,-1.07,-1.41,-3.26,1019.21
4.039,0.60,1.24,-0.35,5.11,2.53,-3.13,-1.07,-1.41,-3.26,1019.21
4.069,-0.47,1.06,-0.03,5.11,2.53,-3.13,-1.07,-1.41,-3.26,1019.21
4.081,-0.47,1.06,-0.03,5.11,2.53,-3.13,-1.07,-1.41,-3.26,1019.45
4.091,-0.47,1.06,-0.03,5.11,2.53,-3.13,-0.80,-0.32,-0.86,1019.45
4.109,-0.47,1.06,-0.03,-7.36,1.06,1.50,-0.80,-0.32,-0.86,1019.45
4.121,-0.47,1.06,-0.03,-7.36,1.06,1.50,-0.80,-0.32,-0.86,1019.26
4.14,-0.18,0.96,0.15,-7.36,1.06,1.50,-0.80,-0.32,-0.86,1019.26
4.159,-0.18,0.96,0.15,-7.36,1.06,1.50,-0.32,-0.02,-0.32,1019.26
4.18,-0.18,0.96,0.15,-1.12,0.21,0.12,-0.32,-0.02,-0.32,1019.26
4.201,-0.18,0.96,0.15,-1.12,0.21,0.12,-0.32,-0.02,-0.32,1019.05
4.209,-0.10,1.00,-0.01,-1.12,0.21,0.12,-0.32,-0.02,-0.32,1019.05
4.23,-0.10,1.00,-0.01,-1.12,0.21,0.12,-0.16,0.06,-0.15,1019.05
4.249,-0.10,1.00,-0.01,-0.63,0.18,0.33,-0.16,0.06,-0.15,1019.05
4.279,-0.09,0.98,0.03,-0.63,0.18,0.33,-0.16,0.06,-0.15,1019.05
4.28,-0.09,0.98,0.03,-0.63,0.18,0.33,-0.16,0.06,-0.15,1018.92
4.301,-0.09,0.98,0.03,-0.63,0.18,0.33,-0.03,0.09,-0.17,1018.92
4.32,-0.09,0.98,0.03,0.16,0.28,0.31,-0.03,0.09,-0.17,1018.92
4.321,-0.09,0.98,0.03,0.16,0.28,0.31,-0.03,0.09,-0.17,1018.90
4.35,-0.11,0.97,0.02,0.16,0.28,0.31,-0.03,0.09,-0.17,1018.90
4.369,-0.11,0.97,0.02,0.16,0.28,0.31,0.05,0.12,-0.16,1018.90
4.389,-0.11,0.97,0.02,-0.05,0.08,0.47,0.05,0.12,-0.16,1018.90
4.402,-0.11,0.97,0.02,-0.05,0.08,0.47,0.05,0.12,-0.16,1018.99
4.419,-0.09,0.98,0.01,-0.05,0.08,0.47,0.05,0.12,-0.16,1018.99
4.439,-0.09,0.98,0.01,-0.05,0.08,0.47,0.09,0.11,-0.28,1018.99
4.46,-0.09,0.98,0.01,0.38,0.23,0.26,0.09,0.11,-0.28,1018.99
4.481,-0.09,0.98,0.01,0.38,0.23,0.26,0.09,0.11,-0.28,1018.96
4.492,-0.09,1.01,0.01,0.38,0.23,0.26,0.09,0.11,-0.28,1018.96
4.509,-0.09,1.01,0.01,0.38,0.23,0.26,0.25,0.17,-0.48,1018.96
4.521,-0.09,1.01,0.01,0.38,0.23,0.26,0.25,0.17,-0.48,1018.90
4.529,-0.09,1.01,0.01,0.71,0.42,0.56,0.25,0.17,-0.48,1018.90
4.56,-0.06,1.07,-0.05,0.71,0.42,0.56,0.25,0.17,-0.48,1018.90
4.58,-0.06,1.07,-0.05,0.71,0.42,0.56,0.27,0.30,-1.01,1018.90
4.6,-0.06,1.07,-0.05,1.73,1.06,0.55,0.27,0.30,-1.01,1018.90
4.602,-0.06,1.07,-0.05,1.73,1.06,0.55,0.27,0.30,-1.01,1018.97
4.629,0.02,1.28,-0.15,1.73,1.06,0.55,0.27,0.30,-1.01,1018.97
4.65,0.02,1.28,-0.15,1.73,1.06,0.55,0.05,0.25,-2.14,1018.97
4.67,0.02,1.28,-0.15,3.65,2.71,-0.47,0.05,0.25,-2.14,1018.97
4.681,0.02,1.28,-0.15,3.65,2.71,-0.47,0.05,0.25,-2.14,1018.92
4.7,0.29,1.52,-0.11,3.65,2.71,-0.47,0.05,0.25,-2.14,1018.92
4.72,0.29,1.52,-0.11,3.65,2.71,-0.47,-0.50,0.64,-4.22,1018.92
4.72,0.29,1.52,-0.11,3.65,2.71,-0.47,-0.50,0.64,-4.22,1018.78
4.744,0.29,1.52,-0.11,8.02,7.63,-1.51,-0.50,0.64,-4.22,1018.78
4.77,-0.20,1.22,0.11,8.02,7.63,-1.51,-0.50,0.64,-4.22,1018.78
4.791,-0.20,1.22,0.11,8.02,7.63,-1.51,-0.58,0.60,-4.25,1018.78
4.802,-0.20,1.22,0.11,8.02,7.63,-1.51,-0.58,0.60,-4.25,1018.73
4.809,-0.20,1.22,0.11,8.25,7.95,1.19,-0.58,0.60,-4.25,1018.73
4.843,-0.21,0.53,-0.01,8.25,7.95,1.19,-0.58,0.60,-4.25,1018.73
4.861,-0.21,0.53,-0.01,8.25,7.95,1.19,-0.75,0.38,0.65,1018.73
4.88,-0.21,0.53,-0.01,2.39,1.04,1.06,-0.75,0.38,0.65,1018.73
4.881,-0.21,0.53,-0.01,2.39,1.04,1.06,-0.75,0.38,0.65,1018.79
4.91,0.01,0.41,-0.09,2.39,1.04,1.06,-0.75,0.38,0.65,1018.79
4.922,0.01,0.41,-0.09,2.39,1.04,1.06,-0.75,0.38,0.65,1018.76
4.929,0.01,0.41,-0.09,2.39,1.04,1.06,-0.50,0.13,3.23,1018.76
4.95,0.01,0.41,-0.09,6.41,-3.63,-0.28,-0.50,0.13,3.23,1018.76
4.98,-0.06,0.77,-0.23,6.41,-3.63,-0.28,-0.50,0.13,3.23,1018.76
5.0,-0.06,0.77,-0.23,6.41,-3.63,-0.28,-0.06,0.39,4.65,1018.76
5.001,-0.06,0.77,-0.23,6.41,-3.63,-0.28,-0.06,0.39,4.65,1018.82
5.02,-0.06,0.77,-0.23,1.63,-3.37,-1.19,-0.06,0.39,4.65,1018.82
5.049,-0.11,1.28,-0.38,1.63,-3.37,-1.19,-0.06,0.39,4.65,1018.82
5.069,-0.11,1.28,-0.38,1.63,-3.37,-1.19,0.24,0.58,4.64,1018.82
5.081,-0.11,1.28,-0.38,1.63,-3.37,-1.19,0.24,0.58,4.64,1018.90
5.09,-0.11,1.28,-0.38,-2.09,1.00,-2.70,0.24,0.58,4.64,1018.90
5.12,-0.35,1.72,-0.39,-2.09,1.00,-2.70,0.24,0.58,4.64,1018.90
5.12,-0.35,1.72,-0.39,-2.09,1.00,-2.70,0.24,0.58,4.64,1018.88
5.139,-0.35,1.72,-0.39,-2.09,1.00,-2.70,0.07,1.56,3.61,1018.88
5.163,-0.35,1.72,-0.39,-4.67,6.75,-2.73,0.07,1.56,3.61,1018.88
5.19,-1.28,1.14,-0.19,-4.67,6.75,-2.73,0.07,1.56,3.61,1018.88
5.201,-1.28,1.14,-0.19,-4.67,6.75,-2.73,0.07,1.56,3.61,1019.02
5.209,-1.28,1.14,-0.19,-4.67,6.75,-2.73,-0.01,1.39,1.00,1019.02
5.229,-1.28,1.14,-0.19,-10.66,5.03,-1.98,-0.01,1.39,1.00,1019.02
5.26,-0.46,0.97,-0.16,-10.66,5.03,-1.98,-0.01,1.39,1.00,1019.02
5.28,-0.46,0.97,-0.16,-10.66,5.03,-1.98,-0.02,-1.03,-2.96,1019.02
5.281,-0.46,0.97,-0.16,-10.66,5.03,-1.98,-0.02,-1.03,-2.96,1019.06
5.3,-0.46,0.97,-0.16,-15.20,-0.56,-2.73,-0.02,-1.03,-2.96,1019.06
5.321,-0.46,0.97,-0.16,-15.20,-0.56,-2.73,-0.02,-1.03,-2.96,1019.36
5.329,-0.51,1.18,-0.18,-15.20,-0.56,-2.73,-0.02,-1.03,-2.96,1019.36
5.349,-0.51,1.18,-0.18,-15.20,-0.56,-2.73,-0.56,-1.18,-1.90,1019.36
5.369,-0.51,1.18,-0.18,1.86,2.81,-3.12,-0.56,-1.18,-1.90,1019.36
5.409,-0.29,1.00,-0.04,1.86,2.81,-3.12,-0.56,-1.18,-1.90,1019.36
5.409,-0.29,1.00,-0.04,1.86,2.81,-3.12,-0.56,-1.18,-1.90,1019.33
5.42,-0.29,1.00,-0.04,1.86,2.81,-3.12,-0.59,-0.10,-0.38,1019.33
5.44,-0.29,1.00,-0.04,-3.91,0.88,-0.59,-0.59,-0.10,-0.38,1019.33
5.471,-0.12,0.98,0.08,-3.91,0.88,-0.59,-0.59,-0.10,-0.38,1019.33
5.481,-0.12,0.98,0.08,-3.91,0.88,-0.59,-0.59,-0.10,-0.38,1019.10
5.489,-0.12,0.98,0.08,-3.91,0.88,-0.59,-0.24,0.04,-0.15,1019.10
5.51,-0.12,0.98,0.08,-0.60,0.16,0.84,-0.24,0.04,-0.15,1019.10
5.521,-0.12,0.98,0.08,-0.60,0.16,0.84,-0.24,0.04,-0.15,1018.94
5.54,-0.07,0.99,0.07,-0.60,0.16,0.84,-0.24,0.04,-0.15,1018.94
5.559,-0.07,0.99,0.07,-0.60,0.16,0.84,-0.16,0.08,-0.15,1018.94
5.58,-0.07,0.99,0.07,0.04,0.35,-0.09,-0.16,0.08,-0.15,1018.94
5.601,-0.07,0.99,0.07,0.04,0.35,-0.09,-0.16,0.08,-0.15,1018.84
5.612,-0.09,0.98,0.08,0.04,0.35,-0.09,-0.16,0.08,-0.15,1018.84
5.629,-0.09,0.98,0.08,0.04,0.35,-0.09,-0.08,0.17,-0.19,1018.84
5.65,-0.09,0.98,0.08,0.30,0.27,0.21,-0.08,0.17,-0.19,1018.84
5.68,-0.11,0.97,0.08,0.30,0.27,0.21,-0.08,0.17,-0.19,1018.84
5.681,-0.11,0.97,0.08,0.30,0.27,0.21,-0.08,0.17,-0.19,1018.87
5.7,-0.11,0.97,0.08,0.30,0.27,0.21,-0.04,0.20,-0.23,1018.87
5.721,-0.11,0.97,0.08,0.40,0.19,0.26,-0.04,0.20,-0.23,1018.87
5.721,-0.11,0.97,0.08,0.40,0.19,0.26,-0.04,0.20,-0.23,1018.92
5.75,-0.10,0.99,0.08,0.40,0.19,0.26,-0.04,0.20,-0.23,1018.92
5.77,-0.10,0.99,0.08,0.40,0.19,0.26,0.06,0.21,-0.33,1018.92
5.79,-0.10,0.99,0.08,0.43,0.30,0.28,0.06,0.21,-0.33,1018.92
5.801,-0.10,0.99,0.08,0.43,0.30,0.28,0.06,0.21,-0.33,1019.02
5.82,-0.07,1.02,0.07,0.43,0.30,0.28,0.06,0.21,-0.33,1019.02
5.84,-0.07,1.02,0.07,0.43,0.30,0.28,0.07,0.34,-0.64,1019.02
5.862,-0.07,1.02,0.07,1.05,0.59,0.24,0.07,0.34,-0.64,1019.02
5.882,-0.07,1.02,0.07,1.05,0.59,0.24,0.07,0.34,-0.64,1019.12
5.889,-0.06,1.09,0.00,1.05,0.59,0.24,0.07,0.34,-0.64,1019.12
5.91,-0.06,1.09,0.00,1.05,0.59,0.24,-0.12,0.40,-1.31,1019.12
5.921,-0.06,1.09,0.00,1.05,0.59,0.24,-0.12,0.40,-1.31,1019.11
5.93,-0.06,1.09,0.00,2.55,1.42,-0.04,-0.12,0.40,-1.31,1019.11
5.964,-0.03,1.25,-0.10,2.55,1.42,-0.04,-0.12,0.40,-1.31,1019.11
5.98,-0.03,1.25,-0.10,2.55,1.42,-0.04,-0.55,0.32,-2.31,1019.11
6.001,-0.03,1.25,-0.10,3.77,3.06,-1.43,-0.55,0.32,-2.31,1019.11
6.001,-0.03,1.25,-0.10,3.77,3.06,-1.43,-0.55,0.32,-2.31,1018.82
6.03,0.31,1.60,-0.16,3.77,3.06,-1.43,-0.55,0.32,-2.31,1018.82
6.05,0.31,1.60,-0.16,3.77,3.06,-1.43,-1.77,0.88,-4.55,1018.82
6.07,0.31,1.60,-0.16,8.69,8.48,-3.11,-1.77,0.88,-4.55,1018.82
6.081,0.31,1.60,-0.16,8.69,8.48,-3.11,-1.77,0.88,-4.55,1018.59
6.103,-0.44,1.25,0.02,8.69,8.48,-3.11,-1.77,0.88,-4.55,1018.59
6.121,-0.44,1.25,0.02,8.69,8.48,-3.11,-2.21,1.46,-4.00,1018.59
6.121,-0.44,1.25,0.02,8.69,8.48,-3.11,-2.21,1.46,-4.00,1018.74
6.14,-0.44,1.25,0.02,7.53,9.55,-1.04,-2.21,1.46,-4.00,1018.74
6.17,-0.09,0.33,0.09,7.53,9.55,-1.04,-2.21,1.46,-4.00,1018.74
6.19,-0.09,0.33,0.09,7.53,9.55,-1.04,-0.94,2.05,1.14,1018.74
6.201,-0.09,0.33,0.09,7.53,9.55,-1.04,-0.94,2.05,1.14,1018.89
6.21,-0.09,0.33,0.09,2.39,-0.23,1.75,-0.94,2.05,1.14,1018.89
6.24,-0.25,0.32,-0.32,2.39,-0.23,1.75,-0.94,2.05,1.14,1018.89
6.261,-0.25,0.32,-0.32,2.39,-0.23,1.75,-0.57,0.39,3.98,1018.89
6.28,-0.25,0.32,-0.32,5.50,-3.56,-4.61,-0.57,0.39,3.98,1018.89
6.281,-0.25,0.32,-0.32,5.50,-3.56,-4.61,-0.57,0.39,3.98,1018.93
6.31,0.02,0.73,-0.32,5.50,-3.56,-4.61,-0.57,0.39,3.98,1018.93
6.323,0.02,0.73,-0.32,5.50,-3.56,-4.61,-0.57,0.39,3.98,1018.92
6.33,0.02,0.73,-0.32,5.50,-3.56,-4.61,0.40,1.19,4.89,1018.92
6.35,0.02,0.73,-0.32,1.84,-4.06,-1.90,0.40,1.19,4.89,1018.92
6.384,-0.10,1.32,-0.52,1.84,-4.06,-1.90,0.40,1.19,4.89,1018.92
6.4,-0.10,1.32,-0.52,1.84,-4.06,-1.90,0.77,1.72,4.49,1018.92
6.401,-0.10,1.32,-0.52,1.84,-4.06,-1.90,0.77,1.72,4.49,1018.98
6.421,-0.10,1.32,-0.52,-1.54,1.05,-3.31,0.77,1.72,4.49,1018.98
6.45,-0.49,1.86,-0.34,-1.54,1.05,-3.31,0.77,1.72,4.49,1018.98
6.47,-0.49,1.86,-0.34,-1.54,1.05,-3.31,-0.11,2.63,3.12,1018.98
6.481,-0.49,1.86,-0.34,-1.54,1.05,-3.31,-0.11,2.63,3.12,1019.10
6.491,-0.49,1.86,-0.34,-3.53,8.14,-3.10,-0.11,2.63,3.12,1019.10
6.52,-1.70,0.89,-0.22,-3.53,8.14,-3.10,-0.11,2.63,3.12,1019.10
6.521,-1.70,0.89,-0.22,-3.53,8.14,-3.10,-0.11,2.63,3.12,1019.17
6.541,-1.70,0.89,-0.22,-3.53,8.14,-3.10,-0.02,-0.06,1.51,1019.17
6.561,-1.70,0.89,-0.22,-15.46,4.12,-3.36,-0.02,-0.06,1.51,1019.17
6.59,-0.33,1.06,-0.24,-15.46,4.12,-3.36,-0.02,-0.06,1.51,1019.17
6.6,-0.33,1.06,-0.24,-15.46,4.12,-3.36,-0.02,-0.06,1.51,1019.07
6.611,-0.33,1.06,-0.24,-15.46,4.12,-3.36,-0.38,-2.56,-2.56,1019.07
6.633,-0.33,1.06,-0.24,-13.49,-0.37,-0.89,-0.38,-2.56,-2.56,1019.07
6.661,-0.36,1.09,-0.09,-13.49,-0.37,-0.89,-0.38,-2.56,-2.56,1019.07
6.681,-0.36,1.09,-0.09,-13.49,-0.37,-0.89,-0.75,-0.87,-1.88,1019.07
6.682,-0.36,1.09,-0.09,-13.49,-0.37,-0.89,-0.75,-0.87,-1.88,1019.46
6.7,-0.36,1.09,-0.09,1.87,1.39,-3.36,-0.75,-0.87,-1.88,1019.46
6.721,-0.36,1.09,-0.09,1.87,1.39,-3.36,-0.75,-0.87,-1.88,1019.35
6.732,-0.37,1.00,-0.05,1.87,1.39,-3.36,-0.75,-0.87,-1.88,1019.35
6.75,-0.37,1.00,-0.05,1.87,1.39,-3.36,-0.53,-0.01,-0.40,1019.35
6.77,-0.37,1.00,-0.05,-3.09,0.77,0.83,-0.53,-0.01,-0.40,1019.35
6.802,-0.11,0.98,0.09,-3.09,0.77,0.83,-0.53,-0.01,-0.40,1019.35
6.802,-0.11,0.98,0.09,-3.09,0.77,0.83,-0.53,-0.01,-0.40,1019.15
6.82,-0.11,0.98,0.09,-3.09,0.77,0.83,-0.07,0.04,-0.23,1019.15
6.841,-0.11,0.98,0.09,-0.39,0.25,1.12,-0.07,0.04,-0.23,1019.15
6.87,-0.10,0.99,0.04,-0.39,0.25,1.12,-0.07,0.04,-0.23,1019.15
6.883,-0.10,0.99,0.04,-0.39,0.25,1.12,-0.07,0.04,-0.23,1019.07
6.89,-0.10,0.99,0.04,-0.39,0.25,1.12,0.08,0.11,-0.23,1019.07
6.91,-0.10,0.99,0.04,0.28,0.43,0.31,0.08,0.11,-0.23,1019.07
6.921,-0.10,0.99,0.04,0.28,0.43,0.31,0.08,0.11,-0.23,1019.00
6.942,-0.13,0.97,0.01,0.28,0.43,0.31,0.08,0.11,-0.23,1019.00
6.962,-0.13,0.97,0.01,0.28,0.43,0.31,0.13,0.18,-0.25,1019.00
6.984,-0.13,0.97,0.01,0.43,0.33,0.38,0.13,0.18,-0.25,1019.00
7.001,-0.13,0.97,0.01,0.43,0.33,0.38,0.13,0.18,-0.25,1019.01
7.01,-0.13,0.97,-0.02,0.43,0.33,0.38,0.13,0.18,-0.25,1019.01
7.032,-0.13,0.97,-0.02,0.43,0.33,0.38,0.12,0.10,-0.32,1019.01
7.05,-0.13,0.97,-0.02,0.58,0.27,0.21,0.12,0.10,-0.32,1019.01
7.082,-0.16,0.98,-0.01,0.58,0.27,0.21,0.12,0.10,-0.32,1019.01
7.082,-0.16,0.98,-0.01,0.58,0.27,0.21,0.12,0.10,-0.32,1018.97
7.101,-0.16,0.98,-0.01,0.58,0.27,0.21,0.19,0.12,-0.35,1018.97
7.12,-0.16,0.98,-0.01,0.46,0.40,0.21,0.19,0.12,-0.35,1018.97
7.121,-0.16,0.98,-0.01,0.46,0.40,0.21,0.19,0.12,-0.35,1018.91
7.15,-0.12,1.03,-0.04,0.46,0.40,0.21,0.19,0.12,-0.35,1018.91
7.17,-0.12,1.03,-0.04,0.46,0.40,0.21,0.25,0.20,-0.64,1018.91
7.191,-0.12,1.03,-0.04,1.06,0.68,0.39,0.25,0.20,-0.64,1018.91
7.201,-0.12,1.03,-0.04,1.06,0.68,0.39,0.25,0.20,-0.64,1018.97
7.22,-0.09,1.11,-0.13,1.06,0.68,0.39,0.25,0.20,-0.64,1018.97
7.24,-0.09,1.11,-0.13,1.06,0.68,0.39,0.07,0.12,-1.33,1018.97
7.261,-0.09,1.11,-0.13,2.44,1.84,-0.65,0.07,0.12,-1.33,1018.97
7.281,-0.09,1.11,-0.13,2.44,1.84,-0.65,0.07,0.12,-1.33,1018.96
7.29,-0.01,1.29,-0.17,2.44,1.84,-0.65,0.07,0.12,-1.33,1018.96
7.31,-0.01,1.29,-0.17,2.44,1.84,-0.65,0.03,0.15,-2.55,1018.96
7.321,-0.01,1.29,-0.17,2.44,1.84,-0.65,0.03,0.15,-2.55,1018.96
7.33,-0.01,1.29,-0.17,4.52,3.65,-0.35,0.03,0.15,-2.55,1018.96
7.36,0.21,1.41,-0.06,4.52,3.65,-0.35,0.03,0.15,-2.55,1018.96
7.38,0.21,1.41,-0.06,4.52,3.65,-0.35,-0.29,0.35,-4.64,1018.96
7.401,0.21,1.41,-0.06,9.03,8.08,-0.85,-0.29,0.35,-4.64,1018.96
7.402,0.21,1.41,-0.06,9.03,8.08,-0.85,-0.29,0.35,-4.64,1018.72
7.431,-0.47,1.05,0.14,9.03,8.08,-0.85,-0.29,0.35,-4.64,1018.72
7.452,-0.47,1.05,0.14,9.03,8.08,-0.85,0.15,-0.23,-3.75,1018.72
7.47,-0.47,1.05,0.14,5.74,7.48,1.69,0.15,-0.23,-3.75,1018.72
7.481,-0.47,1.05,0.14,5.74,7.48,1.69,0.15,-0.23,-3.75,1018.63
7.502,-0.27,0.54,-0.03,5.74,7.48,1.69,0.15,-0.23,-3.75,1018.63
7.52,-0.27,0.54,-0.03,5.74,7.48,1.69,0.27,-0.10,1.35,1018.63
7.521,-0.27,0.54,-0.03,5.74,7.48,1.69,0.27,-0.10,1.35,1018.78
7.542,-0.27,0.54,-0.03,1.49,0.74,0.84,0.27,-0.10,1.35,1018.78
7.57,-0.07,0.43,0.02,1.49,0.74,0.84,0.27,-0.10,1.35,1018.78
7.591,-0.07,0.43,0.02,1.49,0.74,0.84,0.94,-0.27,4.01,1018.78
7.602,-0.07,0.43,0.02,1.49,0.74,0.84,0.94,-0.27,4.01,1018.87
7.61,-0.07,0.43,0.02,5.67,-3.30,0.93,0.94,-0.27,4.01,1018.87
7.641,0.03,0.79,0.09,5.67,-3.30,0.93,0.94,-0.27,4.01,1018.87
7.662,0.03,0.79,0.09,5.67,-3.30,0.93,1.25,0.25,4.97,1018.87
7.681,0.03,0.79,0.09,5.67,-3.30,0.93,1.25,0.25,4.97,1019.02
7.682,0.03,0.79,0.09,1.93,-3.19,2.51,1.25,0.25,4.97,1019.02
7.711,-0.45,1.42,0.10,1.93,-3.19,2.51,1.25,0.25,4.97,1019.02
7.721,-0.45,1.42,0.10,1.93,-3.19,2.51,1.25,0.25,4.97,1019.23
7.73,-0.45,1.42,0.10,1.93,-3.19,2.51,0.98,-0.32,4.72,1019.23
7.751,-0.45,1.42,0.10,-1.26,2.87,3.26,0.98,-0.32,4.72,1019.23
7.781,-0.45,1.60,-0.07,-1.26,2.87,3.26,0.98,-0.32,4.72,1019.23
7.801,-0.45,1.60,-0.07,-1.26,2.87,3.26,-0.34,-2.18,4.03,1019.23
7.802,-0.45,1.60,-0.07,-1.26,2.87,3.26,-0.34,-2.18,4.03,1018.89
7.821,-0.45,1.60,-0.07,-7.84,6.94,1.62,-0.34,-2.18,4.03,1018.89
7.85,-1.10,1.22,0.08,-7.84,6.94,1.62,-0.34,-2.18,4.03,1018.89
7.87,-1.10,1.22,0.08,-7.84,6.94,1.62,-0.66,-2.69,2.21,1018.89
7.881,-1.10,1.22,0.08,-7.84,6.94,1.62,-0.66,-2.69,2.21,1018.87
7.891,-1.10,1.22,0.08,-10.26,4.89,2.60,-0.66,-2.69,2.21,1018.87
7.922,-1.02,1.28,0.02,-10.26,4.89,2.60,-0.66,-2.69,2.21,1018.87
7.922,-1.02,1.28,0.02,-10.26,4.89,2.60,-0.66,-2.69,2.21,1018.73
7.94,-1.02,1.28,0.02,-10.26,4.89,2.60,-0.67,-3.74,-0.86,1018.73
7.962,-1.02,1.28,0.02,-14.44,0.90,3.25,-0.67,-3.74,-0.86,1018.73
7.991,0.07,0.96,-0.59,-14.44,0.90,3.25,-0.67,-3.74,-0.86,1018.73
8.005,0.07,0.96,-0.59,-14.44,0.90,3.25,-0.67,-3.74,-0.86,1019.09
8.011,0.07,0.96,-0.59,-14.44,0.90,3.25,-1.23,-1.41,-2.21,1019.09
8.031,0.07,0.96,-0.59,2.68,3.10,-3.11,-1.23,-1.41,-2.21,1019.09
8.062,-0.20,1.02,0.02,2.68,3.10,-3.11,-1.23,-1.41,-2.21,1019.09
8.08,-0.20,1.02,0.02,2.68,3.10,-3.11,-0.97,-0.20,-0.74,1019.09
8.081,-0.20,1.02,0.02,2.68,3.10,-3.11,-0.97,-0.20,-0.74,1019.08
8.105,-0.20,1.02,0.02,-4.95,1.11,-0.38,-0.97,-0.20,-0.74,1019.08
8.121,-0.20,1.02,0.02,-4.95,1.11,-0.38,-0.97,-0.20,-0.74,1019.08
8.13,-0.19,0.96,0.11,-4.95,1.11,-0.38,-0.97,-0.20,-0.74,1019.08
8.152,-0.19,0.96,0.11,-4.95,1.11,-0.38,-0.21,-0.29,-0.33,1019.08
8.17,-0.19,0.96,0.11,-0.04,0.17,1.68,-0.21,-0.29,-0.33,1019.08
8.204,-0.12,0.98,-0.06,-0.04,0.17,1.68,-0.21,-0.29,-0.33,1019.08
8.205,-0.12,0.98,-0.06,-0.04,0.17,1.68,-0.21,-0.29,-0.33,1019.04
8.221,-0.12,0.98,-0.06,-0.04,0.17,1.68,-0.01,-0.01,-0.15,1019.04
8.242,-0.12,0.98,-0.06,-0.41,0.33,0.54,-0.01,-0.01,-0.15,1019.04
8.271,-0.11,0.96,-0.07,-0.41,0.33,0.54,-0.01,-0.01,-0.15,1019.04
8.282,-0.11,0.96,-0.07,-0.41,0.33,0.54,-0.01,-0.01,-0.15,1018.98
8.29,-0.11,0.96,-0.07,-0.41,0.33,0.54,0.02,0.05,-0.12,1018.98
8.311,-0.11,0.96,-0.07,0.08,0.24,0.27,0.02,0.05,-0.12,1018.98
8.321,-0.11,0.96,-0.07,0.08,0.24,0.27,0.02,0.05,-0.12,1019.01
8.341,-0.10,0.97,-0.08,0.08,0.24,0.27,0.02,0.05,-0.12,1019.01
8.361,-0.10,0.97,-0.08,0.08,0.24,0.27,0.01,-0.01,-0.18,1019.01
8.381,-0.10,0.97,-0.08,0.29,0.22,0.12,0.01,-0.01,-0.18,1019.01
8.403,-0.10,0.97,-0.08,0.29,0.22,0.12,0.01,-0.01,-0.18,1018.98
8.41,-0.12,0.97,-0.05,0.29,0.22,0.12,0.01,-0.01,-0.18,1018.98
8.431,-0.12,0.97,-0.05,0.29,0.22,0.12,0.09,-0.00,-0.22,1018.98
8.452,-0.12,0.97,-0.05,0.33,0.32,0.24,0.09,-0.00,-0.22,1018.98
8.481,-0.12,0.98,-0.06,0.33,0.32,0.24,0.09,-0.00,-0.22,1018.98
8.482,-0.12,0.98,-0.06,0.33,0.32,0.24,0.09,-0.00,-0.22,1018.99
8.507,-0.12,0.98,-0.06,0.33,0.32,0.24,0.22,0.06,-0.29,1018.99
8.521,-0.12,0.98,-0.06,0.33,0.32,0.24,0.22,0.06,-0.29,1019.02
8.522,-0.12,0.98,-0.06,0.49,0.40,0.74,0.22,0.06,-0.29,1019.02
8.551,-0.13,0.99,-0.10,0.49,0.40,0.74,0.22,0.06,-0.29,1019.02
8.572,-0.13,0.99,-0.10,0.49,0.40,0.74,0.34,0.13,-0.44,1019.02
8.591,-0.13,0.99,-0.10,0.66,0.52,0.51,0.34,0.13,-0.44,1019.02
8.606,-0.13,0.99,-0.10,0.66,0.52,0.51,0.34,0.13,-0.44,1019.08
8.621,-0.14,1.01,-0.14,0.66,0.52,0.51,0.34,0.13,-0.44,1019.08
8.642,-0.14,1.01,-0.14,0.66,0.52,0.51,0.52,0.17,-0.67,1019.08
8.662,-0.14,1.01,-0.14,0.98,0.84,0.68,0.52,0.17,-0.67,1019.08
8.682,-0.14,1.01,-0.14,0.98,0.84,0.68,0.52,0.17,-0.67,1019.17
8.691,-0.06,1.12,-0.15,0.98,0.84,0.68,0.52,0.17,-0.67,1019.17
8.712,-0.06,1.12,-0.15,0.98,0.84,0.68,0.71,-0.00,-1.33,1019.17
8.728,-0.06,1.12,-0.15,0.98,0.84,0.68,0.71,-0.00,-1.33,1019.07
8.731,-0.06,1.12,-0.15,2.27,1.65,0.67,0.71,-0.00,-1.33,1019.07
8.762,0.07,1.35,-0.27,2.27,1.65,0.67,0.71,-0.00,-1.33,1019.07
8.781,0.07,1.35,-0.27,2.27,1.65,0.67,0.82,-0.31,-2.79,1019.07
8.802,0.07,1.35,-0.27,2.27,1.65,0.67,0.82,-0.31,-2.79,1018.94
8.802,0.07,1.35,-0.27,5.63,5.11,0.48,0.82,-0.31,-2.79,1018.94
8.832,-0.34,1.08,0.09,5.63,5.11,0.48,0.82,-0.31,-2.79,1018.94
8.851,-0.34,1.08,0.09,5.63,5.11,0.48,1.87,-1.73,-3.33,1018.94
8.873,-0.34,1.08,0.09,6.11,6.27,1.80,1.87,-1.73,-3.33,1018.94
8.882,-0.34,1.08,0.09,6.11,6.27,1.80,1.87,-1.73,-3.33,1018.61
8.902,-0.92,0.64,-0.11,6.11,6.27,1.80,1.87,-1.73,-3.33,1018.61
8.922,-0.92,0.64,-0.11,6.11,6.27,1.80,2.56,-3.71,0.38,1018.61
8.923,-0.92,0.64,-0.11,6.11,6.27,1.80,2.56,-3.71,0.38,1018.79
8.942,-0.92,0.64,-0.11,-1.50,1.27,2.52,2.56,-3.71,0.38,1018.79
8.971,0.15,0.72,0.10,-1.50,1.27,2.52,2.56,-3.71,0.38,1018.79
8.99,0.15,0.72,0.10,-1.50,1.27,2.52,2.03,-2.79,2.02,1018.79
9.003,0.15,0.72,0.10,-1.50,1.27,2.52,2.03,-2.79,2.02,1018.88
9.011,0.15,0.72,0.10,4.29,0.03,0.19,2.03,-2.79,2.02,1018.88
9.042,0.02,0.69,0.24,4.29,0.03,0.19,2.03,-2.79,2.02,1018.88
9.061,0.02,0.69,0.24,4.29,0.03,0.19,2.37,-1.67,3.19,1018.88
9.081,0.02,0.69,0.24,4.29,0.03,0.19,2.37,-1.67,3.19,1018.98
9.082,0.02,0.69,0.24,4.75,-1.61,4.29,2.37,-1.67,3.19,1018.98
9.111,-0.07,1.06,0.38,4.75,-1.61,4.29,2.37,-1.67,3.19,1018.98
9.123,-0.07,1.06,0.38,4.75,-1.61,4.29,2.37,-1.67,3.19,1019.05
9.131,-0.07,1.06,0.38,4.75,-1.61,4.29,1.98,-1.94,3.96,1019.05
9.151,-0.07,1.06,0.38,1.73,-0.15,5.53,1.98,-1.94,3.96,1019.05
9.181,-0.25,1.38,0.40,1.73,-0.15,5.53,1.98,-1.94,3.96,1019.05
9.202,-0.25,1.38,0.40,1.73,-0.15,5.53,1.08,-3.19,4.42,1019.05
9.202,-0.25,1.38,0.40,1.73,-0.15,5.53,1.08,-3.19,4.42,1018.99
9.223,-0.25,1.38,0.40,-2.30,3.69,6.63,1.08,-3.19,4.42,1018.99
9.252,0.10,1.49,0.50,-2.30,3.69,6.63,1.08,-3.19,4.42,1018.99
9.272,0.10,1.49,0.50,-2.30,3.69,6.63,-0.16,-1.81,4.05,1018.99
9.282,0.10,1.49,0.50,-2.30,3.69,6.63,-0.16,-1.81,4.05,1018.88
9.291,0.10,1.49,0.50,-2.32,5.40,6.81,-0.16,-1.81,4.05,1018.88
9.322,-0.37,1.37,0.19,-2.32,5.40,6.81,-0.16,-1.81,4.05,1018.88
9.322,-0.37,1.37,0.19,-2.32,5.40,6.81,-0.16,-1.81,4.05,1018.93
9.341,-0.37,1.37,0.19,-2.32,5.40,6.81,-0.60,0.41,3.03,1018.93
9.362,-0.37,1.37,0.19,-4.08,6.00,5.19,-0.60,0.41,3.03,1018.93
9.391,-1.32,1.06,-0.21,-4.08,6.00,5.19,-0.60,0.41,3.03,1018.93
9.401,-1.32,1.06,-0.21,-4.08,6.00,5.19,-0.60,0.41,3.03,1018.99
9.411,-1.32,1.06,-0.21,-4.08,6.00,5.19,-0.67,-1.42,0.33,1018.99
9.431,-1.32,1.06,-0.21,-11.90,2.75,1.83,-0.67,-1.42,0.33,1018.99
9.462,0.08,1.14,-0.62,-11.90,2.75,1.83,-0.67,-1.42,0.33,1018.99
9.482,0.08,1.14,-0.62,-11.90,2.75,1.83,-0.79,-3.46,-2.62,1018.99
9.483,0.08,1.14,-0.62,-11.90,2.75,1.83,-0.79,-3.46,-2.62,1019.11
9.502,0.08,1.14,-0.62,-11.88,2.18,-1.54,-0.79,-3.46,-2.62,1019.11
9.523,0.08,1.14,-0.62,-11.88,2.18,-1.54,-0.79,-3.46,-2.62,1019.39
9.531,-0.52,1.05,-0.09,-11.88,2.18,-1.54,-0.79,-3.46,-2.62,1019.39
9.551,-0.52,1.05,-0.09,-11.88,2.18,-1.54,-1.19,-0.47,-1.63,1019.39
9.575,-0.52,1.05,-0.09,2.67,0.25,-5.40,-1.19,-0.47,-1.63,1019.39
9.601,-0.52,1.05,-0.09,2.67,0.25,-5.40,-1.19,-0.47,-1.63,1019.02
9.602,-0.14,0.97,0.01,2.67,0.25,-5.40,-1.19,-0.47,-1.63,1019.02
9.622,-0.14,0.97,0.01,2.67,0.25,-5.40,-0.66,-0.23,-0.68,1019.02
9.642,-0.14,0.97,0.01,-1.67,0.60,1.24,-0.66,-0.23,-0.68,1019.02
9.671,-0.16,0.99,-0.04,-1.67,0.60,1.24,-0.66,-0.23,-0.68,1019.02
9.683,-0.16,0.99,-0.04,-1.67,0.60,1.24,-0.66,-0.23,-0.68,1018.81
9.691,-0.16,0.99,-0.04,-1.67,0.60,1.24,-0.30,-0.08,-0.36,1018.81
9.711,-0.16,0.99,-0.04,-0.18,0.15,1.35,-0.30,-0.08,-0.36,1018.81
9.721,-0.16,0.99,-0.04,-0.18,0.15,1.35,-0.30,-0.08,-0.36,1018.86
9.741,-0.09,0.98,0.02,-0.18,0.15,1.35,-0.30,-0.08,-0.36,1018.86
9.762,-0.09,0.98,0.02,-0.18,0.15,1.35,-0.10,0.02,-0.29,1018.86
9.782,-0.09,0.98,0.02,0.09,0.44,0.19,-0.10,0.02,-0.29,1018.86
9.802,-0.09,0.98,0.02,0.09,0.44,0.19,-0.10,0.02,-0.29,1018.96
9.811,-0.14,0.97,-0.02,0.09,0.44,0.19,-0.10,0.02,-0.29,1018.96
9.831,-0.14,0.97,-0.02,0.09,0.44,0.19,-0.00,0.08,-0.22,1018.96
9.852,-0.14,0.97,-0.02,0.12,0.19,0.54,-0.00,0.08,-0.22,1018.96
9.882,-0.13,0.97,-0.01,0.12,0.19,0.54,-0.00,0.08,-0.22,1018.96
9.883,-0.13,0.97,-0.01,0.12,0.19,0.54,-0.00,0.08,-0.22,1019.01
9.901,-0.13,0.97,-0.01,0.12,0.19,0.54,0.06,0.09,-0.24,1019.01
9.922,-0.13,0.97,-0.01,0.12,0.19,0.54,0.06,0.09,-0.24,1019.04
9.922,-0.13,0.97,-0.01,0.27,0.17,0.52,0.06,0.09,-0.24,1019.04
9.952,-0.14,0.98,-0.03,0.27,0.17,0.52,0.06,0.09,-0.24,1019.04
9.971,-0.14,0.98,-0.03,0.27,0.17,0.52,0.12,0.08,-0.29,1019.04
9.994,-0.14,0.98,-0.03,0.32,0.26,0.40,0.12,0.08,-0.29,1019.04
10.002,-0.14,0.98,-0.03,0.32,0.26,0.40,0.12,0.08,-0.29,1019.04
10.022,-0.11,1.01,-0.02,0.32,0.26,0.40,0.12,0.08,-0.29,1019.04
10.041,-0.11,1.01,-0.02,0.32,0.26,0.40,0.24,0.09,-0.52,1019.04
10.061,-0.11,1.01,-0.02,0.85,0.60,0.51,0.24,0.09,-0.52,1019.04
10.082,-0.11,1.01,-0.02,0.85,0.60,0.51,0.24,0.09,-0.52,1018.96
10.095,-0.04,1.13,-0.12,0.85,0.60,0.51,0.24,0.09,-0.52,1018.96
10.111,-0.04,1.13,-0.12,0.85,0.60,0.51,0.14,0.12,-1.26,1018.96
10.122,-0.04,1.13,-0.12,0.85,0.60,0.51,0.14,0.12,-1.26,1019.06
10.134,-0.04,1.13,-0.12,2.33,1.53,0.15,0.14,0.12,-1.26,1019.06
10.162,-0.00,1.27,-0.18,2.33,1.53,0.15,0.14,0.12,-1.26,1019.06
10.181,-0.00,1.27,-0.18,2.33,1.53,0.15,0.12,0.13,-2.44,1019.06
10.201,-0.00,1.27,-0.18,2.33,1.53,0.15,0.12,0.13,-2.44,1018.95
10.202,-0.00,1.27,-0.18,4.52,3.59,-0.29,0.12,0.13,-2.44,1018.95
10.231,0.19,1.39,-0.11,4.52,3.59,-0.29,0.12,0.13,-2.44,1018.95
10.251,0.19,1.39,-0.11,4.52,3.59,-0.29,-0.10,0.09,-4.38,1018.95
10.272,0.19,1.39,-0.11,8.45,7.21,-0.90,-0.10,0.09,-4.38,1018.95
10.281,0.19,1.39,-0.11,8.45,7.21,-0.90,-0.10,0.09,-4.38,1018.63
10.302,-0.40,1.13,0.26,8.45,7.21,-0.90,-0.10,0.09,-4.38,1018.63
10.321,-0.40,1.13,0.26,8.45,7.21,-0.90,-0.10,0.09,-4.38,1018.70
10.322,-0.40,1.13,0.26,8.45,7.21,-0.90,0.79,-1.11,-4.51,1018.70
10.342,-0.40,1.13,0.26,6.45,7.71,1.45,0.79,-1.11,-4.51,1018.70
10.371,-0.43,0.50,-0.06,6.45,7.71,1.45,0.79,-1.11,-4.51,1018.70
10.394,-0.43,0.50,-0.06,6.45,7.71,1.45,0.68,-1.02,1.27,1018.70
10.401,-0.43,0.50,-0.06,6.45,7.71,1.45,0.68,-1.02,1.27,1018.85
10.411,-0.43,0.50,-0.06,-2.12,0.60,0.57,0.68,-1.02,1.27,1018.85
10.443,-0.03,0.43,0.05,-2.12,0.60,0.57,0.68,-1.02,1.27,1018.85
10.462,-0.03,0.43,0.05,-2.12,0.60,0.57,1.00,-0.22,3.62,1018.85
10.482,-0.03,0.43,0.05,-2.12,0.60,0.57,1.00,-0.22,3.62,1018.92
10.482,-0.03,0.43,0.05,8.84,-2.47,1.50,1.00,-0.22,3.62,1018.92
10.512,0.03,0.71,0.00,8.84,-2.47,1.50,1.00,-0.22,3.62,1018.92
10.522,0.03,0.71,0.00,8.84,-2.47,1.50,1.00,-0.22,3.62,1018.96
10.531,0.03,0.71,0.00,8.84,-2.47,1.50,1.01,0.54,4.78,1018.96
10.552,0.03,0.71,0.00,2.59,-3.48,1.91,1.01,0.54,4.78,1018.96
10.584,-0.25,1.31,-0.00,2.59,-3.48,1.91,1.01,0.54,4.78,1018.96
10.603,-0.25,1.31,-0.00,2.59,-3.48,1.91,0.80,0.21,4.63,1018.96
10.603,-0.25,1.31,-0.00,2.59,-3.48,1.91,0.80,0.21,4.63,1018.98
10.622,-0.25,1.31,-0.00,-0.76,1.25,1.87,0.80,0.21,4.63,1018.98
10.652,-0.46,1.56,-0.11,-0.76,1.25,1.87,0.80,0.21,4.63,1018.98
10.672,-0.46,1.56,-0.11,-0.76,1.25,1.87,0.36,-0.88,4.79,1018.98
10.682,-0.46,1.56,-0.11,-0.76,1.25,1.87,0.36,-0.88,4.79,1018.92
10.692,-0.46,1.56,-0.11,-8.18,5.89,1.77,0.36,-0.88,4.79,1018.92
10.722,-0.81,1.40,0.12,-8.18,5.89,1.77,0.36,-0.88,4.79,1018.92
10.723,-0.81,1.40,0.12,-8.18,5.89,1.77,0.36,-0.88,4.79,1019.07
10.741,-0.81,1.40,0.12,-8.18,5.89,1.77,-0.33,-0.38,2.10,1019.07
10.762,-0.81,1.40,0.12,-7.54,6.76,1.54,-0.33,-0.38,2.10,1019.07
10.797,-1.31,0.99,-0.04,-7.54,6.76,1.54,-0.33,-0.38,2.10,1019.07
10.801,-1.31,0.99,-0.04,-7.54,6.76,1.54,-0.33,-0.38,2.10,1019.02
10.812,-1.31,0.99,-0.04,-7.54,6.76,1.54,-0.58,-2.50,-1.46,1019.02
10.832,-1.31,0.99,-0.04,-15.32,1.29,2.75,-0.58,-2.50,-1.46,1019.02
10.863,0.42,1.09,-0.53,-15.32,1.29,2.75,-0.58,-2.50,-1.46,1019.02
10.882,0.42,1.09,-0.53,-15.32,1.29,2.75,-1.29,-1.87,-2.82,1019.02
10.883,0.42,1.09,-0.53,-15.32,1.29,2.75,-1.29,-1.87,-2.82,1019.54
10.904,0.42,1.09,-0.53,2.03,1.58,-3.36,-1.29,-1.87,-2.82,1019.54
10.921,0.42,1.09,-0.53,2.03,1.58,-3.36,-1.29,-1.87,-2.82,1019.22
10.932,-0.43,1.05,-0.05,2.03,1.58,-3.36,-1.29,-1.87,-2.82,1019.22
10.951,-0.43,1.05,-0.05,2.03,1.58,-3.36,-0.96,-0.28,-0.92,1019.22
10.972,-0.43,1.05,-0.05,-4.55,1.14,0.46,-0.96,-0.28,-0.92,1019.22
11.001,-0.43,1.05,-0.05,-4.55,1.14,0.46,-0.96,-0.28,-0.92,1018.78
11.002,-0.18,0.95,0.14,-4.55,1.14,0.46,-0.96,-0.28,-0.92,1018.78
11.022,-0.18,0.95,0.14,-4.55,1.14,0.46,-0.37,-0.14,-0.47,1018.78
11.044,-0.18,0.95,0.14,-0.39,0.13,0.74,-0.37,-0.14,-0.47,1018.78
11.072,-0.13,1.01,-0.03,-0.39,0.13,0.74,-0.37,-0.14,-0.47,1018.78
11.08,-0.13,1.01,-0.03,-0.39,0.13,0.74,-0.37,-0.14,-0.47,1018.87
11.091,-0.13,1.01,-0.03,-0.39,0.13,0.74,-0.17,0.05,-0.30,1018.87
11.112,-0.13,1.01,-0.03,-0.35,0.45,0.33,-0.17,0.05,-0.30,1018.87
11.121,-0.13,1.01,-0.03,-0.35,0.45,0.33,-0.17,0.05,-0.30,1018.92
11.142,-0.13,0.97,0.01,-0.35,0.45,0.33,-0.17,0.05,-0.30,1018.92
11.162,-0.13,0.97,0.01,-0.35,0.45,0.33,-0.00,0.12,-0.30,1018.92
11.182,-0.13,0.97,0.01,0.35,0.30,0.74,-0.00,0.12,-0.30,1018.92
11.2,-0.13,0.97,0.01,0.35,0.30,0.74,-0.00,0.12,-0.30,1018.96
11.211,-0.16,0.96,-0.02,0.35,0.30,0.74,-0.00,0.12,-0.30,1018.96
11.232,-0.16,0.96,-0.02,0.35,0.30,0.74,0.04,0.10,-0.28,1018.96
11.252,-0.16,0.96,-0.02,0.29,0.24,0.51,0.04,0.10,-0.28,1018.96
11.28,-0.16,0.96,-0.02,0.29,0.24,0.51,0.04,0.10,-0.28,1019.05
11.281,-0.16,0.96,-0.00,0.29,0.24,0.51,0.04,0.10,-0.28,1019.05
11.301,-0.16,0.96,-0.00,0.29,0.24,0.51,0.07,0.03,-0.30,1019.05
11.32,-0.16,0.96,-0.00,0.29,0.24,0.51,0.07,0.03,-0.30,1019.10
11.322,-0.16,0.96,-0.00,0.27,0.21,0.30,0.07,0.03,-0.30,1019.10
11.352,-0.14,1.01,-0.02,0.27,0.21,0.30,0.07,0.03,-0.30,1019.10
11.372,-0.14,1.01,-0.02,0.27,0.21,0.30,0.16,0.09,-0.49,1019.10
11.397,-0.14,1.01,-0.02,0.71,0.48,0.66,0.16,0.09,-0.49,1019.10
11.401,-0.14,1.01,-0.02,0.71,0.48,0.66,0.16,0.09,-0.49,1019.03
11.422,-0.07,1.11,-0.11,0.71,0.48,0.66,0.16,0.09,-0.49,1019.03
11.442,-0.07,1.11,-0.11,0.71,0.48,0.66,0.05,0.13,-1.19,1019.03
11.462,-0.07,1.11,-0.11,2.29,1.58,0.11,0.05,0.13,-1.19,1019.03
11.481,-0.07,1.11,-0.11,2.29,1.58,0.11,0.05,0.13,-1.19,1019.02
11.494,-0.01,1.27,-0.15,2.29,1.58,0.11,0.05,0.13,-1.19,1019.02
11.512,-0.01,1.27,-0.15,2.29,1.58,0.11,-0.01,0.15,-2.38,1019.02
11.521,-0.01,1.27,-0.15,2.29,1.58,0.11,-0.01,0.15,-2.38,1018.92
11.532,-0.01,1.27,-0.15,4.29,3.37,-0.50,-0.01,0.15,-2.38,1018.92
11.562,0.26,1.46,-0.15,4.29,3.37,-0.50,-0.01,0.15,-2.38,1018.92
11.582,0.26,1.46,-0.15,4.29,3.37,-0.50,-0.35,0.21,-4.53,1018.92
11.601,0.26,1.46,-0.15,4.29,3.37,-0.50,-0.35,0.21,-4.53,1018.61
11.602,0.26,1.46,-0.15,8.75,7.86,-1.35,-0.35,0.21,-4.53,1018.61
11.632,-0.47,1.20,0.23,8.75,7.86,-1.35,-0.35,0.21,-4.53,1018.61
11.651,-0.47,1.20,0.23,8.75,7.86,-1.35,0.26,-0.82,-4.43,1018.61
11.674,-0.47,1.20,0.23,6.52,8.34,0.79,0.26,-0.82,-4.43,1018.61
11.681,-0.47,1.20,0.23,6.52,8.34,0.79,0.26,-0.82,-4.43,1018.80
11.702,-0.33,0.49,-0.01,6.52,8.34,0.79,0.26,-0.82,-4.43,1018.80
11.721,-0.33,0.49,-0.01,6.52,8.34,0.79,0.26,-0.82,-4.43,1018.84
11.722,-0.33,0.49,-0.01,6.52,8.34,0.79,0.26,-0.28,0.93,1018.84
11.743,-0.33,0.49,-0.01,-0.58,1.39,0.82,0.26,-0.28,0.93,1018.84
11.773,-0.07,0.38,0.04,-0.58,1.39,0.82,0.26,-0.28,0.93,1018.84
11.792,-0.07,0.38,0.04,-0.58,1.39,0.82,0.90,-0.10,3.34,1018.84
11.801,-0.07,0.38,0.04,-0.58,1.39,0.82,0.90,-0.10,3.34,1018.93
11.813,-0.07,0.38,0.04,8.46,-2.85,1.62,0.90,-0.10,3.34,1018.93
11.842,-0.01,0.66,-0.02,8.46,-2.85,1.62,0.90,-0.10,3.34,1018.93
11.862,-0.01,0.66,-0.02,8.46,-2.85,1.62,1.09,0.10,5.08,1018.93
11.882,-0.01,0.66,-0.02,8.46,-2.85,1.62,1.09,0.10,5.08,1018.95
11.882,-0.01,0.66,-0.02,1.71,-3.92,1.49,1.09,0.10,5.08,1018.95
11.915,-0.14,1.28,-0.04,1.71,-3.92,1.49,1.09,0.10,5.08,1018.95
11.921,-0.14,1.28,-0.04,1.71,-3.92,1.49,1.09,0.10,5.08,1018.98
11.932,-0.14,1.28,-0.04,1.71,-3.92,1.49,1.00,-0.10,5.08,1018.98
11.952,-0.14,1.28,-0.04,-0.45,0.77,1.24,1.00,-0.10,5.08,1018.98
11.982,-0.32,1.76,-0.09,-0.45,0.77,1.24,1.00,-0.10,5.08,1018.98
12.001,-0.32,1.76,-0.09,-0.45,0.77,1.24,1.00,-0.10,5.08,1018.93
12.002,-0.32,1.76,-0.09,-0.45,0.77,1.24,0.16,0.36,4.92,1018.93
12.023,-0.32,1.76,-0.09,-6.34,7.01,1.44,0.16,0.36,4.92,1018.93
12.053,-1.39,1.35,0.18,-6.34,7.01,1.44,0.16,0.36,4.92,1018.93
12.076,-1.39,1.35,0.18,-6.34,7.01,1.44,-0.25,-0.08,1.52,1018.93
12.084,-1.39,1.35,0.18,-6.34,7.01,1.44,-0.25,-0.08,1.52,1019.14
12.092,-1.39,1.35,0.18,-9.68,7.91,1.59,-0.25,-0.08,1.52,1019.14
12.122,-1.39,1.35,0.18,-9.68,7.91,1.59,-0.25,-0.08,1.52,1019.02
12.123,-0.70,1.17,-0.25,-9.68,7.91,1.59,-0.25,-0.08,1.52,1019.02
12.142,-0.70,1.17,-0.25,-9.68,7.91,1.59,-0.68,-2.75,-2.14,1019.02
12.165,-0.70,1.17,-0.25,-18.14,0.81,1.31,-0.68,-2.75,-2.14,1019.02
12.192,-0.13,1.07,-0.39,-18.14,0.81,1.31,-0.68,-2.75,-2.14,1019.02
12.204,-0.13,1.07,-0.39,-18.14,0.81,1.31,-0.68,-2.75,-2.14,1019.39
12.214,-0.13,1.07,-0.39,-18.14,0.81,1.31,-1.02,-1.12,-2.53,1019.39
12.232,-0.13,1.07,-0.39,7.34,2.84,-4.20,-1.02,-1.12,-2.53,1019.39
12.269,-0.27,1.03,-0.04,7.34,2.84,-4.20,-1.02,-1.12,-2.53,1019.39
12.284,-0.27,1.03,-0.04,7.34,2.84,-4.20,-1.02,-1.12,-2.53,1019.11
12.284,-0.27,1.03,-0.04,7.34,2.84,-4.20,-0.84,-0.18,-0.73,1019.11
12.304,-0.27,1.03,-0.04,-7.23,0.93,-0.33,-0.84,-0.18,-0.73,1019.11
12.321,-0.27,1.03,-0.04,-7.23,0.93,-0.33,-0.84,-0.18,-0.73,1018.68
12.334,-0.16,0.97,0.09,-7.23,0.93,-0.33,-0.84,-0.18,-0.73,1018.68
12.352,-0.16,0.97,0.09,-7.23,0.93,-0.33,-0.29,-0.03,-0.28,1018.68
12.373,-0.16,0.97,0.09,-0.72,0.11,1.50,-0.29,-0.03,-0.28,1018.68
12.401,-0.16,0.97,0.09,-0.72,0.11,1.50,-0.29,-0.03,-0.28,1018.74
12.403,-0.09,1.00,0.00,-0.72,0.11,1.50,-0.29,-0.03,-0.28,1018.74
12.423,-0.09,1.00,0.00,-0.72,0.11,1.50,-0.14,0.14,-0.18,1018.74
12.443,-0.09,1.00,0.00,-0.06,0.40,0.36,-0.14,0.14,-0.18,1018.74
12.472,-0.10,0.98,0.02,-0.06,0.40,0.36,-0.14,0.14,-0.18,1018.74
12.482,-0.10,0.98,0.02,-0.06,0.40,0.36,-0.14,0.14,-0.18,1018.81
12.493,-0.10,0.98,0.02,-0.06,0.40,0.36,-0.04,0.17,-0.22,1018.81
12.513,-0.10,0.98,0.02,0.46,0.32,0.51,-0.04,0.17,-0.22,1018.81
12.521,-0.10,0.98,0.02,0.46,0.32,0.51,-0.04,0.17,-0.22,1018.95
12.543,-0.12,0.97,0.00,0.46,0.32,0.51,-0.04,0.17,-0.22,1018.95
12.563,-0.12,0.97,0.00,0.46,0.32,0.51,-0.06,0.14,-0.26,1018.95
12.583,-0.12,0.97,0.00,0.37,0.23,0.22,-0.06,0.14,-0.26,1018.95
12.601,-0.12,0.97,0.00,0.37,0.23,0.22,-0.06,0.14,-0.26,1019.12
12.612,-0.11,0.99,0.02,0.37,0.23,0.22,-0.06,0.14,-0.26,1019.12
12.633,-0.11,0.99,0.02,0.37,0.23,0.22,-0.01,0.12,-0.37,1019.12
12.653,-0.11,0.99,0.02,0.60,0.42,0.26,-0.01,0.12,-0.37,1019.12
12.681,-0.11,0.99,0.02,0.60,0.42,0.26,-0.01,0.12,-0.37,1019.25
12.682,-0.07,1.03,0.03,0.60,0.42,0.26,-0.01,0.12,-0.37,1019.25
12.704,-0.07,1.03,0.03,0.60,0.42,0.26,0.01,0.25,-0.72,1019.25
12.721,-0.07,1.03,0.03,0.60,0.42,0.26,0.01,0.25,-0.72,1019.17
12.722,-0.07,1.03,0.03,1.18,0.59,0.61,0.01,0.25,-0.72,1019.17
12.753,-0.05,1.13,-0.10,1.18,0.59,0.61,0.01,0.25,-0.72,1019.17
12.772,-0.05,1.13,-0.10,1.18,0.59,0.61,-0.20,0.28,-1.54,1019.17
12.793,-0.05,1.13,-0.10,3.07,1.85,-0.16,-0.20,0.28,-1.54,1019.17
12.801,-0.05,1.13,-0.10,3.07,1.85,-0.16,-0.20,0.28,-1.54,1018.87
12.823,0.06,1.32,-0.13,3.07,1.85,-0.16,-0.20,0.28,-1.54,1018.87
12.843,0.06,1.32,-0.13,3.07,1.85,-0.16,-0.35,0.19,-2.87,1018.87
12.863,0.06,1.32,-0.13,4.94,4.06,-1.30,-0.35,0.19,-2.87,1018.87
12.883,0.06,1.32,-0.13,4.94,4.06,-1.30,-0.35,0.19,-2.87,1018.65
12.892,0.24,1.49,-0.08,4.94,4.06,-1.30,-0.35,0.19,-2.87,1018.65
12.913,0.24,1.49,-0.08,4.94,4.06,-1.30,-0.87,0.07,-5.10,1018.65
12.92,0.24,1.49,-0.08,4.94,4.06,-1.30,-0.87,0.07,-5.10,1018.56
12.939,0.24,1.49,-0.08,10.25,9.14,-2.07,-0.87,0.07,-5.10,1018.56
12.963,-0.42,1.02,0.25,10.25,9.14,-2.07,-0.87,0.07,-5.10,1018.56
12.983,-0.42,1.02,0.25,10.25,9.14,-2.07,-0.15,-0.24,-3.85,1018.56
13.009,-0.42,1.02,0.25,10.25,9.14,-2.07,-0.15,-0.24,-3.85,1018.81
13.01,-0.42,1.02,0.25,4.97,8.43,1.51,-0.15,-0.24,-3.85,1018.81
13.048,-0.25,0.42,0.09,4.97,8.43,1.51,-0.15,-0.24,-3.85,1018.81
13.058,-0.25,0.42,0.09,4.97,8.43,1.51,0.18,0.97,1.53,1018.81
13.072,-0.25,0.42,0.09,1.62,-0.81,1.10,0.18,0.97,1.53,1018.81
13.081,-0.25,0.42,0.09,1.62,-0.81,1.10,0.18,0.97,1.53,1019.05
13.102,-0.22,0.35,-0.05,1.62,-0.81,1.10,0.18,0.97,1.53,1019.05
13.121,-0.22,0.35,-0.05,1.62,-0.81,1.10,0.18,0.97,1.53,1019.03
13.122,-0.22,0.35,-0.05,1.62,-0.81,1.10,0.82,0.30,4.19,1019.03
13.143,-0.22,0.35,-0.05,6.52,-3.77,1.04,0.82,0.30,4.19,1019.03
13.173,0.02,0.72,-0.05,6.52,-3.77,1.04,0.82,0.30,4.19,1019.03
13.193,0.02,0.72,-0.05,6.52,-3.77,1.04,0.97,0.25,5.65,1019.03
13.203,0.02,0.72,-0.05,6.52,-3.77,1.04,0.97,0.25,5.65,1019.02
13.213,0.02,0.72,-0.05,0.84,-3.87,0.95,0.97,0.25,5.65,1019.02
13.243,-0.20,1.50,-0.16,0.84,-3.87,0.95,0.97,0.25,5.65,1019.02
13.264,-0.20,1.50,-0.16,0.84,-3.87,0.95,0.79,-0.08,5.12,1019.02
13.282,-0.20,1.50,-0.16,0.84,-3.87,0.95,0.79,-0.08,5.12,1018.97
13.282,-0.20,1.50,-0.16,-0.62,2.65,-0.05,0.79,-0.08,5.12,1018.97
13.314,-0.50,1.76,-0.05,-0.62,2.65,-0.05,0.79,-0.08,5.12,1018.97
13.321,-0.50,1.76,-0.05,-0.62,2.65,-0.05,0.79,-0.08,5.12,1019.10
13.337,-0.50,1.76,-0.05,-0.62,2.65,-0.05,0.29,1.00,4.30,1019.10
13.353,-0.50,1.76,-0.05,-7.87,8.38,0.55,0.29,1.00,4.30,1019.10
13.384,-1.79,1.11,-0.02,-7.87,8.38,0.55,0.29,1.00,4.30,1019.10
13.402,-1.79,1.11,-0.02,-7.87,8.38,0.55,0.29,1.00,4.30,1019.13
13.403,-1.79,1.11,-0.02,-7.87,8.38,0.55,-0.35,-0.57,-0.36,1019.13
13.424,-1.79,1.11,-0.02,-14.54,5.68,1.98,-0.35,-0.57,-0.36,1019.13
13.456,0.38,1.31,-0.59,-14.54,5.68,1.98,-0.35,-0.57,-0.36,1019.13
13.473,0.38,1.31,-0.59,-14.54,5.68,1.98,-0.86,-1.96,-3.39,1019.13
13.48,0.38,1.31,-0.59,-14.54,5.68,1.98,-0.86,-1.96,-3.39,1019.42
13.493,0.38,1.31,-0.59,-6.74,2.16,-1.64,-0.86,-1.96,-3.39,1019.42
13.521,0.38,1.31,-0.59,-6.74,2.16,-1.64,-0.86,-1.96,-3.39,1019.30
13.522,-0.91,1.02,-0.01,-6.74,2.16,-1.64,-0.86,-1.96,-3.39,1019.30
13.543,-0.91,1.02,-0.01,-6.74,2.16,-1.64,-0.80,-0.67,-1.00,1019.30
13.563,-0.91,1.02,-0.01,-3.15,1.18,-1.12,-0.80,-0.67,-1.00,1019.30
13.593,-0.09,0.98,0.10,-3.15,1.18,-1.12,-0.80,-0.67,-1.00,1019.30
13.602,-0.09,0.98,0.10,-3.15,1.18,-1.12,-0.80,-0.67,-1.00,1019.16
13.613,-0.09,0.98,0.10,-3.15,1.18,-1.12,-0.38,-0.09,-0.43,1019.16
13.633,-0.09,0.98,0.10,-2.13,0.43,-0.39,-0.38,-0.09,-0.43,1019.16
13.663,-0.13,0.99,0.02,-2.13,0.43,-0.39,-0.38,-0.09,-0.43,1019.16
13.682,-0.13,0.99,0.02,-2.13,0.43,-0.39,-0.38,-0.09,-0.43,1019.01
13.682,-0.13,0.99,0.02,-2.13,0.43,-0.39,-0.15,0.05,-0.27,1019.01
13.703,-0.13,0.99,0.02,0.13,0.32,0.70,-0.15,0.05,-0.27,1019.01
13.721,-0.13,0.99,0.02,0.13,0.32,0.70,-0.15,0.05,-0.27,1018.90
13.733,-0.09,0.98,0.02,0.13,0.32,0.70,-0.15,0.05,-0.27,1018.90
13.753,-0.09,0.98,0.02,0.13,0.32,0.70,-0.01,0.06,-0.27,1018.90
13.774,-0.09,0.98,0.02,0.43,0.37,0.52,-0.01,0.06,-0.27,1018.90
13.801,-0.09,0.98,0.02,0.43,0.37,0.52,-0.01,0.06,-0.27,1018.95
13.805,-0.12,0.97,0.01,0.43,0.37,0.52,-0.01,0.06,-0.27,1018.95
13.823,-0.12,0.97,0.01,0.43,0.37,0.52,0.06,0.10,-0.28,1018.95
13.843,-0.12,0.97,0.01,0.36,0.23,0.58,0.06,0.10,-0.28,1018.95
13.874,-0.13,0.98,-0.00,0.36,0.23,0.58,0.06,0.10,-0.28,1018.95
13.881,-0.13,0.98,-0.00,0.36,0.23,0.58,0.06,0.10,-0.28,1019.02
13.894,-0.13,0.98,-0.00,0.36,0.23,0.58,0.13,0.09,-0.34,1019.02
13.914,-0.13,0.98,-0.00,0.61,0.31,0.56,0.13,0.09,-0.34,1019.02
13.924,-0.13,0.98,-0.00,0.61,0.31,0.56,0.13,0.09,-0.34,1018.93
13.944,-0.14,1.00,-0.02,0.61,0.31,0.56,0.13,0.09,-0.34,1018.93
13.963,-0.14,1.00,-0.02,0.61,0.31,0.56,0.23,0.15,-0.43,1018.93
13.984,-0.14,1.00,-0.02,0.55,0.46,0.57,0.23,0.15,-0.43,1018.93
14.001,-0.14,1.00,-0.02,0.55,0.46,0.57,0.23,0.15,-0.43,1018.98
14.014,-0.06,1.07,-0.07,0.55,0.46,0.57,0.23,0.15,-0.43,1018.98
14.033,-0.06,1.07,-0.07,0.55,0.46,0.57,0.20,0.27,-1.01,1018.98
14.053,-0.06,1.07,-0.07,1.95,1.17,0.65,0.20,0.27,-1.01,1018.98
14.081,-0.06,1.07,-0.07,1.95,1.17,0.65,0.20,0.27,-1.01,1019.00
14.083,-0.03,1.21,-0.17,1.95,1.17,0.65,0.20,0.27,-1.01,1019.00
14.106,-0.03,1.21,-0.17,1.95,1.17,0.65,0.03,0.18,-2.01,1019.00
14.122,-0.03,1.21,-0.17,1.95,1.17,0.65,0.03,0.18,-2.01,1018.97
14.124,-0.03,1.21,-0.17,3.50,2.60,-0.56,0.03,0.18,-2.01,1018.97
14.153,0.26,1.46,-0.19,3.50,2.60,-0.56,0.03,0.18,-2.01,1018.97
14.173,0.26,1.46,-0.19,3.50,2.60,-0.56,-0.32,0.35,-4.06,1018.97
14.194,0.26,1.46,-0.19,7.58,6.77,-1.36,-0.32,0.35,-4.06,1018.97
14.201,0.26,1.46,-0.19,7.58,6.77,-1.36,-0.32,0.35,-4.06,1018.80
14.223,-0.33,1.28,0.16,7.58,6.77,-1.36,-0.32,0.35,-4.06,1018.80
14.244,-0.33,1.28,0.16,7.58,6.77,-1.36,-0.17,-0.36,-5.00,1018.80
14.263,-0.33,1.28,0.16,9.49,8.77,0.16,-0.17,-0.36,-5.00,1018.80
14.28,-0.33,1.28,0.16,9.49,8.77,0.16,-0.17,-0.36,-5.00,1018.68
14.294,-0.45,0.65,0.03,9.49,8.77,0.16,-0.17,-0.36,-5.00,1018.68
14.313,-0.45,0.65,0.03,9.49,8.77,0.16,-0.15,-0.17,0.24,1018.68
14.324,-0.45,0.65,0.03,9.49,8.77,0.16,-0.15,-0.17,0.24,1018.80
14.333,-0.45,0.65,0.03,-0.84,3.31,1.45,-0.15,-0.17,0.24,1018.80
14.364,0.10,0.40,-0.04,-0.84,3.31,1.45,-0.15,-0.17,0.24,1018.80
14.383,0.10,0.40,-0.04,-0.84,3.31,1.45,0.04,0.16,2.83,1018.80
14.402,0.10,0.40,-0.04,-0.84,3.31,1.45,0.04,0.16,2.83,1018.89
14.406,0.10,0.40,-0.04,7.98,-2.13,0.93,0.04,0.16,2.83,1018.89
14.434,0.03,0.61,-0.11,7.98,-2.13,0.93,0.04,0.16,2.83,1018.89
14.454,0.03,0.61,-0.11,7.98,-2.13,0.93,0.41,0.64,4.55,1018.89
14.473,0.03,0.61,-0.11,3.19,-4.31,0.63,0.41,0.64,4.55,1018.89
14.48,0.03,0.61,-0.11,3.19,-4.31,0.63,0.41,0.64,4.55,1018.93
14.504,-0.11,1.11,-0.26,3.19,-4.31,0.63,0.41,0.64,4.55,1018.93
14.522,-0.11,1.11,-0.26,3.19,-4.31,0.63,0.41,0.64,4.55,1018.92
14.523,-0.11,1.11,-0.26,3.19,-4.31,0.63,0.59,0.49,4.81,1018.92
14.544,-0.11,1.11,-0.26,-0.50,-0.58,-0.33,0.59,0.49,4.81,1018.92
14.574,-0.41,1.76,-0.26,-0.50,-0.58,-0.33,0.59,0.49,4.81,1018.92
14.593,-0.41,1.76,-0.26,-0.50,-0.58,-0.33,0.07,0.23,4.39,1018.92
14.6,-0.41,1.76,-0.26,-0.50,-0.58,-0.33,0.07,0.23,4.39,1018.90
14.614,-0.41,1.76,-0.26,-4.57,6.15,-1.24,0.07,0.23,4.39,1018.90
14.643,-1.07,1.37,0.03,-4.57,6.15,-1.24,0.07,0.23,4.39,1018.90
14.665,-1.07,1.37,0.03,-4.57,6.15,-1.24,-0.14,0.60,2.40,1018.90
14.681,-1.07,1.37,0.03,-4.57,6.15,-1.24,-0.14,0.60,2.40,1019.17
14.683,-1.07,1.37,0.03,-10.29,7.45,-0.24,-0.14,0.60,2.40,1019.17
14.714,-1.04,1.10,-0.21,-10.29,7.45,-0.24,-0.14,0.60,2.40,1019.17
14.724,-1.04,1.10,-0.21,-10.29,7.45,-0.24,-0.14,0.60,2.40,1019.29
14.734,-1.04,1.10,-0.21,-10.29,7.45,-0.24,-0.32,-1.79,-2.08,1019.29
14.754,-1.04,1.10,-0.21,-16.06,0.39,0.75,-0.32,-1.79,-2.08,1019.29
14.784,-0.30,1.04,-0.34,-16.06,0.39,0.75,-0.32,-1.79,-2.08,1019.29
14.801,-0.30,1.04,-0.34,-16.06,0.39,0.75,-0.32,-1.79,-2.08,1019.37
14.803,-0.30,1.04,-0.34,-16.06,0.39,0.75,-0.81,-1.21,-2.52,1019.37
14.825,-0.30,1.04,-0.34,2.93,2.91,-3.81,-0.81,-1.21,-2.52,1019.37
14.854,-0.27,1.03,-0.08,2.93,2.91,-3.81,-0.81,-1.21,-2.52,1019.37
14.873,-0.27,1.03,-0.08,2.93,2.91,-3.81,-0.85,-0.20,-0.60,1019.37
14.881,-0.27,1.03,-0.08,2.93,2.91,-3.81,-0.85,-0.20,-0.60,1019.22
14.893,-0.27,1.03,-0.08,-7.19,0.75,-0.92,-0.85,-0.20,-0.60,1019.22
14.921,-0.27,1.03,-0.08,-7.19,0.75,-0.92,-0.85,-0.20,-0.60,1018.97
14.926,-0.13,0.98,0.09,-7.19,0.75,-0.92,-0.85,-0.20,-0.60,1018.97
14.944,-0.13,0.98,0.09,-7.19,0.75,-0.92,-0.32,-0.01,-0.27,1018.97
14.963,-0.13,0.98,0.09,-0.48,0.23,1.48,-0.32,-0.01,-0.27,1018.97
14.994,-0.09,1.00,0.04,-0.48,0.23,1.48,-0.32,-0.01,-0.27,1018.97
15.0,-0.09,1.00,0.04,-0.48,0.23,1.48,-0.32,-0.01,-0.27,1018.71
15.014,-0.09,1.00,0.04,-0.48,0.23,1.48,-0.14,0.12,-0.20,1018.71
15.033,-0.09,1.00,0.04,0.16,0.41,0.41,-0.14,0.12,-0.20,1018.71
15.064,-0.11,0.97,0.04,0.16,0.41,0.41,-0.14,0.12,-0.20,1018.71
15.081,-0.11,0.97,0.04,0.16,0.41,0.41,-0.14,0.12,-0.20,1018.75
15.083,-0.11,0.97,0.04,0.16,0.41,0.41,-0.02,0.14,-0.17,1018.75
15.104,-0.11,0.97,0.04,0.24,0.22,0.68,-0.02,0.14,-0.17,1018.75
15.122,-0.11,0.97,0.04,0.24,0.22,0.68,-0.02,0.14,-0.17,1018.92
15.133,-0.11,0.97,0.02,0.24,0.22,0.68,-0.02,0.14,-0.17,1018.92
15.154,-0.11,0.97,0.02,0.24,0.22,0.68,-0.04,0.14,-0.21,1018.92
15.174,-0.11,0.97,0.02,0.42,0.22,0.28,-0.04,0.14,-0.21,1018.92
15.2,-0.11,0.97,0.02,0.42,0.22,0.28,-0.04,0.14,-0.21,1019.09
15.204,-0.11,1.00,0.03,0.42,0.22,0.28,-0.04,0.14,-0.21,1019.09
15.226,-0.11,1.00,0.03,0.42,0.22,0.28,-0.00,0.14,-0.30,1019.09
15.243,-0.11,1.00,0.03,0.51,0.35,0.26,-0.00,0.14,-0.30,1019.09
15.276,-0.10,1.00,0.05,0.51,0.35,0.26,-0.00,0.14,-0.30,1019.09
15.281,-0.10,1.00,0.05,0.51,0.35,0.26,-0.00,0.14,-0.30,1019.11
15.294,-0.10,1.00,0.05,0.51,0.35,0.26,0.06,0.22,-0.46,1019.11
15.314,-0.10,1.00,0.05,0.61,0.45,0.43,0.06,0.22,-0.46,1019.11
15.321,-0.10,1.00,0.05,0.61,0.45,0.43,0.06,0.22,-0.46,1019.06
15.344,-0.05,1.07,-0.01,0.61,0.45,0.43,0.06,0.22,-0.46,1019.06
15.364,-0.05,1.07,-0.01,0.61,0.45,0.43,-0.01,0.36,-1.07,1019.06
15.384,-0.05,1.07,-0.01,2.31,1.17,0.64,-0.01,0.36,-1.07,1019.06
15.401,-0.05,1.07,-0.01,2.31,1.17,0.64,-0.01,0.36,-1.07,1019.04
15.414,-0.04,1.20,-0.12,2.31,1.17,0.64,-0.01,0.36,-1.07,1019.04
15.433,-0.04,1.20,-0.12,2.31,1.17,0.64,-0.27,0.24,-1.99,1019.04
15.454,-0.04,1.20,-0.12,3.49,2.54,-0.93,-0.27,0.24,-1.99,1019.04
15.481,-0.04,1.20,-0.12,3.49,2.54,-0.93,-0.27,0.24,-1.99,1018.66
15.484,0.21,1.46,-0.19,3.49,2.54,-0.93,-0.27,0.24,-1.99,1018.66
15.504,0.21,1.46,-0.19,3.49,2.54,-0.93,-0.80,0.25,-3.90,1018.66
15.521,0.21,1.46,-0.19,3.49,2.54,-0.93,-0.80,0.25,-3.90,1018.47
15.527,0.21,1.46,-0.19,7.22,6.46,-2.17,-0.80,0.25,-3.90,1018.47
15.554,-0.31,1.30,0.06,7.22,6.46,-2.17,-0.80,0.25,-3.90,1018.47
15.574,-0.31,1.30,0.06,7.22,6.46,-2.17,-1.09,0.01,-4.88,1018.47
15.594,-0.31,1.30,0.06,9.09,8.96,-1.86,-1.09,0.01,-4.88,1018.47
15.601,-0.31,1.30,0.06,9.09,8.96,-1.86,-1.09,0.01,-4.88,1018.92
15.624,-0.43,0.54,0.17,9.09,8.96,-1.86,-1.09,0.01,-4.88,1018.92
15.644,-0.43,0.54,0.17,9.09,8.96,-1.86,-0.52,1.24,-0.39,1018.92
15.664,-0.43,0.54,0.17,3.09,3.30,1.76,-0.52,1.24,-0.39,1018.92
15.681,-0.43,0.54,0.17,3.09,3.30,1.76,-0.52,1.24,-0.39,1018.98
15.694,-0.03,0.43,-0.14,3.09,3.30,1.76,-0.52,1.24,-0.39,1018.98
15.715,-0.03,0.43,-0.14,3.09,3.30,1.76,0.43,0.49,2.77,1018.98
15.722,-0.03,0.43,-0.14,3.09,3.30,1.76,0.43,0.49,2.77,1018.97
15.734,-0.03,0.43,-0.14,5.02,-2.45,0.21,0.43,0.49,2.77,1018.97
15.765,-0.00,0.57,-0.06,5.02,-2.45,0.21,0.43,0.49,2.77,1018.97
15.785,-0.00,0.57,-0.06,5.02,-2.45,0.21,0.84,0.65,4.87,1018.97
15.802,-0.00,0.57,-0.06,5.02,-2.45,0.21,0.84,0.65,4.87,1019.02
15.804,-0.00,0.57,-0.06,1.46,-4.46,0.35,0.84,0.65,4.87,1019.02
15.834,-0.02,1.17,-0.20,1.46,-4.46,0.35,0.84,0.65,4.87,1019.02
15.854,-0.02,1.17,-0.20,1.46,-4.46,0.35,0.84,0.53,4.55,1019.02
15.874,-0.02,1.17,-0.20,0.16,-0.62,0.30,0.84,0.53,4.55,1019.02
15.881,-0.02,1.17,-0.20,0.16,-0.62,0.30,0.84,0.53,4.55,1019.00
15.904,-0.51,1.59,-0.13,0.16,-0.62,0.30,0.84,0.53,4.55,1019.00
15.921,-0.51,1.59,-0.13,0.16,-0.62,0.30,0.84,0.53,4.55,1018.90
15.923,-0.51,1.59,-0.13,0.16,-0.62,0.30,0.45,0.46,4.63,1018.90
15.944,-0.51,1.59,-0.13,-5.76,5.78,0.36,0.45,0.46,4.63,1018.90
15.974,-0.88,1.45,-0.12,-5.76,5.78,0.36,0.45,0.46,4.63,1018.90
15.994,-0.88,1.45,-0.12,-5.76,5.78,0.36,-0.05,0.29,2.40,1018.90
16.001,-0.88,1.45,-0.12,-5.76,5.78,0.36,-0.05,0.29,2.40,1019.12
16.014,-0.88,1.45,-0.12,-7.91,7.00,-0.33,-0.05,0.29,2.40,1019.12
16.044,-1.56,0.86,-0.05,-7.91,7.00,-0.33,-0.05,0.29,2.40,1019.12
16.064,-1.56,0.86,-0.05,-7.91,7.00,-0.33,-0.29,-2.11,-1.28,1019.12
16.081,-1.56,0.86,-0.05,-7.91,7.00,-0.33,-0.29,-2.11,-1.28,1019.08
16.084,-1.56,0.86,-0.05,-16.28,0.94,1.87,-0.29,-2.11,-1.28,1019.08
16.12,0.58,1.21,-0.46,-16.28,0.94,1.87,-0.29,-2.11,-1.28,1019.08
16.121,0.58,1.21,-0.46,-16.28,0.94,1.87,-0.29,-2.11,-1.28,1019.43
16.134,0.58,1.21,-0.46,-16.28,0.94,1.87,-1.06,-1.79,-2.79,1019.43
16.154,0.58,1.21,-0.46,1.11,1.99,-2.94,-1.06,-1.79,-2.79,1019.43
16.184,-0.62,1.03,-0.04,1.11,1.99,-2.94,-1.06,-1.79,-2.79,1019.43
16.201,-0.62,1.03,-0.04,1.11,1.99,-2.94,-1.06,-1.79,-2.79,1019.25
16.204,-0.62,1.03,-0.04,1.11,1.99,-2.94,-0.73,-0.41,-0.94,1019.25
16.225,-0.62,1.03,-0.04,-3.25,1.03,0.66,-0.73,-0.41,-0.94,1019.25
16.254,-0.19,0.96,0.08,-3.25,1.03,0.66,-0.73,-0.41,-0.94,1019.25
16.274,-0.19,0.96,0.08,-3.25,1.03,0.66,-0.36,-0.05,-0.35,1019.25
16.281,-0.19,0.96,0.08,-3.25,1.03,0.66,-0.36,-0.05,-0.35,1018.88
16.295,-0.19,0.96,0.08,-1.74,0.40,0.02,-0.36,-0.05,-0.35,1018.88
16.322,-0.19,0.96,0.08,-1.74,0.40,0.02,-0.36,-0.05,-0.35,1018.86
16.325,-0.13,0.99,-0.00,-1.74,0.40,0.02,-0.36,-0.05,-0.35,1018.86
16.344,-0.13,0.99,-0.00,-1.74,0.40,0.02,-0.13,0.07,-0.22,1018.86
16.364,-0.13,0.99,-0.00,-0.07,0.34,0.59,-0.13,0.07,-0.22,1018.86
16.396,-0.13,0.97,0.00,-0.07,0.34,0.59,-0.13,0.07,-0.22,1018.86
16.402,-0.13,0.97,0.00,-0.07,0.34,0.59,-0.13,0.07,-0.22,1018.95
16.414,-0.13,0.97,0.00,-0.07,0.34,0.59,0.01,0.11,-0.24,1018.95
16.434,-0.13,0.97,0.00,0.37,0.40,0.57,0.01,0.11,-0.24,1018.95
16.464,-0.15,0.97,-0.02,0.37,0.40,0.57,0.01,0.11,-0.24,1018.95
16.482,-0.15,0.97,-0.02,0.37,0.40,0.57,0.01,0.11,-0.24,1019.00
16.484,-0.15,0.97,-0.02,0.37,0.40,0.57,0.05,0.11,-0.25,1019.00
16.505,-0.15,0.97,-0.02,0.39,0.28,0.58,0.05,0.11,-0.25,1019.00
16.521,-0.15,0.97,-0.02,0.39,0.28,0.58,0.05,0.11,-0.25,1019.04
16.539,-0.16,0.97,-0.02,0.39,0.28,0.58,0.05,0.11,-0.25,1019.04
16.554,-0.16,0.97,-0.02,0.39,0.28,0.58,0.07,0.06,-0.28,1019.04
16.575,-0.16,0.97,-0.02,0.39,0.32,0.29,0.07,0.06,-0.28,1019.04
16.601,-0.16,0.97,-0.02,0.39,0.32,0.29,0.07,0.06,-0.28,1018.99
16.605,-0.15,0.99,0.01,0.39,0.32,0.29,0.07,0.06,-0.28,1018.99
16.625,-0.15,0.99,0.01,0.39,0.32,0.29,0.27,0.13,-0.40,1018.99
16.644,-0.15,0.99,0.01,0.64,0.43,0.94,0.27,0.13,-0.40,1018.99
16.674,-0.09,1.07,-0.11,0.64,0.43,0.94,0.27,0.13,-0.40,1018.99
16.681,-0.09,1.07,-0.11,0.64,0.43,0.94,0.27,0.13,-0.40,1019.00
16.695,-0.09,1.07,-0.11,0.64,0.43,0.94,0.23,0.25,-0.93,1019.00
16.715,-0.09,1.07,-0.11,1.79,1.20,0.71,0.23,0.25,-0.93,1019.00
16.722,-0.09,1.07,-0.11,1.79,1.20,0.71,0.23,0.25,-0.93,1019.02
16.745,-0.06,1.20,-0.18,1.79,1.20,0.71,0.23,0.25,-0.93,1019.02
16.764,-0.06,1.20,-0.18,1.79,1.20,0.71,0.13,0.14,-1.87,1019.02
16.784,-0.06,1.20,-0.18,3.38,2.69,-0.60,0.13,0.14,-1.87,1019.02
16.801,-0.06,1.20,-0.18,3.38,2.69,-0.60,0.13,0.14,-1.87,1018.92
16.815,0.17,1.41,-0.23,3.38,2.69,-0.60,0.13,0.14,-1.87,1018.92
16.834,0.17,1.41,-0.23,3.38,2.69,-0.60,-0.15,0.21,-3.66,1018.92
16.854,0.17,1.41,-0.23,6.85,6.26,-1.14,-0.15,0.21,-3.66,1018.92
16.881,0.17,1.41,-0.23,6.85,6.26,-1.14,-0.15,0.21,-3.66,1018.76
16.884,-0.31,1.27,0.15,6.85,6.26,-1.14,-0.15,0.21,-3.66,1018.76
16.904,-0.31,1.27,0.15,6.85,6.26,-1.14,0.23,-0.93,-4.39,1018.76
16.921,-0.31,1.27,0.15,6.85,6.26,-1.14,0.23,-0.93,-4.39,1018.55
16.924,-0.31,1.27,0.15,7.74,8.02,-0.07,0.23,-0.93,-4.39,1018.55
16.954,-0.29,0.59,0.01,7.74,8.02,-0.07,0.23,-0.93,-4.39,1018.55
16.975,-0.29,0.59,0.01,7.74,8.02,-0.07,0.28,-0.39,0.24,1018.55
16.995,-0.29,0.59,0.01,0.55,2.41,1.15,0.28,-0.39,0.24,1018.55
17.001,-0.29,0.59,0.01,0.55,2.41,1.15,0.28,-0.39,0.24,1018.88
17.024,-0.04,0.47,0.04,0.55,2.41,1.15,0.28,-0.39,0.24,1018.88
17.044,-0.04,0.47,0.04,0.55,2.41,1.15,0.82,-0.02,2.91,1018.88
17.064,-0.04,0.47,0.04,7.72,-2.19,1.98,0.82,-0.02,2.91,1018.88
17.081,-0.04,0.47,0.04,7.72,-2.19,1.98,0.82,-0.02,2.91,1018.92
17.095,0.00,0.70,-0.03,7.72,-2.19,1.98,0.82,-0.02,2.91,1018.92
17.114,0.00,0.70,-0.03,7.72,-2.19,1.98,0.99,-0.02,4.38,1018.92
17.121,0.00,0.70,-0.03,7.72,-2.19,1.98,0.99,-0.02,4.38,1019.03
17.135,0.00,0.70,-0.03,1.85,-3.40,2.00,0.99,-0.02,4.38,1019.03
17.165,-0.25,1.24,0.09,1.85,-3.40,2.00,0.99,-0.02,4.38,1019.03
17.185,-0.25,1.24,0.09,1.85,-3.40,2.00,0.83,-0.47,4.26,1019.03
17.201,-0.25,1.24,0.09,1.85,-3.40,2.00,0.83,-0.47,4.26,1019.00
17.204,-0.25,1.24,0.09,-0.16,0.86,1.98,0.83,-0.47,4.26,1019.00
17.235,-0.47,1.48,0.09,-0.16,0.86,1.98,0.83,-0.47,4.26,1019.00
17.259,-0.47,1.48,0.09,-0.16,0.86,1.98,0.41,-0.86,4.24,1019.00
17.276,-0.47,1.48,0.09,-6.17,5.35,3.37,0.41,-0.86,4.24,1019.00
17.281,-0.47,1.48,0.09,-6.17,5.35,3.37,0.41,-0.86,4.24,1018.93
17.305,-0.54,1.33,0.01,-6.17,5.35,3.37,0.41,-0.86,4.24,1018.93
17.322,-0.54,1.33,0.01,-6.17,5.35,3.37,0.41,-0.86,4.24,1019.01
17.325,-0.54,1.33,0.01,-6.17,5.35,3.37,0.00,-0.80,2.98,1019.01
17.35,-0.54,1.33,0.01,-7.64,5.29,2.42,0.00,-0.80,2.98,1019.01
17.375,-1.24,1.00,-0.06,-7.64,5.29,2.42,0.00,-0.80,2.98,1019.01
17.395,-1.24,1.00,-0.06,-7.64,5.29,2.42,-0.48,-2.53,-0.08,1019.01
17.402,-1.24,1.00,-0.06,-7.64,5.29,2.42,-0.48,-2.53,-0.08,1019.24
17.414,-1.24,1.00,-0.06,-11.14,2.28,2.33,-0.48,-2.53,-0.08,1019.24
17.444,0.25,1.14,-0.52,-11.14,2.28,2.33,-0.48,-2.53,-0.08,1019.24
17.465,0.25,1.14,-0.52,-11.14,2.28,2.33,-0.96,-2.92,-2.68,1019.24
17.483,0.25,1.14,-0.52,-11.14,2.28,2.33,-0.96,-2.92,-2.68,1019.43
17.484,0.25,1.14,-0.52,-5.90,1.71,-0.50,-0.96,-2.92,-2.68,1019.43
17.531,-0.72,1.03,-0.11,-5.90,1.71,-0.50,-0.96,-2.92,-2.68,1019.43
17.532,-0.72,1.03,-0.11,-5.90,1.71,-0.50,-0.96,-2.92,-2.68,1019.34
17.534,-0.72,1.03,-0.11,-5.90,1.71,-0.50,-1.11,-0.21,-0.88,1019.34
17.555,-0.72,1.03,-0.11,-1.91,0.92,-2.24,-1.11,-0.21,-0.88,1019.34
17.585,-0.06,0.95,0.08,-1.91,0.92,-2.24,-1.11,-0.21,-0.88,1019.34
17.601,-0.06,0.95,0.08,-1.91,0.92,-2.24,-1.11,-0.21,-0.88,1018.86
17.604,-0.06,0.95,0.08,-1.91,0.92,-2.24,-0.49,-0.24,-0.56,1018.86
17.626,-0.06,0.95,0.08,-0.47,0.35,0.78,-0.49,-0.24,-0.56,1018.86
17.655,-0.17,0.99,-0.07,-0.47,0.35,0.78,-0.49,-0.24,-0.56,1018.86
17.675,-0.17,0.99,-0.07,-0.47,0.35,0.78,-0.24,-0.05,-0.25,1018.86
17.682,-0.17,0.99,-0.07,-0.47,0.35,0.78,-0.24,-0.05,-0.25,1018.73
17.696,-0.17,0.99,-0.07,-0.25,0.29,0.69,-0.24,-0.05,-0.25,1018.73
17.721,-0.17,0.99,-0.07,-0.25,0.29,0.69,-0.24,-0.05,-0.25,1018.80
17.724,-0.09,0.98,-0.02,-0.25,0.29,0.69,-0.24,-0.05,-0.25,1018.80
17.745,-0.09,0.98,-0.02,-0.25,0.29,0.69,-0.06,-0.04,-0.27,1018.80
17.766,-0.09,0.98,-0.02,0.50,0.45,0.49,-0.06,-0.04,-0.27,1018.80
17.795,-0.13,0.97,-0.06,0.50,0.45,0.49,-0.06,-0.04,-0.27,1018.80
17.801,-0.13,0.97,-0.06,0.50,0.45,0.49,-0.06,-0.04,-0.27,1019.09
17.814,-0.13,0.97,-0.06,0.50,0.45,0.49,0.00,0.02,-0.27,1019.09
17.838,-0.13,0.97,-0.06,0.32,0.31,0.33,0.00,0.02,-0.27,1019.09
17.869,-0.13,0.97,-0.04,0.32,0.31,0.33,0.00,0.02,-0.27,1019.09
17.881,-0.13,0.97,-0.04,0.32,0.31,0.33,0.00,0.02,-0.27,1019.13
17.884,-0.13,0.97,-0.04,0.32,0.31,0.33,0.03,0.01,-0.31,1019.13
17.905,-0.13,0.97,-0.04,0.51,0.34,0.27,0.03,0.01,-0.31,1019.13
17.922,-0.13,0.97,-0.04,0.51,0.34,0.27,0.03,0.01,-0.31,1019.10
17.937,-0.16,0.98,-0.05,0.51,0.34,0.27,0.03,0.01,-0.31,1019.10
17.956,-0.16,0.98,-0.05,0.51,0.34,0.27,0.20,0.04,-0.36,1019.10
17.975,-0.16,0.98,-0.05,0.57,0.39,0.75,0.20,0.04,-0.36,1019.10
18.002,-0.16,0.98,-0.05,0.57,0.39,0.75,0.20,0.04,-0.36,1018.99
18.004,-0.10,1.03,-0.08,0.57,0.39,0.75,0.20,0.04,-0.36,1018.99
18.026,-0.10,1.03,-0.08,0.57,0.39,0.75,0.31,0.10,-0.66,1018.99
18.045,-0.10,1.03,-0.08,1.11,0.80,0.68,0.31,0.10,-0.66,1018.99
18.075,-0.04,1.15,-0.17,1.11,0.80,0.68,0.31,0.10,-0.66,1018.99
18.081,-0.04,1.15,-0.17,1.11,0.80,0.68,0.31,0.10,-0.66,1018.98
18.095,-0.04,1.15,-0.17,1.11,0.80,0.68,0.16,0.17,-1.51,1018.98
18.121,-0.04,1.15,-0.17,2.83,2.07,-0.22,0.16,0.17,-1.51,1018.98
18.123,-0.04,1.15,-0.17,2.83,2.07,-0.22,0.16,0.17,-1.51,1019.03
18.146,0.05,1.31,-0.27,2.83,2.07,-0.22,0.16,0.17,-1.51,1019.03
18.164,0.05,1.31,-0.27,2.83,2.07,-0.22,0.14,0.11,-2.92,1019.03
18.185,0.05,1.31,-0.27,5.35,4.56,-0.77,0.14,0.11,-2.92,1019.03
18.201,0.05,1.31,-0.27,5.35,4.56,-0.77,0.14,0.11,-2.92,1018.82
18.217,0.05,1.33,-0.03,5.35,4.56,-0.77,0.14,0.11,-2.92,1018.82
18.235,0.05,1.33,-0.03,5.35,4.56,-0.77,0.05,-0.35,-4.63,1018.82
18.255,0.05,1.33,-0.03,9.36,8.05,-0.44,0.05,-0.35,-4.63,1018.82
18.282,0.05,1.33,-0.03,9.36,8.05,-0.44,0.05,-0.35,-4.63,1018.59
18.285,-0.52,0.91,0.25,9.36,8.05,-0.44,0.05,-0.35,-4.63,1018.59
18.307,-0.52,0.91,0.25,9.36,8.05,-0.44,1.01,-1.22,-3.19,1018.59
18.321,-0.52,0.91,0.25,9.36,8.05,-0.44,1.01,-1.22,-3.19,1018.61
18.324,-0.52,0.91,0.25,4.41,6.89,2.83,1.01,-1.22,-3.19,1018.61
18.355,-0.39,0.56,-0.11,4.41,6.89,2.83,1.01,-1.22,-3.19,1018.61
18.375,-0.39,0.56,-0.11,4.41,6.89,2.83,0.74,-1.12,1.54,1018.61
18.396,-0.39,0.56,-0.11,-0.43,-0.29,-0.16,0.74,-1.12,1.54,1018.61
18.401,-0.39,0.56,-0.11,-0.43,-0.29,-0.16,0.74,-1.12,1.54,1018.84
18.425,-0.13,0.40,0.14,-0.43,-0.29,-0.16,0.74,-1.12,1.54,1018.84
18.444,-0.13,0.40,0.14,-0.43,-0.29,-0.16,1.42,-0.53,3.72,1018.84
18.469,-0.13,0.40,0.14,5.93,-2.83,2.50,1.42,-0.53,3.72,1018.84
18.481,-0.13,0.40,0.14,5.93,-2.83,2.50,1.42,-0.53,3.72,1019.01
18.495,0.02,0.69,0.10,5.93,-2.83,2.50,1.42,-0.53,3.72,1019.01
18.516,0.02,0.69,0.10,5.93,-2.83,2.50,1.64,-0.24,4.71,1019.01
18.522,0.02,0.69,0.10,5.93,-2.83,2.50,1.64,-0.24,4.71,1019.04
18.544,0.02,0.69,0.10,2.49,-3.61,3.01,1.64,-0.24,4.71,1019.04
18.566,-0.33,1.46,0.22,2.49,-3.61,3.01,1.64,-0.24,4.71,1019.04
18.584,-0.33,1.46,0.22,2.49,-3.61,3.01,1.03,-0.37,4.62,1019.04
18.601,-0.33,1.46,0.22,2.49,-3.61,3.01,1.03,-0.37,4.62,1019.08
18.605,-0.33,1.46,0.22,-0.32,2.36,3.44,1.03,-0.37,4.62,1019.08
18.638,-0.55,1.57,0.14,-0.32,2.36,3.44,1.03,-0.37,4.62,1019.08
18.663,-0.55,1.57,0.14,-0.32,2.36,3.44,0.03,-0.91,4.70,1019.08
18.676,-0.55,1.57,0.14,-8.04,7.36,4.11,0.03,-0.91,4.70,1019.08
18.682,-0.55,1.57,0.14,-8.04,7.36,4.11,0.03,-0.91,4.70,1019.00
18.706,-0.78,1.30,0.02,-8.04,7.36,4.11,0.03,-0.91,4.70,1019.00
18.721,-0.78,1.30,0.02,-8.04,7.36,4.11,0.03,-0.91,4.70,1019.01
18.724,-0.78,1.30,0.02,-8.04,7.36,4.11,-0.38,-0.73,2.49,1019.01
18.745,-0.78,1.30,0.02,-8.69,5.09,2.78,-0.38,-0.73,2.49,1019.01
18.775,-1.21,1.29,-0.16,-8.69,5.09,2.78,-0.38,-0.73,2.49,1019.01
18.795,-1.21,1.29,-0.16,-8.69,5.09,2.78,-0.48,-3.14,-1.34,1019.01
18.801,-1.21,1.29,-0.16,-8.69,5.09,2.78,-0.48,-3.14,-1.34,1019.05
18.815,-1.21,1.29,-0.16,-15.39,1.57,1.71,-0.48,-3.14,-1.34,1019.05
18.853,0.07,0.95,-0.71,-15.39,1.57,1.71,-0.48,-3.14,-1.34,1019.05
18.866,0.07,0.95,-0.71,-15.39,1.57,1.71,-1.45,-1.52,-2.55,1019.05
18.881,0.07,0.95,-0.71,-15.39,1.57,1.71,-1.45,-1.52,-2.55,1019.36
18.897,0.07,0.95,-0.71,3.56,2.65,-6.10,-1.45,-1.52,-2.55,1019.36
18.915,-0.23,1.03,0.07,3.56,2.65,-6.10,-1.45,-1.52,-2.55,1019.36
18.931,-0.23,1.03,0.07,3.56,2.65,-6.10,-1.45,-1.52,-2.55,1019.22
18.935,-0.23,1.03,0.07,3.56,2.65,-6.10,-0.85,-0.21,-0.81,1019.22
18.96,-0.23,1.03,0.07,-5.93,1.43,0.71,-0.85,-0.21,-0.81,1019.22
18.987,-0.15,0.97,0.05,-5.93,1.43,0.71,-0.85,-0.21,-0.81,1019.22
19.002,-0.15,0.97,0.05,-5.93,1.43,0.71,-0.85,-0.21,-0.81,1019.02
19.005,-0.15,0.97,0.05,-5.93,1.43,0.71,-0.33,-0.19,-0.47,1019.02
19.026,-0.15,0.97,0.05,0.30,0.20,1.45,-0.33,-0.19,-0.47,1019.02
19.056,-0.11,0.99,-0.05,0.30,0.20,1.45,-0.33,-0.19,-0.47,1019.02
19.075,-0.11,0.99,-0.05,0.30,0.20,1.45,-0.18,0.04,-0.25,1019.02
19.081,-0.11,0.99,-0.05,0.30,0.20,1.45,-0.18,0.04,-0.25,1018.95
19.095,-0.11,0.99,-0.05,-0.46,0.46,0.26,-0.18,0.04,-0.25,1018.95
19.123,-0.11,0.99,-0.05,-0.46,0.46,0.26,-0.18,0.04,-0.25,1018.90
19.125,-0.12,0.96,-0.01,-0.46,0.46,0.26,-0.18,0.04,-0.25,1018.90
19.155,-0.12,0.96,-0.01,-0.46,0.46,0.26,-0.05,0.07,-0.23,1018.90
19.166,-0.12,0.96,-0.01,0.40,0.30,0.50,-0.05,0.07,-0.23,1018.90
19.196,-0.14,0.97,-0.04,0.40,0.30,0.50,-0.05,0.07,-0.23,1018.90
19.201,-0.14,0.97,-0.04,0.40,0.30,0.50,-0.05,0.07,-0.23,1018.93
19.215,-0.14,0.97,-0.04,0.40,0.30,0.50,-0.03,0.08,-0.21,1018.93
19.235,-0.14,0.97,-0.04,0.27,0.25,0.37,-0.03,0.08,-0.21,1018.93
19.266,-0.12,0.97,-0.01,0.27,0.25,0.37,-0.03,0.08,-0.21,1018.93
19.282,-0.12,0.97,-0.01,0.27,0.25,0.37,-0.03,0.08,-0.21,1018.97
19.285,-0.12,0.97,-0.01,0.27,0.25,0.37,0.05,0.03,-0.25,1018.97
19.306,-0.12,0.97,-0.01,0.40,0.29,0.44,0.05,0.03,-0.25,1018.97
19.321,-0.12,0.97,-0.01,0.40,0.29,0.44,0.05,0.03,-0.25,1018.95
19.344,-0.12,1.00,-0.03,0.40,0.29,0.44,0.05,0.03,-0.25,1018.95
19.372,-0.12,1.00,-0.03,0.40,0.29,0.44,0.19,0.07,-0.38,1018.95
19.375,-0.12,1.00,-0.03,0.67,0.50,0.65,0.19,0.07,-0.38,1018.95
19.401,-0.12,1.00,-0.03,0.67,0.50,0.65,0.19,0.07,-0.38,1018.96
19.405,-0.07,1.06,-0.08,0.67,0.50,0.65,0.19,0.07,-0.38,1018.96
19.425,-0.07,1.06,-0.08,0.67,0.50,0.65,0.18,0.24,-0.85,1018.96
19.446,-0.07,1.06,-0.08,1.67,1.08,0.45,0.18,0.24,-0.85,1018.96
19.475,0.00,1.21,-0.19,1.67,1.08,0.45,0.18,0.24,-0.85,1018.96
19.482,0.00,1.21,-0.19,1.67,1.08,0.45,0.18,0.24,-0.85,1019.02
19.496,0.00,1.21,-0.19,1.67,1.08,0.45,0.07,0.19,-1.89,1019.02
19.517,0.00,1.21,-0.19,3.75,2.65,-0.08,0.07,0.19,-1.89,1019.02
19.525,0.00,1.21,-0.19,3.75,2.65,-0.08,0.07,0.19,-1.89,1018.94
19.548,0.23,1.41,-0.29,3.75,2.65,-0.08,0.07,0.19,-1.89,1018.94
19.565,0.23,1.41,-0.29,3.75,2.65,-0.08,-0.25,0.09,-3.75,1018.94
19.585,0.23,1.41,-0.29,7.02,6.17,-2.13,-0.25,0.09,-3.75,1018.94
19.601,0.23,1.41,-0.29,7.02,6.17,-2.13,-0.25,0.09,-3.75,1018.65
19.615,-0.28,1.22,0.06,7.02,6.17,-2.13,-0.25,0.09,-3.75,1018.65
19.635,-0.28,1.22,0.06,7.02,6.17,-2.13,-0.20,-0.73,-4.89,1018.65
19.656,-0.28,1.22,0.06,9.72,8.24,-1.28,-0.20,-0.73,-4.89,1018.65
19.681,-0.28,1.22,0.06,9.72,8.24,-1.28,-0.20,-0.73,-4.89,1018.61
19.686,-0.82,0.53,0.02,9.72,8.24,-1.28,-0.20,-0.73,-4.89,1018.61
19.705,-0.82,0.53,0.02,9.72,8.24,-1.28,0.40,-0.56,-0.77,1018.61
19.721,-0.82,0.53,0.02,9.72,8.24,-1.28,0.40,-0.56,-0.77,1018.59
19.725,-0.82,0.53,0.02,3.06,4.00,2.58,0.40,-0.56,-0.77,1018.59
19.756,0.27,0.45,0.09,3.06,4.00,2.58,0.40,-0.56,-0.77,1018.59
19.775,0.27,0.45,0.09,3.06,4.00,2.58,1.02,-0.30,2.47,1018.59
19.798,0.27,0.45,0.09,3.70,-3.11,0.72,1.02,-0.30,2.47,1018.59
19.8,0.27,0.45,0.09,3.70,-3.11,0.72,1.02,-0.30,2.47,1019.01
19.827,-0.03,0.58,0.07,3.70,-3.11,0.72,1.02,-0.30,2.47,1019.01
19.852,-0.03,0.58,0.07,3.70,-3.11,0.72,1.38,0.34,4.95,1019.01
19.867,-0.03,0.58,0.07,1.03,-4.19,2.04,1.38,0.34,4.95,1019.01
19.882,-0.03,0.58,0.07,1.03,-4.19,2.04,1.38,0.34,4.95,1019.07
19.896,-0.01,1.17,-0.03,1.03,-4.19,2.04,1.38,0.34,4.95,1019.07
19.916,-0.01,1.17,-0.03,1.03,-4.19,2.04,1.03,0.39,4.60,1019.07
19.929,-0.01,1.17,-0.03,1.03,-4.19,2.04,1.03,0.39,4.60,1019.08
19.935,-0.01,1.17,-0.03,2.06,0.10,1.93,1.03,0.39,4.60,1019.08
19.966,-0.36,1.53,-0.09,2.06,0.10,1.93,1.03,0.39,4.60,1019.08
19.985,-0.36,1.53,-0.09,2.06,0.10,1.93,0.56,-0.69,4.74,1019.08
20.002,-0.36,1.53,-0.09,2.06,0.10,1.93,0.56,-0.69,4.74,1018.95
20.006,-0.36,1.53,-0.09,-5.14,5.04,2.20,0.56,-0.69,4.74,1018.95
20.036,-0.45,1.54,-0.03,-5.14,5.04,2.20,0.56,-0.69,4.74,1018.95
20.055,-0.45,1.54,-0.03,-5.14,5.04,2.20,-0.20,-0.54,3.51,1018.95
20.076,-0.45,1.54,-0.03,-6.79,7.58,1.10,-0.20,-0.54,3.51,1018.95
20.08,-0.45,1.54,-0.03,-6.79,7.58,1.10,-0.20,-0.54,3.51,1019.01
20.106,-1.31,1.05,0.03,-6.79,7.58,1.10,-0.20,-0.54,3.51,1019.01
20.121,-1.31,1.05,0.03,-6.79,7.58,1.10,-0.20,-0.54,3.51,1019.05
20.125,-1.31,1.05,0.03,-6.79,7.58,1.10,-0.53,-1.53,0.17,1019.05
20.146,-1.31,1.05,0.03,-11.89,3.46,4.10,-0.53,-1.53,0.17,1019.05
20.192,0.19,1.06,-0.41,-11.89,3.46,4.10,-0.53,-1.53,0.17,1019.05
20.196,0.19,1.06,-0.41,-11.89,3.46,4.10,-0.84,-3.49,-2.60,1019.05
20.202,0.19,1.06,-0.41,-11.89,3.46,4.10,-0.84,-3.49,-2.60,1019.22
20.216,0.19,1.06,-0.41,-8.53,3.08,0.10,-0.84,-3.49,-2.60,1019.22
20.262,-0.47,1.09,-0.14,-8.53,3.08,0.10,-0.84,-3.49,-2.60,1019.22
20.265,-0.47,1.09,-0.14,-8.53,3.08,0.10,-1.13,-0.42,-1.53,1019.22
20.282,-0.47,1.09,-0.14,-8.53,3.08,0.10,-1.13,-0.42,-1.53,1019.22
20.285,-0.47,1.09,-0.14,1.03,-0.66,-4.17,-1.13,-0.42,-1.53,1019.22
20.317,-0.19,0.95,-0.05,1.03,-0.66,-4.17,-1.13,-0.42,-1.53,1019.22
20.321,-0.19,0.95,-0.05,1.03,-0.66,-4.17,-1.13,-0.42,-1.53,1019.15
20.336,-0.19,0.95,-0.05,1.03,-0.66,-4.17,-0.61,-0.22,-0.61,1019.15
20.356,-0.19,0.95,-0.05,-0.79,0.80,1.21,-0.61,-0.22,-0.61,1019.15
20.385,-0.13,0.99,-0.09,-0.79,0.80,1.21,-0.61,-0.22,-0.61,1019.15
20.401,-0.13,0.99,-0.09,-0.79,0.80,1.21,-0.61,-0.22,-0.61,1018.96
20.405,-0.13,0.99,-0.09,-0.79,0.80,1.21,-0.19,-0.03,-0.24,1018.96
20.426,-0.13,0.99,-0.09,-0.95,0.20,1.36,-0.19,-0.03,-0.24,1018.96
20.456,-0.07,0.98,-0.05,-0.95,0.20,1.36,-0.19,-0.03,-0.24,1018.96
20.477,-0.07,0.98,-0.05,-0.95,0.20,1.36,-0.02,0.02,-0.29,1018.96
20.48,-0.07,0.98,-0.05,-0.95,0.20,1.36,-0.02,0.02,-0.29,1018.84
20.496,-0.07,0.98,-0.05,0.72,0.58,0.35,-0.02,0.02,-0.29,1018.84
20.522,-0.07,0.98,-0.05,0.72,0.58,0.35,-0.02,0.02,-0.29,1018.94
20.529,-0.09,0.98,-0.09,0.72,0.58,0.35,-0.02,0.02,-0.29,1018.94
20.555,-0.09,0.98,-0.09,0.72,0.58,0.35,0.01,0.03,-0.33,1018.94
20.567,-0.09,0.98,-0.09,0.50,0.39,0.28,0.01,0.03,-0.33,1018.94
20.597,-0.13,0.97,-0.08,0.50,0.39,0.28,0.01,0.03,-0.33,1018.94
20.601,-0.13,0.97,-0.08,0.50,0.39,0.28,0.01,0.03,-0.33,1018.98
20.616,-0.13,0.97,-0.08,0.50,0.39,0.28,0.03,0.03,-0.33,1018.98
20.636,-0.13,0.97,-0.08,0.45,0.42,-0.02,0.03,0.03,-0.33,1018.98
20.666,-0.15,0.97,-0.07,0.45,0.42,-0.02,0.03,0.03,-0.33,1018.98
20.681,-0.15,0.97,-0.07,0.45,0.42,-0.02,0.03,0.03,-0.33,1019.00
20.685,-0.15,0.97,-0.07,0.45,0.42,-0.02,0.19,0.05,-0.32,1019.00
20.706,-0.15,0.97,-0.07,0.41,0.35,0.69,0.19,0.05,-0.32,1019.00
20.721,-0.15,0.97,-0.07,0.41,0.35,0.69,0.19,0.05,-0.32,1018.99
20.736,-0.12,1.00,-0.10,0.41,0.35,0.69,0.19,0.05,-0.32,1018.99
20.757,-0.12,1.00,-0.10,0.41,0.35,0.69,0.33,0.10,-0.52,1018.99
20.776,-0.12,1.00,-0.10,0.92,0.68,0.65,0.33,0.10,-0.52,1018.99
20.802,-0.12,1.00,-0.10,0.92,0.68,0.65,0.33,0.10,-0.52,1019.01
20.806,-0.08,1.06,-0.19,0.92,0.68,0.65,0.33,0.10,-0.52,1019.01
20.829,-0.08,1.06,-0.19,0.92,0.68,0.65,0.31,0.22,-1.04,1019.01
20.855,-0.08,1.06,-0.19,1.87,1.38,0.20,0.31,0.22,-1.04,1019.01
20.877,-0.02,1.17,-0.21,1.87,1.38,0.20,0.31,0.22,-1.04,1019.01
20.881,-0.02,1.17,-0.21,1.87,1.38,0.20,0.31,0.22,-1.04,1019.00
20.896,-0.02,1.17,-0.21,1.87,1.38,0.20,0.46,0.11,-1.98,1019.00
20.917,-0.02,1.17,-0.21,3.65,2.67,0.16,0.46,0.11,-1.98,1019.00
20.921,-0.02,1.17,-0.21,3.65,2.67,0.16,0.46,0.11,-1.98,1018.65
20.947,0.24,1.42,-0.25,3.65,2.67,0.16,0.46,0.11,-1.98,1018.65
20.975,0.24,1.42,-0.25,3.65,2.67,0.16,0.51,-0.38,-3.90,1018.65
20.986,0.24,1.42,-0.25,7.88,6.75,-0.57,0.51,-0.38,-3.90,1018.65
21.002,0.24,1.42,-0.25,7.88,6.75,-0.57,0.51,-0.38,-3.90,1018.57
21.016,-0.45,1.18,0.28,7.88,6.75,-0.57,0.51,-0.38,-3.90,1018.57
21.037,-0.45,1.18,0.28,7.88,6.75,-0.57,1.52,-2.14,-4.30,1018.57
21.056,-0.45,1.18,0.28,6.84,8.42,1.57,1.52,-2.14,-4.30,1018.57
21.082,-0.45,1.18,0.28,6.84,8.42,1.57,1.52,-2.14,-4.30,1019.04
21.085,-0.84,0.55,-0.17,6.84,8.42,1.57,1.52,-2.14,-4.30,1019.04
21.107,-0.84,0.55,-0.17,6.84,8.42,1.57,1.90,-3.09,0.68,1019.04
21.122,-0.84,0.55,-0.17,6.84,8.42,1.57,1.90,-3.09,0.68,1018.83
21.127,-0.84,0.55,-0.17,-2.89,2.10,1.92,1.90,-3.09,0.68,1018.83
21.156,0.20,0.53,0.21,-2.89,2.10,1.92,1.90,-3.09,0.68,1018.83
21.176,0.20,0.53,0.21,-2.89,2.10,1.92,1.64,-0.77,2.36,1018.83
21.197,0.20,0.53,0.21,8.26,-1.07,0.16,1.64,-0.77,2.36,1018.83
21.2,0.20,0.53,0.21,8.26,-1.07,0.16,1.64,-0.77,2.36,1019.05
21.231,-0.03,0.56,0.20,8.26,-1.07,0.16,1.64,-0.77,2.36,1019.05
21.265,-0.03,0.56,0.20,8.26,-1.07,0.16,1.93,0.33,3.91,1019.05
21.267,-0.03,0.56,0.20,4.42,-3.36,4.78,1.93,0.33,3.91,1019.05
21.281,-0.03,0.56,0.20,4.42,-3.36,4.78,1.93,0.33,3.91,1019.03
21.296,-0.13,1.10,0.10,4.42,-3.36,4.78,1.93,0.33,3.91,1019.03
21.317,-0.13,1.10,0.10,4.42,-3.36,4.78,1.12,-0.31,4.49,1019.03
21.322,-0.13,1.10,0.10,4.42,-3.36,4.78,1.12,-0.31,4.49,1019.05
21.337,-0.13,1.10,0.10,0.50,-0.70,3.31,1.12,-0.31,4.49,1019.05
21.367,-0.46,1.49,0.19,0.50,-0.70,3.31,1.12,-0.31,4.49,1019.05
21.387,-0.46,1.49,0.19,0.50,-0.70,3.31,0.43,-1.41,4.99,1019.05
21.402,-0.46,1.49,0.19,0.50,-0.70,3.31,0.43,-1.41,4.99,1019.01
21.407,-0.46,1.49,0.19,-5.66,4.81,3.81,0.43,-1.41,4.99,1019.01
21.437,-0.26,1.54,0.13,-5.66,4.81,3.81,0.43,-1.41,4.99,1019.01
21.457,-0.26,1.54,0.13,-5.66,4.81,3.81,-0.37,0.58,4.07,1019.01
21.477,-0.26,1.54,0.13,-6.08,6.71,3.35,-0.37,0.58,4.07,1019.01
21.482,-0.26,1.54,0.13,-6.08,6.71,3.35,-0.37,0.58,4.07,1018.87
21.507,-1.36,1.18,-0.11,-6.08,6.71,3.35,-0.37,0.58,4.07,1018.87
21.522,-1.36,1.18,-0.11,-6.08,6.71,3.35,-0.37,0.58,4.07,1019.08
21.527,-1.36,1.18,-0.11,-6.08,6.71,3.35,-0.69,-0.46,0.66,1019.08
21.547,-1.36,1.18,-0.11,-9.63,5.30,2.14,-0.69,-0.46,0.66,1019.08
21.576,-0.08,1.05,-0.66,-9.63,5.30,2.14,-0.69,-0.46,0.66,1019.08
21.596,-0.08,1.05,-0.66,-9.63,5.30,2.14,-0.77,-3.60,-2.97,1019.08
21.601,-0.08,1.05,-0.66,-9.63,5.30,2.14,-0.77,-3.60,-2.97,1019.09
21.618,-0.08,1.05,-0.66,-12.48,1.64,-1.26,-0.77,-3.60,-2.97,1019.09
21.655,-0.49,1.09,-0.07,-12.48,1.64,-1.26,-0.77,-3.60,-2.97,1019.09
21.667,-0.49,1.09,-0.07,-12.48,1.64,-1.26,-1.19,-0.55,-1.60,1019.09
21.683,-0.49,1.09,-0.07,-12.48,1.64,-1.26,-1.19,-0.55,-1.60,1019.33
21.686,-0.49,1.09,-0.07,-0.17,0.42,-6.51,-1.19,-0.55,-1.60,1019.33
21.728,-0.25,0.97,-0.06,-0.17,0.42,-6.51,-1.19,-0.55,-1.60,1019.33
21.729,-0.25,0.97,-0.06,-0.17,0.42,-6.51,-1.19,-0.55,-1.60,1019.16
21.737,-0.25,0.97,-0.06,-0.17,0.42,-6.51,-0.55,-0.18,-0.52,1019.16
21.758,-0.25,0.97,-0.06,-1.41,0.66,2.28,-0.55,-0.18,-0.52,1019.16
21.786,-0.12,0.99,-0.03,-1.41,0.66,2.28,-0.55,-0.18,-0.52,1019.16
21.802,-0.12,0.99,-0.03,-1.41,0.66,2.28,-0.55,-0.18,-0.52,1019.01
21.807,-0.12,0.99,-0.03,-1.41,0.66,2.28,-0.23,0.06,-0.21,1019.01
21.827,-0.12,0.99,-0.03,-0.81,0.36,0.51,-0.23,0.06,-0.21,1019.01
21.857,-0.05,0.98,0.00,-0.81,0.36,0.51,-0.23,0.06,-0.21,1019.01
21.876,-0.05,0.98,0.00,-0.81,0.36,0.51,-0.02,0.05,-0.31,1019.01
21.88,-0.05,0.98,0.00,-0.81,0.36,0.51,-0.02,0.05,-0.31,1018.94
21.896,-0.05,0.98,0.00,0.73,0.52,0.44,-0.02,0.05,-0.31,1018.94
21.922,-0.05,0.98,0.00,0.73,0.52,0.44,-0.02,0.05,-0.31,1018.92
21.927,-0.12,0.97,-0.03,0.73,0.52,0.44,-0.02,0.05,-0.31,1018.92
21.947,-0.12,0.97,-0.03,0.73,0.52,0.44,0.03,0.08,-0.27,1018.92
21.967,-0.12,0.97,-0.03,0.14,0.25,0.29,0.03,0.08,-0.27,1018.92
21.996,-0.12,0.98,-0.05,0.14,0.25,0.29,0.03,0.08,-0.27,1018.92
22.001,-0.12,0.98,-0.05,0.14,0.25,0.29,0.03,0.08,-0.27,1018.92
22.016,-0.12,0.98,-0.05,0.14,0.25,0.29,0.04,0.07,-0.27,1018.92
22.037,-0.12,0.98,-0.05,0.27,0.33,0.18,0.04,0.07,-0.27,1018.92
22.066,-0.12,0.98,-0.02,0.27,0.33,0.18,0.04,0.07,-0.27,1018.92
22.082,-0.12,0.98,-0.02,0.27,0.33,0.18,0.04,0.07,-0.27,1018.93
22.086,-0.12,0.98,-0.02,0.27,0.33,0.18,0.16,0.06,-0.35,1018.93
22.107,-0.12,0.98,-0.02,0.52,0.45,0.42,0.16,0.06,-0.35,1018.93
22.121,-0.12,0.98,-0.02,0.52,0.45,0.42,0.16,0.06,-0.35,1018.94
22.137,-0.05,1.04,-0.05,0.52,0.45,0.42,0.16,0.06,-0.35,1018.94
22.156,-0.05,1.04,-0.05,0.52,0.45,0.42,0.24,0.17,-0.76,1018.94
22.177,-0.05,1.04,-0.05,1.37,0.83,0.67,0.24,0.17,-0.76,1018.94
22.202,-0.05,1.04,-0.05,1.37,0.83,0.67,0.24,0.17,-0.76,1019.01
22.207,-0.02,1.15,-0.15,1.37,0.83,0.67,0.24,0.17,-0.76,1019.01
22.227,-0.02,1.15,-0.15,1.37,0.83,0.67,0.07,0.18,-1.60,1019.01
22.247,-0.02,1.15,-0.15,2.98,2.04,-0.28,0.07,0.18,-1.60,1019.01
22.276,0.09,1.33,-0.30,2.98,2.04,-0.28,0.07,0.18,-1.60,1019.01
22.281,0.09,1.33,-0.30,2.98,2.04,-0.28,0.07,0.18,-1.60,1019.03
22.297,0.09,1.33,-0.30,2.98,2.04,-0.28,-0.08,0.02,-3.05,1019.03
22.317,0.09,1.33,-0.30,5.48,4.51,-1.32,-0.08,0.02,-3.05,1019.03
22.321,0.09,1.33,-0.30,5.48,4.51,-1.32,-0.08,0.02,-3.05,1018.91
22.346,0.21,1.39,-0.12,5.48,4.51,-1.32,-0.08,0.02,-3.05,1018.91
22.366,0.21,1.39,-0.12,5.48,4.51,-1.32,-0.52,-0.15,-5.18,1018.91
22.387,0.21,1.39,-0.12,10.73,8.82,-1.58,-0.52,-0.15,-5.18,1018.91
22.402,0.21,1.39,-0.12,10.73,8.82,-1.58,-0.52,-0.15,-5.18,1018.63
22.417,-0.63,0.92,0.28,10.73,8.82,-1.58,-0.52,-0.15,-5.18,1018.63
22.437,-0.63,0.92,0.28,10.73,8.82,-1.58,0.53,-0.98,-3.15,1018.63
22.457,-0.63,0.92,0.28,4.02,7.72,1.83,0.53,-0.98,-3.15,1018.63
22.481,-0.63,0.92,0.28,4.02,7.72,1.83,0.53,-0.98,-3.15,1018.51
22.487,-0.27,0.44,-0.01,4.02,7.72,1.83,0.53,-0.98,-3.15,1018.51
22.507,-0.27,0.44,-0.01,4.02,7.72,1.83,0.66,-0.88,1.62,1018.51
22.521,-0.27,0.44,-0.01,4.02,7.72,1.83,0.66,-0.88,1.62,1018.93
22.526,-0.27,0.44,-0.01,0.83,-1.33,-0.21,0.66,-0.88,1.62,1018.93
22.557,-0.07,0.34,0.05,0.83,-1.33,-0.21,0.66,-0.88,1.62,1018.93
22.583,-0.07,0.34,0.05,0.83,-1.33,-0.21,1.11,-0.10,4.11,1018.93
22.598,-0.07,0.34,0.05,5.61,-4.14,1.74,1.11,-0.10,4.11,1018.93
22.6,-0.07,0.34,0.05,5.61,-4.14,1.74,1.11,-0.10,4.11,1018.93
22.628,0.00,0.73,-0.10,5.61,-4.14,1.74,1.11,-0.10,4.11,1018.93
22.647,0.00,0.73,-0.10,5.61,-4.14,1.74,0.88,1.02,5.30,1018.93
22.668,0.00,0.73,-0.10,1.97,-3.63,1.02,0.88,1.02,5.30,1018.93
22.686,0.00,0.73,-0.10,1.97,-3.63,1.02,0.88,1.02,5.30,1018.89
22.715,-0.35,1.48,-0.25,1.97,-3.63,1.02,0.88,1.02,5.30,1018.89
22.717,-0.35,1.48,-0.25,1.97,-3.63,1.02,0.75,0.64,4.87,1018.89
22.72,-0.35,1.48,-0.25,1.97,-3.63,1.02,0.75,0.64,4.87,1018.95
22.737,-0.35,1.48,-0.25,-0.88,2.81,-0.50,0.75,0.64,4.87,1018.95
22.767,-0.60,1.62,-0.29,-0.88,2.81,-0.50,0.75,0.64,4.87,1018.95
22.787,-0.60,1.62,-0.29,-0.88,2.81,-0.50,0.45,0.22,4.47,1018.95
22.801,-0.60,1.62,-0.29,-0.88,2.81,-0.50,0.45,0.22,4.47,1019.01
22.808,-0.60,1.62,-0.29,-10.57,7.29,-0.83,0.45,0.22,4.47,1019.01
22.846,-1.53,1.15,0.12,-10.57,7.29,-0.83,0.45,0.22,4.47,1019.01
22.857,-1.53,1.15,0.12,-10.57,7.29,-0.83,-0.15,-0.46,-0.52,1019.01
22.878,-1.53,1.15,0.12,-11.61,5.46,2.01,-0.15,-0.46,-0.52,1019.01
22.886,-1.53,1.15,0.12,-11.61,5.46,2.01,-0.15,-0.46,-0.52,1019.36
22.907,0.28,1.26,-0.48,-11.61,5.46,2.01,-0.15,-0.46,-0.52,1019.36
22.922,0.28,1.26,-0.48,-11.61,5.46,2.01,-0.15,-0.46,-0.52,1019.31
22.927,0.28,1.26,-0.48,-11.61,5.46,2.01,-0.87,-1.72,-3.16,1019.31
22.952,0.28,1.26,-0.48,-6.89,2.48,-0.64,-0.87,-1.72,-3.16,1019.31
22.977,-0.73,1.02,-0.14,-6.89,2.48,-0.64,-0.87,-1.72,-3.16,1019.31
22.998,-0.73,1.02,-0.14,-6.89,2.48,-0.64,-1.08,-0.50,-1.08,1019.31
23.001,-0.73,1.02,-0.14,-6.89,2.48,-0.64,-1.08,-0.50,-1.08,1019.21
23.018,-0.73,1.02,-0.14,-2.73,1.11,-1.50,-1.08,-0.50,-1.08,1019.21
23.054,-0.19,0.97,0.13,-2.73,1.11,-1.50,-1.08,-0.50,-1.08,1019.21
23.076,-0.19,0.97,0.13,-2.73,1.11,-1.50,-0.44,-0.07,-0.45,1019.21
23.082,-0.19,0.97,0.13,-2.73,1.11,-1.50,-0.44,-0.07,-0.45,1019.11
23.088,-0.19,0.97,0.13,-1.67,0.41,0.16,-0.44,-0.07,-0.45,1019.11
23.118,-0.13,0.99,-0.01,-1.67,0.41,0.16,-0.44,-0.07,-0.45,1019.11
23.121,-0.13,0.99,-0.01,-1.67,0.41,0.16,-0.44,-0.07,-0.45,1018.99
23.138,-0.13,0.99,-0.01,-1.67,0.41,0.16,-0.17,0.07,-0.17,1018.99
23.157,-0.13,0.99,-0.01,-0.83,0.33,0.66,-0.17,0.07,-0.17,1018.99
23.187,-0.10,0.98,0.01,-0.83,0.33,0.66,-0.17,0.07,-0.17,1018.99
23.201,-0.10,0.98,0.01,-0.83,0.33,0.66,-0.17,0.07,-0.17,1018.96
23.207,-0.10,0.98,0.01,-0.83,0.33,0.66,0.02,0.12,-0.22,1018.96
23.228,-0.10,0.98,0.01,0.44,0.51,0.55,0.02,0.12,-0.22,1018.96
23.257,-0.11,0.97,-0.01,0.44,0.51,0.55,0.02,0.12,-0.22,1018.96
23.28,-0.11,0.97,-0.01,0.44,0.51,0.55,0.11,0.12,-0.25,1018.96
23.281,-0.11,0.97,-0.01,0.44,0.51,0.55,0.11,0.12,-0.25,1018.90
23.298,-0.11,0.97,-0.01,0.30,0.25,0.70,0.11,0.12,-0.25,1018.90
23.321,-0.11,0.97,-0.01,0.30,0.25,0.70,0.11,0.12,-0.25,1018.96
23.328,-0.13,0.98,-0.05,0.30,0.25,0.70,0.11,0.12,-0.25,1018.96
23.353,-0.13,0.98,-0.05,0.30,0.25,0.70,0.11,0.05,-0.31,1018.96
23.377,-0.13,0.98,-0.05,0.39,0.34,0.19,0.11,0.05,-0.31,1018.96
23.398,-0.13,1.00,-0.04,0.39,0.34,0.19,0.11,0.05,-0.31,1018.96
23.4,-0.13,1.00,-0.04,0.39,0.34,0.19,0.11,0.05,-0.31,1018.97
23.417,-0.13,1.00,-0.04,0.39,0.34,0.19,0.21,0.16,-0.44,1018.97
23.438,-0.13,1.00,-0.04,0.62,0.54,0.62,0.21,0.16,-0.44,1018.97
23.47,-0.05,1.09,-0.12,0.62,0.54,0.62,0.21,0.16,-0.44,1018.97
23.499,-0.05,1.09,-0.12,0.62,0.54,0.62,0.21,0.16,-0.44,1019.04
23.501,-0.05,1.09,-0.12,0.62,0.54,0.62,0.11,0.29,-1.02,1019.04
23.507,-0.05,1.09,-0.12,1.93,1.35,0.26,0.11,0.29,-1.02,1019.04
23.521,-0.05,1.09,-0.12,1.93,1.35,0.26,0.11,0.29,-1.02,1019.06
23.538,0.02,1.23,-0.20,1.93,1.35,0.26,0.11,0.29,-1.02,1019.06
23.558,0.02,1.23,-0.20,1.93,1.35,0.26,-0.05,0.11,-2.10,1019.06
23.577,0.02,1.23,-0.20,3.73,2.82,-0.91,-0.05,0.11,-2.10,1019.06
23.602,0.02,1.23,-0.20,3.73,2.82,-0.91,-0.05,0.11,-2.10,1018.93
23.608,0.34,1.49,-0.23,3.73,2.82,-0.91,-0.05,0.11,-2.10,1018.93
23.628,0.34,1.49,-0.23,3.73,2.82,-0.91,-0.47,0.10,-4.31,1018.93
23.648,0.34,1.49,-0.23,8.33,7.20,-2.12,-0.47,0.10,-4.31,1018.93
23.678,-0.26,1.30,0.22,8.33,7.20,-2.12,-0.47,0.10,-4.31,1018.93
23.68,-0.26,1.30,0.22,8.33,7.20,-2.12,-0.47,0.10,-4.31,1018.66
23.698,-0.26,1.30,0.22,8.33,7.20,-2.12,-0.21,-0.59,-5.37,1018.66
23.718,-0.26,1.30,0.22,9.92,9.51,-0.18,-0.21,-0.59,-5.37,1018.66
23.721,-0.26,1.30,0.22,9.92,9.51,-0.18,-0.21,-0.59,-5.37,1018.57
23.747,-0.67,0.50,-0.14,9.92,9.51,-0.18,-0.21,-0.59,-5.37,1018.57
23.767,-0.67,0.50,-0.14,9.92,9.51,-0.18,-0.28,0.10,0.12,1018.57
23.787,-0.67,0.50,-0.14,1.07,3.22,3.04,-0.28,0.10,0.12,1018.57
23.802,-0.67,0.50,-0.14,1.07,3.22,3.04,-0.28,0.10,0.12,1018.74
23.817,0.12,0.39,0.16,1.07,3.22,3.04,-0.28,0.10,0.12,1018.74
23.838,0.12,0.39,0.16,1.07,3.22,3.04,0.19,-0.01,2.88,1018.74
23.859,0.12,0.39,0.16,6.09,-2.67,-0.05,0.19,-0.01,2.88,1018.74
23.881,0.12,0.39,0.16,6.09,-2.67,-0.05,0.19,-0.01,2.88,1018.86
23.887,-0.09,0.57,-0.06,6.09,-2.67,-0.05,0.19,-0.01,2.88,1018.86
23.908,-0.09,0.57,-0.06,6.09,-2.67,-0.05,0.38,0.76,5.14,1018.86
23.921,-0.09,0.57,-0.06,6.09,-2.67,-0.05,0.38,0.76,5.14,1018.94
23.928,-0.09,0.57,-0.06,1.72,-4.51,0.68,0.38,0.76,5.14,1018.94
23.957,-0.01,1.16,-0.30,1.72,-4.51,0.68,0.38,0.76,5.14,1018.94
23.981,-0.01,1.16,-0.30,1.72,-4.51,0.68,0.37,0.94,4.72,1018.94
23.998,-0.01,1.16,-0.30,-0.06,-0.55,-0.34,0.37,0.94,4.72,1018.94
24.002,-0.01,1.16,-0.30,-0.06,-0.55,-0.34,0.37,0.94,4.72,1018.88
24.027,-0.42,1.68,-0.32,-0.06,-0.55,-0.34,0.37,0.94,4.72,1018.88
24.047,-0.42,1.68,-0.32,-0.06,-0.55,-0.34,0.26,0.93,3.95,1018.88
24.067,-0.42,1.68,-0.32,-4.91,5.96,-2.12,0.26,0.93,3.95,1018.88
24.081,-0.42,1.68,-0.32,-4.91,5.96,-2.12,0.26,0.93,3.95,1018.83
24.098,-1.12,1.30,-0.20,-4.91,5.96,-2.12,0.26,0.93,3.95,1018.83
24.118,-1.12,1.30,-0.20,-4.91,5.96,-2.12,-0.19,1.15,2.64,1018.83
24.121,-1.12,1.30,-0.20,-4.91,5.96,-2.12,-0.19,1.15,2.64,1019.28
24.137,-1.12,1.30,-0.20,-10.49,6.66,-2.91,-0.19,1.15,2.64,1019.28
24.18,-1.48,0.91,-0.27,-10.49,6.66,-2.91,-0.19,1.15,2.64,1019.28
24.188,-1.48,0.91,-0.27,-10.49,6.66,-2.91,-0.15,-1.71,-1.34,1019.28
24.212,-1.48,0.91,-0.27,-10.49,6.66,-2.91,-0.15,-1.71,-1.34,1019.12
24.213,-1.48,0.91,-0.27,-15.84,-0.10,0.63,-0.15,-1.71,-1.34,1019.12
24.238,0.04,1.09,-0.40,-15.84,-0.10,0.63,-0.15,-1.71,-1.34,1019.12
24.258,0.04,1.09,-0.40,-15.84,-0.10,0.63,-0.81,-1.65,-3.12,1019.12
24.278,0.04,1.09,-0.40,4.82,1.12,-3.15,-0.81,-1.65,-3.12,1019.12
24.28,0.04,1.09,-0.40,4.82,1.12,-3.15,-0.81,-1.65,-3.12,1019.15
24.311,-0.31,1.09,-0.03,4.82,1.12,-3.15,-0.81,-1.65,-3.12,1019.15
24.321,-0.31,1.09,-0.03,4.82,1.12,-3.15,-0.81,-1.65,-3.12,1019.26
24.327,-0.31,1.09,-0.03,4.82,1.12,-3.15,-0.66,-0.20,-0.64,1019.26
24.349,-0.31,1.09,-0.03,-10.39,2.32,-1.02,-0.66,-0.20,-0.64,1019.26
24.384,-0.14,0.97,0.15,-10.39,2.32,-1.02,-0.66,-0.20,-0.64,1019.26
24.399,-0.14,0.97,0.15,-10.39,2.32,-1.02,-0.18,0.05,-0.24,1019.26
24.402,-0.14,0.97,0.15,-10.39,2.32,-1.02,-0.18,0.05,-0.24,1019.10
24.419,-0.14,0.97,0.15,-0.43,0.49,1.19,-0.18,0.05,-0.24,1019.10
24.447,-0.09,1.00,-0.03,-0.43,0.49,1.19,-0.18,0.05,-0.24,1019.10
24.472,-0.09,1.00,-0.03,-0.43,0.49,1.19,-0.08,0.10,-0.23,1019.10
24.481,-0.09,1.00,-0.03,-0.43,0.49,1.19,-0.08,0.10,-0.23,1019.03
24.488,-0.09,1.00,-0.03,0.13,0.45,0.52,-0.08,0.10,-0.23,1019.03
24.518,-0.11,0.98,0.02,0.13,0.45,0.52,-0.08,0.10,-0.23,1019.03
24.52,-0.11,0.98,0.02,0.13,0.45,0.52,-0.08,0.10,-0.23,1018.97
24.537,-0.11,0.98,0.02,0.13,0.45,0.52,0.03,0.17,-0.26,1018.97
24.558,-0.11,0.98,0.02,0.44,0.46,0.55,0.03,0.17,-0.26,1018.97
24.587,-0.12,0.97,0.01,0.44,0.46,0.55,0.03,0.17,-0.26,1018.97
24.602,-0.12,0.97,0.01,0.44,0.46,0.55,0.03,0.17,-0.26,1018.96
24.607,-0.12,0.97,0.01,0.44,0.46,0.55,0.10,0.12,-0.29,1018.96
24.628,-0.12,0.97,0.01,0.37,0.30,0.54,0.10,0.12,-0.29,1018.96
24.66,-0.12,0.99,-0.02,0.37,0.30,0.54,0.10,0.12,-0.29,1018.96
24.689,-0.12,0.99,-0.02,0.37,0.30,0.54,0.14,0.16,-0.41,1018.96
24.69,-0.12,0.99,-0.02,0.37,0.30,0.54,0.14,0.16,-0.41,1019.02
24.698,-0.12,0.99,-0.02,0.64,0.50,0.51,0.14,0.16,-0.41,1019.02
24.721,-0.12,0.99,-0.02,0.64,0.50,0.51,0.14,0.16,-0.41,1019.05
24.727,-0.10,1.04,-0.05,0.64,0.50,0.51,0.14,0.16,-0.41,1019.05
24.747,-0.10,1.04,-0.05,0.64,0.50,0.51,0.12,0.33,-0.74,1019.05
24.768,-0.10,1.04,-0.05,1.14,0.92,0.31,0.12,0.33,-0.74,1019.05
24.798,-0.07,1.11,-0.11,1.14,0.92,0.31,0.12,0.33,-0.74,1019.05
24.801,-0.07,1.11,-0.11,1.14,0.92,0.31,0.12,0.33,-0.74,1019.06
24.818,-0.07,1.11,-0.11,1.14,0.92,0.31,-0.02,0.24,-1.47,1019.06
24.838,-0.07,1.11,-0.11,2.71,1.91,-0.31,-0.02,0.24,-1.47,1019.06
24.877,0.07,1.34,-0.29,2.71,1.91,-0.31,-0.02,0.24,-1.47,1019.06
24.881,0.07,1.34,-0.29,2.71,1.91,-0.31,-0.02,0.24,-1.47,1018.98
24.905,0.07,1.34,-0.29,2.71,1.91,-0.31,-0.35,0.11,-2.94,1018.98
24.908,0.07,1.34,-0.29,5.34,4.38,-1.39,-0.35,0.11,-2.94,1018.98
24.92,0.07,1.34,-0.29,5.34,4.38,-1.39,-0.35,0.11,-2.94,1018.82
24.937,0.27,1.52,-0.03,5.34,4.38,-1.39,-0.35,0.11,-2.94,1018.82
24.958,0.27,1.52,-0.03,5.34,4.38,-1.39,-0.97,0.11,-5.21,1018.82
24.978,0.27,1.52,-0.03,10.87,9.43,-1.96,-0.97,0.11,-5.21,1018.82
25.001,0.27,1.52,-0.03,10.87,9.43,-1.96,-0.97,0.11,-5.21,1018.58
25.008,-0.53,0.89,0.18,10.87,9.43,-1.96,-0.97,0.11,-5.21,1018.58
25.029,-0.53,0.89,0.18,10.87,9.43,-1.96,-0.83,0.50,-2.82,1018.58
25.049,-0.53,0.89,0.18,5.40,8.92,1.59,-0.83,0.50,-2.82,1018.58
25.078,-0.01,0.41,0.01,5.40,8.92,1.59,-0.83,0.50,-2.82,1018.58
25.08,-0.01,0.41,0.01,5.40,8.92,1.59,-0.83,0.50,-2.82,1018.65
25.098,-0.01,0.41,0.01,5.40,8.92,1.59,-0.49,0.58,1.85,1018.65
25.118,-0.01,0.41,0.01,3.64,-2.44,1.20,-0.49,0.58,1.85,1018.65
25.12,-0.01,0.41,0.01,3.64,-2.44,1.20,-0.49,0.58,1.85,1018.80
25.148,-0.18,0.43,-0.10,3.64,-2.44,1.20,-0.49,0.58,1.85,1018.80
25.167,-0.18,0.43,-0.10,3.64,-2.44,1.20,-0.09,0.77,4.76,1018.80
25.19,-0.18,0.43,-0.10,2.74,-4.84,0.05,-0.09,0.77,4.76,1018.80
25.201,-0.18,0.43,-0.10,2.74,-4.84,0.05,-0.09,0.77,4.76,1018.83
25.219,-0.08,0.96,-0.37,2.74,-4.84,0.05,-0.09,0.77,4.76,1018.83
25.238,-0.08,0.96,-0.37,2.74,-4.84,0.05,0.23,1.43,5.04,1018.83
25.258,-0.08,0.96,-0.37,0.85,-1.78,-1.24,0.23,1.43,5.04,1018.83
25.281,-0.08,0.96,-0.37,0.85,-1.78,-1.24,0.23,1.43,5.04,1018.87
25.301,-0.30,1.49,-0.64,0.85,-1.78,-1.24,0.23,1.43,5.04,1018.87
25.308,-0.30,1.49,-0.64,0.85,-1.78,-1.24,0.09,0.97,3.97,1018.87
25.321,-0.30,1.49,-0.64,0.85,-1.78,-1.24,0.09,0.97,3.97,1018.98
25.329,-0.30,1.49,-0.64,-2.91,3.36,-4.50,0.09,0.97,3.97,1018.98
25.359,-0.76,1.44,-0.32,-2.91,3.36,-4.50,0.09,0.97,3.97,1018.98
25.378,-0.76,1.44,-0.32,-2.91,3.36,-4.50,0.14,1.64,3.31,1018.98
25.399,-0.76,1.44,-0.32,-9.19,6.75,-2.81,0.14,1.64,3.31,1018.98
25.401,-0.76,1.44,-0.32,-9.19,6.75,-2.81,0.14,1.64,3.31,1019.02
25.429,-1.10,0.95,-0.16,-9.19,6.75,-2.81,0.14,1.64,3.31,1019.02
25.448,-1.10,0.95,-0.16,-9.19,6.75,-2.81,-0.26,1.46,-0.13,1019.02
25.468,-1.10,0.95,-0.16,-10.71,2.65,-2.53,-0.26,1.46,-0.13,1019.02
25.481,-1.10,0.95,-0.16,-10.71,2.65,-2.53,-0.26,1.46,-0.13,1019.30
25.498,0.21,1.05,-0.21,-10.71,2.65,-2.53,-0.26,1.46,-0.13,1019.30
25.527,0.21,1.05,-0.21,-10.71,2.65,-2.53,-0.16,-1.02,-3.45,1019.30
25.528,0.21,1.05,-0.21,-10.71,2.65,-2.53,-0.16,-1.02,-3.45,1018.93
25.539,0.21,1.05,-0.21,-9.60,0.21,-1.62,-0.16,-1.02,-3.45,1018.93
25.568,-1.10,1.08,-0.29,-9.60,0.21,-1.62,-0.16,-1.02,-3.45,1018.93
25.588,-1.10,1.08,-0.29,-9.60,0.21,-1.62,-0.35,-1.11,-1.15,1018.93
25.602,-1.10,1.08,-0.29,-9.60,0.21,-1.62,-0.35,-1.11,-1.15,1019.58
25.61,-1.10,1.08,-0.29,-1.74,0.75,0.29,-0.35,-1.11,-1.15,1019.58
25.638,-0.18,0.98,0.12,-1.74,0.75,0.29,-0.35,-1.11,-1.15,1019.58
25.658,-0.18,0.98,0.12,-1.74,0.75,0.29,-0.27,-0.07,-0.32,1019.58
25.678,-0.18,0.98,0.12,-2.06,0.97,-2.00,-0.27,-0.07,-0.32,1019.58
25.68,-0.18,0.98,0.12,-2.06,0.97,-2.00,-0.27,-0.07,-0.32,1019.19
25.709,-0.12,0.99,-0.01,-2.06,0.97,-2.00,-0.27,-0.07,-0.32,1019.19
25.721,-0.12,0.99,-0.01,-2.06,0.97,-2.00,-0.27,-0.07,-0.32,1019.08
25.728,-0.12,0.99,-0.01,-2.06,0.97,-2.00,-0.08,0.04,-0.21,1019.08
25.748,-0.12,0.99,-0.01,0.01,0.43,1.11,-0.08,0.04,-0.21,1019.08
25.778,-0.13,0.98,0.02,0.01,0.43,1.11,-0.08,0.04,-0.21,1019.08
25.798,-0.13,0.98,0.02,0.01,0.43,1.11,-0.08,0.12,-0.15,1019.08
25.801,-0.13,0.98,0.02,0.01,0.43,1.11,-0.08,0.12,-0.15,1019.02
25.818,-0.13,0.98,0.02,0.19,0.58,-0.13,-0.08,0.12,-0.15,1019.02
25.848,-0.13,0.97,0.02,0.19,0.58,-0.13,-0.08,0.12,-0.15,1019.02
25.868,-0.13,0.97,0.02,0.19,0.58,-0.13,-0.04,0.17,-0.09,1019.02
25.894,-0.13,0.97,0.02,0.19,0.58,-0.13,-0.04,0.17,-0.09,1019.02
25.896,-0.13,0.97,0.02,-0.03,0.30,0.43,-0.04,0.17,-0.09,1019.02
25.919,-0.11,0.97,0.02,-0.03,0.30,0.43,-0.04,0.17,-0.09,1019.02
25.922,-0.11,0.97,0.02,-0.03,0.30,0.43,-0.04,0.17,-0.09,1019.00
25.939,-0.11,0.97,0.02,-0.03,0.30,0.43,0.01,0.17,-0.14,1019.00
25.958,-0.11,0.97,0.02,0.29,0.36,0.34,0.01,0.17,-0.14,1019.00
25.989,-0.09,1.00,0.01,0.29,0.36,0.34,0.01,0.17,-0.14,1019.00
26.002,-0.09,1.00,0.01,0.29,0.36,0.34,0.01,0.17,-0.14,1019.03
26.009,-0.09,1.00,0.01,0.29,0.36,0.34,0.09,0.21,-0.30,1019.03
26.029,-0.09,1.00,0.01,0.70,0.53,0.58,0.09,0.21,-0.30,1019.03
26.06,-0.04,1.04,0.01,0.70,0.53,0.58,0.09,0.21,-0.30,1019.03
26.083,-0.04,1.04,0.01,0.70,0.53,0.58,0.14,0.36,-0.68,1019.03
26.085,-0.04,1.04,0.01,0.70,0.53,0.58,0.14,0.36,-0.68,1019.05
26.098,-0.04,1.04,0.01,1.33,0.92,0.44,0.14,0.36,-0.68,1019.05
26.122,-0.04,1.04,0.01,1.33,0.92,0.44,0.14,0.36,-0.68,1019.07
26.129,-0.05,1.12,-0.08,1.33,0.92,0.44,0.14,0.36,-0.68,1019.07
26.149,-0.05,1.12,-0.08,1.33,0.92,0.44,0.03,0.53,-1.40,1019.07
26.17,-0.05,1.12,-0.08,2.66,1.82,0.34,0.03,0.53,-1.40,1019.07
26.198,0.01,1.30,-0.23,2.66,1.82,0.34,0.03,0.53,-1.40,1019.07
26.2,0.01,1.30,-0.23,2.66,1.82,0.34,0.03,0.53,-1.40,1018.90
26.218,0.01,1.30,-0.23,2.66,1.82,0.34,-0.34,0.38,-2.56,1018.90
26.238,0.01,1.30,-0.23,4.57,3.78,-1.08,-0.34,0.38,-2.56,1018.90
26.269,0.21,1.50,-0.06,4.57,3.78,-1.08,-0.34,0.38,-2.56,1018.90
26.281,0.21,1.50,-0.06,4.57,3.78,-1.08,-0.34,0.38,-2.56,1018.92
26.288,0.21,1.50,-0.06,4.57,3.78,-1.08,-1.45,0.68,-4.36,1018.92
26.31,0.21,1.50,-0.06,8.77,8.19,-2.81,-1.45,0.68,-4.36,1018.92
26.322,0.21,1.50,-0.06,8.77,8.19,-2.81,-1.45,0.68,-4.36,1018.79
26.34,-0.32,0.80,0.16,8.77,8.19,-2.81,-1.45,0.68,-4.36,1018.79
26.358,-0.32,0.80,0.16,8.77,8.19,-2.81,-1.63,2.29,-1.88,1018.79
26.38,-0.32,0.80,0.16,5.53,6.81,1.89,-1.63,2.29,-1.88,1018.79
26.412,-0.32,0.80,0.16,5.53,6.81,1.89,-1.63,2.29,-1.88,1018.59
26.413,0.12,0.50,-0.15,5.53,6.81,1.89,-1.63,2.29,-1.88,1018.59
26.428,0.12,0.50,-0.15,5.53,6.81,1.89,-0.97,1.62,1.94,1018.59
26.449,0.12,0.50,-0.15,5.60,-3.47,1.65,-0.97,1.62,1.94,1018.59
26.48,-0.01,0.69,-0.39,5.60,-3.47,1.65,-0.97,1.62,1.94,1018.59
26.481,-0.01,0.69,-0.39,5.60,-3.47,1.65,-0.97,1.62,1.94,1018.61
26.507,-0.01,0.69,-0.39,5.60,-3.47,1.65,-0.61,1.20,3.76,1018.61
26.52,-0.01,0.69,-0.39,2.53,-3.14,-2.69,-0.61,1.20,3.76,1018.61
26.521,-0.01,0.69,-0.39,2.53,-3.14,-2.69,-0.61,1.20,3.76,1018.77
26.549,-0.06,1.01,-0.63,2.53,-3.14,-2.69,-0.61,1.20,3.76,1018.77
26.568,-0.06,1.01,-0.63,2.53,-3.14,-2.69,0.12,1.66,3.83,1018.77
26.588,-0.06,1.01,-0.63,0.56,-0.29,-3.77,0.12,1.66,3.83,1018.77
26.601,-0.06,1.01,-0.63,0.56,-0.29,-3.77,0.12,1.66,3.83,1018.82
26.619,-0.03,1.37,-0.62,0.56,-0.29,-3.77,0.12,1.66,3.83,1018.82
26.639,-0.03,1.37,-0.62,0.56,-0.29,-3.77,0.38,1.68,2.95,1018.82
26.66,-0.03,1.37,-0.62,-1.68,2.71,-4.92,0.38,1.68,2.95,1018.82
26.682,-0.03,1.37,-0.62,-1.68,2.71,-4.92,0.38,1.68,2.95,1018.87
26.688,-0.75,1.38,-0.62,-1.68,2.71,-4.92,0.38,1.68,2.95,1018.87
26.709,-0.75,1.38,-0.62,-1.68,2.71,-4.92,0.15,1.65,2.52,1018.87
26.722,-0.75,1.38,-0.62,-1.68,2.71,-4.92,0.15,1.65,2.52,1018.86
26.729,-0.75,1.38,-0.62,-5.23,5.91,-3.58,0.15,1.65,2.52,1018.86
26.764,-1.07,0.87,-0.12,-5.23,5.91,-3.58,0.15,1.65,2.52,1018.86
26.797,-1.07,0.87,-0.12,-5.23,5.91,-3.58,-0.52,0.30,0.89,1018.86
26.8,-1.07,0.87,-0.12,-12.34,1.45,-5.33,-0.52,0.30,0.89,1018.86
26.8,-1.07,0.87,-0.12,-12.34,1.45,-5.33,-0.52,0.30,0.89,1019.23
26.832,-0.23,1.03,-0.32,-12.34,1.45,-5.33,-0.52,0.30,0.89,1019.23
26.849,-0.23,1.03,-0.32,-12.34,1.45,-5.33,-0.21,-1.98,-2.74,1019.23
26.87,-0.23,1.03,-0.32,-8.15,1.24,1.58,-0.21,-1.98,-2.74,1019.23
26.882,-0.23,1.03,-0.32,-8.15,1.24,1.58,-0.21,-1.98,-2.74,1019.30
26.909,-0.40,1.09,-0.08,-8.15,1.24,1.58,-0.21,-1.98,-2.74,1019.30
26.92,-0.40,1.09,-0.08,-8.15,1.24,1.58,-0.66,-0.90,-1.59,1019.30
26.921,-0.40,1.09,-0.08,-8.15,1.24,1.58,-0.66,-0.90,-1.59,1019.44
26.939,-0.40,1.09,-0.08,-1.53,0.02,-3.14,-0.66,-0.90,-1.59,1019.44
26.969,-0.32,0.97,-0.12,-1.53,0.02,-3.14,-0.66,-0.90,-1.59,1019.44
26.988,-0.32,0.97,-0.12,-1.53,0.02,-3.14,-0.35,-0.05,-0.46,1019.44
27.011,-0.32,0.97,-0.12,-1.53,0.02,-3.14,-0.35,-0.05,-0.46,1019.22
27.013,-0.32,0.97,-0.12,-1.87,0.71,1.47,-0.35,-0.05,-0.46,1019.22
27.039,-0.12,0.99,-0.04,-1.87,0.71,1.47,-0.35,-0.05,-0.46,1019.22
27.06,-0.12,0.99,-0.04,-1.87,0.71,1.47,-0.10,0.07,-0.22,1019.22
27.079,-0.12,0.99,-0.04,-0.71,0.48,0.71,-0.10,0.07,-0.22,1019.22
27.08,-0.12,0.99,-0.04,-0.71,0.48,0.71,-0.10,0.07,-0.22,1019.14
27.109,-0.10,0.98,-0.01,-0.71,0.48,0.71,-0.10,0.07,-0.22,1019.14
27.121,-0.10,0.98,-0.01,-0.71,0.48,0.71,-0.10,0.07,-0.22,1019.09
27.128,-0.10,0.98,-0.01,-0.71,0.48,0.71,0.07,0.10,-0.24,1019.09
27.149,-0.10,0.98,-0.01,0.42,0.57,0.51,0.07,0.10,-0.24,1019.09
27.182,-0.13,0.97,-0.05,0.42,0.57,0.51,0.07,0.10,-0.24,1019.09
27.217,-0.13,0.97,-0.05,0.42,0.57,0.51,0.13,0.14,-0.19,1019.09
27.218,-0.13,0.97,-0.05,0.42,0.57,0.51,0.13,0.14,-0.19,1019.02
27.22,-0.13,0.97,-0.05,0.05,0.38,0.42,0.13,0.14,-0.19,1019.02
27.25,-0.10,0.97,-0.05,0.05,0.38,0.42,0.13,0.14,-0.19,1019.02
27.269,-0.10,0.97,-0.05,0.05,0.38,0.42,0.18,0.13,-0.28,1019.02
27.283,-0.10,0.97,-0.05,0.05,0.38,0.42,0.18,0.13,-0.28,1019.06
27.289,-0.10,0.97,-0.05,0.59,0.41,0.61,0.18,0.13,-0.28,1019.06
27.319,-0.14,0.97,-0.08,0.59,0.41,0.61,0.18,0.13,-0.28,1019.06
27.321,-0.14,0.97,-0.08,0.59,0.41,0.61,0.18,0.13,-0.28,1019.00
27.34,-0.14,0.97,-0.08,0.59,0.41,0.61,0.24,0.10,-0.33,1019.00
27.366,-0.14,0.97,-0.08,0.46,0.42,0.48,0.24,0.10,-0.33,1019.00
27.396,-0.11,1.00,-0.08,0.46,0.42,0.48,0.24,0.10,-0.33,1019.00
27.401,-0.11,1.00,-0.08,0.46,0.42,0.48,0.24,0.10,-0.33,1019.02
27.41,-0.11,1.00,-0.08,0.46,0.42,0.48,0.35,0.22,-0.54,1019.02
27.429,-0.11,1.00,-0.08,0.88,0.67,0.77,0.35,0.22,-0.54,1019.02
27.467,-0.13,1.04,-0.18,0.88,0.67,0.77,0.35,0.22,-0.54,1019.02
27.499,-0.13,1.04,-0.18,0.88,0.67,0.77,0.34,0.30,-1.02,1019.02
27.5,-0.13,1.04,-0.18,0.88,0.67,0.77,0.34,0.30,-1.02,1019.05
27.501,-0.13,1.04,-0.18,1.98,1.41,0.49,0.34,0.30,-1.02,1019.05
27.522,-0.13,1.04,-0.18,1.98,1.41,0.49,0.34,0.30,-1.02,1018.99
27.529,0.06,1.32,-0.27,1.98,1.41,0.49,0.34,0.30,-1.02,1018.99
27.55,0.06,1.32,-0.27,1.98,1.41,0.49,0.28,0.21,-2.19,1018.99
27.57,0.06,1.32,-0.27,3.68,3.24,-0.55,0.28,0.21,-2.19,1018.99
27.599,0.14,1.42,-0.15,3.68,3.24,-0.55,0.28,0.21,-2.19,1018.99
27.6,0.14,1.42,-0.15,3.68,3.24,-0.55,0.28,0.21,-2.19,1018.96
27.622,0.14,1.42,-0.15,3.68,3.24,-0.55,-0.11,-0.39,-3.93,1018.96
27.64,0.14,1.42,-0.15,8.16,7.63,-0.89,-0.11,-0.39,-3.93,1018.96
27.67,-0.43,0.82,-0.10,8.16,7.63,-0.89,-0.11,-0.39,-3.93,1018.96
27.696,-0.43,0.82,-0.10,8.16,7.63,-0.89,-0.11,-0.39,-3.93,1018.61
27.697,-0.43,0.82,-0.10,8.16,7.63,-0.89,0.07,-0.44,-1.07,1018.61
27.71,-0.43,0.82,-0.10,4.30,4.08,1.57,0.07,-0.44,-1.07,1018.61
27.721,-0.43,0.82,-0.10,4.30,4.08,1.57,0.07,-0.44,-1.07,1018.77
27.74,0.30,0.64,-0.01,4.30,4.08,1.57,0.07,-0.44,-1.07,1018.77
27.76,0.30,0.64,-0.01,4.30,4.08,1.57,0.46,-0.25,1.67,1018.77
27.779,0.30,0.64,-0.01,5.65,-1.20,0.80,0.46,-0.25,1.67,1018.77
27.802,0.30,0.64,-0.01,5.65,-1.20,0.80,0.46,-0.25,1.67,1018.78
27.81,-0.04,0.72,-0.10,5.65,-1.20,0.80,0.46,-0.25,1.67,1018.78
27.83,-0.04,0.72,-0.10,5.65,-1.20,0.80,0.67,-0.32,3.18,1018.78
27.85,-0.04,0.72,-0.10,3.16,-2.03,0.59,0.67,-0.32,3.18,1018.78
27.885,-0.07,1.03,0.02,3.16,-2.03,0.59,0.67,-0.32,3.18,1018.78
27.887,-0.07,1.03,0.02,3.16,-2.03,0.59,0.67,-0.32,3.18,1019.04
27.914,-0.07,1.03,0.02,3.16,-2.03,0.59,0.86,-0.53,3.54,1019.04
27.919,-0.07,1.03,0.02,0.56,-0.39,2.37,0.86,-0.53,3.54,1019.04
27.92,-0.07,1.03,0.02,0.56,-0.39,2.37,0.86,-0.53,3.54,1018.95
27.949,-0.26,1.32,-0.00,0.56,-0.39,2.37,0.86,-0.53,3.54,1018.95
27.971,-0.26,1.32,-0.00,0.56,-0.39,2.37,0.56,-1.58,3.71,1018.95
27.989,-0.26,1.32,-0.00,-3.14,3.05,2.51,0.56,-1.58,3.71,1018.95
28.012,-0.26,1.32,-0.00,-3.14,3.05,2.51,0.56,-1.58,3.71,1018.88
28.021,-0.23,1.39,0.12,-3.14,3.05,2.51,0.56,-1.58,3.71,1018.88
28.04,-0.23,1.39,0.12,-3.14,3.05,2.51,0.13,-1.81,3.36,1018.88
28.06,-0.23,1.39,0.12,-4.03,5.27,3.14,0.13,-1.81,3.36,1018.88
28.082,-0.23,1.39,0.12,-4.03,5.27,3.14,0.13,-1.81,3.36,1018.92
28.089,-0.43,1.24,0.13,-4.03,5.27,3.14,0.13,-1.81,3.36,1018.92
28.11,-0.43,1.24,0.13,-4.03,5.27,3.14,-0.26,-1.43,2.69,1018.92
28.122,-0.43,1.24,0.13,-4.03,5.27,3.14,-0.26,-1.43,2.69,1018.93
28.13,-0.43,1.24,0.13,-6.85,4.50,4.40,-0.26,-1.43,2.69,1018.93
28.16,-1.08,1.05,0.06,-6.85,4.50,4.40,-0.26,-1.43,2.69,1018.93
28.18,-1.08,1.05,0.06,-6.85,4.50,4.40,-0.84,-2.90,0.55,1018.93
28.2,-1.08,1.05,0.06,-10.89,2.55,3.92,-0.84,-2.90,0.55,1018.93
28.201,-1.08,1.05,0.06,-10.89,2.55,3.92,-0.84,-2.90,0.55,1018.97
28.237,0.14,1.06,-0.62,-10.89,2.55,3.92,-0.84,-2.90,0.55,1018.97
28.249,0.14,1.06,-0.62,-10.89,2.55,3.92,-0.93,-4.51,-2.22,1018.97
28.27,0.14,1.06,-0.62,-6.13,2.98,2.44,-0.93,-4.51,-2.22,1018.97
28.287,0.14,1.06,-0.62,-6.13,2.98,2.44,-0.93,-4.51,-2.22,1019.29
28.313,-0.43,1.02,-0.14,-6.13,2.98,2.44,-0.93,-4.51,-2.22,1019.29
28.319,-0.43,1.02,-0.14,-6.13,2.98,2.44,-1.50,-0.14,-1.39,1019.29
28.32,-0.43,1.02,-0.14,-6.13,2.98,2.44,-1.50,-0.14,-1.39,1019.55
28.34,-0.43,1.02,-0.14,0.03,-0.72,-7.96,-1.50,-0.14,-1.39,1019.55
28.369,-0.12,0.95,0.02,0.03,-0.72,-7.96,-1.50,-0.14,-1.39,1019.55
28.398,-0.12,0.95,0.02,0.03,-0.72,-7.96,-0.51,-0.49,-0.69,1019.55
28.401,-0.12,0.95,0.02,0.03,-0.72,-7.96,-0.51,-0.49,-0.69,1019.31
28.41,-0.12,0.95,0.02,-0.04,0.59,3.96,-0.51,-0.49,-0.69,1019.31
28.441,-0.16,0.99,-0.14,-0.04,0.59,3.96,-0.51,-0.49,-0.69,1019.31
28.461,-0.16,0.99,-0.14,-0.04,0.59,3.96,-0.11,-0.24,-0.38,1019.31
28.481,-0.16,0.99,-0.14,-0.30,0.48,0.98,-0.11,-0.24,-0.38,1019.31
28.482,-0.16,0.99,-0.14,-0.30,0.48,0.98,-0.11,-0.24,-0.38,1019.06
28.509,-0.13,0.97,-0.14,-0.30,0.48,0.98,-0.11,-0.24,-0.38,1019.06
28.521,-0.13,0.97,-0.14,-0.30,0.48,0.98,-0.11,-0.24,-0.38,1018.93
28.529,-0.13,0.97,-0.14,-0.30,0.48,0.98,-0.05,-0.04,-0.33,1018.93
28.55,-0.13,0.97,-0.14,0.17,0.51,-0.02,-0.05,-0.04,-0.33,1018.93
28.588,-0.16,0.95,-0.12,0.17,0.51,-0.02,-0.05,-0.04,-0.33,1018.93
28.619,-0.16,0.95,-0.12,0.17,0.51,-0.02,0.01,-0.03,-0.26,1018.93
28.62,-0.16,0.95,-0.12,0.17,0.51,-0.02,0.01,-0.03,-0.26,1018.88
28.62,-0.16,0.95,-0.12,0.12,0.28,0.13,0.01,-0.03,-0.26,1018.88
28.65,-0.17,0.95,-0.11,0.12,0.28,0.13,0.01,-0.03,-0.26,1018.88
28.67,-0.17,0.95,-0.11,0.12,0.28,0.13,0.08,0.00,-0.18,1018.88
28.686,-0.17,0.95,-0.11,0.12,0.28,0.13,0.08,0.00,-0.18,1018.96
28.69,-0.17,0.95,-0.11,-0.06,0.22,0.19,0.08,0.00,-0.18,1018.96
28.72,-0.17,0.96,-0.15,-0.06,0.22,0.19,0.08,0.00,-0.18,1018.96
28.72,-0.17,0.96,-0.15,-0.06,0.22,0.19,0.08,0.00,-0.18,1018.98
28.739,-0.17,0.96,-0.15,-0.06,0.22,0.19,0.16,0.00,-0.20,1018.98
28.761,-0.17,0.96,-0.15,0.30,0.40,0.56,0.16,0.00,-0.20,1018.98
28.789,-0.13,0.99,-0.14,0.30,0.40,0.56,0.16,0.00,-0.20,1018.98
28.801,-0.13,0.99,-0.14,0.30,0.40,0.56,0.16,0.00,-0.20,1018.95
28.81,-0.13,0.99,-0.14,0.30,0.40,0.56,0.27,0.01,-0.38,1018.95
28.83,-0.13,0.99,-0.14,0.69,0.64,0.33,0.27,0.01,-0.38,1018.95
28.861,-0.14,1.00,-0.18,0.69,0.64,0.33,0.27,0.01,-0.38,1018.95
28.88,-0.14,1.00,-0.18,0.69,0.64,0.33,0.39,0.02,-0.68,1018.95
28.881,-0.14,1.00,-0.18,0.69,0.64,0.33,0.39,0.02,-0.68,1019.00
28.9,-0.14,1.00,-0.18,1.31,1.03,0.51,0.39,0.02,-0.68,1019.00
28.922,-0.14,1.00,-0.18,1.31,1.03,0.51,0.39,0.02,-0.68,1019.00
28.931,-0.04,1.14,-0.23,1.31,1.03,0.51,0.39,0.02,-0.68,1019.00
28.95,-0.04,1.14,-0.23,1.31,1.03,0.51,0.56,-0.09,-1.44,1019.00
28.97,-0.04,1.14,-0.23,2.47,1.87,0.37,0.56,-0.09,-1.44,1019.00
29.0,0.20,1.40,-0.35,2.47,1.87,0.37,0.56,-0.09,-1.44,1019.00
29.001,0.20,1.40,-0.35,2.47,1.87,0.37,0.56,-0.09,-1.44,1018.97
29.02,0.20,1.40,-0.35,2.47,1.87,0.37,0.62,-0.46,-3.26,1018.97
29.041,0.20,1.40,-0.35,6.89,6.01,-0.50,0.62,-0.46,-3.26,1018.97
29.07,-0.40,1.11,0.04,6.89,6.01,-0.50,0.62,-0.46,-3.26,1018.97
29.094,-0.40,1.11,0.04,6.89,6.01,-0.50,0.62,-0.46,-3.26,1018.74
29.094,-0.40,1.11,0.04,6.89,6.01,-0.50,1.72,-2.31,-3.79,1018.74
29.11,-0.40,1.11,0.04,7.17,7.49,0.61,1.72,-2.31,-3.79,1018.74
29.122,-0.40,1.11,0.04,7.17,7.49,0.61,1.72,-2.31,-3.79,1018.35
29.141,-0.81,0.54,-0.11,7.17,7.49,0.61,1.72,-2.31,-3.79,1018.35
29.16,-0.81,0.54,-0.11,7.17,7.49,0.61,2.83,-4.01,0.36,1018.35
29.191,-0.81,0.54,-0.11,-2.40,1.32,0.51,2.83,-4.01,0.36,1018.35
29.218,-0.81,0.54,-0.11,-2.40,1.32,0.51,2.83,-4.01,0.36,1018.86
29.219,0.06,0.67,0.04,-2.40,1.32,0.51,2.83,-4.01,0.36,1018.86
29.231,0.06,0.67,0.04,-2.40,1.32,0.51,2.61,-2.00,2.13,1018.86
29.251,0.06,0.67,0.04,5.86,-0.43,0.77,2.61,-2.00,2.13,1018.86
29.281,-0.04,0.66,0.27,5.86,-0.43,0.77,2.61,-2.00,2.13,1018.86
29.282,-0.04,0.66,0.27,5.86,-0.43,0.77,2.61,-2.00,2.13,1019.19
29.3,-0.04,0.66,0.27,5.86,-0.43,0.77,2.66,-0.88,3.50,1019.19
29.321,-0.04,0.66,0.27,4.68,-1.70,4.78,2.66,-0.88,3.50,1019.19
29.322,-0.04,0.66,0.27,4.68,-1.70,4.78,2.66,-0.88,3.50,1019.07
29.351,-0.06,1.15,0.37,4.68,-1.70,4.78,2.66,-0.88,3.50,1019.07
29.37,-0.06,1.15,0.37,4.68,-1.70,4.78,1.80,-1.29,3.96,1019.07
29.39,-0.06,1.15,0.37,2.22,0.45,5.49,1.80,-1.29,3.96,1019.07
29.416,-0.06,1.15,0.37,2.22,0.45,5.49,1.80,-1.29,3.96,1019.00
29.42,-0.29,1.36,0.35,2.22,0.45,5.49,1.80,-1.29,3.96,1019.00
29.441,-0.29,1.36,0.35,2.22,0.45,5.49,0.94,-2.35,4.35,1019.00
29.461,-0.29,1.36,0.35,-2.62,4.24,6.68,0.94,-2.35,4.35,1019.00
29.481,-0.29,1.36,0.35,-2.62,4.24,6.68,0.94,-2.35,4.35,1018.89
29.498,0.01,1.43,0.31,-2.62,4.24,6.68,0.94,-2.35,4.35,1018.89
29.51,0.01,1.43,0.31,-2.62,4.24,6.68,0.06,-1.23,4.20,1018.89
29.522,0.01,1.43,0.31,-2.62,4.24,6.68,0.06,-1.23,4.20,1018.77
29.531,0.01,1.43,0.31,-2.79,4.94,5.87,0.06,-1.23,4.20,1018.77
29.561,-0.51,1.37,0.06,-2.79,4.94,5.87,0.06,-1.23,4.20,1018.77
29.581,-0.51,1.37,0.06,-2.79,4.94,5.87,-0.30,-0.15,2.89,1018.77
29.6,-0.51,1.37,0.06,-4.75,5.82,3.71,-0.30,-0.15,2.89,1018.77
29.601,-0.51,1.37,0.06,-4.75,5.82,3.71,-0.30,-0.15,2.89,1018.85
29.631,-1.33,1.09,-0.10,-4.75,5.82,3.71,-0.30,-0.15,2.89,1018.85
29.651,-1.33,1.09,-0.10,-4.75,5.82,3.71,-0.62,-1.68,-0.31,1018.85
29.67,-1.33,1.09,-0.10,-12.18,3.13,2.81,-0.62,-1.68,-0.31,1018.85
29.682,-1.33,1.09,-0.10,-12.18,3.13,2.81,-0.62,-1.68,-0.31,1019.04
29.718,0.33,1.11,-0.83,-12.18,3.13,2.81,-0.62,-1.68,-0.31,1019.04
29.721,0.33,1.11,-0.83,-12.18,3.13,2.81,-0.79,-2.30,-2.62,1019.04
29.722,0.33,1.11,-0.83,-12.18,3.13,2.81,-0.79,-2.30,-2.62,1019.29
29.741,0.33,1.11,-0.83,-6.04,1.92,-1.00,-0.79,-2.30,-2.62,1019.29
29.783,-0.70,1.01,-0.04,-6.04,1.92,-1.00,-0.79,-2.30,-2.62,1019.29
29.791,-0.70,1.01,-0.04,-6.04,1.92,-1.00,-1.08,-0.31,-0.80,1019.29
29.802,-0.70,1.01,-0.04,-6.04,1.92,-1.00,-1.08,-0.31,-0.80,1019.42
29.81,-0.70,1.01,-0.04,-2.48,0.37,-4.17,-1.08,-0.31,-0.80,1019.42
29.841,-0.06,0.97,0.00,-2.48,0.37,-4.17,-1.08,-0.31,-0.80,1019.42
29.861,-0.06,0.97,0.00,-2.48,0.37,-4.17,-0.39,-0.28,-0.52,1019.42
29.882,-0.06,0.97,0.00,-2.48,0.37,-4.17,-0.39,-0.28,-0.52,1019.14
29.883,-0.06,0.97,0.00,-0.13,0.32,1.27,-0.39,-0.28,-0.52,1019.14
29.91,-0.13,0.99,-0.10,-0.13,0.32,1.27,-0.39,-0.28,-0.52,1019.14
29.921,-0.13,0.99,-0.10,-0.13,0.32,1.27,-0.39,-0.28,-0.52,1019.00
29.929,-0.13,0.99,-0.10,-0.13,0.32,1.27,-0.21,-0.05,-0.25,1019.00
29.95,-0.13,0.99,-0.10,-0.49,0.50,0.09,-0.21,-0.05,-0.25,1019.00
29.981,-0.10,0.97,-0.06,-0.49,0.50,0.09,-0.21,-0.05,-0.25,1019.00
30.0,-0.10,0.97,-0.06,-0.49,0.50,0.09,0.03,-0.02,-0.24,1019.00
30.002,-0.10,0.97,-0.06,-0.49,0.50,0.09,0.03,-0.02,-0.24,1018.91
30.023,-0.10,0.97,-0.06,0.34,0.36,0.82,0.03,-0.02,-0.24,1018.91
30.051,-0.11,0.96,-0.10,0.34,0.36,0.82,0.03,-0.02,-0.24,1018.91
30.07,-0.11,0.96,-0.10,0.34,0.36,0.82,0.05,0.03,-0.21,1018.91
30.082,-0.11,0.96,-0.10,0.34,0.36,0.82,0.05,0.03,-0.21,1018.95
30.092,-0.11,0.96,-0.10,0.11,0.25,0.20,0.05,0.03,-0.21,1018.95
30.121,-0.11,0.96,-0.10,0.11,0.25,0.20,0.05,0.03,-0.21,1018.95
30.122,-0.11,0.96,-0.10,0.11,0.25,0.20,0.05,0.03,-0.21,1018.96
30.14,-0.11,0.96,-0.10,0.11,0.25,0.20,0.12,-0.02,-0.24,1018.96
30.162,-0.11,0.96,-0.10,0.30,0.21,0.50,0.12,-0.02,-0.24,1018.96
30.191,-0.11,0.98,-0.11,0.30,0.21,0.50,0.12,-0.02,-0.24,1018.96
30.217,-0.11,0.98,-0.11,0.30,0.21,0.50,0.12,-0.02,-0.24,1018.97
30.218,-0.11,0.98,-0.11,0.30,0.21,0.50,0.23,-0.05,-0.34,1018.97
30.231,-0.11,0.98,-0.11,0.56,0.47,0.41,0.23,-0.05,-0.34,1018.97
30.262,-0.08,1.03,-0.19,0.56,0.47,0.41,0.23,-0.05,-0.34,1018.97
30.281,-0.08,1.03,-0.19,0.56,0.47,0.41,0.24,-0.05,-0.64,1018.97
30.282,-0.08,1.03,-0.19,0.56,0.47,0.41,0.24,-0.05,-0.64,1018.98
30.3,-0.08,1.03,-0.19,1.13,0.83,0.21,0.24,-0.05,-0.64,1018.98
30.321,-0.08,1.03,-0.19,1.13,0.83,0.21,0.24,-0.05,-0.64,1018.97
30.331,0.01,1.15,-0.20,1.13,0.83,0.21,0.24,-0.05,-0.64,1018.97
30.351,0.01,1.15,-0.20,1.13,0.83,0.21,0.21,-0.04,-1.48,1018.97
30.37,0.01,1.15,-0.20,2.78,1.98,-0.31,0.21,-0.04,-1.48,1018.97
30.409,0.10,1.28,-0.32,2.78,1.98,-0.31,0.21,-0.04,-1.48,1018.97
30.41,0.10,1.28,-0.32,2.78,1.98,-0.31,0.21,-0.04,-1.48,1019.00
30.436,0.10,1.28,-0.32,2.78,1.98,-0.31,0.15,-0.14,-2.92,1019.00
30.44,0.10,1.28,-0.32,5.58,4.37,-0.83,0.15,-0.14,-2.92,1019.00
30.477,0.12,1.35,-0.06,5.58,4.37,-0.83,0.15,-0.14,-2.92,1019.00
30.48,0.12,1.35,-0.06,5.58,4.37,-0.83,0.15,-0.14,-2.92,1018.90
30.498,0.12,1.35,-0.06,5.58,4.37,-0.83,-0.04,-0.35,-4.66,1018.90
30.511,0.12,1.35,-0.06,9.48,7.69,-0.49,-0.04,-0.35,-4.66,1018.90
30.521,0.12,1.35,-0.06,9.48,7.69,-0.49,-0.04,-0.35,-4.66,1018.49
30.541,-0.45,0.94,0.19,9.48,7.69,-0.49,-0.04,-0.35,-4.66,1018.49
30.561,-0.45,0.94,0.19,9.48,7.69,-0.49,0.84,-1.16,-3.51,1018.49
30.582,-0.45,0.94,0.19,5.44,7.31,2.25,0.84,-1.16,-3.51,1018.49
30.601,-0.45,0.94,0.19,5.44,7.31,2.25,0.84,-1.16,-3.51,1018.54
30.61,-0.52,0.44,-0.13,5.44,7.31,2.25,0.84,-1.16,-3.51,1018.54
30.631,-0.52,0.44,-0.13,5.44,7.31,2.25,0.76,-1.56,1.60,1018.54
30.651,-0.52,0.44,-0.13,-1.96,-1.46,-0.29,0.76,-1.56,1.60,1018.54
30.682,-0.15,0.35,0.12,-1.96,-1.46,-0.29,0.76,-1.56,1.60,1018.54
30.683,-0.15,0.35,0.12,-1.96,-1.46,-0.29,0.76,-1.56,1.60,1018.93
30.706,-0.15,0.35,0.12,-1.96,-1.46,-0.29,1.25,-0.52,3.97,1018.93
30.721,-0.15,0.35,0.12,5.16,-3.45,2.37,1.25,-0.52,3.97,1018.93
30.722,-0.15,0.35,0.12,5.16,-3.45,2.37,1.25,-0.52,3.97,1019.10
30.751,0.05,0.67,0.14,5.16,-3.45,2.37,1.25,-0.52,3.97,1019.10
30.771,0.05,0.67,0.14,5.16,-3.45,2.37,1.33,0.74,4.73,1019.10
30.791,0.05,0.67,0.14,2.64,-3.90,3.46,1.33,0.74,4.73,1019.10
30.801,0.05,0.67,0.14,2.64,-3.90,3.46,1.33,0.74,4.73,1019.10
30.821,-0.30,1.48,-0.01,2.64,-3.90,3.46,1.33,0.74,4.73,1019.10
30.841,-0.30,1.48,-0.01,2.64,-3.90,3.46,0.59,0.69,4.18,1019.10
30.862,-0.30,1.48,-0.01,0.43,2.39,2.82,0.59,0.69,4.18,1019.10
30.882,-0.30,1.48,-0.01,0.43,2.39,2.82,0.59,0.69,4.18,1018.90
30.893,-0.79,1.42,-0.17,0.43,2.39,2.82,0.59,0.69,4.18,1018.90
30.917,-0.79,1.42,-0.17,0.43,2.39,2.82,0.26,-1.62,4.78,1018.90
30.922,-0.79,1.42,-0.17,0.43,2.39,2.82,0.26,-1.62,4.78,1018.85
30.931,-0.79,1.42,-0.17,-10.87,6.65,1.44,0.26,-1.62,4.78,1018.85
30.961,-0.40,1.28,-0.11,-10.87,6.65,1.44,0.26,-1.62,4.78,1018.85
30.981,-0.40,1.28,-0.11,-10.87,6.65,1.44,-0.25,-1.39,2.96,1018.85
31.001,-0.40,1.28,-0.11,-10.87,6.65,1.44,-0.25,-1.39,2.96,1019.10
31.002,-0.40,1.28,-0.11,-8.01,4.68,1.49,-0.25,-1.39,2.96,1019.10
31.031,-1.09,0.93,-0.14,-8.01,4.68,1.49,-0.25,-1.39,2.96,1019.10
31.051,-1.09,0.93,-0.14,-8.01,4.68,1.49,-0.52,-1.80,0.05,1019.10
31.076,-1.09,0.93,-0.14,-11.19,1.99,1.85,-0.52,-1.80,0.05,1019.10
31.081,-1.09,0.93,-0.14,-11.19,1.99,1.85,-0.52,-1.80,0.05,1018.99
31.101,0.60,1.10,-0.67,-11.19,1.99,1.85,-0.52,-1.80,0.05,1018.99
31.122,0.60,1.10,-0.67,-11.19,1.99,1.85,-0.83,-2.68,-2.43,1018.99
31.123,0.60,1.10,-0.67,-11.19,1.99,1.85,-0.83,-2.68,-2.43,1019.51
31.142,0.60,1.10,-0.67,-4.88,4.11,0.34,-0.83,-2.68,-2.43,1019.51
31.184,-0.54,1.05,-0.02,-4.88,4.11,0.34,-0.83,-2.68,-2.43,1019.51
31.19,-0.54,1.05,-0.02,-4.88,4.11,0.34,-1.15,-0.22,-1.58,1019.51
31.202,-0.54,1.05,-0.02,-4.88,4.11,0.34,-1.15,-0.22,-1.58,1019.31
31.21,-0.54,1.05,-0.02,3.02,-1.52,-4.93,-1.15,-0.22,-1.58,1019.31
31.241,-0.13,0.95,-0.06,3.02,-1.52,-4.93,-1.15,-0.22,-1.58,1019.31
31.261,-0.13,0.95,-0.06,3.02,-1.52,-4.93,-0.70,-0.17,-0.68,1019.31
31.281,-0.13,0.95,-0.06,3.02,-1.52,-4.93,-0.70,-0.17,-0.68,1019.07
31.282,-0.13,0.95,-0.06,-2.10,0.66,0.95,-0.70,-0.17,-0.68,1019.07
31.31,-0.17,0.99,-0.11,-2.10,0.66,0.95,-0.70,-0.17,-0.68,1019.07
31.324,-0.17,0.99,-0.11,-2.10,0.66,0.95,-0.70,-0.17,-0.68,1019.04
31.33,-0.17,0.99,-0.11,-2.10,0.66,0.95,-0.23,-0.11,-0.29,1019.04
31.351,-0.17,0.99,-0.11,-0.47,0.31,1.90,-0.23,-0.11,-0.29,1019.04
31.381,-0.06,0.98,-0.03,-0.47,0.31,1.90,-0.23,-0.11,-0.29,1019.04
31.401,-0.06,0.98,-0.03,-0.47,0.31,1.90,0.01,-0.09,-0.28,1019.04
31.402,-0.06,0.98,-0.03,-0.47,0.31,1.90,0.01,-0.09,-0.28,1018.96
31.422,-0.06,0.98,-0.03,0.23,0.57,0.34,0.01,-0.09,-0.28,1018.96
31.452,-0.11,0.97,-0.12,0.23,0.57,0.34,0.01,-0.09,-0.28,1018.96
31.471,-0.11,0.97,-0.12,0.23,0.57,0.34,0.03,-0.03,-0.27,1018.96
31.481,-0.11,0.97,-0.12,0.23,0.57,0.34,0.03,-0.03,-0.27,1018.93
31.506,-0.11,0.97,-0.12,0.23,0.38,0.35,0.03,-0.03,-0.27,1018.93
31.523,-0.13,0.96,-0.11,0.23,0.38,0.35,0.03,-0.03,-0.27,1018.93
31.524,-0.13,0.96,-0.11,0.23,0.38,0.35,0.03,-0.03,-0.27,1018.93
31.541,-0.13,0.96,-0.11,0.23,0.38,0.35,0.06,-0.01,-0.28,1018.93
31.561,-0.13,0.96,-0.11,0.36,0.36,0.41,0.06,-0.01,-0.28,1018.93
31.595,-0.12,0.98,-0.12,0.36,0.36,0.41,0.06,-0.01,-0.28,1018.93
31.601,-0.12,0.98,-0.12,0.36,0.36,0.41,0.06,-0.01,-0.28,1018.97
31.623,-0.12,0.98,-0.12,0.36,0.36,0.41,0.10,-0.01,-0.33,1018.97
31.63,-0.12,0.98,-0.12,0.29,0.44,0.23,0.10,-0.01,-0.33,1018.97
31.662,-0.06,1.05,-0.16,0.29,0.44,0.23,0.10,-0.01,-0.33,1018.97
31.681,-0.06,1.05,-0.16,0.29,0.44,0.23,0.14,0.05,-0.74,1018.97
31.683,-0.06,1.05,-0.16,0.29,0.44,0.23,0.14,0.05,-0.74,1019.02
31.701,-0.06,1.05,-0.16,1.39,1.02,0.27,0.14,0.05,-0.74,1019.02
31.726,-0.06,1.05,-0.16,1.39,1.02,0.27,0.14,0.05,-0.74,1018.99
31.738,0.01,1.17,-0.23,1.39,1.02,0.27,0.14,0.05,-0.74,1018.99
31.751,0.01,1.17,-0.23,1.39,1.02,0.27,-0.04,-0.03,-1.64,1018.99
31.77,0.01,1.17,-0.23,3.00,2.26,-0.96,-0.04,-0.03,-1.64,1018.99
31.802,0.20,1.37,-0.35,3.00,2.26,-0.96,-0.04,-0.03,-1.64,1018.99
31.803,0.20,1.37,-0.35,3.00,2.26,-0.96,-0.04,-0.03,-1.64,1018.97
31.822,0.20,1.37,-0.35,3.00,2.26,-0.96,-0.21,-0.23,-3.37,1018.97
31.841,0.20,1.37,-0.35,6.63,5.23,-1.21,-0.21,-0.23,-3.37,1018.97
31.871,0.17,1.38,-0.01,6.63,5.23,-1.21,-0.21,-0.23,-3.37,1018.97
31.882,0.17,1.38,-0.01,6.63,5.23,-1.21,-0.21,-0.23,-3.37,1018.75
31.891,0.17,1.38,-0.01,6.63,5.23,-1.21,-0.43,-0.36,-5.33,1018.75
31.914,0.17,1.38,-0.01,11.28,9.07,-1.11,-0.43,-0.36,-5.33,1018.75
31.921,0.17,1.38,-0.01,11.28,9.07,-1.11,-0.43,-0.36,-5.33,1018.43
31.942,-0.69,0.73,0.27,11.28,9.07,-1.11,-0.43,-0.36,-5.33,1018.43
31.961,-0.69,0.73,0.27,11.28,9.07,-1.11,0.65,-0.92,-2.93,1018.43
31.982,-0.69,0.73,0.27,4.96,7.26,2.82,0.65,-0.92,-2.93,1018.43
32.001,-0.69,0.73,0.27,4.96,7.26,2.82,0.65,-0.92,-2.93,1018.56
32.017,-0.19,0.37,-0.19,4.96,7.26,2.82,0.65,-0.92,-2.93,1018.56
32.031,-0.19,0.37,-0.19,4.96,7.26,2.82,0.06,-0.76,2.25,1018.56
32.052,-0.19,0.37,-0.19,-1.79,-3.64,-0.82,0.06,-0.76,2.25,1018.56
32.082,-0.15,0.35,0.11,-1.79,-3.64,-0.82,0.06,-0.76,2.25,1018.56
32.082,-0.15,0.35,0.11,-1.79,-3.64,-0.82,0.06,-0.76,2.25,1018.93
32.105,-0.15,0.35,0.11,-1.79,-3.64,-0.82,0.77,0.21,4.51,1018.93
32.123,-0.15,0.35,0.11,-1.79,-3.64,-0.82,0.77,0.21,4.51,1018.97
32.124,-0.15,0.35,0.11,5.22,-4.38,2.09,0.77,0.21,4.51,1018.97
32.151,-0.04,0.83,-0.12,5.22,-4.38,2.09,0.77,0.21,4.51,1018.97
32.171,-0.04,0.83,-0.12,5.22,-4.38,2.09,0.79,1.07,5.21,1018.97
32.191,-0.04,0.83,-0.12,1.65,-2.89,1.04,0.79,1.07,5.21,1018.97
32.201,-0.04,0.83,-0.12,1.65,-2.89,1.04,0.79,1.07,5.21,1018.89
32.221,-0.21,1.53,-0.34,1.65,-2.89,1.04,0.79,1.07,5.21,1018.89
32.245,-0.21,1.53,-0.34,1.65,-2.89,1.04,0.55,0.84,4.55,1018.89
32.261,-0.21,1.53,-0.34,-2.00,3.15,-0.81,0.55,0.84,4.55,1018.89
32.281,-0.21,1.53,-0.34,-2.00,3.15,-0.81,0.55,0.84,4.55,1018.91
32.291,-0.69,1.54,-0.39,-2.00,3.15,-0.81,0.55,0.84,4.55,1018.91
32.311,-0.69,1.54,-0.39,-2.00,3.15,-0.81,0.30,0.85,4.02,1018.91
32.322,-0.69,1.54,-0.39,-2.00,3.15,-0.81,0.30,0.85,4.02,1019.12
32.331,-0.69,1.54,-0.39,-9.61,7.68,-1.10,0.30,0.85,4.02,1019.12
32.363,-1.33,1.05,-0.02,-9.61,7.68,-1.10,0.30,0.85,4.02,1019.12
32.382,-1.33,1.05,-0.02,-9.61,7.68,-1.10,-0.08,-0.03,0.07,1019.12
32.406,-1.33,1.05,-0.02,-9.61,7.68,-1.10,-0.08,-0.03,0.07,1019.10
32.407,-1.33,1.05,-0.02,-11.04,4.66,0.65,-0.08,-0.03,0.07,1019.10
32.434,0.25,1.11,-0.42,-11.04,4.66,0.65,-0.08,-0.03,0.07,1019.10
32.45,0.25,1.11,-0.42,-11.04,4.66,0.65,-0.48,-1.87,-2.94,1019.10
32.472,0.25,1.11,-0.42,-10.52,1.94,-1.33,-0.48,-1.87,-2.94,1019.10
32.482,0.25,1.11,-0.42,-10.52,1.94,-1.33,-0.48,-1.87,-2.94,1019.51
32.502,-0.75,1.06,-0.10,-10.52,1.94,-1.33,-0.48,-1.87,-2.94,1019.51
32.522,-0.75,1.06,-0.10,-10.52,1.94,-1.33,-0.87,-0.73,-1.31,1019.51
32.523,-0.75,1.06,-0.10,-10.52,1.94,-1.33,-0.87,-0.73,-1.31,1019.33
32.542,-0.75,1.06,-0.10,-0.58,-0.31,-2.68,-0.87,-0.73,-1.31,1019.33
32.571,-0.17,0.98,-0.06,-0.58,-0.31,-2.68,-0.87,-0.73,-1.31,1019.33
