time,gFx,gFy,gFz,ax,ay,az,wx,wy,wz,P
0.014,-0.06,0.98,0.06,-0.02,0.01,-0.04,-0.01,-0.02,-0.00,1019.04
0.014,-0.07,0.97,0.13,-0.02,0.01,-0.04,-0.01,-0.02,-0.00,1019.04
0.028,-0.05,0.98,0.06,-0.02,0.01,-0.04,-0.01,-0.02,-0.00,1019.04
0.028,-0.05,0.98,0.06,-0.02,0.01,-0.04,-0.01,-0.02,-0.00,1018.98
0.037,-0.05,0.98,0.06,-0.02,0.01,-0.04,0.00,-0.00,0.01,1018.98
0.048,-0.06,0.98,0.09,-0.02,0.01,-0.04,0.00,-0.00,0.01,1018.98
0.049,-0.06,0.98,0.09,0.00,-0.02,-0.14,0.00,-0.00,0.01,1018.98
0.08,-0.06,0.98,0.08,0.00,-0.02,-0.14,0.00,-0.00,0.01,1018.98
0.111,-0.06,0.98,0.08,0.00,-0.02,-0.14,0.01,0.00,0.01,1018.98
0.111,-0.06,0.98,0.08,0.00,-0.02,-0.14,0.01,0.00,0.01,1018.98
0.112,-0.06,0.98,0.08,0.00,-0.02,-0.14,0.01,0.00,0.01,1019.04
0.112,-0.05,0.98,0.07,0.00,-0.02,-0.14,0.01,0.00,0.01,1019.04
0.118,-0.05,0.98,0.07,-0.04,-0.00,0.15,0.01,0.00,0.01,1019.04
0.149,-0.05,0.97,0.09,-0.04,-0.00,0.15,0.01,0.00,0.01,1019.04
0.149,-0.05,0.97,0.09,-0.04,-0.00,0.15,0.01,0.00,0.01,1019.01
0.15,-0.07,0.98,0.09,-0.04,-0.00,0.15,0.01,0.00,0.01,1019.01
0.178,-0.07,0.98,0.09,-0.04,-0.00,0.15,0.00,-0.00,0.00,1019.01
0.179,-0.07,0.98,0.10,-0.04,-0.00,0.15,0.00,-0.00,0.00,1019.01
0.189,-0.06,0.98,0.08,-0.04,-0.00,0.15,0.00,-0.00,0.00,1019.01
0.189,-0.06,0.98,0.08,0.00,0.00,-0.07,0.00,-0.00,0.00,1019.01
0.214,-0.05,0.97,0.09,0.00,0.00,-0.07,0.00,-0.00,0.00,1019.01
0.229,-0.06,0.97,0.12,0.00,0.00,-0.07,0.00,-0.00,0.00,1019.01
0.23,-0.06,0.97,0.12,0.00,0.00,-0.07,0.00,-0.00,0.00,1019.00
0.248,-0.06,0.97,0.12,0.00,0.00,-0.07,0.03,-0.00,0.01,1019.00
0.262,-0.06,0.98,0.07,0.00,0.00,-0.07,0.03,-0.00,0.01,1019.00
0.262,-0.06,0.98,0.07,-0.05,0.01,0.05,0.03,-0.00,0.01,1019.00
0.282,-0.06,0.98,0.08,-0.05,0.01,0.05,0.03,-0.00,0.01,1019.00
0.312,-0.06,0.98,0.08,-0.05,0.01,0.05,0.03,-0.00,0.01,1019.00
0.313,-0.05,0.98,0.06,-0.05,0.01,0.05,0.03,-0.00,0.01,1019.00
0.314,-0.05,0.98,0.05,-0.05,0.01,0.05,0.03,-0.00,0.01,1019.00
0.318,-0.05,0.98,0.05,-0.05,0.01,0.05,0.01,-0.01,0.00,1019.00
0.329,-0.06,0.98,0.08,-0.05,0.01,0.05,0.01,-0.01,0.00,1019.00
0.33,-0.06,0.98,0.08,-0.01,-0.02,0.05,0.01,-0.01,0.00,1019.00
0.349,-0.07,0.98,0.10,-0.01,-0.02,0.05,0.01,-0.01,0.00,1019.00
0.35,-0.07,0.98,0.10,-0.01,-0.02,0.05,0.01,-0.01,0.00,1019.00
0.39,-0.07,0.98,0.10,-0.01,-0.02,0.05,0.00,0.00,0.02,1019.00
0.391,-0.06,0.98,0.09,-0.01,-0.02,0.05,0.00,0.00,0.02,1019.00
0.398,-0.06,0.98,0.09,0.01,0.02,-0.14,0.00,0.00,0.02,1019.00
0.399,-0.06,0.97,0.10,0.01,0.02,-0.14,0.00,0.00,0.02,1019.00
0.414,-0.05,0.98,0.09,0.01,0.02,-0.14,0.00,0.00,0.02,1019.00
0.429,-0.05,0.98,0.09,0.01,0.02,-0.14,0.00,0.00,0.02,1019.02
0.458,-0.05,0.98,0.09,0.01,0.02,-0.14,0.03,0.01,0.02,1019.02
0.458,-0.05,0.98,0.06,0.01,0.02,-0.14,0.03,0.01,0.02,1019.02
0.459,-0.05,0.98,0.08,0.01,0.02,-0.14,0.03,0.01,0.02,1019.02
0.47,-0.06,0.98,0.08,0.01,0.02,-0.14,0.03,0.01,0.02,1019.02
0.471,-0.06,0.98,0.08,-0.08,-0.02,0.14,0.03,0.01,0.02,1019.02
0.514,-0.05,0.98,0.08,-0.08,-0.02,0.14,0.03,0.01,0.02,1019.02
0.515,-0.05,0.98,0.08,-0.08,-0.02,0.14,0.03,0.01,0.02,1019.03
0.53,-0.05,0.98,0.08,-0.08,-0.02,0.14,0.00,0.01,-0.01,1019.03
0.53,-0.04,0.98,0.05,-0.08,-0.02,0.14,0.00,0.01,-0.01,1019.03
0.532,-0.06,0.97,0.09,-0.08,-0.02,0.14,0.00,0.01,-0.01,1019.03
0.538,-0.06,0.97,0.09,0.04,-0.01,-0.07,0.00,0.01,-0.01,1019.03
0.549,-0.06,0.97,0.09,0.04,-0.01,-0.07,0.00,0.01,-0.01,1019.05
0.598,-0.06,0.97,0.09,0.04,-0.01,-0.07,-0.00,0.03,0.00,1019.05
0.598,-0.07,0.98,0.11,0.04,-0.01,-0.07,-0.00,0.03,0.00,1019.05
0.599,-0.05,0.98,0.03,0.04,-0.01,-0.07,-0.00,0.03,0.00,1019.05
0.599,-0.05,0.98,0.06,0.04,-0.01,-0.07,-0.00,0.03,0.00,1019.05
0.609,-0.04,0.98,0.06,0.04,-0.01,-0.07,-0.00,0.03,0.00,1019.05
0.609,-0.04,0.98,0.06,-0.00,-0.01,-0.01,-0.00,0.03,0.00,1019.05
0.629,-0.04,0.98,0.06,-0.00,-0.01,-0.01,-0.00,0.03,0.00,1019.04
0.669,-0.03,0.96,0.12,-0.00,-0.01,-0.01,-0.00,0.03,0.00,1019.04
0.67,-0.09,0.96,0.15,-0.00,-0.01,-0.01,-0.00,0.03,0.00,1019.04
0.67,-0.09,0.96,0.15,-0.00,-0.01,-0.01,0.00,0.05,-0.03,1019.04
0.679,-0.09,0.96,0.15,0.08,0.02,-0.20,0.00,0.05,-0.03,1019.04
0.68,-0.04,0.97,0.08,0.08,0.02,-0.20,0.00,0.05,-0.03,1019.04
0.709,-0.05,0.97,0.07,0.08,0.02,-0.20,0.00,0.05,-0.03,1019.04
0.71,-0.05,0.97,0.07,0.08,0.02,-0.20,0.00,0.05,-0.03,1019.09
0.738,-0.14,1.00,0.09,0.08,0.02,-0.20,0.00,0.05,-0.03,1019.09
0.739,-0.09,1.00,-0.00,0.08,0.02,-0.20,0.00,0.05,-0.03,1019.09
0.739,-0.09,1.00,-0.00,0.08,0.02,-0.20,0.04,0.07,0.02,1019.09
0.75,-0.07,0.98,0.06,0.08,0.02,-0.20,0.04,0.07,0.02,1019.09
0.75,-0.07,0.98,0.06,0.06,-0.13,0.28,0.04,0.07,0.02,1019.09
0.751,-0.07,0.98,0.06,0.06,-0.13,0.28,0.04,0.07,0.02,1019.14
0.809,-0.07,0.98,0.06,0.06,-0.13,0.28,0.00,0.02,0.09,1019.14
0.81,-0.05,0.98,0.11,0.06,-0.13,0.28,0.00,0.02,0.09,1019.14
0.811,-0.06,0.99,0.04,0.06,-0.13,0.28,0.00,0.02,0.09,1019.14
0.814,-0.06,0.97,0.12,0.06,-0.13,0.28,0.00,0.02,0.09,1019.14
0.818,-0.06,0.97,0.12,-0.40,0.12,-0.21,0.00,0.02,0.09,1019.14
0.831,-0.06,0.97,0.12,-0.40,0.12,-0.21,0.00,0.02,0.09,1019.10
0.878,-0.06,0.97,0.12,-0.40,0.12,-0.21,0.08,-0.01,0.08,1019.10
0.878,-0.04,0.97,0.09,-0.40,0.12,-0.21,0.08,-0.01,0.08,1019.10
0.879,-0.06,0.98,0.09,-0.40,0.12,-0.21,0.08,-0.01,0.08,1019.10
0.879,-0.04,0.99,0.07,-0.40,0.12,-0.21,0.08,-0.01,0.08,1019.10
0.891,-0.04,0.99,0.07,-0.06,-0.01,0.20,0.08,-0.01,0.08,1019.10
0.891,-0.05,0.98,0.06,-0.06,-0.01,0.20,0.08,-0.01,0.08,1019.10
0.909,-0.05,0.98,0.06,-0.06,-0.01,0.20,0.08,-0.01,0.08,1019.07
0.947,-0.04,0.98,0.09,-0.06,-0.01,0.20,0.08,-0.01,0.08,1019.07
0.948,-0.05,0.99,0.04,-0.06,-0.01,0.20,0.08,-0.01,0.08,1019.07
0.949,-0.05,0.99,0.04,-0.06,-0.01,0.20,0.10,-0.01,0.06,1019.07
0.949,-0.05,0.99,0.04,-0.06,-0.01,0.20,0.10,-0.01,0.06,1019.08
0.951,-0.03,0.98,0.06,-0.06,-0.01,0.20,0.10,-0.01,0.06,1019.08
0.958,-0.03,0.98,0.06,-0.01,0.02,0.06,0.10,-0.01,0.06,1019.08
1.016,-0.04,0.98,0.04,-0.01,0.02,0.06,0.10,-0.01,0.06,1019.08
1.016,-0.03,0.99,0.05,-0.01,0.02,0.06,0.10,-0.01,0.06,1019.08
1.016,-0.04,0.97,0.04,-0.01,0.02,0.06,0.10,-0.01,0.06,1019.08
1.018,-0.04,0.97,0.04,-0.01,0.02,0.06,0.06,-0.01,0.02,1019.08
1.03,-0.04,0.97,0.04,-0.01,0.02,0.06,0.06,-0.01,0.02,1019.05
1.031,-0.05,0.99,0.07,-0.01,0.02,0.06,0.06,-0.01,0.02,1019.05
1.031,-0.05,0.99,0.07,0.09,0.02,-0.02,0.06,-0.01,0.02,1019.05
1.08,-0.03,0.97,0.01,0.09,0.02,-0.02,0.06,-0.01,0.02,1019.05
1.081,-0.03,0.98,0.06,0.09,0.02,-0.02,0.06,-0.01,0.02,1019.05
1.089,-0.03,0.98,0.06,0.09,0.02,-0.02,0.03,-0.02,-0.01,1019.05
1.098,-0.05,0.98,0.06,0.09,0.02,-0.02,0.03,-0.02,-0.01,1019.05
1.099,-0.05,0.98,0.06,0.02,0.04,-0.06,0.03,-0.02,-0.01,1019.05
1.109,-0.05,0.98,0.06,0.02,0.04,-0.06,0.03,-0.02,-0.01,1019.03
1.147,-0.05,0.97,0.07,0.02,0.04,-0.06,0.03,-0.02,-0.01,1019.03
1.148,-0.06,0.98,0.08,0.02,0.04,-0.06,0.03,-0.02,-0.01,1019.03
1.149,-0.06,0.98,0.08,0.02,0.04,-0.06,0.03,-0.02,-0.01,1019.09
1.158,-0.03,0.99,0.01,0.02,0.04,-0.06,0.03,-0.02,-0.01,1019.09
1.159,-0.03,0.99,0.01,0.02,0.04,-0.06,0.06,-0.04,-0.01,1019.09
1.169,-0.06,0.97,0.08,0.02,0.04,-0.06,0.06,-0.04,-0.01,1019.09
1.17,-0.06,0.97,0.08,0.08,-0.03,-0.06,0.06,-0.04,-0.01,1019.09
1.214,-0.05,0.97,0.06,0.08,-0.03,-0.06,0.06,-0.04,-0.01,1019.09
1.216,-0.07,0.97,0.09,0.08,-0.03,-0.06,0.06,-0.04,-0.01,1019.09
1.23,-0.07,0.97,0.09,0.08,-0.03,-0.06,0.11,-0.04,0.03,1019.09
1.231,-0.07,0.97,0.09,0.08,-0.03,-0.06,0.11,-0.04,0.03,1019.10
1.238,-0.05,0.99,0.01,0.08,-0.03,-0.06,0.11,-0.04,0.03,1019.10
1.238,-0.05,0.99,0.01,-0.10,-0.03,0.10,0.11,-0.04,0.03,1019.10
1.281,-0.06,0.99,0.03,-0.10,-0.03,0.10,0.11,-0.04,0.03,1019.10
1.281,-0.08,0.98,0.05,-0.10,-0.03,0.10,0.11,-0.04,0.03,1019.10
1.298,-0.08,0.99,0.04,-0.10,-0.03,0.10,0.11,-0.04,0.03,1019.10
1.299,-0.08,0.99,0.04,-0.10,-0.03,0.10,0.12,-0.02,0.13,1019.10
1.31,-0.08,0.99,0.04,-0.10,-0.03,0.10,0.12,-0.02,0.13,1019.12
1.311,-0.05,0.99,0.04,-0.10,-0.03,0.10,0.12,-0.02,0.13,1019.12
1.311,-0.05,0.99,0.04,-0.23,-0.01,0.08,0.12,-0.02,0.13,1019.12
1.349,-0.05,0.99,0.01,-0.23,-0.01,0.08,0.12,-0.02,0.13,1019.12
1.35,-0.05,0.99,0.01,-0.23,-0.01,0.08,0.12,-0.02,0.13,1019.09
1.369,-0.05,0.99,0.01,-0.23,-0.01,0.08,0.12,-0.05,0.23,1019.09
1.37,-0.04,0.99,0.00,-0.23,-0.01,0.08,0.12,-0.05,0.23,1019.09
1.379,-0.03,0.99,0.04,-0.23,-0.01,0.08,0.12,-0.05,0.23,1019.09
1.379,-0.03,0.99,0.04,-0.45,0.06,0.06,0.12,-0.05,0.23,1019.09
1.415,-0.05,0.99,0.07,-0.45,0.06,0.06,0.12,-0.05,0.23,1019.09
1.415,-0.05,0.98,0.04,-0.45,0.06,0.06,0.12,-0.05,0.23,1019.09
1.43,-0.05,0.98,0.04,-0.45,0.06,0.06,0.12,-0.05,0.23,1019.12
1.438,-0.05,0.98,0.04,-0.45,0.06,0.06,0.21,-0.10,0.35,1019.12
1.439,-0.04,0.99,0.03,-0.45,0.06,0.06,0.21,-0.10,0.35,1019.12
1.449,-0.04,1.04,-0.04,-0.45,0.06,0.06,0.21,-0.10,0.35,1019.12
1.45,-0.04,1.04,-0.04,-0.46,0.06,0.08,0.21,-0.10,0.35,1019.12
1.48,-0.07,1.02,-0.03,-0.46,0.06,0.08,0.21,-0.10,0.35,1019.12
1.511,-0.05,1.06,-0.01,-0.46,0.06,0.08,0.21,-0.10,0.35,1019.12
1.511,-0.05,1.06,-0.01,-0.46,0.06,0.08,0.17,-0.12,0.63,1019.12
1.512,-0.05,1.06,-0.01,-0.46,0.06,0.08,0.17,-0.12,0.63,1019.12
1.519,-0.09,1.05,-0.00,-0.46,0.06,0.08,0.17,-0.12,0.63,1019.12
1.519,-0.09,1.05,-0.00,-0.74,0.14,0.07,0.17,-0.12,0.63,1019.12
1.533,-0.12,1.12,-0.11,-0.74,0.14,0.07,0.17,-0.12,0.63,1019.12
1.549,-0.12,1.12,-0.11,-0.74,0.14,0.07,0.17,-0.12,0.63,1019.07
1.551,-0.14,1.19,-0.12,-0.74,0.14,0.07,0.17,-0.12,0.63,1019.07
1.58,-0.14,1.19,-0.12,-0.74,0.14,0.07,-0.00,-0.04,1.31,1019.07
1.58,-0.17,1.25,-0.14,-0.74,0.14,0.07,-0.00,-0.04,1.31,1019.07
1.591,-0.18,1.28,-0.07,-0.74,0.14,0.07,-0.00,-0.04,1.31,1019.07
1.591,-0.18,1.28,-0.07,-1.82,0.67,-0.35,-0.00,-0.04,1.31,1019.07
1.616,-0.30,1.24,-0.00,-1.82,0.67,-0.35,-0.00,-0.04,1.31,1019.07
1.632,-0.30,1.24,-0.00,-1.82,0.67,-0.35,-0.00,-0.04,1.31,1019.02
1.652,-0.33,1.28,0.09,-1.82,0.67,-0.35,-0.00,-0.04,1.31,1019.02
1.652,-0.33,1.28,0.09,-1.82,0.67,-0.35,-0.24,-0.37,2.61,1019.02
1.658,-0.29,1.36,0.08,-1.82,0.67,-0.35,-0.24,-0.37,2.61,1019.02
1.659,-0.29,1.36,0.08,-4.42,2.65,-1.23,-0.24,-0.37,2.61,1019.02
1.684,-0.21,1.33,0.11,-4.42,2.65,-1.23,-0.24,-0.37,2.61,1019.02
1.709,-0.03,1.32,0.06,-4.42,2.65,-1.23,-0.24,-0.37,2.61,1019.02
1.71,-0.03,1.32,0.06,-4.42,2.65,-1.23,-0.24,-0.37,2.61,1018.63
1.719,0.03,1.25,0.05,-4.42,2.65,-1.23,-0.24,-0.37,2.61,1018.63
1.72,0.03,1.25,0.05,-4.42,2.65,-1.23,-0.39,-0.92,3.98,1018.63
1.733,0.07,1.12,0.00,-4.42,2.65,-1.23,-0.39,-0.92,3.98,1018.63
1.734,0.07,1.12,0.00,-8.13,4.42,0.47,-0.39,-0.92,3.98,1018.63
1.75,0.07,1.12,0.00,-8.13,4.42,0.47,-0.39,-0.92,3.98,1018.43
1.789,0.07,1.12,0.00,-8.13,4.42,0.47,-0.14,-1.29,1.72,1018.43
1.79,0.34,0.72,0.16,-8.13,4.42,0.47,-0.14,-1.29,1.72,1018.43
1.79,0.26,1.02,0.13,-8.13,4.42,0.47,-0.14,-1.29,1.72,1018.43
1.802,-0.57,0.63,-0.05,-8.13,4.42,0.47,-0.14,-1.29,1.72,1018.43
1.803,-0.57,0.63,-0.05,-5.53,4.20,0.81,-0.14,-1.29,1.72,1018.43
1.816,-0.41,0.68,-0.28,-5.53,4.20,0.81,-0.14,-1.29,1.72,1018.43
1.829,-0.41,0.68,-0.28,-5.53,4.20,0.81,-0.14,-1.29,1.72,1018.65
1.859,-0.41,0.68,-0.28,-5.53,4.20,0.81,-0.16,-0.05,-1.35,1018.65
1.86,-0.24,0.58,-0.13,-5.53,4.20,0.81,-0.16,-0.05,-1.35,1018.65
1.861,-0.20,0.55,-0.04,-5.53,4.20,0.81,-0.16,-0.05,-1.35,1018.65
1.869,-0.16,0.63,-0.09,-5.53,4.20,0.81,-0.16,-0.05,-1.35,1018.65
1.87,-0.16,0.63,-0.09,-5.01,-0.99,0.42,-0.16,-0.05,-1.35,1018.65
1.91,-0.11,0.66,-0.05,-5.01,-0.99,0.42,-0.16,-0.05,-1.35,1018.65
1.91,-0.11,0.66,-0.05,-5.01,-0.99,0.42,-0.16,-0.05,-1.35,1018.83
1.929,-0.11,0.66,-0.05,-5.01,-0.99,0.42,0.15,0.77,-3.73,1018.83
1.93,-0.09,0.74,-0.06,-5.01,-0.99,0.42,0.15,0.77,-3.73,1018.83
1.939,-0.08,0.90,-0.09,-5.01,-0.99,0.42,0.15,0.77,-3.73,1018.83
1.939,-0.08,0.90,-0.09,-3.93,-3.46,-0.99,0.15,0.77,-3.73,1018.83
1.95,-0.08,0.90,-0.09,-3.93,-3.46,-0.99,0.15,0.77,-3.73,1018.90
1.951,-0.00,1.02,-0.04,-3.93,-3.46,-0.99,0.15,0.77,-3.73,1018.90
2.001,-0.00,1.02,-0.04,-3.93,-3.46,-0.99,0.50,0.67,-4.26,1018.90
2.002,0.06,1.16,-0.00,-3.93,-3.46,-0.99,0.50,0.67,-4.26,1018.90
2.002,0.08,1.31,-0.02,-3.93,-3.46,-0.99,0.50,0.67,-4.26,1018.90
2.009,0.02,1.38,0.05,-3.93,-3.46,-0.99,0.50,0.67,-4.26,1018.90
2.01,0.02,1.38,0.05,0.17,-1.57,-0.21,0.50,0.67,-4.26,1018.90
2.029,0.02,1.38,0.05,0.17,-1.57,-0.21,0.50,0.67,-4.26,1018.90
2.035,-0.08,1.41,0.11,0.17,-1.57,-0.21,0.50,0.67,-4.26,1018.90
2.069,-0.08,1.41,0.11,0.17,-1.57,-0.21,0.33,0.66,-3.05,1018.90
2.07,-0.23,1.47,0.06,0.17,-1.57,-0.21,0.33,0.66,-3.05,1018.90
2.078,-0.23,1.47,0.06,3.03,3.08,0.68,0.33,0.66,-3.05,1018.90
2.079,-0.34,1.57,-0.01,3.03,3.08,0.68,0.33,0.66,-3.05,1018.90
2.11,0.37,1.59,0.06,3.03,3.08,0.68,0.33,0.66,-3.05,1018.90
2.111,0.37,1.59,0.06,3.03,3.08,0.68,0.33,0.66,-3.05,1018.90
2.139,0.37,1.59,0.06,3.03,3.08,0.68,-0.25,1.05,-0.55,1018.90
2.139,1.37,1.46,0.17,3.03,3.08,0.68,-0.25,1.05,-0.55,1018.90
2.14,2.07,1.17,0.18,3.03,3.08,0.68,-0.25,1.05,-0.55,1018.90
2.151,1.85,0.70,0.44,3.03,3.08,0.68,-0.25,1.05,-0.55,1018.90
2.151,1.85,0.70,0.44,1.14,5.50,1.22,-0.25,1.05,-0.55,1018.90
2.152,1.85,0.70,0.44,1.14,5.50,1.22,-0.25,1.05,-0.55,1018.79
2.209,1.85,0.70,0.44,1.14,5.50,1.22,-0.22,0.95,0.68,1018.79
2.21,1.08,0.71,0.21,1.14,5.50,1.22,-0.22,0.95,0.68,1018.79
2.211,0.91,0.79,0.06,1.14,5.50,1.22,-0.22,0.95,0.68,1018.79
2.213,1.07,0.77,0.19,1.14,5.50,1.22,-0.22,0.95,0.68,1018.79
2.218,1.07,0.77,0.19,17.32,2.06,2.98,-0.22,0.95,0.68,1018.79
2.23,1.07,0.77,0.19,17.32,2.06,2.98,-0.22,0.95,0.68,1018.89
2.279,1.07,0.77,0.19,17.32,2.06,2.98,-0.55,0.82,0.36,1018.89
2.279,1.04,2.23,0.60,17.32,2.06,2.98,-0.55,0.82,0.36,1018.89
2.28,2.12,0.68,-1.14,17.32,2.06,2.98,-0.55,0.82,0.36,1018.89
2.281,-1.40,1.45,0.26,17.32,2.06,2.98,-0.55,0.82,0.36,1018.89
2.289,-0.27,1.17,-0.42,17.32,2.06,2.98,-0.55,0.82,0.36,1018.89
2.29,-0.27,1.17,-0.42,11.17,-1.94,1.73,-0.55,0.82,0.36,1018.89
2.31,-0.27,1.17,-0.42,11.17,-1.94,1.73,-0.55,0.82,0.36,1019.70
2.349,-0.14,0.98,-0.23,11.17,-1.94,1.73,-0.55,0.82,0.36,1019.70
2.35,0.20,0.99,0.01,11.17,-1.94,1.73,-0.55,0.82,0.36,1019.70
2.35,0.20,0.99,0.01,11.17,-1.94,1.73,-0.55,0.82,0.36,1019.47
2.351,0.20,0.99,0.01,11.17,-1.94,1.73,-0.53,0.10,0.30,1019.47
2.352,-0.01,0.93,0.17,11.17,-1.94,1.73,-0.53,0.10,0.30,1019.47
2.359,-0.01,0.93,0.17,3.73,4.73,-2.10,-0.53,0.10,0.30,1019.47
2.414,-0.06,1.00,0.01,3.73,4.73,-2.10,-0.53,0.10,0.30,1019.47
2.414,-0.06,0.98,0.10,3.73,4.73,-2.10,-0.53,0.10,0.30,1019.47
2.415,-0.05,0.98,0.06,3.73,4.73,-2.10,-0.53,0.10,0.30,1019.47
2.419,-0.05,0.98,0.06,3.73,4.73,-2.10,-0.24,0.06,0.05,1019.47
2.43,-0.05,0.98,0.06,3.73,4.73,-2.10,-0.24,0.06,0.05,1019.22
2.431,-0.06,1.00,0.01,3.73,4.73,-2.10,-0.24,0.06,0.05,1019.22
2.431,-0.06,1.00,0.01,1.06,-0.06,-0.22,-0.24,0.06,0.05,1019.22
2.482,-0.06,1.00,-0.01,1.06,-0.06,-0.22,-0.24,0.06,0.05,1019.22
2.482,-0.06,0.98,0.02,1.06,-0.06,-0.22,-0.24,0.06,0.05,1019.22
2.489,-0.06,0.98,0.02,1.06,-0.06,-0.22,-0.13,0.03,0.03,1019.22
2.5,-0.07,0.98,0.05,1.06,-0.06,-0.22,-0.13,0.03,0.03,1019.22
2.501,-0.07,0.98,0.05,0.26,0.07,0.28,-0.13,0.03,0.03,1019.22
2.51,-0.07,0.98,0.05,0.26,0.07,0.28,-0.13,0.03,0.03,1019.10
2.539,-0.07,0.99,0.02,0.26,0.07,0.28,-0.13,0.03,0.03,1019.10
2.54,-0.06,0.99,0.03,0.26,0.07,0.28,-0.13,0.03,0.03,1019.10
2.55,-0.06,0.99,0.03,0.26,0.07,0.28,-0.13,0.03,0.03,1019.00
2.56,-0.06,0.99,0.03,0.26,0.07,0.28,-0.07,0.00,0.06,1019.00
2.561,-0.06,0.98,0.03,0.26,0.07,0.28,-0.07,0.00,0.06,1019.00
2.57,-0.05,0.98,0.02,0.26,0.07,0.28,-0.07,0.00,0.06,1019.00
2.571,-0.05,0.98,0.02,0.18,0.10,-0.02,-0.07,0.00,0.06,1019.00
2.614,-0.06,0.98,0.03,0.18,0.10,-0.02,-0.07,0.00,0.06,1019.00
2.615,-0.06,0.97,0.05,0.18,0.10,-0.02,-0.07,0.00,0.06,1019.00
2.629,-0.06,0.97,0.05,0.18,0.10,-0.02,-0.07,0.00,0.06,1018.98
2.63,-0.06,0.97,0.05,0.18,0.10,-0.02,-0.05,-0.03,0.08,1018.98
2.63,-0.06,0.98,0.04,0.18,0.10,-0.02,-0.05,-0.03,0.08,1018.98
2.639,-0.06,0.98,0.04,0.20,0.01,-0.05,-0.05,-0.03,0.08,1018.98
2.681,-0.06,0.97,0.05,0.20,0.01,-0.05,-0.05,-0.03,0.08,1018.98
2.681,-0.06,0.96,0.09,0.20,0.01,-0.05,-0.05,-0.03,0.08,1018.98
2.699,-0.06,0.96,0.09,0.20,0.01,-0.05,0.05,-0.03,0.12,1018.98
2.7,-0.06,0.97,0.09,0.20,0.01,-0.05,0.05,-0.03,0.12,1018.98
2.711,-0.06,0.97,0.09,0.20,0.01,-0.05,0.05,-0.03,0.12,1019.02
2.712,-0.05,0.98,0.03,0.20,0.01,-0.05,0.05,-0.03,0.12,1019.02
2.712,-0.05,0.98,0.03,0.09,-0.04,0.15,0.05,-0.03,0.12,1019.02
2.751,-0.06,0.99,0.02,0.09,-0.04,0.15,0.05,-0.03,0.12,1019.02
2.752,-0.06,0.99,0.02,0.09,-0.04,0.15,0.05,-0.03,0.12,1019.10
2.77,-0.06,0.99,0.02,0.09,-0.04,0.15,0.15,-0.04,0.20,1019.10
2.77,-0.07,0.99,0.05,0.09,-0.04,0.15,0.15,-0.04,0.20,1019.10
2.78,-0.08,1.00,0.01,0.09,-0.04,0.15,0.15,-0.04,0.20,1019.10
2.78,-0.08,1.00,0.01,-0.00,-0.12,0.51,0.15,-0.04,0.20,1019.10
2.814,-0.09,1.00,0.03,-0.00,-0.12,0.51,0.15,-0.04,0.20,1019.10
2.814,-0.08,1.01,0.01,-0.00,-0.12,0.51,0.15,-0.04,0.20,1019.10
2.83,-0.08,1.01,0.01,-0.00,-0.12,0.51,0.15,-0.04,0.20,1019.12
2.839,-0.10,1.02,0.04,-0.00,-0.12,0.51,0.15,-0.04,0.20,1019.12
2.84,-0.10,1.02,0.04,-0.00,-0.12,0.51,0.23,-0.10,0.44,1019.12
2.851,-0.11,1.05,-0.04,-0.00,-0.12,0.51,0.23,-0.10,0.44,1019.12
2.851,-0.11,1.05,-0.04,-0.50,0.07,0.25,0.23,-0.10,0.44,1019.12
2.882,-0.11,1.08,-0.12,-0.50,0.07,0.25,0.23,-0.10,0.44,1019.12
2.911,-0.18,1.10,-0.05,-0.50,0.07,0.25,0.23,-0.10,0.44,1019.12
2.911,-0.18,1.10,-0.05,-0.50,0.07,0.25,0.23,-0.10,0.44,1019.12
2.912,-0.18,1.10,-0.05,-0.50,0.07,0.25,0.12,-0.16,0.99,1019.12
2.919,-0.21,1.15,-0.04,-0.50,0.07,0.25,0.12,-0.16,0.99,1019.12
2.919,-0.21,1.15,-0.04,-1.34,0.37,0.13,0.12,-0.16,0.99,1019.12
2.948,-0.22,1.23,-0.26,-1.34,0.37,0.13,0.12,-0.16,0.99,1019.12
2.949,-0.22,1.23,-0.26,-1.34,0.37,0.13,0.12,-0.16,0.99,1019.11
2.979,-0.22,1.23,-0.26,-1.34,0.37,0.13,-0.47,-0.14,2.22,1019.11
2.98,-0.27,1.29,-0.28,-1.34,0.37,0.13,-0.47,-0.14,2.22,1019.11
2.98,-0.33,1.38,-0.32,-1.34,0.37,0.13,-0.47,-0.14,2.22,1019.11
2.989,-0.50,1.42,-0.15,-1.34,0.37,0.13,-0.47,-0.14,2.22,1019.11
2.99,-0.50,1.42,-0.15,-3.65,1.54,-1.25,-0.47,-0.14,2.22,1019.11
3.014,-0.65,1.41,-0.07,-3.65,1.54,-1.25,-0.47,-0.14,2.22,1019.11
3.029,-0.65,1.41,-0.07,-3.65,1.54,-1.25,-0.47,-0.14,2.22,1019.01
3.033,-0.55,1.44,0.04,-3.65,1.54,-1.25,-0.47,-0.14,2.22,1019.01
3.049,-0.55,1.44,0.04,-3.65,1.54,-1.25,-1.00,-0.72,4.48,1019.01
3.059,-0.12,1.47,0.17,-3.65,1.54,-1.25,-1.00,-0.72,4.48,1019.01
3.06,-0.12,1.47,0.17,-8.21,4.87,-3.17,-1.00,-0.72,4.48,1019.01
3.08,0.18,1.45,0.36,-8.21,4.87,-3.17,-1.00,-0.72,4.48,1019.01
3.11,0.12,1.42,0.24,-8.21,4.87,-3.17,-1.00,-0.72,4.48,1019.01
3.11,0.12,1.42,0.24,-8.21,4.87,-3.17,-1.00,-0.72,4.48,1018.47
3.119,-0.26,1.05,0.17,-8.21,4.87,-3.17,-1.00,-0.72,4.48,1018.47
3.119,-0.26,1.05,0.17,-8.21,4.87,-3.17,-0.59,-1.01,5.06,1018.47
3.13,0.99,0.44,0.32,-8.21,4.87,-3.17,-0.59,-1.01,5.06,1018.47
3.131,0.99,0.44,0.32,-10.51,7.65,0.37,-0.59,-1.01,5.06,1018.47
3.149,0.99,0.44,0.32,-10.51,7.65,0.37,-0.59,-1.01,5.06,1018.43
3.151,0.64,0.73,0.47,-10.51,7.65,0.37,-0.59,-1.01,5.06,1018.43
3.189,0.64,0.73,0.47,-10.51,7.65,0.37,0.17,-0.45,-0.72,1018.43
3.19,-0.77,0.43,0.03,-10.51,7.65,0.37,0.17,-0.45,-0.72,1018.43
3.199,-0.51,0.47,-0.17,-10.51,7.65,0.37,0.17,-0.45,-0.72,1018.43
3.2,-0.51,0.47,-0.17,-3.76,2.91,2.25,0.17,-0.45,-0.72,1018.43
3.214,-0.07,0.40,0.05,-3.76,2.91,2.25,0.17,-0.45,-0.72,1018.43
3.229,-0.07,0.40,0.05,-3.76,2.91,2.25,0.17,-0.45,-0.72,1018.84
3.259,-0.07,0.40,0.05,-3.76,2.91,2.25,0.17,0.43,-3.36,1018.84
3.26,0.02,0.40,0.08,-3.76,2.91,2.25,0.17,0.43,-3.36,1018.84
3.26,-0.15,0.49,0.00,-3.76,2.91,2.25,0.17,0.43,-3.36,1018.84
3.27,-0.15,0.60,0.03,-3.76,2.91,2.25,0.17,0.43,-3.36,1018.84
3.271,-0.15,0.60,0.03,-6.14,-3.37,0.55,0.17,0.43,-3.36,1018.84
3.309,-0.09,0.75,0.00,-6.14,-3.37,0.55,0.17,0.43,-3.36,1018.84
3.31,-0.09,0.75,0.00,-6.14,-3.37,0.55,0.17,0.43,-3.36,1018.92
3.33,-0.09,0.75,0.00,-6.14,-3.37,0.55,0.60,0.26,-5.00,1018.92
3.33,-0.04,0.95,-0.09,-6.14,-3.37,0.55,0.60,0.26,-5.00,1018.92
3.339,-0.04,0.95,-0.09,-1.71,-4.71,0.45,0.60,0.26,-5.00,1018.92
3.34,0.05,1.12,-0.11,-1.71,-4.71,0.45,0.60,0.26,-5.00,1018.92
3.349,0.05,1.12,-0.11,-1.71,-4.71,0.45,0.60,0.26,-5.00,1019.00
3.399,0.05,1.12,-0.11,-1.71,-4.71,0.45,0.71,0.25,-4.91,1019.00
3.4,0.05,1.26,-0.15,-1.71,-4.71,0.45,0.71,0.25,-4.91,1019.00
3.4,-0.04,1.43,-0.21,-1.71,-4.71,0.45,0.71,0.25,-4.91,1019.00
3.401,-0.05,1.57,-0.16,-1.71,-4.71,0.45,0.71,0.25,-4.91,1019.00
3.41,-0.06,1.72,-0.15,-1.71,-4.71,0.45,0.71,0.25,-4.91,1019.00
3.411,-0.06,1.72,-0.15,2.06,0.44,-0.27,0.71,0.25,-4.91,1019.00
3.43,-0.06,1.72,-0.15,2.06,0.44,-0.27,0.71,0.25,-4.91,1018.91
3.47,-0.06,1.72,-0.15,2.06,0.44,-0.27,0.33,-0.05,-4.02,1018.91
3.471,0.23,1.90,-0.15,2.06,0.44,-0.27,0.33,-0.05,-4.02,1018.91
3.471,0.69,1.82,-0.00,2.06,0.44,-0.27,0.33,-0.05,-4.02,1018.91
3.48,0.95,1.65,-0.03,2.06,0.44,-0.27,0.33,-0.05,-4.02,1018.91
3.48,0.95,1.65,-0.03,4.12,6.69,-1.08,0.33,-0.05,-4.02,1018.91
3.509,0.95,1.65,-0.03,4.12,6.69,-1.08,0.33,-0.05,-4.02,1019.02
3.51,1.27,1.46,-0.10,4.12,6.69,-1.08,0.33,-0.05,-4.02,1019.02
3.533,2.18,1.15,0.25,4.12,6.69,-1.08,0.33,-0.05,-4.02,1019.02
3.534,1.73,0.96,0.22,4.12,6.69,-1.08,0.33,-0.05,-4.02,1019.02
3.539,1.73,0.96,0.22,4.12,6.69,-1.08,0.04,-0.23,-0.97,1019.02
3.549,1.73,0.96,0.22,4.12,6.69,-1.08,0.04,-0.23,-0.97,1019.20
3.55,-0.17,1.59,-0.24,4.12,6.69,-1.08,0.04,-0.23,-0.97,1019.20
3.55,-0.17,1.59,-0.24,11.11,8.64,-0.11,0.04,-0.23,-0.97,1019.20
3.61,-0.17,1.59,-0.24,11.11,8.64,-0.11,-1.08,0.30,3.97,1019.20
3.611,-0.21,0.93,-0.45,11.11,8.64,-0.11,-1.08,0.30,3.97,1019.20
3.611,-0.62,0.85,-0.45,11.11,8.64,-0.11,-1.08,0.30,3.97,1019.20
3.615,0.82,1.29,0.32,11.11,8.64,-0.11,-1.08,0.30,3.97,1019.20
3.62,0.82,1.29,0.32,14.10,2.89,0.36,-1.08,0.30,3.97,1019.20
3.628,0.82,1.29,0.32,14.10,2.89,0.36,-1.08,0.30,3.97,1019.38
3.681,0.82,1.29,0.32,14.10,2.89,0.36,-0.19,0.55,0.81,1019.38
3.681,1.81,1.43,1.68,14.10,2.89,0.36,-0.19,0.55,0.81,1019.38
3.682,0.03,1.30,-1.24,14.10,2.89,0.36,-0.19,0.55,0.81,1019.38
3.683,0.14,1.05,-0.34,14.10,2.89,0.36,-0.19,0.55,0.81,1019.38
3.69,-0.11,0.93,0.44,14.10,2.89,0.36,-0.19,0.55,0.81,1019.38
3.691,-0.11,0.93,0.44,3.10,0.57,0.71,-0.19,0.55,0.81,1019.38
3.708,-0.11,0.93,0.44,3.10,0.57,0.71,-0.19,0.55,0.81,1019.54
3.749,-0.08,0.99,-0.03,3.10,0.57,0.71,-0.19,0.55,0.81,1019.54
3.75,-0.09,1.00,0.10,3.10,0.57,0.71,-0.19,0.55,0.81,1019.54
3.75,-0.09,1.00,0.10,3.10,0.57,0.71,-0.19,0.55,0.81,1019.18
3.751,-0.09,1.00,0.10,3.10,0.57,0.71,-0.16,0.08,0.25,1019.18
3.751,-0.07,0.97,0.02,3.10,0.57,0.71,-0.16,0.08,0.25,1019.18
3.759,-0.07,0.97,0.02,4.48,2.22,-1.16,-0.16,0.08,0.25,1019.18
3.814,-0.02,0.98,0.14,4.48,2.22,-1.16,-0.16,0.08,0.25,1019.18
3.815,-0.02,1.01,-0.06,4.48,2.22,-1.16,-0.16,0.08,0.25,1019.18
3.815,-0.04,1.00,-0.05,4.48,2.22,-1.16,-0.16,0.08,0.25,1019.18
3.819,-0.04,1.00,-0.05,4.48,2.22,-1.16,-0.03,0.04,0.12,1019.18
3.829,-0.04,1.00,-0.05,4.48,2.22,-1.16,-0.03,0.04,0.12,1019.08
3.83,-0.07,0.99,0.03,4.48,2.22,-1.16,-0.03,0.04,0.12,1019.08
3.83,-0.07,0.99,0.03,0.29,0.11,0.27,-0.03,0.04,0.12,1019.08
3.881,-0.09,0.99,0.04,0.29,0.11,0.27,-0.03,0.04,0.12,1019.08
3.882,-0.08,0.98,0.03,0.29,0.11,0.27,-0.03,0.04,0.12,1019.08
3.89,-0.08,0.98,0.03,0.29,0.11,0.27,-0.08,-0.01,0.08,1019.08
3.899,-0.07,0.98,0.03,0.29,0.11,0.27,-0.08,-0.01,0.08,1019.08
3.9,-0.07,0.98,0.03,0.49,0.24,-0.40,-0.08,-0.01,0.08,1019.08
3.908,-0.07,0.98,0.03,0.49,0.24,-0.40,-0.08,-0.01,0.08,1018.96
3.949,-0.07,0.98,0.03,0.49,0.24,-0.40,-0.08,-0.01,0.08,1018.95
3.95,-0.06,0.98,0.01,0.49,0.24,-0.40,-0.08,-0.01,0.08,1018.95
3.95,-0.08,0.98,0.04,0.49,0.24,-0.40,-0.08,-0.01,0.08,1018.95
3.959,-0.08,0.98,0.04,0.49,0.24,-0.40,-0.07,-0.04,0.13,1018.95
3.96,-0.12,0.98,0.07,0.49,0.24,-0.40,-0.07,-0.04,0.13,1018.95
3.972,-0.08,0.98,0.03,0.49,0.24,-0.40,-0.07,-0.04,0.13,1018.95
3.972,-0.08,0.98,0.03,0.08,0.08,-0.02,-0.07,-0.04,0.13,1018.95
4.014,-0.18,0.87,-0.05,0.08,0.08,-0.02,-0.07,-0.04,0.13,1018.95
4.015,0.28,1.10,0.44,0.08,0.08,-0.02,-0.07,-0.04,0.13,1018.95
4.028,0.28,1.10,0.44,0.08,0.08,-0.02,-0.07,-0.04,0.13,1019.02
4.029,0.28,1.10,0.44,0.08,0.08,-0.02,-0.00,-0.09,0.23,1019.02
4.033,-0.22,0.94,-0.35,0.08,0.08,-0.02,-0.00,-0.09,0.23,1019.02
4.039,-0.22,0.94,-0.35,-0.20,0.05,0.03,-0.00,-0.09,0.23,1019.02
4.081,-0.03,0.99,0.09,-0.20,0.05,0.03,-0.00,-0.09,0.23,1019.02
4.082,-0.02,0.98,0.04,-0.20,0.05,0.03,-0.00,-0.09,0.23,1019.02
4.099,-0.02,0.98,0.04,-0.20,0.05,0.03,-0.04,-0.11,0.20,1019.02
4.1,-0.07,0.99,0.05,-0.20,0.05,0.03,-0.04,-0.11,0.20,1019.02
4.111,-0.07,0.99,0.05,-0.20,0.05,0.03,-0.04,-0.11,0.20,1018.98
4.111,-0.08,0.99,0.07,-0.20,0.05,0.03,-0.04,-0.11,0.20,1018.98
4.112,-0.08,0.99,0.07,0.32,0.00,-0.33,-0.04,-0.11,0.20,1018.98
4.147,-0.10,1.01,0.03,0.32,0.00,-0.33,-0.04,-0.11,0.20,1018.98
4.148,-0.10,1.01,0.03,0.32,0.00,-0.33,-0.04,-0.11,0.20,1019.09
4.17,-0.10,1.01,0.03,0.32,0.00,-0.33,0.05,-0.15,0.47,1019.09
4.17,-0.13,1.03,0.03,0.32,0.00,-0.33,0.05,-0.15,0.47,1019.09
4.179,-0.14,1.09,0.01,0.32,0.00,-0.33,0.05,-0.15,0.47,1019.09
4.18,-0.14,1.09,0.01,-0.53,0.07,0.44,0.05,-0.15,0.47,1019.09
4.214,-0.17,1.10,-0.05,-0.53,0.07,0.44,0.05,-0.15,0.47,1019.09
4.215,-0.24,1.13,0.00,-0.53,0.07,0.44,0.05,-0.15,0.47,1019.09
4.228,-0.24,1.13,0.00,-0.53,0.07,0.44,0.05,-0.15,0.47,1019.11
4.239,-0.24,1.13,0.00,-0.53,0.07,0.44,-0.08,-0.24,1.29,1019.11
4.24,-0.28,1.20,-0.05,-0.53,0.07,0.44,-0.08,-0.24,1.29,1019.11
4.25,-0.34,1.29,-0.15,-0.53,0.07,0.44,-0.08,-0.24,1.29,1019.11
4.251,-0.34,1.29,-0.15,-2.12,0.71,-0.23,-0.08,-0.24,1.29,1019.11
4.281,-0.42,1.43,-0.29,-2.12,0.71,-0.23,-0.08,-0.24,1.29,1019.11
4.308,-0.65,1.56,-0.33,-2.12,0.71,-0.23,-0.08,-0.24,1.29,1019.11
4.309,-0.65,1.56,-0.33,-2.12,0.71,-0.23,-0.08,-0.24,1.29,1019.02
4.309,-0.65,1.56,-0.33,-2.12,0.71,-0.23,-0.65,-0.52,3.15,1019.02
4.319,-0.89,1.56,-0.23,-2.12,0.71,-0.23,-0.65,-0.52,3.15,1019.02
4.32,-0.89,1.56,-0.23,-5.68,2.64,-1.45,-0.65,-0.52,3.15,1019.02
4.347,-0.65,1.53,0.03,-5.68,2.64,-1.45,-0.65,-0.52,3.15,1019.02
4.348,-0.65,1.53,0.03,-5.68,2.64,-1.45,-0.65,-0.52,3.15,1018.63
4.351,-0.10,1.54,0.30,-5.68,2.64,-1.45,-0.65,-0.52,3.15,1018.63
4.379,-0.10,1.54,0.30,-5.68,2.64,-1.45,-0.93,-0.74,5.48,1018.63
4.38,0.24,1.50,0.44,-5.68,2.64,-1.45,-0.93,-0.74,5.48,1018.63
4.39,-0.11,1.40,0.30,-5.68,2.64,-1.45,-0.93,-0.74,5.48,1018.63
4.391,-0.11,1.40,0.30,-12.67,7.54,-3.49,-0.93,-0.74,5.48,1018.63
4.415,-0.30,0.63,0.27,-12.67,7.54,-3.49,-0.93,-0.74,5.48,1018.63
4.428,-0.30,0.63,0.27,-12.67,7.54,-3.49,-0.93,-0.74,5.48,1018.43
4.451,-0.30,0.63,0.27,-12.67,7.54,-3.49,-0.04,-0.69,2.37,1018.43
4.452,1.63,0.62,0.42,-12.67,7.54,-3.49,-0.04,-0.69,2.37,1018.43
4.46,-0.21,0.41,0.31,-12.67,7.54,-3.49,-0.04,-0.69,2.37,1018.43
4.46,-0.21,0.41,0.31,-7.32,7.81,2.44,-0.04,-0.69,2.37,1018.43
4.48,-0.79,0.33,-0.02,-7.32,7.81,2.44,-0.04,-0.69,2.37,1018.43
4.508,-0.32,0.37,-0.16,-7.32,7.81,2.44,-0.04,-0.69,2.37,1018.43
4.509,-0.32,0.37,-0.16,-7.32,7.81,2.44,-0.04,-0.69,2.37,1018.76
4.521,0.01,0.37,0.01,-7.32,7.81,2.44,-0.04,-0.69,2.37,1018.76
4.521,0.01,0.37,0.01,-7.32,7.81,2.44,0.81,-0.36,-1.56,1018.76
4.53,0.11,0.44,0.09,-7.32,7.81,2.44,0.81,-0.36,-1.56,1018.76
4.531,0.11,0.44,0.09,-3.71,-2.47,2.65,0.81,-0.36,-1.56,1018.76
4.549,0.11,0.44,0.09,-3.71,-2.47,2.65,0.81,-0.36,-1.56,1018.94
4.591,0.11,0.44,0.09,-3.71,-2.47,2.65,0.98,0.68,-4.21,1018.94
4.592,0.07,0.55,0.04,-3.71,-2.47,2.65,0.98,0.68,-4.21,1018.94
4.592,-0.04,0.61,0.07,-3.71,-2.47,2.65,0.98,0.68,-4.21,1018.94
4.601,-0.11,0.73,0.06,-3.71,-2.47,2.65,0.98,0.68,-4.21,1018.94
4.601,-0.11,0.73,0.06,-4.63,-5.13,-0.11,0.98,0.68,-4.21,1018.94
4.614,-0.10,0.89,0.06,-4.63,-5.13,-0.11,0.98,0.68,-4.21,1018.94
4.629,-0.10,0.89,0.06,-4.63,-5.13,-0.11,0.98,0.68,-4.21,1019.02
4.66,-0.02,1.05,0.10,-4.63,-5.13,-0.11,0.98,0.68,-4.21,1019.02
4.66,-0.01,1.21,0.05,-4.63,-5.13,-0.11,0.98,0.68,-4.21,1019.02
4.661,-0.01,1.21,0.05,-4.63,-5.13,-0.11,0.81,0.56,-5.20,1019.02
4.671,-0.10,1.39,-0.01,-4.63,-5.13,-0.11,0.81,0.56,-5.20,1019.02
4.672,-0.10,1.39,-0.01,-0.02,-2.81,1.12,0.81,0.56,-5.20,1019.02
4.709,-0.14,1.55,-0.03,-0.02,-2.81,1.12,0.81,0.56,-5.20,1019.02
4.709,-0.14,1.55,-0.03,-0.02,-2.81,1.12,0.81,0.56,-5.20,1018.99
4.731,-0.14,1.55,-0.03,-0.02,-2.81,1.12,0.63,0.27,-4.89,1018.99
4.732,-0.13,1.72,-0.06,-0.02,-2.81,1.12,0.63,0.27,-4.89,1018.99
4.74,-0.16,1.81,-0.07,-0.02,-2.81,1.12,0.63,0.27,-4.89,1018.99
4.74,-0.16,1.81,-0.07,2.82,2.81,1.42,0.63,0.27,-4.89,1018.99
4.749,-0.16,1.81,-0.07,2.82,2.81,1.42,0.63,0.27,-4.89,1018.92
4.751,0.24,1.94,-0.15,2.82,2.81,1.42,0.63,0.27,-4.89,1018.92
4.801,0.24,1.94,-0.15,2.82,2.81,1.42,-0.01,-0.63,-3.32,1018.92
4.802,0.96,1.84,-0.07,2.82,2.81,1.42,-0.01,-0.63,-3.32,1018.92
4.802,1.61,1.56,-0.05,2.82,2.81,1.42,-0.01,-0.63,-3.32,1018.92
4.81,2.50,1.20,0.31,2.82,2.81,1.42,-0.01,-0.63,-3.32,1018.92
4.811,2.50,1.20,0.31,3.88,8.92,0.05,-0.01,-0.63,-3.32,1018.92
4.83,2.50,1.20,0.31,3.88,8.92,0.05,-0.01,-0.63,-3.32,1019.15
4.871,2.50,1.20,0.31,3.88,8.92,0.05,-0.15,-0.35,1.34,1019.15
4.872,1.80,1.04,0.15,3.88,8.92,0.05,-0.15,-0.35,1.34,1019.15
4.873,0.67,1.24,-0.31,3.88,8.92,0.05,-0.15,-0.35,1.34,1019.15
4.881,-0.97,1.37,-0.27,3.88,8.92,0.05,-0.15,-0.35,1.34,1019.15
4.882,-0.97,1.37,-0.27,18.27,6.83,0.80,-0.15,-0.35,1.34,1019.15
4.909,-0.74,0.84,-0.89,18.27,6.83,0.80,-0.15,-0.35,1.34,1019.15
4.913,-0.74,0.84,-0.89,18.27,6.83,0.80,-0.15,-0.35,1.34,1019.16
4.941,-0.74,0.84,-0.89,18.27,6.83,0.80,-0.97,0.57,3.18,1019.16
4.942,0.06,1.14,-0.20,18.27,6.83,0.80,-0.97,0.57,3.18,1019.16
4.942,1.81,1.48,1.46,18.27,6.83,0.80,-0.97,0.57,3.18,1019.16
4.949,1.81,1.48,1.46,18.27,6.83,0.80,-0.97,0.57,3.18,1019.69
4.95,1.81,1.48,1.46,4.82,2.54,-2.63,-0.97,0.57,3.18,1019.69
4.951,0.16,1.31,-0.18,4.82,2.54,-2.63,-0.97,0.57,3.18,1019.69
5.01,0.14,1.09,-0.72,4.82,2.54,-2.63,-0.97,0.57,3.18,1019.69
5.011,-0.04,0.96,0.55,4.82,2.54,-2.63,-0.97,0.57,3.18,1019.69
5.012,-0.04,0.96,0.55,4.82,2.54,-2.63,-0.27,0.33,0.66,1019.69
5.015,-0.06,1.00,-0.06,4.82,2.54,-2.63,-0.27,0.33,0.66,1019.69
5.02,-0.06,1.00,-0.06,5.74,2.30,1.93,-0.27,0.33,0.66,1019.69
5.028,-0.06,1.00,-0.06,5.74,2.30,1.93,-0.27,0.33,0.66,1019.40
5.033,-0.02,1.03,0.00,5.74,2.30,1.93,-0.27,0.33,0.66,1019.40
5.08,-0.06,0.98,0.04,5.74,2.30,1.93,-0.27,0.33,0.66,1019.40
5.082,-0.07,0.99,0.08,5.74,2.30,1.93,-0.27,0.33,0.66,1019.40
5.083,-0.07,0.99,0.08,5.74,2.30,1.93,-0.06,0.09,0.31,1019.40
5.091,-0.08,1.00,-0.02,5.74,2.30,1.93,-0.06,0.09,0.31,1019.40
5.092,-0.08,1.00,-0.02,0.98,0.54,-0.67,-0.06,0.09,0.31,1019.40
5.109,-0.08,1.00,-0.02,0.98,0.54,-0.67,-0.06,0.09,0.31,1019.16
5.148,-0.10,1.00,0.01,0.98,0.54,-0.67,-0.06,0.09,0.31,1019.16
5.15,-0.07,0.98,0.06,0.98,0.54,-0.67,-0.06,0.09,0.31,1019.16
5.15,-0.07,0.98,0.06,0.98,0.54,-0.67,-0.06,0.09,0.31,1019.02
5.151,-0.07,0.98,0.06,0.98,0.54,-0.67,0.02,0.02,0.24,1019.02
5.151,-0.06,0.97,0.05,0.98,0.54,-0.67,0.02,0.02,0.24,1019.02
5.161,-0.06,0.97,0.05,0.16,0.26,0.06,0.02,0.02,0.24,1019.02
5.217,-0.06,0.97,0.04,0.16,0.26,0.06,0.02,0.02,0.24,1019.02
5.218,-0.04,0.98,-0.01,0.16,0.26,0.06,0.02,0.02,0.24,1019.02
5.218,-0.04,0.98,-0.01,0.16,0.26,0.06,0.02,0.02,0.24,1019.02
5.219,-0.04,0.98,-0.01,0.16,0.26,0.06,0.10,-0.00,0.19,1019.02
5.228,-0.04,0.98,-0.01,0.16,0.26,0.06,0.10,-0.00,0.19,1018.98
5.23,-0.07,0.98,0.01,0.16,0.26,0.06,0.10,-0.00,0.19,1018.98
5.231,-0.07,0.98,0.01,-0.05,0.12,0.35,0.10,-0.00,0.19,1018.98
5.282,-0.06,0.98,0.03,-0.05,0.12,0.35,0.10,-0.00,0.19,1018.98
5.283,-0.07,0.98,0.01,-0.05,0.12,0.35,0.10,-0.00,0.19,1018.98
5.291,-0.07,0.98,0.01,-0.05,0.12,0.35,0.11,-0.03,0.21,1018.98
5.3,-0.07,0.98,0.01,-0.02,0.10,0.05,0.11,-0.03,0.21,1018.98
5.302,-0.07,0.98,-0.01,-0.02,0.10,0.05,0.11,-0.03,0.21,1018.98
5.31,-0.07,0.98,-0.01,-0.02,0.10,0.05,0.11,-0.03,0.21,1019.04
5.349,-0.07,0.98,0.04,-0.02,0.10,0.05,0.11,-0.03,0.21,1019.04
5.35,-0.03,0.99,-0.01,-0.02,0.10,0.05,0.11,-0.03,0.21,1019.04
5.352,-0.03,0.99,-0.01,-0.02,0.10,0.05,0.11,-0.03,0.21,1019.09
5.353,-0.02,1.00,-0.03,-0.02,0.10,0.05,0.11,-0.03,0.21,1019.09
5.36,-0.02,1.00,-0.03,-0.02,0.10,0.05,0.14,-0.04,0.30,1019.09
5.37,-0.05,1.01,-0.02,-0.02,0.10,0.05,0.14,-0.04,0.30,1019.09
5.371,-0.05,1.01,-0.02,-0.39,0.08,0.27,0.14,-0.04,0.30,1019.09
5.414,-0.08,1.01,0.00,-0.39,0.08,0.27,0.14,-0.04,0.30,1019.09
5.415,-0.09,1.02,0.00,-0.39,0.08,0.27,0.14,-0.04,0.30,1019.09
5.43,-0.09,1.02,0.00,-0.39,0.08,0.27,0.14,-0.04,0.30,1019.15
5.431,-0.09,1.02,0.00,-0.39,0.08,0.27,0.18,-0.07,0.46,1019.15
5.44,-0.10,1.05,-0.07,-0.39,0.08,0.27,0.18,-0.07,0.46,1019.15
5.441,-0.10,1.05,-0.07,-0.41,0.23,0.09,0.18,-0.07,0.46,1019.15
5.481,-0.12,1.10,-0.13,-0.41,0.23,0.09,0.18,-0.07,0.46,1019.15
5.483,-0.18,1.12,-0.07,-0.41,0.23,0.09,0.18,-0.07,0.46,1019.15
5.5,-0.25,1.15,-0.03,-0.41,0.23,0.09,0.18,-0.07,0.46,1019.15
5.501,-0.25,1.15,-0.03,-0.41,0.23,0.09,0.05,-0.03,1.13,1019.15
5.509,-0.25,1.15,-0.03,-0.41,0.23,0.09,0.05,-0.03,1.13,1019.16
5.512,-0.27,1.24,-0.12,-0.41,0.23,0.09,0.05,-0.03,1.13,1019.16
5.513,-0.27,1.24,-0.12,-1.75,0.66,-0.10,0.05,-0.03,1.13,1019.16
5.533,-0.32,1.31,-0.18,-1.75,0.66,-0.10,0.05,-0.03,1.13,1019.16
5.548,-0.32,1.31,-0.18,-1.75,0.66,-0.10,0.05,-0.03,1.13,1019.19
5.552,-0.43,1.43,-0.23,-1.75,0.66,-0.10,0.05,-0.03,1.13,1019.19
5.57,-0.43,1.43,-0.23,-1.75,0.66,-0.10,-0.17,-0.10,2.68,1019.19
5.58,-0.65,1.48,-0.16,-1.75,0.66,-0.10,-0.17,-0.10,2.68,1019.19
5.581,-0.65,1.48,-0.16,-4.95,2.24,-0.69,-0.17,-0.10,2.68,1019.19
5.615,-0.85,1.39,0.07,-4.95,2.24,-0.69,-0.17,-0.10,2.68,1019.19
5.616,-0.65,1.42,0.15,-4.95,2.24,-0.69,-0.17,-0.10,2.68,1019.19
5.628,-0.65,1.42,0.15,-4.95,2.24,-0.69,-0.17,-0.10,2.68,1018.73
5.64,-0.65,1.42,0.15,-4.95,2.24,-0.69,-0.26,-0.82,5.40,1018.73
5.64,-0.09,1.45,0.26,-4.95,2.24,-0.69,-0.26,-0.82,5.40,1018.73
5.651,0.36,1.45,0.36,-4.95,2.24,-0.69,-0.26,-0.82,5.40,1018.73
5.651,0.36,1.45,0.36,-10.94,6.29,-1.23,-0.26,-0.82,5.40,1018.73
5.68,0.22,1.40,0.31,-10.94,6.29,-1.23,-0.26,-0.82,5.40,1018.73
5.709,0.03,0.49,0.18,-10.94,6.29,-1.23,-0.26,-0.82,5.40,1018.73
5.71,0.03,0.49,0.18,-10.94,6.29,-1.23,-0.26,-0.82,5.40,1018.28
5.71,0.03,0.49,0.18,-10.94,6.29,-1.23,0.14,-0.49,3.93,1018.28
5.72,2.01,1.23,0.20,-10.94,6.29,-1.23,0.14,-0.49,3.93,1018.28
5.721,2.01,1.23,0.20,-9.33,7.70,2.76,0.14,-0.49,3.93,1018.28
5.747,-0.33,0.38,0.34,-9.33,7.70,2.76,0.14,-0.49,3.93,1018.28
5.748,-0.33,0.38,0.34,-9.33,7.70,2.76,0.14,-0.49,3.93,1018.65
5.78,-0.33,0.38,0.34,-9.33,7.70,2.76,-0.03,0.73,-2.00,1018.65
5.781,-0.82,0.36,0.02,-9.33,7.70,2.76,-0.03,0.73,-2.00,1018.65
5.781,-0.44,0.34,-0.02,-9.33,7.70,2.76,-0.03,0.73,-2.00,1018.65
5.791,-0.15,0.31,0.11,-9.33,7.70,2.76,-0.03,0.73,-2.00,1018.65
5.792,-0.15,0.31,0.11,0.41,1.99,2.63,-0.03,0.73,-2.00,1018.65
5.815,-0.08,0.36,0.10,0.41,1.99,2.63,-0.03,0.73,-2.00,1018.65
5.829,-0.08,0.36,0.10,0.41,1.99,2.63,-0.03,0.73,-2.00,1018.84
5.85,-0.08,0.36,0.10,0.41,1.99,2.63,0.23,0.48,-3.90,1018.84
5.851,-0.13,0.51,-0.01,0.41,1.99,2.63,0.23,0.48,-3.90,1018.84
5.86,-0.09,0.65,-0.02,0.41,1.99,2.63,0.23,0.48,-3.90,1018.84
5.861,-0.09,0.65,-0.02,-8.52,-5.37,0.63,0.23,0.48,-3.90,1018.84
5.881,-0.04,0.80,-0.07,-8.52,-5.37,0.63,0.23,0.48,-3.90,1018.84
5.908,-0.04,0.80,-0.07,-8.52,-5.37,0.63,0.23,0.48,-3.90,1018.91
5.909,0.03,0.99,-0.11,-8.52,-5.37,0.63,0.23,0.48,-3.90,1018.91
5.921,0.03,0.99,-0.11,-8.52,-5.37,0.63,0.51,0.52,-5.05,1018.91
5.921,0.12,1.14,-0.08,-8.52,-5.37,0.63,0.51,0.52,-5.05,1018.91
5.931,0.03,1.30,-0.11,-8.52,-5.37,0.63,0.51,0.52,-5.05,1018.91
5.932,0.03,1.30,-0.11,-1.18,-3.96,0.45,0.51,0.52,-5.05,1018.91
5.948,0.03,1.30,-0.11,-1.18,-3.96,0.45,0.51,0.52,-5.05,1018.92
5.952,-0.15,1.51,-0.16,-1.18,-3.96,0.45,0.51,0.52,-5.05,1018.92
5.991,-0.15,1.51,-0.16,-1.18,-3.96,0.45,0.24,1.25,-4.45,1018.92
5.991,-0.08,1.75,-0.18,-1.18,-3.96,0.45,0.24,1.25,-4.45,1018.92
6.0,0.39,1.83,-0.02,-1.18,-3.96,0.45,0.24,1.25,-4.45,1018.92
6.001,0.39,1.83,-0.02,2.90,1.82,-0.42,0.24,1.25,-4.45,1018.92
6.014,0.68,1.72,0.13,2.90,1.82,-0.42,0.24,1.25,-4.45,1018.92
6.033,0.68,1.72,0.13,2.90,1.82,-0.42,0.24,1.25,-4.45,1018.93
6.036,0.86,1.63,0.11,2.90,1.82,-0.42,0.24,1.25,-4.45,1018.93
6.06,0.86,1.63,0.11,2.90,1.82,-0.42,0.50,1.15,-3.97,1018.93
6.061,1.08,1.51,0.19,2.90,1.82,-0.42,0.50,1.15,-3.97,1018.93
6.071,1.48,1.39,0.09,2.90,1.82,-0.42,0.50,1.15,-3.97,1018.93
6.073,1.48,1.39,0.09,5.86,8.53,0.25,0.50,1.15,-3.97,1018.93
6.109,1.85,1.17,0.09,5.86,8.53,0.25,0.50,1.15,-3.97,1018.93
6.109,1.85,1.17,0.09,5.86,8.53,0.25,0.50,1.15,-3.97,1019.11
6.131,1.85,1.17,0.09,5.86,8.53,0.25,-0.52,0.22,0.63,1019.11
6.131,0.78,1.35,-0.08,5.86,8.53,0.25,-0.52,0.22,0.63,1019.11
6.141,0.43,0.93,-0.18,5.86,8.53,0.25,-0.52,0.22,0.63,1019.11
6.141,0.43,0.93,-0.18,13.96,6.28,1.93,-0.52,0.22,0.63,1019.11
6.148,0.43,0.93,-0.18,13.96,6.28,1.93,-0.52,0.22,0.63,1019.04
6.152,-1.35,0.81,-0.13,13.96,6.28,1.93,-0.52,0.22,0.63,1019.04
6.2,-1.35,0.81,-0.13,13.96,6.28,1.93,-0.88,0.49,2.95,1019.04
6.201,0.85,1.60,0.44,13.96,6.28,1.93,-0.88,0.49,2.95,1019.04
6.201,1.56,1.53,1.29,13.96,6.28,1.93,-0.88,0.49,2.95,1019.04
6.211,1.56,1.53,1.29,8.47,2.00,-0.74,-0.88,0.49,2.95,1019.04
6.213,-0.09,1.28,-0.87,8.47,2.00,-0.74,-0.88,0.49,2.95,1019.04
6.23,-0.09,1.28,-0.87,8.47,2.00,-0.74,-0.88,0.49,2.95,1019.64
6.271,-0.09,1.28,-0.87,8.47,2.00,-0.74,-0.48,0.17,0.53,1019.64
6.272,0.20,1.06,-0.35,8.47,2.00,-0.74,-0.48,0.17,0.53,1019.64
6.273,-0.09,0.97,0.09,8.47,2.00,-0.74,-0.48,0.17,0.53,1019.64
6.281,-0.10,0.97,0.26,8.47,2.00,-0.74,-0.48,0.17,0.53,1019.64
6.281,-0.10,0.97,0.26,5.58,3.63,2.65,-0.48,0.17,0.53,1019.64
6.309,-0.10,0.97,0.26,5.58,3.63,2.65,-0.48,0.17,0.53,1019.31
6.31,-0.09,1.00,-0.09,5.58,3.63,2.65,-0.48,0.17,0.53,1019.31
6.34,-0.09,1.00,-0.09,5.58,3.63,2.65,-0.11,0.08,0.28,1019.31
6.341,-0.06,0.97,0.17,5.58,3.63,2.65,-0.11,0.08,0.28,1019.31
6.341,-0.04,1.00,0.00,5.58,3.63,2.65,-0.11,0.08,0.28,1019.31
6.349,-0.04,1.00,0.00,5.58,3.63,2.65,-0.11,0.08,0.28,1019.11
6.351,-0.07,1.01,-0.01,5.58,3.63,2.65,-0.11,0.08,0.28,1019.11
6.352,-0.07,1.01,-0.01,0.87,0.37,-0.05,-0.11,0.08,0.28,1019.11
6.411,-0.07,1.01,-0.01,0.87,0.37,-0.05,-0.04,-0.01,0.14,1019.11
6.412,-0.09,1.00,0.00,0.87,0.37,-0.05,-0.04,-0.01,0.14,1019.11
6.412,-0.09,0.98,0.04,0.87,0.37,-0.05,-0.04,-0.01,0.14,1019.11
6.423,-0.08,0.98,0.03,0.87,0.37,-0.05,-0.04,-0.01,0.14,1019.11
6.424,-0.08,0.98,0.03,0.37,0.30,0.09,-0.04,-0.01,0.14,1019.11
6.429,-0.08,0.98,0.03,0.37,0.30,0.09,-0.04,-0.01,0.14,1018.99
6.481,-0.08,0.98,0.03,0.37,0.30,0.09,0.04,-0.05,0.14,1018.99
6.482,-0.09,0.98,0.02,0.37,0.30,0.09,0.04,-0.05,0.14,1018.99
6.482,-0.09,0.98,0.01,0.37,0.30,0.09,0.04,-0.05,0.14,1018.99
6.482,-0.12,0.99,0.02,0.37,0.30,0.09,0.04,-0.05,0.14,1018.99
6.491,-0.13,0.98,0.03,0.37,0.30,0.09,0.04,-0.05,0.14,1018.99
6.492,-0.13,0.98,0.03,-0.01,0.22,0.18,0.04,-0.05,0.14,1018.99
6.509,-0.13,0.98,0.03,-0.01,0.22,0.18,0.04,-0.05,0.14,1018.99
6.532,-0.13,0.97,0.03,-0.01,0.22,0.18,0.04,-0.05,0.14,1018.99
6.533,-0.10,0.97,0.02,-0.01,0.22,0.18,0.04,-0.05,0.14,1018.99
6.548,-0.10,0.97,0.02,-0.01,0.22,0.18,0.04,-0.05,0.14,1019.02
6.55,-0.10,0.97,0.02,-0.01,0.22,0.18,0.11,-0.02,0.33,1019.02
6.551,-0.07,0.97,0.03,-0.01,0.22,0.18,0.11,-0.02,0.33,1019.02
6.56,-0.07,0.97,0.03,-0.49,0.17,0.22,0.11,-0.02,0.33,1019.02
6.616,-0.05,0.98,0.02,-0.49,0.17,0.22,0.11,-0.02,0.33,1019.02
6.621,-0.01,0.99,-0.01,-0.49,0.17,0.22,0.11,-0.02,0.33,1019.02
6.621,0.00,0.98,0.00,-0.49,0.17,0.22,0.11,-0.02,0.33,1019.02
6.622,0.00,0.98,0.00,-0.49,0.17,0.22,0.17,0.00,0.36,1019.02
6.629,0.00,0.98,0.00,-0.49,0.17,0.22,0.17,0.00,0.36,1019.09
6.631,-0.05,0.97,0.03,-0.49,0.17,0.22,0.17,0.00,0.36,1019.09
6.631,-0.05,0.97,0.03,-0.57,0.04,0.39,0.17,0.00,0.36,1019.09
6.681,-0.05,0.99,0.01,-0.57,0.04,0.39,0.17,0.00,0.36,1019.09
6.682,-0.08,1.01,-0.02,-0.57,0.04,0.39,0.17,0.00,0.36,1019.09
6.69,-0.08,1.01,-0.02,-0.57,0.04,0.39,0.25,0.01,0.42,1019.09
6.7,-0.07,1.03,-0.05,-0.57,0.04,0.39,0.25,0.01,0.42,1019.09
6.701,-0.07,1.03,-0.05,-0.14,0.13,0.38,0.25,0.01,0.42,1019.09
6.708,-0.07,1.03,-0.05,-0.14,0.13,0.38,0.25,0.01,0.42,1019.17
6.748,-0.10,1.04,-0.08,-0.14,0.13,0.38,0.25,0.01,0.42,1019.17
6.749,-0.13,1.09,-0.12,-0.14,0.13,0.38,0.25,0.01,0.42,1019.17
6.749,-0.13,1.09,-0.12,-0.14,0.13,0.38,0.25,0.01,0.42,1019.23
6.761,-0.13,1.09,-0.12,-0.14,0.13,0.38,0.18,0.07,0.88,1019.23
6.761,-0.16,1.11,-0.11,-0.14,0.13,0.38,0.18,0.07,0.88,1019.23
6.771,-0.22,1.15,-0.06,-0.14,0.13,0.38,0.18,0.07,0.88,1019.23
6.772,-0.22,1.15,-0.06,-1.27,0.47,0.13,0.18,0.07,0.88,1019.23
6.822,-0.27,1.23,-0.10,-1.27,0.47,0.13,0.18,0.07,0.88,1019.23
6.823,-0.34,1.31,-0.13,-1.27,0.47,0.13,0.18,0.07,0.88,1019.23
6.828,-0.34,1.31,-0.13,-1.27,0.47,0.13,0.18,0.07,0.88,1019.19
6.832,-0.34,1.31,-0.13,-1.27,0.47,0.13,0.13,0.06,2.09,1019.19
6.84,-0.43,1.42,-0.21,-1.27,0.47,0.13,0.13,0.06,2.09,1019.19
6.841,-0.43,1.42,-0.21,-3.63,1.60,-0.44,0.13,0.06,2.09,1019.19
6.881,-0.67,1.44,-0.23,-3.63,1.60,-0.44,0.13,0.06,2.09,1019.19
6.882,-0.76,1.43,-0.02,-3.63,1.60,-0.44,0.13,0.06,2.09,1019.19
6.901,-0.76,1.43,-0.02,-3.63,1.60,-0.44,-0.04,-0.35,4.56,1019.19
6.902,-0.55,1.43,0.13,-3.63,1.60,-0.44,-0.04,-0.35,4.56,1019.19
6.908,-0.55,1.43,0.13,-3.63,1.60,-0.44,-0.04,-0.35,4.56,1018.81
6.911,-0.55,1.43,0.13,-8.69,5.03,-0.94,-0.04,-0.35,4.56,1018.81
6.911,-0.12,1.38,0.41,-8.69,5.03,-0.94,-0.04,-0.35,4.56,1018.81
6.949,0.26,1.40,0.58,-8.69,5.03,-0.94,-0.04,-0.35,4.56,1018.81
6.95,0.26,1.40,0.58,-8.69,5.03,-0.94,-0.04,-0.35,4.56,1018.18
6.951,0.21,1.23,0.47,-8.69,5.03,-0.94,-0.04,-0.35,4.56,1018.18
6.971,0.21,1.23,0.47,-8.69,5.03,-0.94,0.89,-0.18,5.49,1018.18
6.981,-0.07,0.49,0.39,-8.69,5.03,-0.94,0.89,-0.18,5.49,1018.18
6.982,-0.07,0.49,0.39,-12.27,7.95,2.14,0.89,-0.18,5.49,1018.18
7.015,2.26,1.33,-0.27,-12.27,7.95,2.14,0.89,-0.18,5.49,1018.18
7.016,-0.06,0.58,0.20,-12.27,7.95,2.14,0.89,-0.18,5.49,1018.18
7.029,-0.06,0.58,0.20,-12.27,7.95,2.14,0.89,-0.18,5.49,1018.58
7.033,-0.71,0.35,0.18,-12.27,7.95,2.14,0.89,-0.18,5.49,1018.58
7.041,-0.71,0.35,0.18,-12.27,7.95,2.14,-0.03,1.66,-0.72,1018.58
7.056,-0.32,0.31,0.12,-12.27,7.95,2.14,-0.03,1.66,-0.72,1018.58
7.057,-0.32,0.31,0.12,-3.08,3.48,3.67,-0.03,1.66,-0.72,1018.58
7.081,-0.11,0.34,0.14,-3.08,3.48,3.67,-0.03,1.66,-0.72,1018.58
7.11,-0.14,0.40,0.08,-3.08,3.48,3.67,-0.03,1.66,-0.72,1018.58
7.111,-0.14,0.40,0.08,-3.08,3.48,3.67,-0.03,1.66,-0.72,1018.74
7.111,-0.14,0.40,0.08,-3.08,3.48,3.67,0.22,1.16,-3.16,1018.74
7.121,-0.18,0.51,0.02,-3.08,3.48,3.67,0.22,1.16,-3.16,1018.74
7.122,-0.18,0.51,0.02,-3.84,-2.35,0.72,0.22,1.16,-3.16,1018.74
7.147,-0.09,0.62,0.02,-3.84,-2.35,0.72,0.22,1.16,-3.16,1018.74
7.148,-0.09,0.62,0.02,-3.84,-2.35,0.72,0.22,1.16,-3.16,1018.87
7.183,-0.09,0.62,0.02,-3.84,-2.35,0.72,0.71,0.03,-4.80,1018.87
7.184,0.04,0.75,0.03,-3.84,-2.35,0.72,0.71,0.03,-4.80,1018.87
7.185,0.10,0.90,0.00,-3.84,-2.35,0.72,0.71,0.03,-4.80,1018.87
7.191,0.14,1.06,-0.03,-3.84,-2.35,0.72,0.71,0.03,-4.80,1018.87
7.192,0.14,1.06,-0.03,-3.01,-4.76,0.87,0.71,0.03,-4.80,1018.87
7.216,0.09,1.24,-0.08,-3.01,-4.76,0.87,0.71,0.03,-4.80,1018.87
7.228,0.09,1.24,-0.08,-3.01,-4.76,0.87,0.71,0.03,-4.80,1018.95
7.251,-0.03,1.43,-0.12,-3.01,-4.76,0.87,0.71,0.03,-4.80,1018.95
7.251,-0.03,1.43,-0.12,-3.01,-4.76,0.87,0.57,0.49,-5.01,1018.95
7.261,-0.01,1.60,-0.13,-3.01,-4.76,0.87,0.57,0.49,-5.01,1018.95
7.261,-0.01,1.60,-0.13,2.22,-0.62,0.54,0.57,0.49,-5.01,1018.95
7.281,0.00,1.76,-0.19,2.22,-0.62,0.54,0.57,0.49,-5.01,1018.95
7.309,0.20,1.90,-0.23,2.22,-0.62,0.54,0.57,0.49,-5.01,1018.95
7.309,0.20,1.90,-0.23,2.22,-0.62,0.54,0.57,0.49,-5.01,1018.90
7.322,0.20,1.90,-0.23,2.22,-0.62,0.54,0.02,0.17,-4.16,1018.90
7.322,0.87,1.89,-0.17,2.22,-0.62,0.54,0.02,0.17,-4.16,1018.90
7.336,1.33,1.58,0.09,2.22,-0.62,0.54,0.02,0.17,-4.16,1018.90
7.337,1.33,1.58,0.09,4.03,5.93,-0.61,0.02,0.17,-4.16,1018.90
7.351,1.33,1.58,0.09,4.03,5.93,-0.61,0.02,0.17,-4.16,1019.09
7.392,1.33,1.58,0.09,4.03,5.93,-0.61,0.22,-0.73,-1.64,1019.09
7.393,1.47,1.37,0.03,4.03,5.93,-0.61,0.22,-0.73,-1.64,1019.09
7.393,2.06,1.16,0.12,4.03,5.93,-0.61,0.22,-0.73,-1.64,1019.09
7.401,0.51,0.99,-0.01,4.03,5.93,-0.61,0.22,-0.73,-1.64,1019.09
7.401,0.51,0.99,-0.01,10.77,9.11,-0.76,0.22,-0.73,-1.64,1019.09
7.414,0.91,0.92,-0.07,10.77,9.11,-0.76,0.22,-0.73,-1.64,1019.09
7.429,0.91,0.92,-0.07,10.77,9.11,-0.76,0.22,-0.73,-1.64,1019.22
7.461,0.91,0.92,-0.07,10.77,9.11,-0.76,-0.68,0.02,3.64,1019.22
7.462,-0.52,1.19,-1.06,10.77,9.11,-0.76,-0.68,0.02,3.64,1019.22
7.462,0.34,1.25,0.06,10.77,9.11,-0.76,-0.68,0.02,3.64,1019.22
7.472,0.89,1.27,0.81,10.77,9.11,-0.76,-0.68,0.02,3.64,1019.22
7.474,0.89,1.27,0.81,14.86,0.98,-0.06,-0.68,0.02,3.64,1019.22
7.509,0.46,1.30,0.24,14.86,0.98,-0.06,-0.68,0.02,3.64,1019.22
7.51,0.46,1.30,0.24,14.86,0.98,-0.06,-0.68,0.02,3.64,1019.51
7.535,0.06,1.08,-0.62,14.86,0.98,-0.06,-0.68,0.02,3.64,1019.51
7.538,0.06,1.08,-0.62,14.86,0.98,-0.06,-0.31,0.63,1.02,1019.51
7.541,0.12,1.01,0.37,14.86,0.98,-0.06,-0.31,0.63,1.02,1019.51
7.542,0.12,1.01,0.37,3.84,3.37,-0.49,-0.31,0.63,1.02,1019.51
7.549,0.12,1.01,0.37,3.84,3.37,-0.49,-0.31,0.63,1.02,1019.47
7.552,-0.08,0.98,0.06,3.84,3.37,-0.49,-0.31,0.63,1.02,1019.47
7.601,-0.08,0.98,0.06,3.84,3.37,-0.49,-0.03,0.17,0.33,1019.47
7.602,-0.10,1.00,-0.00,3.84,3.37,-0.49,-0.03,0.17,0.33,1019.47
7.603,-0.04,1.02,-0.09,3.84,3.37,-0.49,-0.03,0.17,0.33,1019.47
7.611,-0.04,0.99,0.03,3.84,3.37,-0.49,-0.03,0.17,0.33,1019.47
7.612,-0.04,0.99,0.03,2.56,1.48,0.13,-0.03,0.17,0.33,1019.47
7.629,-0.04,0.99,0.03,2.56,1.48,0.13,-0.03,0.17,0.33,1019.22
7.672,-0.04,0.99,0.03,2.56,1.48,0.13,-0.05,0.07,0.16,1019.22
7.672,-0.08,0.99,0.07,2.56,1.48,0.13,-0.05,0.07,0.16,1019.22
7.673,-0.08,1.00,-0.03,2.56,1.48,0.13,-0.05,0.07,0.16,1019.22
7.682,-0.10,0.99,0.02,2.56,1.48,0.13,-0.05,0.07,0.16,1019.22
7.682,-0.10,0.99,0.02,0.26,0.44,-0.47,-0.05,0.07,0.16,1019.22
7.709,-0.10,0.98,0.05,0.26,0.44,-0.47,-0.05,0.07,0.16,1019.22
7.709,-0.10,0.98,0.05,0.26,0.44,-0.47,-0.05,0.07,0.16,1019.04
7.74,-0.10,0.98,0.05,0.26,0.44,-0.47,-0.01,0.01,0.17,1019.04
7.741,-0.08,0.99,0.01,0.26,0.44,-0.47,-0.01,0.01,0.17,1019.04
7.741,-0.09,0.98,0.01,0.26,0.44,-0.47,-0.01,0.01,0.17,1019.04
7.748,-0.09,0.98,0.01,0.26,0.44,-0.47,-0.01,0.01,0.17,1018.97
7.751,-0.06,0.98,0.01,0.26,0.44,-0.47,-0.01,0.01,0.17,1018.97
7.752,-0.06,0.98,0.01,-0.17,0.33,0.07,-0.01,0.01,0.17,1018.97
7.811,-0.06,0.98,0.01,-0.17,0.33,0.07,0.01,-0.00,0.19,1018.97
7.812,-0.08,0.98,0.03,-0.17,0.33,0.07,0.01,-0.00,0.19,1018.97
7.812,-0.09,0.97,0.05,-0.17,0.33,0.07,0.01,-0.00,0.19,1018.97
7.813,-0.08,0.98,0.04,-0.17,0.33,0.07,0.01,-0.00,0.19,1018.97
7.821,-0.08,0.98,0.04,-0.23,0.24,0.01,0.01,-0.00,0.19,1018.97
7.828,-0.08,0.98,0.04,-0.23,0.24,0.01,0.01,-0.00,0.19,1018.95
7.882,-0.08,0.98,0.04,-0.23,0.24,0.01,0.03,-0.04,0.22,1018.95
7.882,-0.07,0.98,0.01,-0.23,0.24,0.01,0.03,-0.04,0.22,1018.95
7.883,-0.06,0.99,-0.01,-0.23,0.24,0.01,0.03,-0.04,0.22,1018.95
7.883,-0.04,0.98,0.01,-0.23,0.24,0.01,0.03,-0.04,0.22,1018.95
7.891,-0.02,0.98,0.00,-0.23,0.24,0.01,0.03,-0.04,0.22,1018.95
7.892,-0.02,0.98,0.00,-0.34,0.17,0.20,0.03,-0.04,0.22,1018.95
7.908,-0.02,0.98,0.00,-0.34,0.17,0.20,0.03,-0.04,0.22,1018.97
7.947,-0.03,0.98,0.01,-0.34,0.17,0.20,0.03,-0.04,0.22,1018.97
7.948,-0.07,0.99,0.05,-0.34,0.17,0.20,0.03,-0.04,0.22,1018.97
7.948,-0.07,0.99,0.05,-0.34,0.17,0.20,0.03,-0.04,0.22,1019.02
7.951,-0.07,0.99,0.05,-0.34,0.17,0.20,0.03,-0.09,0.20,1019.02
7.961,-0.09,1.00,0.05,-0.34,0.17,0.20,0.03,-0.09,0.20,1019.02
7.961,-0.09,1.00,0.05,-0.09,0.21,-0.10,0.03,-0.09,0.20,1019.02
8.014,-0.09,1.01,0.02,-0.09,0.21,-0.10,0.03,-0.09,0.20,1019.02
8.014,-0.07,1.02,-0.02,-0.09,0.21,-0.10,0.03,-0.09,0.20,1019.02
8.015,-0.08,1.02,-0.03,-0.09,0.21,-0.10,0.03,-0.09,0.20,1019.02
8.021,-0.08,1.02,-0.03,-0.09,0.21,-0.10,0.12,-0.16,0.41,1019.02
8.028,-0.08,1.02,-0.03,-0.09,0.21,-0.10,0.12,-0.16,0.41,1019.04
8.033,-0.10,1.05,0.03,-0.09,0.21,-0.10,0.12,-0.16,0.41,1019.04
8.034,-0.10,1.05,0.03,-0.66,0.28,0.31,0.12,-0.16,0.41,1019.04
8.081,-0.18,1.08,0.05,-0.66,0.28,0.31,0.12,-0.16,0.41,1019.04
8.082,-0.32,1.17,-0.02,-0.66,0.28,0.31,0.12,-0.16,0.41,1019.04
8.091,-0.32,1.17,-0.02,-0.66,0.28,0.31,0.16,-0.29,1.05,1019.04
8.101,-0.35,1.25,-0.17,-0.66,0.28,0.31,0.16,-0.29,1.05,1019.04
8.101,-0.35,1.25,-0.17,-1.60,0.65,0.02,0.16,-0.29,1.05,1019.04
8.11,-0.35,1.25,-0.17,-1.60,0.65,0.02,0.16,-0.29,1.05,1019.08
8.147,-0.39,1.36,-0.32,-1.60,0.65,0.02,0.16,-0.29,1.05,1019.08
8.148,-0.53,1.48,-0.41,-1.60,0.65,0.02,0.16,-0.29,1.05,1019.08
8.148,-0.53,1.48,-0.41,-1.60,0.65,0.02,0.16,-0.29,1.05,1019.01
8.152,-0.81,1.55,-0.34,-1.60,0.65,0.02,0.16,-0.29,1.05,1019.01
8.16,-0.81,1.55,-0.34,-1.60,0.65,0.02,-0.68,-0.49,2.97,1019.01
8.173,-0.90,1.49,-0.23,-1.60,0.65,0.02,-0.68,-0.49,2.97,1019.01
8.173,-0.90,1.49,-0.23,-5.77,2.66,-1.18,-0.68,-0.49,2.97,1019.01
8.214,-0.53,1.48,0.34,-5.77,2.66,-1.18,-0.68,-0.49,2.97,1019.01
8.214,0.24,1.51,0.49,-5.77,2.66,-1.18,-0.68,-0.49,2.97,1019.01
8.228,0.24,1.51,0.49,-5.77,2.66,-1.18,-0.68,-0.49,2.97,1018.73
8.231,0.24,1.51,0.49,-5.77,2.66,-1.18,-1.17,-1.76,5.20,1018.73
8.241,0.31,1.30,0.46,-5.77,2.66,-1.18,-1.17,-1.76,5.20,1018.73
8.242,0.31,1.30,0.46,-12.58,7.14,-3.62,-1.17,-1.76,5.20,1018.73
8.281,-0.08,0.79,0.33,-12.58,7.14,-3.62,-1.17,-1.76,5.20,1018.73
8.282,0.60,0.29,0.44,-12.58,7.14,-3.62,-1.17,-1.76,5.20,1018.73
8.301,0.60,0.29,0.44,-12.58,7.14,-3.62,-0.81,-3.02,1.46,1018.73
8.302,-0.26,0.22,0.50,-12.58,7.14,-3.62,-0.81,-3.02,1.46,1018.73
8.309,-0.26,0.22,0.50,-12.58,7.14,-3.62,-0.81,-3.02,1.46,1018.54
8.311,-0.34,0.39,-0.05,-12.58,7.14,-3.62,-0.81,-3.02,1.46,1018.54
8.312,-0.34,0.39,-0.05,-6.03,6.14,4.47,-0.81,-3.02,1.46,1018.54
8.348,-0.17,0.39,-0.28,-6.03,6.14,4.47,-0.81,-3.02,1.46,1018.54
8.349,-0.17,0.39,-0.28,-6.03,6.14,4.47,-0.81,-3.02,1.46,1018.68
8.372,-0.17,0.39,-0.28,-6.03,6.14,4.47,-1.06,-1.51,-2.04,1018.68
8.373,0.03,0.38,-0.22,-6.03,6.14,4.47,-1.06,-1.51,-2.04,1018.68
8.381,0.17,0.46,-0.33,-6.03,6.14,4.47,-1.06,-1.51,-2.04,1018.68
8.382,0.17,0.46,-0.33,-4.58,-4.84,3.25,-1.06,-1.51,-2.04,1018.68
8.414,0.10,0.53,-0.37,-4.58,-4.84,3.25,-1.06,-1.51,-2.04,1018.68
8.415,-0.07,0.63,-0.45,-4.58,-4.84,3.25,-1.06,-1.51,-2.04,1018.68
8.428,-0.07,0.63,-0.45,-4.58,-4.84,3.25,-1.06,-1.51,-2.04,1018.83
8.441,-0.07,0.63,-0.45,-4.58,-4.84,3.25,-0.92,-0.33,-4.20,1018.83
8.442,-0.11,0.83,-0.53,-4.58,-4.84,3.25,-0.92,-0.33,-4.20,1018.83
8.453,0.04,1.06,-0.56,-4.58,-4.84,3.25,-0.92,-0.33,-4.20,1018.83
8.454,0.04,1.06,-0.56,-1.59,-4.88,-2.91,-0.92,-0.33,-4.20,1018.83
8.482,0.12,1.20,-0.59,-1.59,-4.88,-2.91,-0.92,-0.33,-4.20,1018.83
8.508,0.15,1.28,-0.51,-1.59,-4.88,-2.91,-0.92,-0.33,-4.20,1018.83
8.509,0.15,1.28,-0.51,-1.59,-4.88,-2.91,-0.92,-0.33,-4.20,1018.94
8.511,0.15,1.28,-0.51,-1.59,-4.88,-2.91,-0.09,-1.36,-4.40,1018.94
8.523,0.15,1.28,-0.51,0.57,-1.33,-4.87,-0.09,-1.36,-4.40,1018.94
8.524,0.08,1.41,-0.60,0.57,-1.33,-4.87,-0.09,-1.36,-4.40,1018.94
8.534,0.35,1.48,-0.58,0.57,-1.33,-4.87,-0.09,-1.36,-4.40,1018.94
8.549,0.35,1.48,-0.58,0.57,-1.33,-4.87,-0.09,-1.36,-4.40,1019.04
8.581,0.56,1.42,-0.43,0.57,-1.33,-4.87,-0.09,-1.36,-4.40,1019.04
8.582,0.25,1.32,-0.35,0.57,-1.33,-4.87,-0.09,-1.36,-4.40,1019.04
8.583,0.25,1.32,-0.35,0.57,-1.33,-4.87,0.03,-2.11,-2.96,1019.04
8.592,0.07,1.27,-0.44,0.57,-1.33,-4.87,0.03,-2.11,-2.96,1019.04
8.593,0.07,1.27,-0.44,3.79,4.03,-5.70,0.03,-2.11,-2.96,1019.04
8.614,0.19,1.19,-0.46,3.79,4.03,-5.70,0.03,-2.11,-2.96,1019.04
8.63,0.19,1.19,-0.46,3.79,4.03,-5.70,0.03,-2.11,-2.96,1019.10
8.652,0.48,1.14,-0.55,3.79,4.03,-5.70,0.03,-2.11,-2.96,1019.10
8.652,0.48,1.14,-0.55,3.79,4.03,-5.70,0.63,-3.58,0.10,1019.10
8.663,0.78,1.06,-0.55,3.79,4.03,-5.70,0.63,-3.58,0.10,1019.10
8.663,0.78,1.06,-0.55,5.12,4.29,-4.50,0.63,-3.58,0.10,1019.10
8.681,0.90,0.94,-0.38,5.12,4.29,-4.50,0.63,-3.58,0.10,1019.10
8.708,0.85,0.86,-0.19,5.12,4.29,-4.50,0.63,-3.58,0.10,1019.10
8.709,0.85,0.86,-0.19,5.12,4.29,-4.50,0.63,-3.58,0.10,1019.09
8.722,0.48,1.24,0.31,5.12,4.29,-4.50,0.63,-3.58,0.10,1019.09
8.723,0.48,1.24,0.31,5.12,4.29,-4.50,0.20,-2.25,1.64,1019.09
8.733,0.48,1.24,0.31,6.30,1.57,-5.18,0.20,-2.25,1.64,1019.09
8.733,3.05,1.15,0.80,6.30,1.57,-5.18,0.20,-2.25,1.64,1019.09
8.749,3.05,1.15,0.80,6.30,1.57,-5.18,0.20,-2.25,1.64,1019.11
8.791,3.05,1.15,0.80,6.30,1.57,-5.18,0.65,0.73,-0.13,1019.11
8.792,-0.92,1.16,-0.22,6.30,1.57,-5.18,0.65,0.73,-0.13,1019.11
8.792,-0.74,1.09,-1.35,6.30,1.57,-5.18,0.65,0.73,-0.13,1019.11
8.801,0.25,1.20,-0.19,6.30,1.57,-5.18,0.65,0.73,-0.13,1019.11
8.801,0.25,1.20,-0.19,14.25,1.11,2.22,0.65,0.73,-0.13,1019.11
8.814,-0.15,0.98,0.14,14.25,1.11,2.22,0.65,0.73,-0.13,1019.11
8.828,-0.15,0.98,0.14,14.25,1.11,2.22,0.65,0.73,-0.13,1019.49
8.862,-0.15,0.98,0.14,14.25,1.11,2.22,-0.14,0.22,0.16,1019.49
8.863,-0.03,0.96,0.02,14.25,1.11,2.22,-0.14,0.22,0.16,1019.49
8.863,-0.05,1.00,-0.01,14.25,1.11,2.22,-0.14,0.22,0.16,1019.49
8.872,-0.07,1.00,-0.01,14.25,1.11,2.22,-0.14,0.22,0.16,1019.49
8.873,-0.07,1.00,-0.01,-3.79,1.67,-4.65,-0.14,0.22,0.16,1019.49
8.91,-0.10,0.99,-0.00,-3.79,1.67,-4.65,-0.14,0.22,0.16,1019.49
8.91,-0.10,0.99,-0.00,-3.79,1.67,-4.65,-0.14,0.22,0.16,1019.29
8.933,-0.10,0.99,-0.00,-3.79,1.67,-4.65,-0.06,0.08,0.03,1019.29
8.934,-0.09,1.00,0.01,-3.79,1.67,-4.65,-0.06,0.08,0.03,1019.29
8.947,-0.09,1.00,-0.01,-3.79,1.67,-4.65,-0.06,0.08,0.03,1019.29
8.948,-0.09,1.00,-0.01,0.42,0.40,0.32,-0.06,0.08,0.03,1019.29
8.948,-0.09,1.00,-0.01,0.42,0.40,0.32,-0.06,0.08,0.03,1019.17
9.003,-0.09,1.00,-0.01,0.42,0.40,0.32,-0.04,0.00,0.03,1019.17
9.004,-0.10,0.99,-0.00,0.42,0.40,0.32,-0.04,0.00,0.03,1019.17
9.004,-0.10,0.99,-0.01,0.42,0.40,0.32,-0.04,0.00,0.03,1019.17
9.004,-0.10,0.99,0.00,0.42,0.40,0.32,-0.04,0.00,0.03,1019.17
9.012,-0.10,0.98,0.00,0.42,0.40,0.32,-0.04,0.00,0.03,1019.17
9.012,-0.10,0.98,0.00,-0.23,0.43,0.05,-0.04,0.00,0.03,1019.17
9.029,-0.10,0.98,0.00,-0.23,0.43,0.05,-0.04,0.00,0.03,1019.05
9.034,-0.10,0.98,0.01,-0.23,0.43,0.05,-0.04,0.00,0.03,1019.05
9.072,-0.10,0.98,0.01,-0.23,0.43,0.05,-0.04,-0.03,0.06,1019.05
9.073,-0.09,0.98,0.01,-0.23,0.43,0.05,-0.04,-0.03,0.06,1019.05
9.081,-0.09,0.98,0.02,-0.23,0.43,0.05,-0.04,-0.03,0.06,1019.05
9.082,-0.09,0.98,0.02,-0.35,0.32,0.01,-0.04,-0.03,0.06,1019.05
9.109,-0.09,0.98,0.02,-0.35,0.32,0.01,-0.04,-0.03,0.06,1019.05
9.11,-0.09,0.98,0.02,-0.35,0.32,0.01,-0.04,-0.03,0.06,1019.02
9.146,-0.09,0.98,0.02,-0.35,0.32,0.01,0.00,-0.07,0.08,1019.02
9.147,-0.09,0.98,0.02,-0.35,0.32,0.01,0.00,-0.07,0.08,1019.02
9.147,-0.08,0.97,0.03,-0.35,0.32,0.01,0.00,-0.07,0.08,1019.02
9.148,-0.08,0.97,0.03,-0.35,0.32,0.01,0.00,-0.07,0.08,1019.03
9.153,-0.08,0.98,0.02,-0.35,0.32,0.01,0.00,-0.07,0.08,1019.03
9.153,-0.08,0.98,0.02,-0.29,0.23,0.15,0.00,-0.07,0.08,1019.03
9.212,-0.08,0.98,0.02,-0.29,0.23,0.15,0.01,-0.06,0.07,1019.03
9.213,-0.07,0.98,-0.01,-0.29,0.23,0.15,0.01,-0.06,0.07,1019.03
9.214,-0.07,0.98,-0.01,-0.29,0.23,0.15,0.01,-0.06,0.07,1019.03
9.214,-0.09,0.99,0.00,-0.29,0.23,0.15,0.01,-0.06,0.07,1019.03
9.222,-0.09,0.99,0.00,-0.25,0.21,0.21,0.01,-0.06,0.07,1019.03
9.229,-0.09,0.99,0.00,-0.25,0.21,0.21,0.01,-0.06,0.07,1019.05
9.281,-0.09,0.99,0.00,-0.25,0.21,0.21,0.01,-0.06,0.07,1019.05
9.283,-0.10,0.99,-0.01,-0.25,0.21,0.21,0.01,-0.06,0.07,1019.05
9.283,-0.11,0.99,0.01,-0.25,0.21,0.21,0.01,-0.06,0.07,1019.05
9.284,-0.11,0.99,0.01,-0.25,0.21,0.21,-0.01,-0.10,0.12,1019.05
9.292,-0.11,0.99,0.00,-0.25,0.21,0.21,-0.01,-0.10,0.12,1019.05
9.293,-0.11,0.99,0.00,-0.29,0.30,-0.03,-0.01,-0.10,0.12,1019.05
9.308,-0.11,0.99,0.00,-0.29,0.30,-0.03,-0.01,-0.10,0.12,1019.00
9.348,-0.12,0.99,0.03,-0.29,0.30,-0.03,-0.01,-0.10,0.12,1019.00
9.349,-0.12,1.00,0.04,-0.29,0.30,-0.03,-0.01,-0.10,0.12,1019.00
9.349,-0.12,1.00,0.04,-0.29,0.30,-0.03,-0.01,-0.10,0.12,1018.98
9.351,-0.12,1.00,0.04,-0.29,0.30,-0.03,0.04,-0.11,0.31,1018.98
9.361,-0.12,1.00,0.04,-0.77,0.36,0.05,0.04,-0.11,0.31,1018.98
9.362,-0.10,1.01,0.01,-0.77,0.36,0.05,0.04,-0.11,0.31,1018.98
9.415,-0.11,1.01,0.04,-0.77,0.36,0.05,0.04,-0.11,0.31,1018.98
9.416,-0.16,1.02,0.10,-0.77,0.36,0.05,0.04,-0.11,0.31,1018.98
9.416,-0.15,1.08,-0.05,-0.77,0.36,0.05,0.04,-0.11,0.31,1018.98
9.421,-0.15,1.08,-0.05,-0.77,0.36,0.05,0.24,-0.29,0.63,1018.98
9.429,-0.15,1.08,-0.05,-0.77,0.36,0.05,0.24,-0.29,0.63,1018.98
9.433,-0.25,1.16,-0.16,-0.77,0.36,0.05,0.24,-0.29,0.63,1018.98
9.433,-0.25,1.16,-0.16,-1.14,0.38,0.40,0.24,-0.29,0.63,1018.98
9.467,-0.41,1.31,-0.35,-1.14,0.38,0.40,0.24,-0.29,0.63,1018.98
9.481,-0.48,1.38,-0.21,-1.14,0.38,0.40,0.24,-0.29,0.63,1018.98
9.492,-0.48,1.38,-0.21,-1.14,0.38,0.40,-0.36,-0.48,1.81,1018.98
9.502,-0.54,1.52,-0.62,-1.14,0.38,0.40,-0.36,-0.48,1.81,1018.98
9.502,-0.54,1.52,-0.62,-2.78,1.10,-0.37,-0.36,-0.48,1.81,1018.98
9.508,-0.54,1.52,-0.62,-2.78,1.10,-0.37,-0.36,-0.48,1.81,1018.97
9.534,-0.69,1.50,-0.75,-2.78,1.10,-0.37,-0.36,-0.48,1.81,1018.97
9.535,-0.82,1.39,-0.76,-2.78,1.10,-0.37,-0.36,-0.48,1.81,1018.97
9.557,-0.82,1.39,-0.76,-2.78,1.10,-0.37,-0.36,-0.48,1.81,1018.39
9.562,-0.82,1.39,-0.76,-2.78,1.10,-0.37,-3.05,-1.98,3.97,1018.39
9.562,-0.34,1.32,-0.29,-2.78,1.10,-0.37,-3.05,-1.98,3.97,1018.39
9.572,-0.34,1.32,-0.29,-8.57,5.28,-6.16,-3.05,-1.98,3.97,1018.39
9.573,0.57,1.43,1.27,-8.57,5.28,-6.16,-3.05,-1.98,3.97,1018.39
9.615,0.07,0.94,0.59,-8.57,5.28,-6.16,-3.05,-1.98,3.97,1018.39
9.616,0.33,0.90,0.06,-8.57,5.28,-6.16,-3.05,-1.98,3.97,1018.39
9.629,0.33,0.90,0.06,-8.57,5.28,-6.16,-3.05,-1.98,3.97,1018.46
9.632,0.33,0.90,0.06,-8.57,5.28,-6.16,-1.98,-3.66,2.82,1018.46
9.642,0.12,-0.13,0.20,-8.57,5.28,-6.16,-1.98,-3.66,2.82,1018.46
9.642,0.12,-0.13,0.20,-7.99,5.90,-1.78,-1.98,-3.66,2.82,1018.46
9.681,0.41,0.52,0.15,-7.99,5.90,-1.78,-1.98,-3.66,2.82,1018.46
9.682,-0.44,0.34,-0.16,-7.99,5.90,-1.78,-1.98,-3.66,2.82,1018.46
9.702,-0.44,0.34,-0.16,-7.99,5.90,-1.78,-0.31,-3.26,-0.96,1018.46
9.703,-0.14,0.43,-0.55,-7.99,5.90,-1.78,-0.31,-3.26,-0.96,1018.46
9.708,-0.14,0.43,-0.55,-7.99,5.90,-1.78,-0.31,-3.26,-0.96,1018.69
9.712,0.18,0.51,-0.72,-7.99,5.90,-1.78,-0.31,-3.26,-0.96,1018.69
9.712,0.18,0.51,-0.72,-2.24,-2.41,2.34,-0.31,-3.26,-0.96,1018.69
9.748,0.14,0.47,-0.60,-2.24,-2.41,2.34,-0.31,-3.26,-0.96,1018.69
9.749,0.14,0.47,-0.60,-2.24,-2.41,2.34,-0.31,-3.26,-0.96,1018.87
9.772,0.05,0.48,-0.46,-2.24,-2.41,2.34,-0.31,-3.26,-0.96,1018.87
9.773,0.05,0.48,-0.46,-2.24,-2.41,2.34,-0.59,-0.80,-2.87,1018.87
9.782,0.00,0.59,-0.49,-2.24,-2.41,2.34,-0.59,-0.80,-2.87,1018.87
9.783,0.00,0.59,-0.49,-3.90,-4.80,-4.62,-0.59,-0.80,-2.87,1018.87
9.814,-0.02,0.74,-0.51,-3.90,-4.80,-4.62,-0.59,-0.80,-2.87,1018.87
9.815,-0.01,0.87,-0.50,-3.90,-4.80,-4.62,-0.59,-0.80,-2.87,1018.87
9.828,-0.01,0.87,-0.50,-3.90,-4.80,-4.62,-0.59,-0.80,-2.87,1018.95
9.841,-0.00,1.00,-0.48,-3.90,-4.80,-4.62,-0.59,-0.80,-2.87,1018.95
9.844,-0.00,1.00,-0.48,-3.90,-4.80,-4.62,0.44,-0.85,-4.01,1018.95
9.853,-0.02,1.12,-0.48,-3.90,-4.80,-4.62,0.44,-0.85,-4.01,1018.95
9.853,-0.02,1.12,-0.48,0.23,-3.98,-5.02,0.44,-0.85,-4.01,1018.95
9.881,-0.06,1.26,-0.47,0.23,-3.98,-5.02,0.44,-0.85,-4.01,1018.95
9.909,-0.07,1.42,-0.41,0.23,-3.98,-5.02,0.44,-0.85,-4.01,1018.95
9.909,-0.07,1.42,-0.41,0.23,-3.98,-5.02,0.44,-0.85,-4.01,1019.01
9.912,-0.07,1.42,-0.41,0.23,-3.98,-5.02,1.04,-1.38,-4.06,1019.01
9.925,-0.08,1.56,-0.34,0.23,-3.98,-5.02,1.04,-1.38,-4.06,1019.01
9.926,-0.08,1.56,-0.34,2.19,0.46,-4.14,1.04,-1.38,-4.06,1019.01
9.948,-0.16,1.64,-0.29,2.19,0.46,-4.14,1.04,-1.38,-4.06,1019.01
9.948,-0.16,1.64,-0.29,2.19,0.46,-4.14,1.04,-1.38,-4.06,1019.05
9.962,-0.25,1.65,-0.27,2.19,0.46,-4.14,1.04,-1.38,-4.06,1019.05
9.973,0.28,1.60,-0.19,2.19,0.46,-4.14,1.04,-1.38,-4.06,1019.05
9.981,0.28,1.60,-0.19,2.19,0.46,-4.14,0.66,-1.78,-2.47,1019.05
9.992,1.21,1.29,0.07,2.19,0.46,-4.14,0.66,-1.78,-2.47,1019.05
9.992,1.21,1.29,0.07,2.87,5.58,-3.18,0.66,-1.78,-2.47,1019.05
10.014,1.80,0.96,0.28,2.87,5.58,-3.18,0.66,-1.78,-2.47,1019.05
10.029,1.80,0.96,0.28,2.87,5.58,-3.18,0.66,-1.78,-2.47,1019.19
10.033,1.39,0.89,0.23,2.87,5.58,-3.18,0.66,-1.78,-2.47,1019.19
10.053,1.39,0.89,0.23,2.87,5.58,-3.18,0.43,-0.76,-0.32,1019.19
10.062,0.50,1.23,-0.04,2.87,5.58,-3.18,0.43,-0.76,-0.32,1019.19
10.063,0.50,1.23,-0.04,6.61,6.23,-0.84,0.43,-0.76,-0.32,1019.19
10.081,-0.04,1.09,-0.26,6.61,6.23,-0.84,0.43,-0.76,-0.32,1019.19
10.11,-0.85,1.07,0.08,6.61,6.23,-0.84,0.43,-0.76,-0.32,1019.19
10.11,-0.85,1.07,0.08,6.61,6.23,-0.84,0.43,-0.76,-0.32,1019.17
10.121,-0.85,1.07,0.08,6.61,6.23,-0.84,-0.91,0.52,2.61,1019.17
10.122,0.36,1.09,0.37,6.61,6.23,-0.84,-0.91,0.52,2.61,1019.17
10.133,0.51,1.21,0.39,6.61,6.23,-0.84,-0.91,0.52,2.61,1019.17
10.133,0.51,1.21,0.39,11.32,1.54,0.38,-0.91,0.52,2.61,1019.17
10.148,0.51,1.21,0.39,11.32,1.54,0.38,-0.91,0.52,2.61,1019.92
10.192,0.41,1.31,-0.23,11.32,1.54,0.38,-0.91,0.52,2.61,1019.92
10.193,-0.15,1.03,-0.47,11.32,1.54,0.38,-0.91,0.52,2.61,1019.92
10.193,-0.15,1.03,-0.47,11.32,1.54,0.38,-0.27,0.49,0.78,1019.92
10.202,0.19,1.04,-0.11,11.32,1.54,0.38,-0.27,0.49,0.78,1019.92
10.202,0.19,1.04,-0.11,1.82,0.93,2.88,-0.27,0.49,0.78,1019.92
10.214,-0.09,0.96,0.15,1.82,0.93,2.88,-0.27,0.49,0.78,1019.92
10.228,-0.09,0.96,0.15,1.82,0.93,2.88,-0.27,0.49,0.78,1019.41
10.262,-0.09,0.96,0.15,1.82,0.93,2.88,-0.31,0.08,0.17,1019.41
10.262,-0.12,0.98,0.11,1.82,0.93,2.88,-0.31,0.08,0.17,1019.41
10.262,-0.05,0.99,-0.01,1.82,0.93,2.88,-0.31,0.08,0.17,1019.41
10.273,-0.09,0.99,0.05,1.82,0.93,2.88,-0.31,0.08,0.17,1019.41
10.274,-0.09,0.99,0.05,2.21,1.39,-2.28,-0.31,0.08,0.17,1019.41
10.308,-0.08,1.00,-0.01,2.21,1.39,-2.28,-0.31,0.08,0.17,1019.41
10.309,-0.08,1.00,-0.01,2.21,1.39,-2.28,-0.31,0.08,0.17,1019.18
10.332,-0.08,1.00,-0.01,2.21,1.39,-2.28,-0.14,0.03,0.05,1019.18
10.333,-0.11,1.00,0.01,2.21,1.39,-2.28,-0.14,0.03,0.05,1019.18
10.344,-0.11,0.99,0.02,2.21,1.39,-2.28,-0.14,0.03,0.05,1019.18
10.345,-0.11,0.99,0.02,0.23,0.26,0.63,-0.14,0.03,0.05,1019.18
10.348,-0.11,0.99,0.02,0.23,0.26,0.63,-0.14,0.03,0.05,1019.07
10.402,-0.11,0.99,0.02,0.23,0.26,0.63,-0.09,-0.03,0.03,1019.07
10.403,-0.10,0.98,0.03,0.23,0.26,0.63,-0.09,-0.03,0.03,1019.07
10.403,-0.11,0.98,0.01,0.23,0.26,0.63,-0.09,-0.03,0.03,1019.07
10.403,-0.11,0.98,0.01,0.23,0.26,0.63,-0.09,-0.03,0.03,1019.07
10.412,-0.11,0.98,0.02,0.23,0.26,0.63,-0.09,-0.03,0.03,1019.07
10.412,-0.11,0.98,0.02,0.01,0.36,-0.12,-0.09,-0.03,0.03,1019.07
10.428,-0.11,0.98,0.02,0.01,0.36,-0.12,-0.09,-0.03,0.03,1018.99
10.473,-0.11,0.98,0.02,0.01,0.36,-0.12,-0.08,-0.04,0.09,1018.99
10.474,-0.12,0.98,0.02,0.01,0.36,-0.12,-0.08,-0.04,0.09,1018.99
10.474,-0.13,0.98,0.03,0.01,0.36,-0.12,-0.08,-0.04,0.09,1018.99
10.48,-0.14,0.97,0.05,0.01,0.36,-0.12,-0.08,-0.04,0.09,1018.99
10.481,-0.14,0.97,0.05,-0.10,0.19,-0.11,-0.08,-0.04,0.09,1018.99
10.51,-0.13,0.97,0.05,-0.10,0.19,-0.11,-0.08,-0.04,0.09,1018.99
10.511,-0.13,0.97,0.05,-0.10,0.19,-0.11,-0.08,-0.04,0.09,1018.96
10.534,-0.11,0.98,0.04,-0.10,0.19,-0.11,-0.08,-0.04,0.09,1018.96
10.534,-0.08,0.98,0.03,-0.10,0.19,-0.11,-0.08,-0.04,0.09,1018.96
10.543,-0.08,0.98,0.03,-0.10,0.19,-0.11,0.00,-0.06,0.21,1018.96
10.548,-0.08,0.98,0.03,-0.10,0.19,-0.11,0.00,-0.06,0.21,1019.02
10.552,-0.06,0.98,0.03,-0.10,0.19,-0.11,0.00,-0.06,0.21,1019.02
10.553,-0.06,0.98,0.03,-0.47,0.13,0.10,0.00,-0.06,0.21,1019.02
10.613,-0.06,0.98,0.03,-0.47,0.13,0.10,0.04,-0.05,0.18,1019.02
10.613,-0.08,0.98,0.03,-0.47,0.13,0.10,0.04,-0.05,0.18,1019.02
10.614,-0.08,0.98,0.03,-0.47,0.13,0.10,0.04,-0.05,0.18,1019.02
10.614,-0.06,0.98,0.04,-0.47,0.13,0.10,0.04,-0.05,0.18,1019.02
10.622,-0.06,0.98,0.04,-0.16,0.18,0.10,0.04,-0.05,0.18,1019.02
10.628,-0.06,0.98,0.04,-0.16,0.18,0.10,0.04,-0.05,0.18,1018.98
10.681,-0.07,0.98,0.02,-0.16,0.18,0.10,0.04,-0.05,0.18,1018.98
10.681,-0.06,0.98,0.02,-0.16,0.18,0.10,0.04,-0.05,0.18,1018.98
10.682,-0.07,0.99,0.01,-0.16,0.18,0.10,0.04,-0.05,0.18,1018.98
10.682,-0.07,0.99,0.01,-0.16,0.18,0.10,0.07,-0.07,0.18,1018.98
10.693,-0.12,1.00,0.03,-0.16,0.18,0.10,0.07,-0.07,0.18,1018.98
10.694,-0.12,1.00,0.03,-0.13,0.13,0.15,0.07,-0.07,0.18,1018.98
10.711,-0.12,1.00,0.03,-0.13,0.13,0.15,0.07,-0.07,0.18,1019.02
10.747,-0.13,1.00,0.05,-0.13,0.13,0.15,0.07,-0.07,0.18,1019.02
10.748,-0.13,1.02,0.01,-0.13,0.13,0.15,0.07,-0.07,0.18,1019.02
10.748,-0.13,1.02,0.01,-0.13,0.13,0.15,0.07,-0.07,0.18,1019.07
10.752,-0.13,1.02,0.01,-0.13,0.13,0.15,0.13,-0.16,0.38,1019.07
10.762,-0.15,1.05,-0.02,-0.13,0.13,0.15,0.13,-0.16,0.38,1019.07
10.763,-0.15,1.05,-0.02,-0.49,0.20,0.10,0.13,-0.16,0.38,1019.07
10.814,-0.15,1.09,-0.04,-0.49,0.20,0.10,0.13,-0.16,0.38,1019.07
10.815,-0.24,1.12,-0.10,-0.49,0.20,0.10,0.13,-0.16,0.38,1019.07
10.815,-0.32,1.18,-0.06,-0.49,0.20,0.10,0.13,-0.16,0.38,1019.07
10.822,-0.32,1.18,-0.06,-0.49,0.20,0.10,0.00,-0.27,1.01,1019.07
10.83,-0.32,1.18,-0.06,-0.49,0.20,0.10,0.00,-0.27,1.01,1019.02
10.833,-0.35,1.25,-0.16,-0.49,0.20,0.10,0.00,-0.27,1.01,1019.02
10.833,-0.35,1.25,-0.16,-1.60,0.55,-0.07,0.00,-0.27,1.01,1019.02
10.853,-0.41,1.32,-0.18,-1.60,0.55,-0.07,0.00,-0.27,1.01,1019.02
10.88,-0.53,1.44,-0.37,-1.60,0.55,-0.07,0.00,-0.27,1.01,1019.02
10.894,-0.53,1.44,-0.37,-1.60,0.55,-0.07,-0.59,-0.35,2.63,1019.02
10.902,-0.75,1.47,-0.09,-1.60,0.55,-0.07,-0.59,-0.35,2.63,1019.02
10.903,-0.75,1.47,-0.09,-4.93,2.18,-1.49,-0.59,-0.35,2.63,1019.02
10.909,-0.75,1.47,-0.09,-4.93,2.18,-1.49,-0.59,-0.35,2.63,1019.00
10.948,-0.75,1.47,-0.09,-4.93,2.18,-1.49,-0.59,-0.35,2.63,1018.57
10.949,-0.91,1.42,-0.18,-4.93,2.18,-1.49,-0.59,-0.35,2.63,1018.57
10.949,-0.59,1.38,0.19,-4.93,2.18,-1.49,-0.59,-0.35,2.63,1018.57
10.963,-0.59,1.38,0.19,-4.93,2.18,-1.49,-1.06,-1.10,5.22,1018.57
10.963,-0.06,1.45,0.33,-4.93,2.18,-1.49,-1.06,-1.10,5.22,1018.57
10.973,0.24,1.38,0.41,-4.93,2.18,-1.49,-1.06,-1.10,5.22,1018.57
10.973,0.24,1.38,0.41,-11.33,6.06,-2.85,-1.06,-1.10,5.22,1018.57
11.014,0.03,1.28,0.10,-11.33,6.06,-2.85,-1.06,-1.10,5.22,1018.57
11.015,-0.22,0.48,0.18,-11.33,6.06,-2.85,-1.06,-1.10,5.22,1018.57
11.028,-0.22,0.48,0.18,-11.33,6.06,-2.85,-1.06,-1.10,5.22,1018.43
11.034,1.61,0.59,0.28,-11.33,6.06,-2.85,-1.06,-1.10,5.22,1018.43
11.035,1.61,0.59,0.28,-11.33,6.06,-2.85,-0.82,-1.85,3.99,1018.43
11.042,1.61,0.59,0.28,-9.16,7.06,2.05,-0.82,-1.85,3.99,1018.43
11.081,-0.10,0.29,0.44,-9.16,7.06,2.05,-0.82,-1.85,3.99,1018.43
11.082,-0.73,0.33,-0.14,-9.16,7.06,2.05,-0.82,-1.85,3.99,1018.43
11.103,-0.73,0.33,-0.14,-9.16,7.06,2.05,-0.39,-1.58,-1.63,1018.43
11.104,-0.26,0.43,-0.37,-9.16,7.06,2.05,-0.39,-1.58,-1.63,1018.43
11.111,-0.26,0.43,-0.37,-9.16,7.06,2.05,-0.39,-1.58,-1.63,1018.76
11.112,0.08,0.40,-0.15,-9.16,7.06,2.05,-0.39,-1.58,-1.63,1018.76
11.112,0.08,0.40,-0.15,-1.19,-0.31,2.36,-0.39,-1.58,-1.63,1018.76
11.147,0.15,0.45,-0.13,-1.19,-0.31,2.36,-0.39,-1.58,-1.63,1018.76
11.148,0.15,0.45,-0.13,-1.19,-0.31,2.36,-0.39,-1.58,-1.63,1018.87
11.172,0.15,0.45,-0.13,-1.19,-0.31,2.36,-0.74,-0.42,-3.68,1018.87
11.173,0.04,0.53,-0.19,-1.19,-0.31,2.36,-0.74,-0.42,-3.68,1018.87
11.182,-0.07,0.65,-0.29,-1.19,-0.31,2.36,-0.74,-0.42,-3.68,1018.87
11.183,-0.07,0.65,-0.29,-7.01,-5.19,-1.58,-0.74,-0.42,-3.68,1018.87
11.214,-0.05,0.80,-0.33,-7.01,-5.19,-1.58,-0.74,-0.42,-3.68,1018.87
11.214,0.05,0.97,-0.37,-7.01,-5.19,-1.58,-0.74,-0.42,-3.68,1018.87
11.229,0.05,0.97,-0.37,-7.01,-5.19,-1.58,-0.74,-0.42,-3.68,1018.88
11.245,0.05,0.97,-0.37,-7.01,-5.19,-1.58,-0.16,-0.39,-4.81,1018.88
11.246,0.19,1.16,-0.38,-7.01,-5.19,-1.58,-0.16,-0.39,-4.81,1018.88
11.253,0.20,1.28,-0.44,-7.01,-5.19,-1.58,-0.16,-0.39,-4.81,1018.88
11.253,0.20,1.28,-0.44,-0.14,-3.65,-2.29,-0.16,-0.39,-4.81,1018.88
11.28,0.07,1.40,-0.49,-0.14,-3.65,-2.29,-0.16,-0.39,-4.81,1018.88
11.308,0.04,1.52,-0.46,-0.14,-3.65,-2.29,-0.16,-0.39,-4.81,1018.88
11.309,0.04,1.52,-0.46,-0.14,-3.65,-2.29,-0.16,-0.39,-4.81,1018.94
11.312,0.04,1.52,-0.46,-0.14,-3.65,-2.29,0.39,-0.42,-4.79,1018.94
11.322,0.01,1.67,-0.50,-0.14,-3.65,-2.29,0.39,-0.42,-4.79,1018.94
11.323,0.01,1.67,-0.50,3.76,1.77,-3.65,0.39,-0.42,-4.79,1018.94
11.347,-0.02,1.78,-0.43,3.76,1.77,-3.65,0.39,-0.42,-4.79,1018.94
11.348,-0.02,1.78,-0.43,3.76,1.77,-3.65,0.39,-0.42,-4.79,1019.02
11.362,0.39,1.73,-0.27,3.76,1.77,-3.65,0.39,-0.42,-4.79,1019.02
11.382,0.39,1.73,-0.27,3.76,1.77,-3.65,0.49,-1.20,-3.19,1019.02
11.383,0.82,1.51,-0.09,3.76,1.77,-3.65,0.49,-1.20,-3.19,1019.02
11.392,1.57,1.35,-0.02,3.76,1.77,-3.65,0.49,-1.20,-3.19,1019.02
11.393,1.57,1.35,-0.02,4.49,6.98,-4.47,0.49,-1.20,-3.19,1019.02
11.414,2.06,1.02,0.33,4.49,6.98,-4.47,0.49,-1.20,-3.19,1019.02
11.428,2.06,1.02,0.33,4.49,6.98,-4.47,0.49,-1.20,-3.19,1019.19
11.453,2.06,1.02,0.33,4.49,6.98,-4.47,0.23,-0.86,0.31,1019.19
11.454,0.49,0.98,-0.03,4.49,6.98,-4.47,0.23,-0.86,0.31,1019.19
11.463,0.49,0.98,-0.03,11.19,6.59,-1.52,0.23,-0.86,0.31,1019.19
11.464,-0.11,1.14,-0.15,11.19,6.59,-1.52,0.23,-0.86,0.31,1019.19
11.481,0.10,1.14,-0.26,11.19,6.59,-1.52,0.23,-0.86,0.31,1019.19
11.509,-0.41,0.95,-0.68,11.19,6.59,-1.52,0.23,-0.86,0.31,1019.19
11.51,-0.41,0.95,-0.68,11.19,6.59,-1.52,0.23,-0.86,0.31,1019.15
11.522,0.23,1.20,0.21,11.19,6.59,-1.52,0.23,-0.86,0.31,1019.15
11.523,0.23,1.20,0.21,11.19,6.59,-1.52,-0.92,0.61,3.04,1019.15
11.533,0.82,1.17,0.93,11.19,6.59,-1.52,-0.92,0.61,3.04,1019.15
11.534,0.82,1.17,0.93,9.11,0.29,0.06,-0.92,0.61,3.04,1019.15
11.548,0.82,1.17,0.93,9.11,0.29,0.06,-0.92,0.61,3.04,1019.82
11.594,0.82,1.17,0.93,9.11,0.29,0.06,-0.15,0.55,0.82,1019.82
11.594,0.41,1.34,-0.14,9.11,0.29,0.06,-0.15,0.55,0.82,1019.82
11.594,-0.06,1.08,-0.52,9.11,0.29,0.06,-0.15,0.55,0.82,1019.82
11.603,0.05,0.97,0.28,9.11,0.29,0.06,-0.15,0.55,0.82,1019.82
11.603,0.05,0.97,0.28,2.36,2.38,0.17,-0.15,0.55,0.82,1019.82
11.614,-0.02,0.98,0.02,2.36,2.38,0.17,-0.15,0.55,0.82,1019.82
11.628,-0.02,0.98,0.02,2.36,2.38,0.17,-0.15,0.55,0.82,1019.37
11.662,-0.02,0.98,0.02,2.36,2.38,0.17,-0.14,0.10,0.26,1019.37
11.662,-0.09,1.02,0.08,2.36,2.38,0.17,-0.14,0.10,0.26,1019.37
11.662,-0.03,1.00,-0.02,2.36,2.38,0.17,-0.14,0.10,0.26,1019.37
11.672,-0.05,0.98,0.09,2.36,2.38,0.17,-0.14,0.10,0.26,1019.37
11.673,-0.05,0.98,0.09,1.94,1.43,-1.42,-0.14,0.10,0.26,1019.37
11.708,-0.08,0.99,0.06,1.94,1.43,-1.42,-0.14,0.10,0.26,1019.37
11.708,-0.08,0.99,0.06,1.94,1.43,-1.42,-0.14,0.10,0.26,1019.16
11.733,-0.08,0.99,0.06,1.94,1.43,-1.42,-0.08,0.04,0.11,1019.16
11.733,-0.09,1.00,0.04,1.94,1.43,-1.42,-0.08,0.04,0.11,1019.16
11.742,-0.08,0.99,0.03,1.94,1.43,-1.42,-0.08,0.04,0.11,1019.16
11.743,-0.08,0.99,0.03,0.35,0.40,-0.13,-0.08,0.04,0.11,1019.16
11.748,-0.08,0.99,0.03,0.35,0.40,-0.13,-0.08,0.04,0.11,1019.04
11.803,-0.08,0.99,0.03,0.35,0.40,-0.13,-0.07,-0.02,0.08,1019.04
11.803,-0.08,0.99,0.06,0.35,0.40,-0.13,-0.07,-0.02,0.08,1019.04
11.803,-0.08,0.99,0.06,0.35,0.40,-0.13,-0.07,-0.02,0.08,1019.04
11.803,-0.08,0.98,0.05,0.35,0.40,-0.13,-0.07,-0.02,0.08,1019.04
11.814,-0.10,0.98,0.05,0.35,0.40,-0.13,-0.07,-0.02,0.08,1019.04
11.814,-0.10,0.98,0.05,-0.04,0.32,-0.13,-0.07,-0.02,0.08,1019.04
11.83,-0.10,0.98,0.05,-0.04,0.32,-0.13,-0.07,-0.02,0.08,1019.01
11.873,-0.10,0.98,0.05,-0.04,0.32,-0.13,-0.03,-0.04,0.16,1019.01
11.874,-0.11,0.98,0.07,-0.04,0.32,-0.13,-0.03,-0.04,0.16,1019.01
11.874,-0.09,0.98,0.07,-0.04,0.32,-0.13,-0.03,-0.04,0.16,1019.01
11.881,-0.07,0.98,0.07,-0.04,0.32,-0.13,-0.03,-0.04,0.16,1019.01
11.883,-0.07,0.98,0.07,-0.21,0.23,-0.04,-0.03,-0.04,0.16,1019.01
11.908,-0.05,0.98,0.05,-0.21,0.23,-0.04,-0.03,-0.04,0.16,1019.01
11.909,-0.05,0.98,0.05,-0.21,0.23,-0.04,-0.03,-0.04,0.16,1018.97
11.942,-0.05,0.98,0.05,-0.21,0.23,-0.04,0.01,-0.06,0.18,1018.97
11.943,-0.08,0.98,0.07,-0.21,0.23,-0.04,0.01,-0.06,0.18,1018.97
11.943,-0.07,0.98,0.08,-0.21,0.23,-0.04,0.01,-0.06,0.18,1018.97
11.954,-0.07,0.98,0.08,-0.21,0.23,-0.04,0.01,-0.06,0.18,1018.97
11.955,-0.06,0.98,0.05,-0.21,0.23,-0.04,0.01,-0.06,0.18,1018.97
11.955,-0.06,0.98,0.05,-0.27,0.18,0.08,0.01,-0.06,0.18,1018.97
12.014,-0.06,0.98,0.05,-0.27,0.18,0.08,0.01,-0.07,0.19,1018.97
12.014,-0.04,0.98,0.03,-0.27,0.18,0.08,0.01,-0.07,0.19,1018.97
12.015,-0.04,0.98,0.06,-0.27,0.18,0.08,0.01,-0.07,0.19,1018.97
12.015,-0.04,0.99,0.06,-0.27,0.18,0.08,0.01,-0.07,0.19,1018.97
12.023,-0.04,0.99,0.06,-0.24,0.18,0.07,0.01,-0.07,0.19,1018.97
12.029,-0.04,0.99,0.06,-0.24,0.18,0.07,0.01,-0.07,0.19,1019.05
12.081,-0.06,0.99,0.06,-0.24,0.18,0.07,0.01,-0.07,0.19,1019.05
12.081,-0.09,1.00,0.07,-0.24,0.18,0.07,0.01,-0.07,0.19,1019.05
12.082,-0.08,1.00,0.08,-0.24,0.18,0.07,0.01,-0.07,0.19,1019.05
12.082,-0.08,1.00,0.08,-0.24,0.18,0.07,0.06,-0.12,0.26,1019.05
12.094,-0.08,1.00,0.08,-0.21,0.20,-0.01,0.06,-0.12,0.26,1019.05
12.094,-0.07,1.01,0.04,-0.21,0.20,-0.01,0.06,-0.12,0.26,1019.05
12.109,-0.07,1.01,0.04,-0.21,0.20,-0.01,0.06,-0.12,0.26,1019.04
12.148,-0.07,1.03,0.01,-0.21,0.20,-0.01,0.06,-0.12,0.26,1019.04
12.149,-0.12,1.04,0.08,-0.21,0.20,-0.01,0.06,-0.12,0.26,1019.04
12.149,-0.12,1.04,0.08,-0.21,0.20,-0.01,0.06,-0.12,0.26,1019.05
12.152,-0.12,1.04,0.08,-0.21,0.20,-0.01,0.12,-0.22,0.54,1019.05
12.165,-0.20,1.07,0.12,-0.21,0.20,-0.01,0.12,-0.22,0.54,1019.05
12.165,-0.20,1.07,0.12,-0.95,0.35,0.20,0.12,-0.22,0.54,1019.05
12.216,-0.26,1.15,-0.02,-0.95,0.35,0.20,0.12,-0.22,0.54,1019.05
12.216,-0.30,1.22,-0.17,-0.95,0.35,0.20,0.12,-0.22,0.54,1019.05
12.217,-0.34,1.28,-0.19,-0.95,0.35,0.20,0.12,-0.22,0.54,1019.05
12.224,-0.34,1.28,-0.19,-0.95,0.35,0.20,-0.04,-0.39,1.56,1019.05
12.228,-0.34,1.28,-0.19,-0.95,0.35,0.20,-0.04,-0.39,1.56,1019.07
12.234,-0.45,1.41,-0.27,-0.95,0.35,0.20,-0.04,-0.39,1.56,1019.07
12.235,-0.45,1.41,-0.27,-2.51,0.94,0.12,-0.04,-0.39,1.56,1019.07
12.281,-0.67,1.49,-0.36,-2.51,0.94,0.12,-0.04,-0.39,1.56,1019.07
12.281,-0.97,1.48,-0.19,-2.51,0.94,0.12,-0.04,-0.39,1.56,1019.07
12.293,-0.97,1.48,-0.19,-2.51,0.94,0.12,-1.16,-0.89,3.89,1019.07
12.302,-0.80,1.52,0.06,-2.51,0.94,0.12,-1.16,-0.89,3.89,1019.07
12.303,-0.80,1.52,0.06,-7.20,3.87,-3.01,-1.16,-0.89,3.89,1019.07
12.308,-0.80,1.52,0.06,-7.20,3.87,-3.01,-1.16,-0.89,3.89,1018.81
12.35,-0.28,1.49,0.30,-7.20,3.87,-3.01,-1.16,-0.89,3.89,1018.81
12.35,0.26,1.37,0.54,-7.20,3.87,-3.01,-1.16,-0.89,3.89,1018.81
12.351,0.26,1.37,0.54,-7.20,3.87,-3.01,-1.16,-0.89,3.89,1018.45
12.365,0.26,1.37,0.54,-7.20,3.87,-3.01,-1.19,-2.04,5.49,1018.45
12.365,0.24,1.29,0.22,-7.20,3.87,-3.01,-1.19,-2.04,5.49,1018.45
12.374,0.02,0.68,0.16,-7.20,3.87,-3.01,-1.19,-2.04,5.49,1018.45
12.374,0.02,0.68,0.16,-14.16,7.83,-1.91,-1.19,-2.04,5.49,1018.45
12.416,1.08,0.32,0.25,-14.16,7.83,-1.91,-1.19,-2.04,5.49,1018.45
12.416,0.34,0.41,0.40,-14.16,7.83,-1.91,-1.19,-2.04,5.49,1018.45
12.428,0.34,0.41,0.40,-14.16,7.83,-1.91,-1.19,-2.04,5.49,1018.59
12.433,0.34,0.41,0.40,-14.16,7.83,-1.91,-0.79,-2.07,0.14,1018.59
12.443,-0.76,0.30,-0.12,-14.16,7.83,-1.91,-0.79,-2.07,0.14,1018.59
12.444,-0.76,0.30,-0.12,-4.80,4.42,2.68,-0.79,-2.07,0.14,1018.59
12.482,-0.37,0.37,-0.50,-4.80,4.42,2.68,-0.79,-2.07,0.14,1018.59
12.482,0.03,0.34,-0.33,-4.80,4.42,2.68,-0.79,-2.07,0.14,1018.59
12.502,0.03,0.34,-0.33,-4.80,4.42,2.68,-0.94,-1.14,-2.50,1018.59
12.503,0.11,0.36,-0.22,-4.80,4.42,2.68,-0.94,-1.14,-2.50,1018.59
12.508,0.11,0.36,-0.22,-4.80,4.42,2.68,-0.94,-1.14,-2.50,1018.71
12.513,0.02,0.55,-0.31,-4.80,4.42,2.68,-0.94,-1.14,-2.50,1018.71
12.513,0.02,0.55,-0.31,-3.55,-4.67,0.34,-0.94,-1.14,-2.50,1018.71
12.554,0.02,0.72,-0.48,-3.55,-4.67,0.34,-0.94,-1.14,-2.50,1018.71
12.555,0.02,0.72,-0.48,-3.55,-4.67,0.34,-0.94,-1.14,-2.50,1018.84
12.574,0.02,0.72,-0.48,-3.55,-4.67,0.34,-0.26,-1.09,-4.44,1018.84
12.575,0.01,0.81,-0.51,-3.55,-4.67,0.34,-0.26,-1.09,-4.44,1018.84
12.585,0.12,0.94,-0.55,-3.55,-4.67,0.34,-0.26,-1.09,-4.44,1018.84
12.585,0.12,0.94,-0.55,-1.72,-5.09,-3.36,-0.26,-1.09,-4.44,1018.84
12.616,0.20,1.09,-0.56,-1.72,-5.09,-3.36,-0.26,-1.09,-4.44,1018.84
12.617,0.09,1.20,-0.50,-1.72,-5.09,-3.36,-0.26,-1.09,-4.44,1018.84
12.629,0.09,1.20,-0.50,-1.72,-5.09,-3.36,-0.26,-1.09,-4.44,1019.03
12.643,-0.06,1.30,-0.46,-1.72,-5.09,-3.36,-0.26,-1.09,-4.44,1019.03
12.643,-0.06,1.30,-0.46,-1.72,-5.09,-3.36,0.28,0.02,-5.11,1019.03
12.653,-0.22,1.46,-0.49,-1.72,-5.09,-3.36,0.28,0.02,-5.11,1019.03
12.654,-0.22,1.46,-0.49,2.06,-0.77,-5.02,0.28,0.02,-5.11,1019.03
12.68,-0.13,1.69,-0.52,2.06,-0.77,-5.02,0.28,0.02,-5.11,1019.03
12.709,-0.13,1.69,-0.52,2.06,-0.77,-5.02,0.28,0.02,-5.11,1019.05
12.709,0.10,1.79,-0.41,2.06,-0.77,-5.02,0.28,0.02,-5.11,1019.05
12.712,0.10,1.79,-0.41,2.06,-0.77,-5.02,0.54,-0.84,-4.19,1019.05
12.723,0.21,1.78,-0.37,2.06,-0.77,-5.02,0.54,-0.84,-4.19,1019.05
12.724,0.21,1.78,-0.37,3.56,4.13,-4.52,0.54,-0.84,-4.19,1019.05
12.747,0.60,1.64,-0.16,3.56,4.13,-4.52,0.54,-0.84,-4.19,1019.05
12.748,0.60,1.64,-0.16,3.56,4.13,-4.52,0.54,-0.84,-4.19,1019.15
12.782,0.60,1.64,-0.16,3.56,4.13,-4.52,0.60,-1.36,-2.23,1019.15
12.783,1.19,1.42,0.01,3.56,4.13,-4.52,0.60,-1.36,-2.23,1019.15
12.783,1.92,1.13,0.28,3.56,4.13,-4.52,0.60,-1.36,-2.23,1019.15
12.793,1.05,0.94,0.10,3.56,4.13,-4.52,0.60,-1.36,-2.23,1019.15
12.793,1.05,0.94,0.10,5.89,8.98,-3.65,0.60,-1.36,-2.23,1019.15
12.814,-0.17,1.21,-0.26,5.89,8.98,-3.65,0.60,-1.36,-2.23,1019.15
12.828,-0.17,1.21,-0.26,5.89,8.98,-3.65,0.60,-1.36,-2.23,1019.05
12.853,-0.17,1.21,-0.26,5.89,8.98,-3.65,-0.41,-0.01,2.74,1019.05
12.853,0.32,1.17,0.09,5.89,8.98,-3.65,-0.41,-0.01,2.74,1019.05
12.864,-0.33,0.97,-0.47,5.89,8.98,-3.65,-0.41,-0.01,2.74,1019.05
12.864,-0.33,0.97,-0.47,15.23,2.95,0.85,-0.41,-0.01,2.74,1019.05
12.883,-0.28,0.99,0.21,15.23,2.95,0.85,-0.41,-0.01,2.74,1019.05
12.909,1.08,1.27,0.82,15.23,2.95,0.85,-0.41,-0.01,2.74,1019.05
12.909,1.08,1.27,0.82,15.23,2.95,0.85,-0.41,-0.01,2.74,1019.52
12.923,1.08,1.27,0.82,15.23,2.95,0.85,-0.56,0.66,2.25,1019.52
12.924,0.45,1.35,0.08,15.23,2.95,0.85,-0.56,0.66,2.25,1019.52
12.933,0.10,1.14,-0.57,15.23,2.95,0.85,-0.56,0.66,2.25,1019.52
12.934,0.10,1.14,-0.57,-0.24,1.18,-1.84,-0.56,0.66,2.25,1019.52
12.948,0.10,1.14,-0.57,-0.24,1.18,-1.84,-0.56,0.66,2.25,1019.59
12.993,0.10,1.14,-0.57,-0.24,1.18,-1.84,-0.33,0.18,0.45,1019.59
12.993,0.17,1.03,0.16,-0.24,1.18,-1.84,-0.33,0.18,0.45,1019.59
12.994,-0.05,0.98,0.05,-0.24,1.18,-1.84,-0.33,0.18,0.45,1019.59
13.003,-0.09,1.01,0.10,-0.24,1.18,-1.84,-0.33,0.18,0.45,1019.59
13.003,-0.09,1.01,0.10,5.91,2.87,0.80,-0.33,0.18,0.45,1019.59
13.014,-0.05,1.01,0.01,5.91,2.87,0.80,-0.33,0.18,0.45,1019.59
13.028,-0.05,1.01,0.01,5.91,2.87,0.80,-0.33,0.18,0.45,1019.24
13.063,-0.05,1.01,0.01,5.91,2.87,0.80,-0.10,0.06,0.22,1019.24
13.063,-0.09,0.97,0.12,5.91,2.87,0.80,-0.10,0.06,0.22,1019.24
13.063,-0.08,0.99,0.08,5.91,2.87,0.80,-0.10,0.06,0.22,1019.24
13.073,-0.06,1.01,0.00,5.91,2.87,0.80,-0.10,0.06,0.22,1019.24
13.074,-0.06,1.01,0.00,0.88,0.48,0.35,-0.10,0.06,0.22,1019.24
13.109,-0.06,1.00,0.02,0.88,0.48,0.35,-0.10,0.06,0.22,1019.24
13.109,-0.06,1.00,0.02,0.88,0.48,0.35,-0.10,0.06,0.22,1019.06
13.133,-0.06,1.00,0.02,0.88,0.48,0.35,-0.08,-0.01,0.11,1019.06
13.134,-0.07,0.99,0.03,0.88,0.48,0.35,-0.08,-0.01,0.11,1019.06
13.143,-0.07,0.99,0.03,0.12,0.34,-0.01,-0.08,-0.01,0.11,1019.06
13.144,-0.07,0.99,0.04,0.12,0.34,-0.01,-0.08,-0.01,0.11,1019.06
13.148,-0.07,0.99,0.04,0.12,0.34,-0.01,-0.08,-0.01,0.11,1018.96
13.206,-0.07,0.99,0.04,0.12,0.34,-0.01,-0.04,-0.06,0.06,1018.96
13.206,-0.07,0.98,0.08,0.12,0.34,-0.01,-0.04,-0.06,0.06,1018.96
13.207,-0.07,0.98,0.05,0.12,0.34,-0.01,-0.04,-0.06,0.06,1018.96
13.207,-0.07,0.97,0.07,0.12,0.34,-0.01,-0.04,-0.06,0.06,1018.96
13.213,-0.07,0.97,0.06,0.12,0.34,-0.01,-0.04,-0.06,0.06,1018.96
13.213,-0.07,0.97,0.06,0.09,0.32,-0.22,-0.04,-0.06,0.06,1018.96
13.228,-0.07,0.97,0.06,0.09,0.32,-0.22,-0.04,-0.06,0.06,1018.98
13.273,-0.07,0.97,0.06,0.09,0.32,-0.22,0.01,-0.10,0.05,1018.98
13.274,-0.06,0.97,0.08,0.09,0.32,-0.22,0.01,-0.10,0.05,1018.98
13.274,-0.07,0.98,0.04,0.09,0.32,-0.22,0.01,-0.10,0.05,1018.98
13.281,-0.11,0.96,0.09,0.09,0.32,-0.22,0.01,-0.10,0.05,1018.98
13.285,-0.11,0.96,0.09,0.05,0.17,0.04,0.01,-0.10,0.05,1018.98
13.308,-0.12,0.97,0.08,0.05,0.17,0.04,0.01,-0.10,0.05,1018.98
13.309,-0.12,0.97,0.08,0.05,0.17,0.04,0.01,-0.10,0.05,1019.03
13.343,-0.12,0.97,0.08,0.05,0.17,0.04,0.07,-0.09,0.17,1019.03
13.344,-0.10,0.98,0.05,0.05,0.17,0.04,0.07,-0.09,0.17,1019.03
13.344,-0.08,0.99,0.03,0.05,0.17,0.04,0.07,-0.09,0.17,1019.03
13.348,-0.08,0.99,0.03,0.05,0.17,0.04,0.07,-0.09,0.17,1019.06
13.353,-0.08,0.99,0.06,0.05,0.17,0.04,0.07,-0.09,0.17,1019.06
13.353,-0.08,0.99,0.06,-0.27,0.12,0.15,0.07,-0.09,0.17,1019.06
13.414,-0.08,0.99,0.06,-0.27,0.12,0.15,0.11,-0.11,0.27,1019.06
13.414,-0.07,0.99,0.06,-0.27,0.12,0.15,0.11,-0.11,0.27,1019.06
13.415,-0.08,0.99,0.05,-0.27,0.12,0.15,0.11,-0.11,0.27,1019.06
13.415,-0.09,1.00,0.05,-0.27,0.12,0.15,0.11,-0.11,0.27,1019.06
13.423,-0.09,1.00,0.05,-0.48,0.25,0.00,0.11,-0.11,0.27,1019.06
13.428,-0.09,1.00,0.05,-0.48,0.25,0.00,0.11,-0.11,0.27,1019.05
13.48,-0.11,0.99,0.08,-0.48,0.25,0.00,0.11,-0.11,0.27,1019.05
13.481,-0.12,1.02,0.05,-0.48,0.25,0.00,0.11,-0.11,0.27,1019.05
13.481,-0.10,1.05,-0.02,-0.48,0.25,0.00,0.11,-0.11,0.27,1019.05
13.485,-0.10,1.05,-0.02,-0.48,0.25,0.00,0.21,-0.19,0.53,1019.05
13.493,-0.15,1.10,-0.09,-0.48,0.25,0.00,0.21,-0.19,0.53,1019.05
13.494,-0.15,1.10,-0.09,-0.79,0.28,0.23,0.21,-0.19,0.53,1019.05
13.508,-0.15,1.10,-0.09,-0.79,0.28,0.23,0.21,-0.19,0.53,1019.09
13.535,-0.24,1.13,-0.04,-0.79,0.28,0.23,0.21,-0.19,0.53,1019.09
13.547,-0.28,1.19,-0.08,-0.79,0.28,0.23,0.21,-0.19,0.53,1019.09
13.548,-0.28,1.19,-0.08,-0.79,0.28,0.23,0.21,-0.19,0.53,1019.06
13.554,-0.28,1.19,-0.08,-0.79,0.28,0.23,-0.07,-0.22,1.32,1019.06
13.563,-0.28,1.19,-0.08,-2.15,0.89,-0.48,-0.07,-0.22,1.32,1019.06
13.563,-0.37,1.28,-0.16,-2.15,0.89,-0.48,-0.07,-0.22,1.32,1019.06
13.614,-0.46,1.41,-0.20,-2.15,0.89,-0.48,-0.07,-0.22,1.32,1019.06
13.615,-0.66,1.55,-0.34,-2.15,0.89,-0.48,-0.07,-0.22,1.32,1019.06
13.615,-0.99,1.54,-0.13,-2.15,0.89,-0.48,-0.07,-0.22,1.32,1019.06
13.623,-0.99,1.54,-0.13,-2.15,0.89,-0.48,-0.80,-0.55,3.41,1019.06
13.628,-0.99,1.54,-0.13,-2.15,0.89,-0.48,-0.80,-0.55,3.41,1018.94
13.636,-0.96,1.48,-0.01,-2.15,0.89,-0.48,-0.80,-0.55,3.41,1018.94
13.636,-0.96,1.48,-0.01,-6.43,3.17,-1.90,-0.80,-0.55,3.41,1018.94
13.68,-0.52,1.44,0.25,-6.43,3.17,-1.90,-0.80,-0.55,3.41,1018.94
13.681,0.21,1.40,0.51,-6.43,3.17,-1.90,-0.80,-0.55,3.41,1018.94
13.693,0.21,1.40,0.51,-6.43,3.17,-1.90,-0.92,-1.49,5.89,1018.94
13.703,0.28,1.37,0.29,-6.43,3.17,-1.90,-0.92,-1.49,5.89,1018.94
13.704,0.28,1.37,0.29,-14.44,8.01,-2.44,-0.92,-1.49,5.89,1018.94
13.708,0.28,1.37,0.29,-14.44,8.01,-2.44,-0.92,-1.49,5.89,1018.40
13.748,0.28,1.37,0.29,-14.44,8.01,-2.44,-0.92,-1.49,5.89,1018.46
13.749,-0.13,0.74,0.20,-14.44,8.01,-2.44,-0.92,-1.49,5.89,1018.46
13.749,1.12,0.43,0.18,-14.44,8.01,-2.44,-0.92,-1.49,5.89,1018.46
13.763,1.12,0.43,0.18,-14.44,8.01,-2.44,-0.46,-1.50,1.57,1018.46
13.764,0.65,0.71,0.25,-14.44,8.01,-2.44,-0.46,-1.50,1.57,1018.46
13.774,-0.81,0.23,0.00,-14.44,8.01,-2.44,-0.46,-1.50,1.57,1018.46
13.774,-0.81,0.23,0.00,-6.87,6.64,2.94,-0.46,-1.50,1.57,1018.46
13.814,-0.37,0.26,-0.16,-6.87,6.64,2.94,-0.46,-1.50,1.57,1018.46
13.814,-0.00,0.33,-0.17,-6.87,6.64,2.94,-0.46,-1.50,1.57,1018.46
13.828,-0.00,0.33,-0.17,-6.87,6.64,2.94,-0.46,-1.50,1.57,1018.78
13.833,-0.00,0.33,-0.17,-6.87,6.64,2.94,-0.28,-0.72,-2.30,1018.78
13.834,0.09,0.38,-0.12,-6.87,6.64,2.94,-0.28,-0.72,-2.30,1018.78
13.843,0.09,0.38,-0.12,-2.76,-3.25,1.27,-0.28,-0.72,-2.30,1018.78
13.88,-0.02,0.46,-0.16,-2.76,-3.25,1.27,-0.28,-0.72,-2.30,1018.78
13.881,-0.13,0.54,-0.17,-2.76,-3.25,1.27,-0.28,-0.72,-2.30,1018.78
13.903,-0.13,0.54,-0.17,-2.76,-3.25,1.27,-0.12,0.02,-4.51,1018.78
13.904,-0.13,0.72,-0.17,-2.76,-3.25,1.27,-0.12,0.02,-4.51,1018.78
13.908,-0.13,0.72,-0.17,-2.76,-3.25,1.27,-0.12,0.02,-4.51,1018.87
13.913,-0.02,0.94,-0.24,-2.76,-3.25,1.27,-0.12,0.02,-4.51,1018.87
13.914,-0.02,0.94,-0.24,-3.22,-5.54,-1.68,-0.12,0.02,-4.51,1018.87
13.948,0.03,1.14,-0.27,-3.22,-5.54,-1.68,-0.12,0.02,-4.51,1018.87
13.948,0.03,1.14,-0.27,-3.22,-5.54,-1.68,-0.12,0.02,-4.51,1018.91
13.974,0.03,1.14,-0.27,-3.22,-5.54,-1.68,0.26,0.11,-5.12,1018.91
13.974,-0.01,1.26,-0.30,-3.22,-5.54,-1.68,0.26,0.11,-5.12,1018.91
13.983,-0.08,1.42,-0.30,-3.22,-5.54,-1.68,0.26,0.11,-5.12,1018.91
13.984,-0.08,1.42,-0.30,-0.10,-2.31,-1.85,0.26,0.11,-5.12,1018.91
14.014,-0.07,1.60,-0.36,-0.10,-2.31,-1.85,0.26,0.11,-5.12,1018.91
14.014,-0.03,1.74,-0.34,-0.10,-2.31,-1.85,0.26,0.11,-5.12,1018.91
14.028,-0.03,1.74,-0.34,-0.10,-2.31,-1.85,0.26,0.11,-5.12,1018.89
14.043,-0.03,1.74,-0.34,-0.10,-2.31,-1.85,0.45,0.32,-4.12,1018.89
14.044,0.09,1.82,-0.32,-0.10,-2.31,-1.85,0.45,0.32,-4.12,1018.89
14.056,0.54,1.80,-0.11,-0.10,-2.31,-1.85,0.45,0.32,-4.12,1018.89
14.056,0.54,1.80,-0.11,2.88,4.18,-2.55,0.45,0.32,-4.12,1018.89
14.081,1.38,1.64,0.14,2.88,4.18,-2.55,0.45,0.32,-4.12,1018.89
14.109,1.55,1.34,0.17,2.88,4.18,-2.55,0.45,0.32,-4.12,1018.89
14.109,1.55,1.34,0.17,2.88,4.18,-2.55,0.45,0.32,-4.12,1019.06
14.112,1.55,1.34,0.17,2.88,4.18,-2.55,0.41,0.01,-2.83,1019.06
14.124,1.53,1.17,0.16,2.88,4.18,-2.55,0.41,0.01,-2.83,1019.06
14.124,1.53,1.17,0.16,6.15,9.20,-2.04,0.41,0.01,-2.83,1019.06
14.148,1.16,1.02,0.20,6.15,9.20,-2.04,0.41,0.01,-2.83,1019.06
14.148,1.16,1.02,0.20,6.15,9.20,-2.04,0.41,0.01,-2.83,1019.03
14.183,0.09,1.04,-0.08,6.15,9.20,-2.04,0.41,0.01,-2.83,1019.03
14.184,-0.03,1.32,-0.23,6.15,9.20,-2.04,0.41,0.01,-2.83,1019.03
14.184,-0.03,1.32,-0.23,6.15,9.20,-2.04,-0.40,-0.04,2.30,1019.03
14.194,-0.53,1.01,-0.27,6.15,9.20,-2.04,-0.40,-0.04,2.30,1019.03
14.195,-0.53,1.01,-0.27,16.84,4.12,1.83,-0.40,-0.04,2.30,1019.03
14.214,0.75,1.26,0.34,16.84,4.12,1.83,-0.40,-0.04,2.30,1019.03
14.228,0.75,1.26,0.34,16.84,4.12,1.83,-0.40,-0.04,2.30,1019.73
14.255,0.75,1.26,0.34,16.84,4.12,1.83,-0.71,0.58,2.14,1019.73
14.256,0.98,1.37,0.76,16.84,4.12,1.83,-0.71,0.58,2.14,1019.73
14.264,0.08,1.21,-0.58,16.84,4.12,1.83,-0.71,0.58,2.14,1019.73
14.264,0.08,1.21,-0.58,1.41,1.61,-1.41,-0.71,0.58,2.14,1019.73
14.281,0.19,1.05,-0.16,1.41,1.61,-1.41,-0.71,0.58,2.14,1019.73
14.309,0.19,1.05,-0.16,1.41,1.61,-1.41,-0.71,0.58,2.14,1019.48
14.309,-0.03,0.96,0.28,1.41,1.61,-1.41,-0.71,0.58,2.14,1019.48
14.323,-0.03,0.96,0.28,1.41,1.61,-1.41,-0.42,0.13,0.31,1019.48
14.323,-0.08,1.00,-0.01,1.41,1.61,-1.41,-0.42,0.13,0.31,1019.48
14.333,-0.14,0.98,0.09,1.41,1.61,-1.41,-0.42,0.13,0.31,1019.48
14.334,-0.14,0.98,0.09,6.33,2.96,0.62,-0.42,0.13,0.31,1019.48
14.348,-0.14,0.98,0.09,6.33,2.96,0.62,-0.42,0.13,0.31,1019.25
14.393,-0.14,0.98,0.09,6.33,2.96,0.62,-0.13,0.08,0.20,1019.25
14.394,-0.13,0.98,0.06,6.33,2.96,0.62,-0.13,0.08,0.20,1019.25
14.394,-0.11,0.98,0.08,6.33,2.96,0.62,-0.13,0.08,0.20,1019.25
14.405,-0.09,1.00,-0.01,6.33,2.96,0.62,-0.13,0.08,0.20,1019.25
14.406,-0.09,1.00,-0.01,0.66,0.36,0.70,-0.13,0.08,0.20,1019.25
14.414,-0.09,1.00,0.02,0.66,0.36,0.70,-0.13,0.08,0.20,1019.25
14.429,-0.09,1.00,0.02,0.66,0.36,0.70,-0.13,0.08,0.20,1019.11
14.464,-0.09,1.00,0.02,0.66,0.36,0.70,-0.10,-0.03,0.13,1019.11
14.464,-0.11,0.99,0.04,0.66,0.36,0.70,-0.10,-0.03,0.13,1019.11
14.464,-0.11,0.99,0.05,0.66,0.36,0.70,-0.10,-0.03,0.13,1019.11
14.474,-0.09,0.98,0.08,0.66,0.36,0.70,-0.10,-0.03,0.13,1019.11
14.474,-0.09,0.98,0.08,-0.17,0.39,-0.10,-0.10,-0.03,0.13,1019.11
14.508,-0.08,0.98,0.06,-0.17,0.39,-0.10,-0.10,-0.03,0.13,1019.11
14.509,-0.08,0.98,0.06,-0.17,0.39,-0.10,-0.10,-0.03,0.13,1019.04
14.534,-0.08,0.98,0.06,-0.17,0.39,-0.10,0.00,-0.06,0.10,1019.04
14.535,-0.09,0.98,0.05,-0.17,0.39,-0.10,0.00,-0.06,0.10,1019.04
14.543,-0.09,0.98,0.05,-0.17,0.39,-0.10,0.00,-0.06,0.10,1019.04
14.544,-0.09,0.98,0.05,-0.16,0.35,0.07,0.00,-0.06,0.10,1019.04
14.548,-0.09,0.98,0.05,-0.16,0.35,0.07,0.00,-0.06,0.10,1019.00
14.605,-0.09,0.98,0.05,-0.16,0.35,0.07,0.05,-0.08,0.12,1019.00
14.605,-0.11,0.97,0.06,-0.16,0.35,0.07,0.05,-0.08,0.12,1019.00
14.605,-0.10,0.97,0.05,-0.16,0.35,0.07,0.05,-0.08,0.12,1019.00
14.606,-0.11,0.98,0.04,-0.16,0.35,0.07,0.05,-0.08,0.12,1019.00
14.614,-0.11,0.98,0.04,-0.16,0.35,0.07,0.05,-0.08,0.12,1019.00
14.614,-0.11,0.98,0.04,-0.16,0.24,0.11,0.05,-0.08,0.12,1019.00
14.628,-0.11,0.98,0.04,-0.16,0.24,0.11,0.05,-0.08,0.12,1019.03
14.673,-0.11,0.98,0.04,-0.16,0.24,0.11,0.05,-0.08,0.12,1019.03
14.674,-0.10,0.98,0.03,-0.16,0.24,0.11,0.05,-0.08,0.12,1019.03
14.674,-0.10,0.98,0.03,-0.16,0.24,0.11,0.06,-0.07,0.22,1019.03
14.681,-0.08,0.99,0.03,-0.16,0.24,0.11,0.06,-0.07,0.22,1019.03
14.683,-0.08,0.99,0.03,-0.46,0.22,0.07,0.06,-0.07,0.22,1019.03
14.708,-0.10,0.99,0.06,-0.46,0.22,0.07,0.06,-0.07,0.22,1019.03
14.709,-0.10,0.99,0.06,-0.46,0.22,0.07,0.06,-0.07,0.22,1019.04
14.744,-0.10,0.99,0.06,-0.46,0.22,0.07,0.11,-0.11,0.33,1019.04
14.744,-0.11,0.99,0.05,-0.46,0.22,0.07,0.11,-0.11,0.33,1019.04
14.744,-0.09,1.01,0.02,-0.46,0.22,0.07,0.11,-0.11,0.33,1019.04
14.748,-0.09,1.01,0.02,-0.46,0.22,0.07,0.11,-0.11,0.33,1019.06
14.756,-0.12,1.04,0.01,-0.46,0.22,0.07,0.11,-0.11,0.33,1019.06
14.757,-0.12,1.04,0.01,-0.57,0.28,0.02,0.11,-0.11,0.33,1019.06
14.814,-0.12,1.04,0.01,-0.57,0.28,0.02,0.06,-0.18,0.78,1019.06
14.815,-0.19,1.06,-0.00,-0.57,0.28,0.02,0.06,-0.18,0.78,1019.06
14.815,-0.20,1.11,-0.06,-0.57,0.28,0.02,0.06,-0.18,0.78,1019.06
14.815,-0.33,1.15,-0.04,-0.57,0.28,0.02,0.06,-0.18,0.78,1019.06
14.824,-0.33,1.15,-0.04,-1.30,0.51,0.03,0.06,-0.18,0.78,1019.06
14.829,-0.33,1.15,-0.04,-1.30,0.51,0.03,0.06,-0.18,0.78,1019.08
14.843,-0.36,1.21,-0.06,-1.30,0.51,0.03,0.06,-0.18,0.78,1019.08
14.881,-0.39,1.29,-0.15,-1.30,0.51,0.03,0.06,-0.18,0.78,1019.08
14.881,-0.48,1.41,-0.23,-1.30,0.51,0.03,0.06,-0.18,0.78,1019.08
14.884,-0.48,1.41,-0.23,-1.30,0.51,0.03,-0.24,-0.29,2.18,1019.08
14.894,-0.70,1.51,-0.24,-1.30,0.51,0.03,-0.24,-0.29,2.18,1019.08
14.895,-0.70,1.51,-0.24,-4.27,1.72,-0.80,-0.24,-0.29,2.18,1019.08
14.91,-0.70,1.51,-0.24,-4.27,1.72,-0.80,-0.24,-0.29,2.18,1019.07
14.948,-1.04,1.49,-0.20,-4.27,1.72,-0.80,-0.24,-0.29,2.18,1019.07
14.948,-0.89,1.47,-0.06,-4.27,1.72,-0.80,-0.24,-0.29,2.18,1019.07
14.949,-0.89,1.47,-0.06,-4.27,1.72,-0.80,-0.24,-0.29,2.18,1018.57
14.953,-0.89,1.47,-0.06,-4.27,1.72,-0.80,-0.75,-0.73,4.97,1018.57
14.964,-0.42,1.40,0.27,-4.27,1.72,-0.80,-0.75,-0.73,4.97,1018.57
14.964,-0.42,1.40,0.27,-9.81,5.52,-2.55,-0.75,-0.73,4.97,1018.57
15.014,0.26,1.32,0.57,-9.81,5.52,-2.55,-0.75,-0.73,4.97,1018.57
15.014,0.20,1.28,0.48,-9.81,5.52,-2.55,-0.75,-0.73,4.97,1018.57
15.015,-0.55,0.73,0.23,-9.81,5.52,-2.55,-0.75,-0.73,4.97,1018.57
15.023,-0.55,0.73,0.23,-9.81,5.52,-2.55,-0.04,-0.63,5.82,1018.57
15.028,-0.55,0.73,0.23,-9.81,5.52,-2.55,-0.04,-0.63,5.82,1018.37
15.034,0.52,0.27,0.13,-9.81,5.52,-2.55,-0.04,-0.63,5.82,1018.37
15.035,0.52,0.27,0.13,-13.72,8.35,0.36,-0.04,-0.63,5.82,1018.37
15.081,2.43,1.02,0.12,-13.72,8.35,0.36,-0.04,-0.63,5.82,1018.37
15.081,-0.40,0.19,0.30,-13.72,8.35,0.36,-0.04,-0.63,5.82,1018.37
15.093,-0.40,0.19,0.30,-13.72,8.35,0.36,0.17,-0.11,-1.15,1018.37
15.104,-0.86,0.16,-0.01,-13.72,8.35,0.36,0.17,-0.11,-1.15,1018.37
15.104,-0.86,0.16,-0.01,-5.33,1.45,2.81,0.17,-0.11,-1.15,1018.37
15.11,-0.86,0.16,-0.01,-5.33,1.45,2.81,0.17,-0.11,-1.15,1018.66
15.148,-0.55,0.32,-0.08,-5.33,1.45,2.81,0.17,-0.11,-1.15,1018.66
15.148,0.25,0.43,0.08,-5.33,1.45,2.81,0.17,-0.11,-1.15,1018.66
15.148,0.25,0.43,0.08,-5.33,1.45,2.81,0.17,-0.11,-1.15,1018.90
15.164,0.25,0.43,0.08,-5.33,1.45,2.81,0.31,0.25,-3.42,1018.90
15.165,0.43,0.52,0.08,-5.33,1.45,2.81,0.31,0.25,-3.42,1018.90
15.174,-0.07,0.51,0.06,-5.33,1.45,2.81,0.31,0.25,-3.42,1018.90
15.175,-0.07,0.51,0.06,-2.04,-3.90,0.76,0.31,0.25,-3.42,1018.90
15.215,-0.32,0.68,-0.02,-2.04,-3.90,0.76,0.31,0.25,-3.42,1018.90
15.215,-0.13,0.90,-0.03,-2.04,-3.90,0.76,0.31,0.25,-3.42,1018.90
15.228,-0.13,0.90,-0.03,-2.04,-3.90,0.76,0.31,0.25,-3.42,1018.91
15.234,-0.13,0.90,-0.03,-2.04,-3.90,0.76,0.64,-0.29,-4.95,1018.91
15.244,0.11,1.09,-0.04,-2.04,-3.90,0.76,0.64,-0.29,-4.95,1018.91
15.244,0.11,1.09,-0.04,-0.08,-4.39,0.70,0.64,-0.29,-4.95,1018.91
15.282,0.14,1.19,-0.10,-0.08,-4.39,0.70,0.64,-0.29,-4.95,1018.91
15.282,-0.04,1.32,-0.16,-0.08,-4.39,0.70,0.64,-0.29,-4.95,1018.91
15.304,-0.04,1.32,-0.16,-0.08,-4.39,0.70,0.35,0.21,-4.53,1018.91
15.304,-0.18,1.51,-0.23,-0.08,-4.39,0.70,0.35,0.21,-4.53,1018.91
15.308,-0.18,1.51,-0.23,-0.08,-4.39,0.70,0.35,0.21,-4.53,1018.94
15.314,0.01,1.78,-0.26,-0.08,-4.39,0.70,0.35,0.21,-4.53,1018.94
15.314,0.01,1.78,-0.26,0.76,0.14,-0.06,0.35,0.21,-4.53,1018.94
15.348,0.58,1.80,-0.03,0.76,0.14,-0.06,0.35,0.21,-4.53,1018.94
15.349,0.58,1.80,-0.03,0.76,0.14,-0.06,0.35,0.21,-4.53,1018.99
15.374,0.58,1.80,-0.03,0.76,0.14,-0.06,0.00,1.07,-3.98,1018.99
15.374,0.83,1.63,0.11,0.76,0.14,-0.06,0.00,1.07,-3.98,1018.99
15.384,0.88,1.49,0.07,0.76,0.14,-0.06,0.00,1.07,-3.98,1018.99
15.384,0.88,1.49,0.07,3.33,6.25,-1.34,0.00,1.07,-3.98,1018.99
15.415,1.04,1.37,0.14,3.33,6.25,-1.34,0.00,1.07,-3.98,1018.99
15.415,1.59,1.26,0.37,3.33,6.25,-1.34,0.00,1.07,-3.98,1018.99
15.428,1.59,1.26,0.37,3.33,6.25,-1.34,0.00,1.07,-3.98,1019.18
15.444,1.59,1.26,0.37,3.33,6.25,-1.34,0.20,0.61,-1.81,1019.18
15.444,1.54,1.14,0.24,3.33,6.25,-1.34,0.20,0.61,-1.81,1019.18
15.454,0.59,1.03,-0.04,3.33,6.25,-1.34,0.20,0.61,-1.81,1019.18
15.454,0.59,1.03,-0.04,11.90,7.55,1.36,0.20,0.61,-1.81,1019.18
15.48,-0.36,1.59,-0.20,11.90,7.55,1.36,0.20,0.61,-1.81,1019.18
15.509,-0.48,0.80,-0.56,11.90,7.55,1.36,0.20,0.61,-1.81,1019.18
15.512,-0.48,0.80,-0.56,11.90,7.55,1.36,0.20,0.61,-1.81,1019.11
15.513,-0.48,0.80,-0.56,11.90,7.55,1.36,-1.12,0.71,3.19,1019.11
15.525,-0.77,0.86,0.12,11.90,7.55,1.36,-1.12,0.71,3.19,1019.11
15.525,-0.77,0.86,0.12,13.78,2.49,1.95,-1.12,0.71,3.19,1019.11
15.548,1.50,1.32,0.53,13.78,2.49,1.95,-1.12,0.71,3.19,1019.11
15.549,1.50,1.32,0.53,13.78,2.49,1.95,-1.12,0.71,3.19,1019.95
15.583,1.50,1.32,0.53,13.78,2.49,1.95,-0.55,0.66,1.36,1019.95
15.584,0.70,1.54,0.30,13.78,2.49,1.95,-0.55,0.66,1.36,1019.95
15.584,-0.28,1.05,-0.73,13.78,2.49,1.95,-0.55,0.66,1.36,1019.95
15.594,0.19,1.05,0.03,13.78,2.49,1.95,-0.55,0.66,1.36,1019.95
15.594,0.19,1.05,0.03,-1.05,1.93,-1.78,-0.55,0.66,1.36,1019.95
15.615,-0.12,0.97,0.11,-1.05,1.93,-1.78,-0.55,0.66,1.36,1019.95
15.628,-0.12,0.97,0.11,-1.05,1.93,-1.78,-0.55,0.66,1.36,1019.37
15.654,-0.12,0.97,0.11,-1.05,1.93,-1.78,-0.38,0.05,0.31,1019.37
15.654,-0.09,1.01,0.06,-1.05,1.93,-1.78,-0.38,0.05,0.31,1019.37
15.664,-0.09,0.99,0.07,-1.05,1.93,-1.78,-0.38,0.05,0.31,1019.37
15.664,-0.09,0.99,0.07,4.66,2.71,0.10,-0.38,0.05,0.31,1019.37
15.681,-0.05,0.96,0.12,4.66,2.71,0.10,-0.38,0.05,0.31,1019.37
15.709,-0.06,0.99,0.02,4.66,2.71,0.10,-0.38,0.05,0.31,1019.37
15.71,-0.06,0.99,0.02,4.66,2.71,0.10,-0.38,0.05,0.31,1019.10
15.726,-0.06,0.99,0.02,4.66,2.71,0.10,-0.10,0.03,0.13,1019.10
15.727,-0.08,1.00,-0.02,4.66,2.71,0.10,-0.10,0.03,0.13,1019.10
15.734,-0.10,0.99,0.02,4.66,2.71,0.10,-0.10,0.03,0.13,1019.10
15.734,-0.10,0.99,0.02,-0.01,0.42,0.56,-0.10,0.03,0.13,1019.10
15.748,-0.10,0.99,0.02,-0.01,0.42,0.56,-0.10,0.03,0.13,1019.00
15.794,-0.10,0.99,0.02,-0.01,0.42,0.56,-0.06,-0.03,0.08,1019.00
15.794,-0.12,0.98,0.05,-0.01,0.42,0.56,-0.06,-0.03,0.08,1019.00
15.794,-0.12,0.98,0.06,-0.01,0.42,0.56,-0.06,-0.03,0.08,1019.00
15.805,-0.12,0.97,0.06,-0.01,0.42,0.56,-0.06,-0.03,0.08,1019.00
15.805,-0.12,0.97,0.06,0.12,0.47,-0.11,-0.06,-0.03,0.08,1019.00
15.815,-0.11,0.98,0.03,0.12,0.47,-0.11,-0.06,-0.03,0.08,1019.00
15.829,-0.11,0.98,0.03,0.12,0.47,-0.11,-0.06,-0.03,0.08,1018.98
15.864,-0.11,0.98,0.03,0.12,0.47,-0.11,0.02,-0.05,0.16,1018.98
15.864,-0.12,0.98,0.04,0.12,0.47,-0.11,0.02,-0.05,0.16,1018.98
15.864,-0.14,0.98,0.05,0.12,0.47,-0.11,0.02,-0.05,0.16,1018.98
15.876,-0.11,0.97,0.05,0.12,0.47,-0.11,0.02,-0.05,0.16,1018.98
15.876,-0.11,0.97,0.05,-0.43,0.31,0.21,0.02,-0.05,0.16,1018.98
15.909,-0.11,0.97,0.06,-0.43,0.31,0.21,0.02,-0.05,0.16,1018.98
15.909,-0.11,0.97,0.06,-0.43,0.31,0.21,0.02,-0.05,0.16,1019.03
15.934,-0.11,0.97,0.06,-0.43,0.31,0.21,0.09,-0.05,0.27,1019.03
15.935,-0.10,0.98,0.06,-0.43,0.31,0.21,0.09,-0.05,0.27,1019.03
15.944,-0.07,0.98,0.03,-0.43,0.31,0.21,0.09,-0.05,0.27,1019.03
15.945,-0.07,0.98,0.03,-0.59,0.30,0.13,0.09,-0.05,0.27,1019.03
15.948,-0.07,0.98,0.03,-0.59,0.30,0.13,0.09,-0.05,0.27,1019.08
16.004,-0.07,0.98,0.03,-0.59,0.30,0.13,0.16,-0.08,0.28,1019.08
16.004,-0.06,0.98,0.02,-0.59,0.30,0.13,0.16,-0.08,0.28,1019.08
16.005,-0.06,0.99,0.03,-0.59,0.30,0.13,0.16,-0.08,0.28,1019.08
16.005,-0.09,0.99,0.05,-0.59,0.30,0.13,0.16,-0.08,0.28,1019.08
16.014,-0.10,1.00,0.02,-0.59,0.30,0.13,0.16,-0.08,0.28,1019.08
16.015,-0.10,1.00,0.02,-0.46,0.30,0.28,0.16,-0.08,0.28,1019.08
16.028,-0.10,1.00,0.02,-0.46,0.30,0.28,0.16,-0.08,0.28,1019.15
16.074,-0.13,1.02,-0.01,-0.46,0.30,0.28,0.16,-0.08,0.28,1019.15
16.075,-0.13,1.06,-0.06,-0.46,0.30,0.28,0.16,-0.08,0.28,1019.15
16.075,-0.13,1.06,-0.06,-0.46,0.30,0.28,0.18,-0.13,0.53,1019.15
16.08,-0.20,1.08,-0.08,-0.46,0.30,0.28,0.18,-0.13,0.53,1019.15
16.085,-0.20,1.08,-0.08,-0.79,0.41,0.25,0.18,-0.13,0.53,1019.15
16.111,-0.21,1.12,-0.11,-0.79,0.41,0.25,0.18,-0.13,0.53,1019.15
16.111,-0.21,1.12,-0.11,-0.79,0.41,0.25,0.18,-0.13,0.53,1019.14
16.144,-0.26,1.13,-0.03,-0.79,0.41,0.25,0.18,-0.13,0.53,1019.14
16.144,-0.31,1.21,-0.08,-0.79,0.41,0.25,0.18,-0.13,0.53,1019.14
16.145,-0.31,1.21,-0.08,-0.79,0.41,0.25,-0.05,-0.13,1.37,1019.14
16.154,-0.31,1.21,-0.08,-0.79,0.41,0.25,-0.05,-0.13,1.37,1019.08
16.154,-0.38,1.30,-0.14,-0.79,0.41,0.25,-0.05,-0.13,1.37,1019.08
16.155,-0.38,1.30,-0.14,-2.46,1.13,-0.68,-0.05,-0.13,1.37,1019.08
16.214,-0.38,1.30,-0.14,-2.46,1.13,-0.68,-0.36,-0.44,3.23,1019.08
16.215,-0.49,1.42,-0.20,-2.46,1.13,-0.68,-0.36,-0.44,3.23,1019.08
16.215,-0.72,1.49,-0.19,-2.46,1.13,-0.68,-0.36,-0.44,3.23,1019.08
16.216,-0.97,1.47,-0.15,-2.46,1.13,-0.68,-0.36,-0.44,3.23,1019.08
16.224,-0.97,1.47,-0.15,-6.17,2.99,-1.16,-0.36,-0.44,3.23,1019.08
16.228,-0.97,1.47,-0.15,-6.17,2.99,-1.16,-0.36,-0.44,3.23,1018.82
16.281,-0.80,1.43,0.01,-6.17,2.99,-1.16,-0.36,-0.44,3.23,1018.82
16.281,-0.22,1.46,0.25,-6.17,2.99,-1.16,-0.36,-0.44,3.23,1018.82
16.281,0.30,1.39,0.53,-6.17,2.99,-1.16,-0.36,-0.44,3.23,1018.82
16.284,0.30,1.39,0.53,-6.17,2.99,-1.16,-0.42,-0.89,5.68,1018.82
16.295,0.24,1.34,0.46,-6.17,2.99,-1.16,-0.42,-0.89,5.68,1018.82
16.295,0.24,1.34,0.46,-13.45,7.34,-1.74,-0.42,-0.89,5.68,1018.82
16.312,0.24,1.34,0.46,-13.45,7.34,-1.74,-0.42,-0.89,5.68,1018.39
16.349,0.24,1.34,0.46,-13.45,7.34,-1.74,-0.42,-0.89,5.68,1018.52
16.349,-0.16,0.66,0.19,-13.45,7.34,-1.74,-0.42,-0.89,5.68,1018.52
16.35,1.56,0.75,0.17,-13.45,7.34,-1.74,-0.42,-0.89,5.68,1018.52
16.353,1.56,0.75,0.17,-13.45,7.34,-1.74,0.00,-0.19,2.45,1018.52
16.364,0.42,0.52,0.33,-13.45,7.34,-1.74,0.00,-0.19,2.45,1018.52
16.365,0.42,0.52,0.33,-6.79,7.24,3.38,0.00,-0.19,2.45,1018.52
16.414,-0.66,0.28,0.13,-6.79,7.24,3.38,0.00,-0.19,2.45,1018.52
16.415,-0.51,0.28,-0.06,-6.79,7.24,3.38,0.00,-0.19,2.45,1018.52
16.415,-0.10,0.27,0.03,-6.79,7.24,3.38,0.00,-0.19,2.45,1018.52
16.424,-0.10,0.27,0.03,-6.79,7.24,3.38,-0.06,0.63,-1.80,1018.52
16.429,-0.10,0.27,0.03,-6.79,7.24,3.38,-0.06,0.63,-1.80,1018.75
16.434,0.14,0.33,0.11,-6.79,7.24,3.38,-0.06,0.63,-1.80,1018.75
16.434,0.14,0.33,0.11,-1.45,-1.53,1.72,-0.06,0.63,-1.80,1018.75
16.48,0.05,0.41,0.07,-1.45,-1.53,1.72,-0.06,0.63,-1.80,1018.75
16.481,-0.12,0.54,-0.02,-1.45,-1.53,1.72,-0.06,0.63,-1.80,1018.75
16.494,-0.12,0.54,-0.02,-1.45,-1.53,1.72,0.33,0.52,-4.08,1018.75
16.504,-0.10,0.68,-0.03,-1.45,-1.53,1.72,0.33,0.52,-4.08,1018.75
16.504,-0.10,0.68,-0.03,-5.40,-5.64,-0.19,0.33,0.52,-4.08,1018.75
16.509,-0.10,0.68,-0.03,-5.40,-5.64,-0.19,0.33,0.52,-4.08,1018.88
16.533,-0.00,0.84,-0.02,-5.40,-5.64,-0.19,0.33,0.52,-4.08,1018.88
16.547,0.06,1.03,-0.04,-5.40,-5.64,-0.19,0.33,0.52,-4.08,1018.88
16.547,0.06,1.03,-0.04,-5.40,-5.64,-0.19,0.33,0.52,-4.08,1018.91
16.564,0.06,1.03,-0.04,-5.40,-5.64,-0.19,0.60,0.29,-4.90,1018.91
16.565,0.02,1.19,-0.08,-5.40,-5.64,-0.19,0.60,0.29,-4.90,1018.91
16.576,-0.04,1.36,-0.10,-5.40,-5.64,-0.19,0.60,0.29,-4.90,1018.91
16.576,-0.04,1.36,-0.10,-0.57,-3.40,-0.12,0.60,0.29,-4.90,1018.91
16.615,0.07,1.62,-0.15,-0.57,-3.40,-0.12,0.60,0.29,-4.90,1018.91
16.615,-0.25,1.67,-0.03,-0.57,-3.40,-0.12,0.60,0.29,-4.90,1018.91
16.628,-0.25,1.67,-0.03,-0.57,-3.40,-0.12,0.60,0.29,-4.90,1018.91
16.635,-0.25,1.67,-0.03,-0.57,-3.40,-0.12,0.53,0.54,-4.57,1018.91
16.644,-0.01,2.02,-0.22,-0.57,-3.40,-0.12,0.53,0.54,-4.57,1018.91
16.645,-0.01,2.02,-0.22,2.80,2.56,-0.39,0.53,0.54,-4.57,1018.91
16.664,0.58,1.99,-0.09,2.80,2.56,-0.39,0.53,0.54,-4.57,1018.91
16.682,1.14,1.71,0.11,2.80,2.56,-0.39,0.53,0.54,-4.57,1018.91
16.704,1.14,1.71,0.11,2.80,2.56,-0.39,0.32,0.32,-3.54,1018.91
16.704,1.54,1.38,0.21,2.80,2.56,-0.39,0.32,0.32,-3.54,1018.91
16.708,1.54,1.38,0.21,2.80,2.56,-0.39,0.32,0.32,-3.54,1019.10
16.714,1.56,1.41,0.31,2.80,2.56,-0.39,0.32,0.32,-3.54,1019.10
16.715,1.56,1.41,0.31,4.51,9.69,-0.87,0.32,0.32,-3.54,1019.10
16.747,0.98,0.91,-0.02,4.51,9.69,-0.87,0.32,0.32,-3.54,1019.10
16.747,0.98,0.91,-0.02,4.51,9.69,-0.87,0.32,0.32,-3.54,1019.01
16.774,0.64,0.75,0.13,4.51,9.69,-0.87,0.32,0.32,-3.54,1019.01
16.775,0.64,0.75,0.13,4.51,9.69,-0.87,-0.27,-0.10,2.18,1019.01
16.784,0.08,1.48,-0.46,4.51,9.69,-0.87,-0.27,-0.10,2.18,1019.01
16.785,0.08,1.48,-0.46,15.39,6.43,1.95,-0.27,-0.10,2.18,1019.01
16.814,0.49,1.50,0.28,15.39,6.43,1.95,-0.27,-0.10,2.18,1019.01
16.828,0.32,1.12,0.04,15.39,6.43,1.95,-0.27,-0.10,2.18,1019.01
16.829,0.32,1.12,0.04,15.39,6.43,1.95,-0.27,-0.10,2.18,1019.72
16.845,0.32,1.12,0.04,15.39,6.43,1.95,-0.62,0.75,1.79,1019.72
16.845,0.59,1.34,0.36,15.39,6.43,1.95,-0.62,0.75,1.79,1019.72
16.855,-0.25,1.01,-0.61,15.39,6.43,1.95,-0.62,0.75,1.79,1019.72
16.856,-0.25,1.01,-0.61,5.97,1.90,-0.12,-0.62,0.75,1.79,1019.72
16.88,0.21,1.05,0.21,5.97,1.90,-0.12,-0.62,0.75,1.79,1019.72
16.909,-0.25,0.95,0.06,5.97,1.90,-0.12,-0.62,0.75,1.79,1019.72
16.909,-0.25,0.95,0.06,5.97,1.90,-0.12,-0.62,0.75,1.79,1019.50
16.914,-0.25,0.95,0.06,5.97,1.90,-0.12,-0.41,0.20,0.45,1019.50
16.925,-0.06,1.01,0.05,5.97,1.90,-0.12,-0.41,0.20,0.45,1019.50
16.925,-0.06,1.01,0.05,4.66,2.51,-0.96,-0.41,0.20,0.45,1019.50
16.948,-0.11,1.00,0.02,4.66,2.51,-0.96,-0.41,0.20,0.45,1019.50
16.949,-0.11,1.00,0.02,4.66,2.51,-0.96,-0.41,0.20,0.45,1019.25
16.984,-0.11,0.99,0.05,4.66,2.51,-0.96,-0.41,0.20,0.45,1019.25
16.985,-0.10,1.00,0.04,4.66,2.51,-0.96,-0.41,0.20,0.45,1019.25
16.985,-0.10,1.00,0.04,4.66,2.51,-0.96,-0.19,0.05,0.22,1019.25
16.996,-0.12,0.99,0.05,4.66,2.51,-0.96,-0.19,0.05,0.22,1019.25
16.996,-0.12,0.99,0.05,0.60,0.61,0.48,-0.19,0.05,0.22,1019.25
17.028,-0.12,0.99,0.07,0.60,0.61,0.48,-0.19,0.05,0.22,1019.25
17.029,-0.12,0.99,0.07,0.60,0.61,0.48,-0.19,0.05,0.22,1019.07
17.055,-0.12,0.98,0.06,0.60,0.61,0.48,-0.19,0.05,0.22,1019.07
17.055,-0.12,0.98,0.06,0.60,0.61,0.48,-0.06,-0.02,0.15,1019.07
17.065,-0.10,0.98,0.05,0.60,0.61,0.48,-0.06,-0.02,0.15,1019.07
17.066,-0.10,0.98,0.05,-0.14,0.51,0.11,-0.06,-0.02,0.15,1019.07
17.081,-0.10,0.98,0.04,-0.14,0.51,0.11,-0.06,-0.02,0.15,1019.07
17.11,-0.10,0.97,0.05,-0.14,0.51,0.11,-0.06,-0.02,0.15,1019.07
17.111,-0.10,0.97,0.05,-0.14,0.51,0.11,-0.06,-0.02,0.15,1019.02
17.125,-0.11,0.96,0.06,-0.14,0.51,0.11,-0.06,-0.02,0.15,1019.02
17.125,-0.11,0.96,0.06,-0.14,0.51,0.11,0.01,-0.03,0.12,1019.02
17.135,-0.11,0.96,0.06,-0.14,0.51,0.11,0.01,-0.03,0.12,1019.02
17.136,-0.11,0.96,0.06,-0.23,0.40,0.18,0.01,-0.03,0.12,1019.02
17.149,-0.11,0.96,0.06,-0.23,0.40,0.18,0.01,-0.03,0.12,1019.00
17.195,-0.11,0.96,0.06,-0.23,0.40,0.18,0.09,-0.04,0.17,1019.00
17.196,-0.12,0.96,0.07,-0.23,0.40,0.18,0.09,-0.04,0.17,1019.00
17.197,-0.13,0.97,0.05,-0.23,0.40,0.18,0.09,-0.04,0.17,1019.00
17.205,-0.10,0.98,0.02,-0.23,0.40,0.18,0.09,-0.04,0.17,1019.00
17.206,-0.10,0.98,0.02,-0.29,0.22,0.22,0.09,-0.04,0.17,1019.00
17.23,-0.11,0.98,0.04,-0.29,0.22,0.22,0.09,-0.04,0.17,1019.00
17.231,-0.11,0.98,0.04,-0.29,0.22,0.22,0.09,-0.04,0.17,1019.07
17.264,-0.11,0.98,0.04,-0.29,0.22,0.22,0.15,-0.04,0.25,1019.07
17.265,-0.11,0.98,0.06,-0.29,0.22,0.22,0.15,-0.04,0.25,1019.07
17.265,-0.09,0.99,0.05,-0.29,0.22,0.22,0.15,-0.04,0.25,1019.07
17.275,-0.09,0.99,0.03,-0.29,0.22,0.22,0.15,-0.04,0.25,1019.07
17.275,-0.09,0.99,0.03,-0.57,0.28,0.23,0.15,-0.04,0.25,1019.07
17.308,-0.10,0.99,0.04,-0.57,0.28,0.23,0.15,-0.04,0.25,1019.07
17.309,-0.10,0.99,0.04,-0.57,0.28,0.23,0.15,-0.04,0.25,1019.08
17.335,-0.10,0.99,0.04,-0.57,0.28,0.23,0.24,-0.10,0.35,1019.08
17.336,-0.11,1.00,0.03,-0.57,0.28,0.23,0.24,-0.10,0.35,1019.08
17.35,-0.12,1.02,-0.00,-0.57,0.28,0.23,0.24,-0.10,0.35,1019.08
17.35,-0.12,1.02,-0.00,-0.61,0.36,0.36,0.24,-0.10,0.35,1019.08
17.351,-0.12,1.02,-0.00,-0.61,0.36,0.36,0.24,-0.10,0.35,1019.11
17.405,-0.12,1.02,-0.00,-0.61,0.36,0.36,0.15,-0.11,0.73,1019.11
17.405,-0.13,1.03,-0.05,-0.61,0.36,0.36,0.15,-0.11,0.73,1019.11
17.406,-0.15,1.06,-0.07,-0.61,0.36,0.36,0.15,-0.11,0.73,1019.11
17.406,-0.20,1.09,-0.07,-0.61,0.36,0.36,0.15,-0.11,0.73,1019.11
17.415,-0.22,1.10,-0.05,-0.61,0.36,0.36,0.15,-0.11,0.73,1019.11
17.415,-0.22,1.10,-0.05,-1.32,0.52,0.15,0.15,-0.11,0.73,1019.11
17.429,-0.22,1.10,-0.05,-1.32,0.52,0.15,0.15,-0.11,0.73,1019.14
17.467,-0.26,1.18,-0.10,-1.32,0.52,0.15,0.15,-0.11,0.73,1019.14
17.468,-0.34,1.25,-0.14,-1.32,0.52,0.15,0.15,-0.11,0.73,1019.14
17.477,-0.34,1.25,-0.14,-1.32,0.52,0.15,-0.11,-0.09,1.72,1019.14
17.485,-0.40,1.33,-0.12,-1.32,0.52,0.15,-0.11,-0.09,1.72,1019.14
17.485,-0.40,1.33,-0.12,-3.14,1.35,-0.71,-0.11,-0.09,1.72,1019.14
17.508,-0.61,1.43,-0.18,-3.14,1.35,-0.71,-0.11,-0.09,1.72,1019.14
17.509,-0.61,1.43,-0.18,-3.14,1.35,-0.71,-0.11,-0.09,1.72,1019.09
17.533,-0.80,1.47,-0.09,-3.14,1.35,-0.71,-0.11,-0.09,1.72,1019.09
17.549,-1.00,1.42,-0.00,-3.14,1.35,-0.71,-0.11,-0.09,1.72,1019.09
17.549,-1.00,1.42,-0.00,-3.14,1.35,-0.71,-0.52,-0.71,4.00,1019.09
17.55,-1.00,1.42,-0.00,-3.14,1.35,-0.71,-0.52,-0.71,4.00,1019.01
17.555,-1.00,1.42,-0.00,-7.58,4.10,-1.52,-0.52,-0.71,4.00,1019.01
17.555,-0.62,1.47,0.03,-7.58,4.10,-1.52,-0.52,-0.71,4.00,1019.01
17.615,-0.09,1.44,0.31,-7.58,4.10,-1.52,-0.52,-0.71,4.00,1019.01
17.615,0.22,1.27,0.39,-7.58,4.10,-1.52,-0.52,-0.71,4.00,1019.01
17.615,0.11,1.11,0.28,-7.58,4.10,-1.52,-0.52,-0.71,4.00,1019.01
17.616,0.11,1.11,0.28,-7.58,4.10,-1.52,-0.27,-1.28,5.85,1019.01
17.626,0.11,1.11,0.28,-14.48,7.92,-0.26,-0.27,-1.28,5.85,1019.01
17.635,0.11,1.11,0.28,-14.48,7.92,-0.26,-0.27,-1.28,5.85,1018.45
17.683,0.02,0.20,0.19,-14.48,7.92,-0.26,-0.27,-1.28,5.85,1018.45
17.683,2.37,1.06,0.05,-14.48,7.92,-0.26,-0.27,-1.28,5.85,1018.45
17.684,-0.10,0.29,0.34,-14.48,7.92,-0.26,-0.27,-1.28,5.85,1018.45
17.684,-0.10,0.29,0.34,-14.48,7.92,-0.26,-0.15,-0.28,0.72,1018.45
17.695,-0.65,0.28,-0.05,-14.48,7.92,-0.26,-0.15,-0.28,0.72,1018.45
17.696,-0.65,0.28,-0.05,-5.99,4.84,2.91,-0.15,-0.28,0.72,1018.45
17.708,-0.65,0.28,-0.05,-5.99,4.84,2.91,-0.15,-0.28,0.72,1018.44
17.747,-0.29,0.24,-0.02,-5.99,4.84,2.91,-0.15,-0.28,0.72,1018.44
17.747,0.10,0.27,0.09,-5.99,4.84,2.91,-0.15,-0.28,0.72,1018.44
17.748,0.10,0.27,0.09,-5.99,4.84,2.91,-0.15,-0.28,0.72,1018.71
17.755,0.10,0.27,0.09,-5.99,4.84,2.91,-0.40,0.63,-2.55,1018.71
17.764,0.10,0.34,0.02,-5.99,4.84,2.91,-0.40,0.63,-2.55,1018.71
17.765,0.10,0.34,0.02,-0.33,-3.17,0.97,-0.40,0.63,-2.55,1018.71
17.815,-0.12,0.43,-0.11,-0.33,-3.17,0.97,-0.40,0.63,-2.55,1018.71
17.815,-0.17,0.56,-0.13,-0.33,-3.17,0.97,-0.40,0.63,-2.55,1018.71
17.825,-0.04,0.72,-0.13,-0.33,-3.17,0.97,-0.40,0.63,-2.55,1018.71
17.826,-0.04,0.72,-0.13,-0.33,-3.17,0.97,0.01,0.02,-4.55,1018.71
17.829,-0.04,0.72,-0.13,-0.33,-3.17,0.97,0.01,0.02,-4.55,1018.82
17.835,0.05,0.94,-0.20,-0.33,-3.17,0.97,0.01,0.02,-4.55,1018.82
17.836,0.05,0.94,-0.20,-2.70,-5.81,-0.22,0.01,0.02,-4.55,1018.82
17.891,0.10,1.14,-0.25,-2.70,-5.81,-0.22,0.01,0.02,-4.55,1018.82
17.892,0.07,1.25,-0.27,-2.70,-5.81,-0.22,0.01,0.02,-4.55,1018.82
17.895,0.07,1.25,-0.27,-2.70,-5.81,-0.22,0.23,-0.11,-4.91,1018.82
17.905,-0.02,1.40,-0.26,-2.70,-5.81,-0.22,0.23,-0.11,-4.91,1018.82
17.906,-0.02,1.40,-0.26,0.08,-2.15,-1.64,0.23,-0.11,-4.91,1018.82
17.908,-0.02,1.40,-0.26,0.08,-2.15,-1.64,0.23,-0.11,-4.91,1018.87
17.951,-0.02,1.40,-0.26,0.08,-2.15,-1.64,0.23,-0.11,-4.91,1018.91
17.952,-0.05,1.53,-0.25,0.08,-2.15,-1.64,0.23,-0.11,-4.91,1018.91
17.952,-0.10,1.65,-0.21,0.08,-2.15,-1.64,0.23,-0.11,-4.91,1018.91
17.965,-0.10,1.65,-0.21,0.08,-2.15,-1.64,0.12,-0.19,-4.01,1018.91
17.965,0.09,1.82,-0.22,0.08,-2.15,-1.64,0.12,-0.19,-4.01,1018.91
17.975,0.50,1.79,-0.16,0.08,-2.15,-1.64,0.12,-0.19,-4.01,1018.91
17.975,0.50,1.79,-0.16,3.42,4.15,-2.65,0.12,-0.19,-4.01,1018.91
18.014,0.70,1.60,-0.13,3.42,4.15,-2.65,0.12,-0.19,-4.01,1018.91
18.029,1.00,1.26,0.16,3.42,4.15,-2.65,0.12,-0.19,-4.01,1018.91
18.029,1.00,1.26,0.16,3.42,4.15,-2.65,0.12,-0.19,-4.01,1018.98
18.035,1.00,1.26,0.16,3.42,4.15,-2.65,0.68,-0.92,-2.92,1018.98
18.045,1.59,1.08,0.39,3.42,4.15,-2.65,0.68,-0.92,-2.92,1018.98
18.046,1.59,1.08,0.39,5.73,8.89,-1.90,0.68,-0.92,-2.92,1018.98
18.08,0.52,1.20,-0.04,5.73,8.89,-1.90,0.68,-0.92,-2.92,1018.98
18.081,0.74,0.70,-0.33,5.73,8.89,-1.90,0.68,-0.92,-2.92,1018.98
18.105,0.74,0.70,-0.33,5.73,8.89,-1.90,-0.20,-0.11,2.86,1018.98
18.105,0.34,1.41,-0.35,5.73,8.89,-1.90,-0.20,-0.11,2.86,1018.98
18.109,0.34,1.41,-0.35,5.73,8.89,-1.90,-0.20,-0.11,2.86,1019.16
18.116,0.34,1.41,-0.35,12.90,4.02,1.04,-0.20,-0.11,2.86,1019.16
18.116,0.21,1.27,0.41,12.90,4.02,1.04,-0.20,-0.11,2.86,1019.16
18.148,0.82,1.29,-0.08,12.90,4.02,1.04,-0.20,-0.11,2.86,1019.16
18.148,0.82,1.29,-0.08,12.90,4.02,1.04,-0.20,-0.11,2.86,1019.38
18.175,0.82,1.29,-0.08,12.90,4.02,1.04,-0.22,0.72,1.59,1019.38
18.176,0.88,1.48,0.53,12.90,4.02,1.04,-0.22,0.72,1.59,1019.38
18.185,-0.23,1.05,-0.99,12.90,4.02,1.04,-0.22,0.72,1.59,1019.38
18.185,-0.23,1.05,-0.99,4.80,1.83,-1.01,-0.22,0.72,1.59,1019.38
18.214,0.23,1.03,0.27,4.80,1.83,-1.01,-0.22,0.72,1.59,1019.38
18.228,-0.21,0.92,0.01,4.80,1.83,-1.01,-0.22,0.72,1.59,1019.38
18.229,-0.21,0.92,0.01,4.80,1.83,-1.01,-0.22,0.72,1.59,1019.66
18.245,-0.18,0.99,0.20,4.80,1.83,-1.01,-0.22,0.72,1.59,1019.66
18.246,-0.18,0.99,0.20,4.80,1.83,-1.01,-0.37,0.15,0.25,1019.66
18.255,-0.13,1.00,0.01,4.80,1.83,-1.01,-0.37,0.15,0.25,1019.66
18.256,-0.13,1.00,0.01,5.02,2.84,-1.92,-0.37,0.15,0.25,1019.66
18.281,-0.09,0.98,0.05,5.02,2.84,-1.92,-0.37,0.15,0.25,1019.66
18.309,-0.12,0.99,0.11,5.02,2.84,-1.92,-0.37,0.15,0.25,1019.66
18.309,-0.12,0.99,0.11,5.02,2.84,-1.92,-0.37,0.15,0.25,1019.30
18.317,-0.12,0.99,0.11,5.02,2.84,-1.92,-0.10,0.08,0.18,1019.30
18.326,-0.15,1.00,0.03,5.02,2.84,-1.92,-0.10,0.08,0.18,1019.30
18.326,-0.15,1.00,0.03,0.36,0.53,1.10,-0.10,0.08,0.18,1019.30
18.348,-0.11,1.00,0.01,0.36,0.53,1.10,-0.10,0.08,0.18,1019.30
18.349,-0.11,1.00,0.01,0.36,0.53,1.10,-0.10,0.08,0.18,1019.15
18.385,-0.11,1.00,0.01,0.36,0.53,1.10,-0.06,-0.01,0.12,1019.15
18.385,-0.11,0.99,0.04,0.36,0.53,1.10,-0.06,-0.01,0.12,1019.15
18.385,-0.12,0.99,0.05,0.36,0.53,1.10,-0.06,-0.01,0.12,1019.15
18.395,-0.11,0.98,0.06,0.36,0.53,1.10,-0.06,-0.01,0.12,1019.15
18.395,-0.11,0.98,0.06,-0.24,0.53,0.12,-0.06,-0.01,0.12,1019.15
18.429,-0.11,0.98,0.06,-0.24,0.53,0.12,-0.06,-0.01,0.12,1019.03
18.429,-0.12,0.97,0.07,-0.24,0.53,0.12,-0.06,-0.01,0.12,1019.03
18.455,-0.12,0.97,0.07,-0.24,0.53,0.12,-0.02,-0.04,0.08,1019.03
18.456,-0.10,0.97,0.06,-0.24,0.53,0.12,-0.02,-0.04,0.08,1019.03
18.469,-0.11,0.97,0.05,-0.24,0.53,0.12,-0.02,-0.04,0.08,1019.03
18.469,-0.11,0.97,0.05,-0.22,0.48,-0.00,-0.02,-0.04,0.08,1019.03
18.481,-0.10,0.97,0.07,-0.22,0.48,-0.00,-0.02,-0.04,0.08,1019.03
18.509,-0.11,0.97,0.06,-0.22,0.48,-0.00,-0.02,-0.04,0.08,1019.03
18.509,-0.11,0.97,0.06,-0.22,0.48,-0.00,-0.02,-0.04,0.08,1019.01
18.525,-0.11,0.97,0.06,-0.22,0.48,-0.00,0.01,-0.06,0.05,1019.01
18.526,-0.12,0.97,0.06,-0.22,0.48,-0.00,0.01,-0.06,0.05,1019.01
18.535,-0.13,0.97,0.06,-0.22,0.48,-0.00,0.01,-0.06,0.05,1019.01
18.536,-0.13,0.97,0.06,-0.21,0.31,0.21,0.01,-0.06,0.05,1019.01
18.548,-0.13,0.97,0.06,-0.21,0.31,0.21,0.01,-0.06,0.05,1019.01
18.596,-0.13,0.97,0.06,-0.21,0.31,0.21,0.03,-0.07,0.11,1019.01
18.597,-0.12,0.97,0.06,-0.21,0.31,0.21,0.03,-0.07,0.11,1019.01
18.597,-0.11,0.97,0.05,-0.21,0.31,0.21,0.03,-0.07,0.11,1019.01
18.606,-0.11,0.97,0.05,-0.37,0.29,0.14,0.03,-0.07,0.11,1019.01
18.607,-0.12,0.98,0.06,-0.37,0.29,0.14,0.03,-0.07,0.11,1019.01
18.628,-0.12,0.98,0.06,-0.37,0.29,0.14,0.03,-0.07,0.11,1019.08
18.629,-0.14,1.00,0.04,-0.37,0.29,0.14,0.03,-0.07,0.11,1019.08
18.666,-0.16,1.00,0.07,-0.37,0.29,0.14,0.03,-0.07,0.11,1019.08
18.667,-0.18,0.99,0.07,-0.37,0.29,0.14,0.03,-0.07,0.11,1019.08
18.667,-0.18,0.99,0.07,-0.37,0.29,0.14,0.09,-0.12,0.23,1019.08
18.675,-0.14,1.01,0.04,-0.37,0.29,0.14,0.09,-0.12,0.23,1019.08
18.676,-0.14,1.01,0.04,-0.52,0.33,0.16,0.09,-0.12,0.23,1019.08
18.708,-0.14,1.01,0.04,-0.52,0.33,0.16,0.09,-0.12,0.23,1019.08
18.709,-0.16,1.02,0.07,-0.52,0.33,0.16,0.09,-0.12,0.23,1019.08
18.735,-0.16,1.02,0.07,-0.52,0.33,0.16,0.23,-0.22,0.54,1019.08
18.736,-0.18,1.05,0.06,-0.52,0.33,0.16,0.23,-0.22,0.54,1019.08
18.746,-0.25,1.10,0.04,-0.52,0.33,0.16,0.23,-0.22,0.54,1019.08
18.746,-0.25,1.10,0.04,-1.31,0.52,0.37,0.23,-0.22,0.54,1019.08
18.749,-0.25,1.10,0.04,-1.31,0.52,0.37,0.23,-0.22,0.54,1019.02
18.794,-0.41,1.20,-0.10,-1.31,0.52,0.37,0.23,-0.22,0.54,1019.02
18.794,-0.54,1.29,-0.20,-1.31,0.52,0.37,0.23,-0.22,0.54,1019.02
18.805,-0.54,1.29,-0.20,-1.31,0.52,0.37,-0.09,-0.44,1.79,1019.02
18.805,-0.56,1.39,-0.25,-1.31,0.52,0.37,-0.09,-0.44,1.79,1019.02
18.815,-0.70,1.48,-0.32,-1.31,0.52,0.37,-0.09,-0.44,1.79,1019.02
18.815,-0.70,1.48,-0.32,-3.21,1.26,0.02,-0.09,-0.44,1.79,1019.02
18.829,-0.70,1.48,-0.32,-3.21,1.26,0.02,-0.09,-0.44,1.79,1019.01
18.875,-0.70,1.48,-0.32,-3.21,1.26,0.02,-1.03,-1.08,4.42,1019.01
18.875,-0.90,1.48,-0.15,-3.21,1.26,0.02,-1.03,-1.08,4.42,1019.01
18.876,-0.96,1.38,0.01,-3.21,1.26,0.02,-1.03,-1.08,4.42,1019.01
18.88,-0.65,1.36,0.35,-3.21,1.26,0.02,-1.03,-1.08,4.42,1019.01
18.885,-0.65,1.36,0.35,-9.64,4.98,-3.09,-1.03,-1.08,4.42,1019.01
18.909,-0.02,1.36,0.45,-9.64,4.98,-3.09,-1.03,-1.08,4.42,1019.01
18.909,-0.02,1.36,0.45,-9.64,4.98,-3.09,-1.03,-1.08,4.42,1018.89
18.945,-0.02,1.36,0.45,-9.64,4.98,-3.09,-0.89,-2.24,5.04,1018.89
18.946,0.20,1.29,0.25,-9.64,4.98,-3.09,-0.89,-2.24,5.04,1018.89
18.946,-0.01,0.93,0.12,-9.64,4.98,-3.09,-0.89,-2.24,5.04,1018.89
18.948,-0.01,0.93,0.12,-9.64,4.98,-3.09,-0.89,-2.24,5.04,1018.48
18.955,0.28,0.10,0.16,-9.64,4.98,-3.09,-0.89,-2.24,5.04,1018.48
18.956,0.28,0.10,0.16,-13.46,7.00,0.79,-0.89,-2.24,5.04,1018.48
19.015,0.97,0.66,0.41,-13.46,7.00,0.79,-0.89,-2.24,5.04,1018.48
19.015,-0.72,0.22,0.07,-13.46,7.00,0.79,-0.89,-2.24,5.04,1018.48
19.016,-0.72,0.22,0.07,-13.46,7.00,0.79,-0.69,-2.28,-0.66,1018.48
19.025,-0.43,0.42,-0.41,-13.46,7.00,0.79,-0.69,-2.28,-0.66,1018.48
19.026,-0.43,0.42,-0.41,-4.11,1.02,2.40,-0.69,-2.28,-0.66,1018.48
19.028,-0.43,0.42,-0.41,-4.11,1.02,2.40,-0.69,-2.28,-0.66,1018.58
19.08,-0.00,0.45,-0.46,-4.11,1.02,2.40,-0.69,-2.28,-0.66,1018.58
19.081,0.15,0.43,-0.24,-4.11,1.02,2.40,-0.69,-2.28,-0.66,1018.58
19.081,-0.04,0.49,-0.33,-4.11,1.02,2.40,-0.69,-2.28,-0.66,1018.58
19.085,-0.04,0.49,-0.33,-4.11,1.02,2.40,-1.27,-0.67,-3.11,1018.58
19.095,-0.18,0.62,-0.43,-4.11,1.02,2.40,-1.27,-0.67,-3.11,1018.58
19.096,-0.18,0.62,-0.43,-4.15,-4.13,-0.84,-1.27,-0.67,-3.11,1018.58
19.109,-0.18,0.62,-0.43,-4.15,-4.13,-0.84,-1.27,-0.67,-3.11,1018.80
19.148,-0.18,0.62,-0.43,-4.15,-4.13,-0.84,-1.27,-0.67,-3.11,1018.86
19.149,-0.19,0.80,-0.48,-4.15,-4.13,-0.84,-1.27,-0.67,-3.11,1018.86
19.149,-0.14,0.97,-0.51,-4.15,-4.13,-0.84,-1.27,-0.67,-3.11,1018.86
19.155,-0.14,0.97,-0.51,-4.15,-4.13,-0.84,-0.42,-1.04,-4.57,1018.86
19.166,-0.15,1.12,-0.50,-4.15,-4.13,-0.84,-0.42,-1.04,-4.57,1018.86
19.166,-0.15,1.12,-0.50,-0.83,-4.04,-3.53,-0.42,-1.04,-4.57,1018.86
19.214,-0.18,1.27,-0.52,-0.83,-4.04,-3.53,-0.42,-1.04,-4.57,1018.86
19.214,-0.20,1.48,-0.65,-0.83,-4.04,-3.53,-0.42,-1.04,-4.57,1018.86
19.226,-0.20,1.48,-0.65,-0.83,-4.04,-3.53,-0.06,-1.97,-4.47,1018.86
19.226,-0.19,1.73,-0.67,-0.83,-4.04,-3.53,-0.06,-1.97,-4.47,1018.86
19.228,-0.19,1.73,-0.67,-0.83,-4.04,-3.53,-0.06,-1.97,-4.47,1018.95
19.236,-0.19,1.73,-0.67,0.37,0.96,-5.19,-0.06,-1.97,-4.47,1018.95
19.237,-0.01,1.89,-0.55,0.37,0.96,-5.19,-0.06,-1.97,-4.47,1018.95
19.281,0.51,1.83,-0.37,0.37,0.96,-5.19,-0.06,-1.97,-4.47,1018.95
19.281,0.82,1.67,-0.48,0.37,0.96,-5.19,-0.06,-1.97,-4.47,1018.95
19.296,0.82,1.67,-0.48,0.37,0.96,-5.19,0.23,-2.18,-3.17,1018.95
19.305,1.04,1.40,-0.50,0.37,0.96,-5.19,0.23,-2.18,-3.17,1018.95
19.305,1.04,1.40,-0.50,2.18,7.67,-6.32,0.23,-2.18,-3.17,1018.95
19.308,1.04,1.40,-0.50,2.18,7.67,-6.32,0.23,-2.18,-3.17,1019.03
19.348,1.04,1.40,-0.50,2.18,7.67,-6.32,0.23,-2.18,-3.17,1019.30
19.349,1.75,0.85,0.42,2.18,7.67,-6.32,0.23,-2.18,-3.17,1019.30
19.349,1.76,1.25,-0.34,2.18,7.67,-6.32,0.23,-2.18,-3.17,1019.30
19.366,1.76,1.25,-0.34,2.18,7.67,-6.32,0.38,-1.07,0.54,1019.30
19.367,0.65,0.98,-0.03,2.18,7.67,-6.32,0.38,-1.07,0.54,1019.30
19.375,0.60,0.81,0.39,2.18,7.67,-6.32,0.38,-1.07,0.54,1019.30
19.376,0.60,0.81,0.39,11.40,6.13,-3.54,0.38,-1.07,0.54,1019.30
19.415,-0.59,1.30,0.70,11.40,6.13,-3.54,0.38,-1.07,0.54,1019.30
19.429,0.04,1.39,0.05,11.40,6.13,-3.54,0.38,-1.07,0.54,1019.30
19.429,0.04,1.39,0.05,11.40,6.13,-3.54,0.38,-1.07,0.54,1019.07
19.438,0.04,1.39,0.05,11.40,6.13,-3.54,0.40,0.73,2.28,1019.07
19.445,1.11,1.38,-1.48,11.40,6.13,-3.54,0.40,0.73,2.28,1019.07
19.446,1.11,1.38,-1.48,12.51,0.62,0.47,0.40,0.73,2.28,1019.07
19.48,-0.10,1.24,-0.11,12.51,0.62,0.47,0.40,0.73,2.28,1019.07
19.481,0.17,1.07,0.02,12.51,0.62,0.47,0.40,0.73,2.28,1019.07
19.505,0.17,1.07,0.02,12.51,0.62,0.47,-0.47,0.23,0.18,1019.07
19.505,-0.31,0.91,0.07,12.51,0.62,0.47,-0.47,0.23,0.18,1019.07
19.508,-0.31,0.91,0.07,12.51,0.62,0.47,-0.47,0.23,0.18,1019.61
19.515,-0.12,0.96,0.28,12.51,0.62,0.47,-0.47,0.23,0.18,1019.61
19.516,-0.12,0.96,0.28,4.40,4.65,-2.47,-0.47,0.23,0.18,1019.61
19.548,-0.11,1.01,0.16,4.40,4.65,-2.47,-0.47,0.23,0.18,1019.61
19.548,-0.11,1.01,0.16,4.40,4.65,-2.47,-0.47,0.23,0.18,1019.18
19.576,-0.11,1.01,0.16,4.40,4.65,-2.47,-0.09,0.06,0.17,1019.18
19.577,-0.08,0.99,-0.11,4.40,4.65,-2.47,-0.09,0.06,0.17,1019.18
19.591,-0.11,0.98,0.14,4.40,4.65,-2.47,-0.09,0.06,0.17,1019.18
19.592,-0.11,0.98,0.14,-1.78,0.10,0.49,-0.09,0.06,0.17,1019.18
19.614,-0.12,1.00,0.07,-1.78,0.10,0.49,-0.09,0.06,0.17,1019.18
19.629,-0.13,0.99,-0.03,-1.78,0.10,0.49,-0.09,0.06,0.17,1019.18
19.629,-0.13,0.99,-0.03,-1.78,0.10,0.49,-0.09,0.06,0.17,1019.08
19.646,-0.13,0.99,-0.03,-1.78,0.10,0.49,-0.10,0.00,0.07,1019.08
19.646,-0.14,0.98,0.10,-1.78,0.10,0.49,-0.10,0.00,0.07,1019.08
19.656,-0.13,0.97,0.14,-1.78,0.10,0.49,-0.10,0.00,0.07,1019.08
19.656,-0.13,0.97,0.14,-0.04,0.53,0.30,-0.10,0.00,0.07,1019.08
19.681,-0.13,0.97,0.04,-0.04,0.53,0.30,-0.10,0.00,0.07,1019.08
19.708,-0.11,0.98,0.08,-0.04,0.53,0.30,-0.10,0.00,0.07,1019.08
19.709,-0.11,0.98,0.08,-0.04,0.53,0.30,-0.10,0.00,0.07,1019.00
19.716,-0.11,0.98,0.08,-0.04,0.53,0.30,-0.03,-0.04,0.07,1019.00
19.725,-0.11,0.98,0.08,-0.35,0.44,0.17,-0.03,-0.04,0.07,1019.00
19.726,-0.13,0.98,0.06,-0.35,0.44,0.17,-0.03,-0.04,0.07,1019.00
19.749,-0.14,0.97,0.09,-0.35,0.44,0.17,-0.03,-0.04,0.07,1019.00
19.75,-0.14,0.97,0.09,-0.35,0.44,0.17,-0.03,-0.04,0.07,1018.95
19.786,-0.14,0.97,0.09,-0.35,0.44,0.17,0.01,-0.09,0.09,1018.95
19.787,-0.13,0.97,0.11,-0.35,0.44,0.17,0.01,-0.09,0.09,1018.95
19.787,-0.13,0.96,0.09,-0.35,0.44,0.17,0.01,-0.09,0.09,1018.95
19.796,-0.12,0.96,0.09,-0.35,0.44,0.17,0.01,-0.09,0.09,1018.95
19.796,-0.12,0.96,0.09,-0.36,0.35,0.18,0.01,-0.09,0.09,1018.95
19.829,-0.12,0.97,0.09,-0.36,0.35,0.18,0.01,-0.09,0.09,1018.95
19.83,-0.12,0.97,0.09,-0.36,0.35,0.18,0.01,-0.09,0.09,1019.01
19.856,-0.12,0.97,0.09,-0.36,0.35,0.18,0.08,-0.09,0.13,1019.01
19.856,-0.12,0.98,0.07,-0.36,0.35,0.18,0.08,-0.09,0.13,1019.01
19.866,-0.12,0.98,0.07,-0.48,0.22,0.57,0.08,-0.09,0.13,1019.01
19.866,-0.11,0.98,0.04,-0.48,0.22,0.57,0.08,-0.09,0.13,1019.01
19.882,-0.11,0.98,0.06,-0.48,0.22,0.57,0.08,-0.09,0.13,1019.01
19.908,-0.12,0.98,0.08,-0.48,0.22,0.57,0.08,-0.09,0.13,1019.01
19.909,-0.12,0.98,0.08,-0.48,0.22,0.57,0.08,-0.09,0.13,1019.03
19.925,-0.12,0.98,0.08,-0.48,0.22,0.57,0.08,-0.13,0.16,1019.03
19.926,-0.11,0.99,0.08,-0.48,0.22,0.57,0.08,-0.13,0.16,1019.03
19.935,-0.13,0.99,0.03,-0.48,0.22,0.57,0.08,-0.13,0.16,1019.03
19.936,-0.13,0.99,0.03,-0.44,0.32,0.28,0.08,-0.13,0.16,1019.03
19.949,-0.13,0.99,0.03,-0.44,0.32,0.28,0.08,-0.13,0.16,1019.09
19.995,-0.13,0.99,0.03,-0.44,0.32,0.28,0.14,-0.22,0.29,1019.09
19.996,-0.13,0.99,0.06,-0.44,0.32,0.28,0.14,-0.22,0.29,1019.09
19.996,-0.16,0.99,0.10,-0.44,0.32,0.28,0.14,-0.22,0.29,1019.09
20.006,-0.16,0.99,0.10,-0.65,0.39,0.38,0.14,-0.22,0.29,1019.09
20.006,-0.19,0.99,0.18,-0.65,0.39,0.38,0.14,-0.22,0.29,1019.09
20.029,-0.19,1.04,0.09,-0.65,0.39,0.38,0.14,-0.22,0.29,1019.09
20.03,-0.19,1.04,0.09,-0.65,0.39,0.38,0.14,-0.22,0.29,1019.07
20.066,-0.19,1.04,0.09,-0.65,0.39,0.38,0.29,-0.36,0.74,1019.07
20.066,-0.19,1.07,-0.06,-0.65,0.39,0.38,0.29,-0.36,0.74,1019.07
20.067,-0.23,1.10,-0.09,-0.65,0.39,0.38,0.29,-0.36,0.74,1019.07
20.076,-0.28,1.13,-0.04,-0.65,0.39,0.38,0.29,-0.36,0.74,1019.07
20.076,-0.28,1.13,-0.04,-1.68,0.45,1.02,0.29,-0.36,0.74,1019.07
20.106,-0.30,1.19,-0.11,-1.68,0.45,1.02,0.29,-0.36,0.74,1019.07
20.109,-0.30,1.19,-0.11,-1.68,0.45,1.02,0.29,-0.36,0.74,1019.09
20.136,-0.30,1.19,-0.11,-1.68,0.45,1.02,-0.24,-0.37,1.78,1019.09
20.136,-0.39,1.27,-0.23,-1.68,0.45,1.02,-0.24,-0.37,1.78,1019.09
20.146,-0.48,1.40,-0.32,-1.68,0.45,1.02,-0.24,-0.37,1.78,1019.09
20.147,-0.48,1.40,-0.32,-3.49,1.53,-0.78,-0.24,-0.37,1.78,1019.09
20.149,-0.48,1.40,-0.32,-3.49,1.53,-0.78,-0.24,-0.37,1.78,1019.15
20.205,-0.48,1.40,-0.32,-3.49,1.53,-0.78,-2.03,-1.28,4.15,1019.15
20.206,-0.67,1.50,-0.47,-3.49,1.53,-0.78,-2.03,-1.28,4.15,1019.15
20.206,-1.01,1.53,-0.43,-3.49,1.53,-0.78,-2.03,-1.28,4.15,1019.15
20.207,-0.89,1.49,-0.43,-3.49,1.53,-0.78,-2.03,-1.28,4.15,1019.15
20.216,-0.24,1.53,0.41,-3.49,1.53,-0.78,-2.03,-1.28,4.15,1019.15
20.216,-0.24,1.53,0.41,-8.15,4.65,-3.90,-2.03,-1.28,4.15,1019.15
20.229,-0.24,1.53,0.41,-8.15,4.65,-3.90,-2.03,-1.28,4.15,1018.77
20.276,-0.24,1.53,0.41,-8.15,4.65,-3.90,-1.65,-2.65,4.81,1018.77
