time,gFx,gFy,gFz,ax,ay,az,wx,wy,wz,P
0.002,-0.09,0.97,0.05,-0.03,-0.02,-0.18,0.01,-0.00,0.01,1019.03
0.018,-0.10,0.98,0.06,-0.03,-0.02,-0.18,0.01,-0.00,0.01,1019.03
0.046,-0.10,0.98,0.06,-0.03,-0.02,-0.18,0.01,-0.00,0.01,1018.99
0.047,-0.10,0.98,0.06,-0.03,-0.02,-0.18,-0.02,-0.01,0.00,1018.99
0.068,-0.10,0.98,0.06,0.01,0.02,-0.11,-0.02,-0.01,0.00,1018.99
0.087,-0.10,0.98,0.06,0.01,0.02,-0.11,-0.02,-0.01,0.00,1019.01
0.088,-0.09,0.98,0.07,0.01,0.02,-0.11,-0.02,-0.01,0.00,1019.01
0.119,-0.09,0.98,0.07,0.01,0.02,-0.11,-0.00,-0.01,0.00,1019.01
0.139,-0.09,0.98,0.07,-0.01,0.00,0.07,-0.00,-0.01,0.00,1019.01
0.159,-0.09,0.98,0.07,-0.01,0.00,0.07,-0.00,-0.01,0.00,1019.01
0.166,-0.09,0.98,0.07,-0.01,0.00,0.07,-0.00,-0.01,0.00,1018.99
0.189,-0.09,0.98,0.07,-0.01,0.00,0.07,0.01,-0.01,-0.00,1018.99
0.208,-0.09,0.98,0.07,0.01,-0.02,0.06,0.01,-0.01,-0.00,1018.99
0.228,-0.10,0.98,0.07,0.01,-0.02,0.06,0.01,-0.01,-0.00,1018.99
0.246,-0.10,0.98,0.07,0.01,-0.02,0.06,0.01,-0.01,-0.00,1018.99
0.26,-0.10,0.98,0.07,0.01,-0.02,0.06,0.00,-0.01,0.00,1018.99
0.279,-0.10,0.98,0.07,-0.03,0.03,-0.07,0.00,-0.01,0.00,1018.99
0.286,-0.10,0.98,0.07,-0.03,0.03,-0.07,0.00,-0.01,0.00,1018.99
0.298,-0.09,0.97,0.07,-0.03,0.03,-0.07,0.00,-0.01,0.00,1018.99
0.329,-0.09,0.97,0.07,-0.03,0.03,-0.07,0.02,-0.00,-0.00,1018.99
0.348,-0.09,0.97,0.07,0.01,-0.00,0.03,0.02,-0.00,-0.00,1018.99
0.366,-0.09,0.97,0.07,0.01,-0.00,0.03,0.02,-0.00,-0.00,1018.99
0.368,-0.10,0.97,0.06,0.01,-0.00,0.03,0.02,-0.00,-0.00,1018.99
0.399,-0.10,0.97,0.06,0.01,-0.00,0.03,0.00,0.01,0.00,1018.99
0.419,-0.10,0.97,0.06,-0.05,-0.00,0.03,0.00,0.01,0.00,1018.99
0.439,-0.09,0.98,0.07,-0.05,-0.00,0.03,0.00,0.01,0.00,1018.99
0.447,-0.09,0.98,0.07,-0.05,-0.00,0.03,0.00,0.01,0.00,1018.99
0.469,-0.09,0.98,0.07,-0.05,-0.00,0.03,0.02,0.00,0.00,1018.99
0.486,-0.09,0.98,0.07,-0.05,-0.00,0.03,0.02,0.00,0.00,1019.02
0.489,-0.09,0.98,0.07,0.02,-0.02,-0.02,0.02,0.00,0.00,1019.02
0.509,-0.09,0.98,0.06,0.02,-0.02,-0.02,0.02,0.00,0.00,1019.02
0.539,-0.09,0.98,0.06,0.02,-0.02,-0.02,0.02,0.00,-0.00,1019.02
0.559,-0.09,0.98,0.06,-0.01,0.02,-0.00,0.02,0.00,-0.00,1019.02
0.566,-0.09,0.98,0.06,-0.01,0.02,-0.00,0.02,0.00,-0.00,1018.98
0.579,-0.10,0.98,0.06,-0.01,0.02,-0.00,0.02,0.00,-0.00,1018.98
0.608,-0.10,0.98,0.06,-0.01,0.02,-0.00,0.03,-0.00,0.00,1018.98
0.629,-0.10,0.98,0.06,-0.05,0.03,0.01,0.03,-0.00,0.00,1018.98
0.646,-0.10,0.98,0.06,-0.05,0.03,0.01,0.03,-0.00,0.00,1018.98
0.648,-0.09,0.98,0.05,-0.05,0.03,0.01,0.03,-0.00,0.00,1018.98
0.679,-0.09,0.98,0.05,-0.05,0.03,0.01,0.03,-0.01,-0.01,1018.98
0.686,-0.09,0.98,0.05,-0.05,0.03,0.01,0.03,-0.01,-0.01,1019.00
0.699,-0.09,0.98,0.05,0.01,-0.01,-0.01,0.03,-0.01,-0.01,1019.00
0.719,-0.08,0.97,0.05,0.01,-0.01,-0.01,0.03,-0.01,-0.01,1019.00
0.749,-0.08,0.97,0.05,0.01,-0.01,-0.01,0.01,-0.02,-0.03,1019.00
0.766,-0.08,0.97,0.05,0.01,-0.01,-0.01,0.01,-0.02,-0.03,1019.02
0.769,-0.08,0.97,0.05,0.03,-0.01,-0.03,0.01,-0.02,-0.03,1019.02
0.789,-0.13,0.99,0.04,0.03,-0.01,-0.03,0.01,-0.02,-0.03,1019.02
0.819,-0.13,0.99,0.04,0.03,-0.01,-0.03,0.01,-0.04,0.06,1019.02
0.839,-0.13,0.99,0.04,-0.20,0.12,-0.17,0.01,-0.04,0.06,1019.02
0.846,-0.13,0.99,0.04,-0.20,0.12,-0.17,0.01,-0.04,0.06,1018.98
0.859,-0.09,0.97,0.06,-0.20,0.12,-0.17,0.01,-0.04,0.06,1018.98
0.886,-0.09,0.97,0.06,-0.20,0.12,-0.17,0.01,-0.04,0.06,1019.00
0.888,-0.09,0.97,0.06,-0.20,0.12,-0.17,0.06,-0.08,0.02,1019.00
0.909,-0.09,0.97,0.06,0.07,-0.08,0.10,0.06,-0.08,0.02,1019.00
0.929,-0.10,0.98,0.06,0.07,-0.08,0.10,0.06,-0.08,0.02,1019.00
0.959,-0.10,0.98,0.06,0.07,-0.08,0.10,0.13,-0.10,0.04,1019.00
0.966,-0.10,0.98,0.06,0.07,-0.08,0.10,0.13,-0.10,0.04,1018.96
0.979,-0.10,0.98,0.06,-0.12,0.05,0.14,0.13,-0.10,0.04,1018.96
0.998,-0.06,0.96,0.02,-0.12,0.05,0.14,0.13,-0.10,0.04,1018.96
1.029,-0.06,0.96,0.02,-0.12,0.05,0.14,0.09,-0.07,-0.05,1018.96
1.046,-0.06,0.96,0.02,-0.12,0.05,0.14,0.09,-0.07,-0.05,1018.95
1.049,-0.06,0.96,0.02,0.07,-0.08,0.11,0.09,-0.07,-0.05,1018.95
1.069,-0.13,0.99,0.07,0.07,-0.08,0.11,0.09,-0.07,-0.05,1018.95
1.086,-0.13,0.99,0.07,0.07,-0.08,0.11,0.09,-0.07,-0.05,1018.95
1.099,-0.13,0.99,0.07,0.07,-0.08,0.11,0.25,-0.04,0.05,1018.95
1.119,-0.13,0.99,0.07,0.03,-0.03,0.16,0.25,-0.04,0.05,1018.95
1.139,-0.15,1.01,0.02,0.03,-0.03,0.16,0.25,-0.04,0.05,1018.95
1.166,-0.15,1.01,0.02,0.03,-0.03,0.16,0.25,-0.04,0.05,1018.92
1.168,-0.15,1.01,0.02,0.03,-0.03,0.16,0.32,-0.14,0.30,1018.92
1.189,-0.15,1.01,0.02,-0.49,0.22,0.10,0.32,-0.14,0.30,1018.92
1.209,-0.23,1.10,-0.06,-0.49,0.22,0.10,0.32,-0.14,0.30,1018.92
1.239,-0.23,1.10,-0.06,-0.49,0.22,0.10,0.09,-0.31,0.86,1018.92
1.246,-0.23,1.10,-0.06,-0.49,0.22,0.10,0.09,-0.31,0.86,1018.90
1.259,-0.23,1.10,-0.06,-1.68,0.86,-0.27,0.09,-0.31,0.86,1018.90
1.279,0.06,1.02,0.14,-1.68,0.86,-0.27,0.09,-0.31,0.86,1018.90
1.286,0.06,1.02,0.14,-1.68,0.86,-0.27,0.09,-0.31,0.86,1018.85
1.31,0.06,1.02,0.14,-1.68,0.86,-0.27,0.45,0.93,0.87,1018.85
1.33,0.06,1.02,0.14,-0.83,0.73,0.76,0.45,0.93,0.87,1018.85
1.349,-0.28,0.87,-0.09,-0.83,0.73,0.76,0.45,0.93,0.87,1018.85
1.367,-0.28,0.87,-0.09,-0.83,0.73,0.76,0.45,0.93,0.87,1018.80
1.379,-0.28,0.87,-0.09,-0.83,0.73,0.76,0.25,2.19,-0.47,1018.80
1.399,-0.28,0.87,-0.09,0.29,-0.62,0.58,0.25,2.19,-0.47,1018.80
1.419,-0.73,0.71,-0.07,0.29,-0.62,0.58,0.25,2.19,-0.47,1018.80
1.446,-0.73,0.71,-0.07,0.29,-0.62,0.58,0.25,2.19,-0.47,1018.87
1.45,-0.73,0.71,-0.07,0.29,-0.62,0.58,0.48,1.04,-1.28,1018.87
1.469,-0.73,0.71,-0.07,-7.46,-2.72,-0.58,0.48,1.04,-1.28,1018.87
1.486,-0.73,0.71,-0.07,-7.46,-2.72,-0.58,0.48,1.04,-1.28,1018.82
1.489,-0.44,0.93,-0.03,-7.46,-2.72,-0.58,0.48,1.04,-1.28,1018.82
1.522,-0.44,0.93,-0.03,-7.46,-2.72,-0.58,0.49,0.41,-1.59,1018.82
1.539,-0.44,0.93,-0.03,-3.66,-1.02,0.30,0.49,0.41,-1.59,1018.82
1.559,-0.02,1.14,-0.10,-3.66,-1.02,0.30,0.49,0.41,-1.59,1018.82
1.565,-0.02,1.14,-0.10,-3.66,-1.02,0.30,0.49,0.41,-1.59,1018.82
1.589,-0.02,1.14,-0.10,-3.66,-1.02,0.30,-0.12,0.16,-1.20,1018.82
1.61,-0.02,1.14,-0.10,1.14,1.61,0.59,-0.12,0.16,-1.20,1018.82
1.63,0.29,0.97,-0.04,1.14,1.61,0.59,-0.12,0.16,-1.20,1018.82
1.646,0.29,0.97,-0.04,1.14,1.61,0.59,-0.12,0.16,-1.20,1018.93
1.659,0.29,0.97,-0.04,1.14,1.61,0.59,-0.49,0.41,0.57,1018.93
1.679,0.29,0.97,-0.04,4.62,0.99,0.24,-0.49,0.41,0.57,1018.93
1.686,0.29,0.97,-0.04,4.62,0.99,0.24,-0.49,0.41,0.57,1018.98
1.699,0.92,1.09,-0.05,4.62,0.99,0.24,-0.49,0.41,0.57,1018.98
1.731,0.92,1.09,-0.05,4.62,0.99,0.24,-0.63,0.66,0.58,1018.98
1.75,0.92,1.09,-0.05,9.37,0.65,-0.67,-0.63,0.66,0.58,1018.98
1.766,0.92,1.09,-0.05,9.37,0.65,-0.67,-0.63,0.66,0.58,1019.99
1.77,-0.38,1.05,-0.24,9.37,0.65,-0.67,-0.63,0.66,0.58,1019.99
1.799,-0.38,1.05,-0.24,9.37,0.65,-0.67,-0.57,0.00,0.17,1019.99
1.819,-0.38,1.05,-0.24,0.67,1.27,-0.82,-0.57,0.00,0.17,1019.99
1.84,-0.12,0.96,0.11,0.67,1.27,-0.82,-0.57,0.00,0.17,1019.99
1.846,-0.12,0.96,0.11,0.67,1.27,-0.82,-0.57,0.00,0.17,1019.38
1.87,-0.12,0.96,0.11,0.67,1.27,-0.82,-0.17,0.05,0.09,1019.38
1.886,-0.12,0.96,0.11,0.67,1.27,-0.82,-0.17,0.05,0.09,1019.16
1.89,-0.12,0.96,0.11,0.22,-0.14,0.76,-0.17,0.05,0.09,1019.16
1.91,-0.13,0.98,0.01,0.22,-0.14,0.76,-0.17,0.05,0.09,1019.16
1.939,-0.13,0.98,0.01,0.22,-0.14,0.76,-0.04,0.01,0.05,1019.16
1.959,-0.13,0.98,0.01,0.13,0.18,-0.01,-0.04,0.01,0.05,1019.16
1.965,-0.13,0.98,0.01,0.13,0.18,-0.01,-0.04,0.01,0.05,1019.02
1.979,-0.13,0.97,0.00,0.13,0.18,-0.01,-0.04,0.01,0.05,1019.02
2.01,-0.13,0.97,0.00,0.13,0.18,-0.01,-0.00,0.01,0.06,1019.02
2.031,-0.13,0.97,0.00,0.12,-0.02,0.03,-0.00,0.01,0.06,1019.02
2.046,-0.13,0.97,0.00,0.12,-0.02,0.03,-0.00,0.01,0.06,1019.02
2.05,-0.16,0.97,0.00,0.12,-0.02,0.03,-0.00,0.01,0.06,1019.02
2.079,-0.16,0.97,0.00,0.12,-0.02,0.03,0.03,-0.00,0.19,1019.02
2.088,-0.16,0.97,0.00,0.12,-0.02,0.03,0.03,-0.00,0.19,1019.04
2.099,-0.16,0.97,0.00,-0.22,-0.08,0.06,0.03,-0.00,0.19,1019.04
2.123,-0.12,0.99,-0.02,-0.22,-0.08,0.06,0.03,-0.00,0.19,1019.04
2.151,-0.12,0.99,-0.02,-0.22,-0.08,0.06,0.03,-0.04,0.21,1019.04
2.166,-0.12,0.99,-0.02,-0.22,-0.08,0.06,0.03,-0.04,0.21,1018.98
2.17,-0.12,0.99,-0.02,-0.14,0.13,-0.21,0.03,-0.04,0.21,1018.98
2.19,-0.12,0.98,0.02,-0.14,0.13,-0.21,0.03,-0.04,0.21,1018.98
2.225,-0.12,0.98,0.02,-0.14,0.13,-0.21,0.14,-0.09,0.27,1018.98
2.239,-0.12,0.98,0.02,-0.11,-0.03,0.19,0.14,-0.09,0.27,1018.98
2.246,-0.12,0.98,0.02,-0.11,-0.03,0.19,0.14,-0.09,0.27,1019.00
2.259,-0.13,0.99,-0.02,-0.11,-0.03,0.19,0.14,-0.09,0.27,1019.00
2.286,-0.13,0.99,-0.02,-0.11,-0.03,0.19,0.14,-0.09,0.27,1019.02
2.29,-0.13,0.99,-0.02,-0.11,-0.03,0.19,0.14,-0.13,0.49,1019.02
2.31,-0.13,0.99,-0.02,-0.42,0.08,-0.10,0.14,-0.13,0.49,1019.02
2.331,-0.19,1.07,-0.09,-0.42,0.08,-0.10,0.14,-0.13,0.49,1019.02
2.359,-0.19,1.07,-0.09,-0.42,0.08,-0.10,-0.03,-0.17,1.11,1019.02
2.365,-0.19,1.07,-0.09,-0.42,0.08,-0.10,-0.03,-0.17,1.11,1019.05
2.379,-0.19,1.07,-0.09,-1.18,0.51,-0.21,-0.03,-0.17,1.11,1019.05
2.399,-0.28,1.19,-0.20,-1.18,0.51,-0.21,-0.03,-0.17,1.11,1019.05
2.43,-0.28,1.19,-0.20,-1.18,0.51,-0.21,-0.64,-0.18,2.33,1019.05
2.446,-0.28,1.19,-0.20,-1.18,0.51,-0.21,-0.64,-0.18,2.33,1019.03
2.45,-0.28,1.19,-0.20,-2.89,1.43,-1.40,-0.64,-0.18,2.33,1019.03
2.47,-0.68,1.42,-0.21,-2.89,1.43,-1.40,-0.64,-0.18,2.33,1019.03
2.487,-0.68,1.42,-0.21,-2.89,1.43,-1.40,-0.64,-0.18,2.33,1018.81
2.499,-0.68,1.42,-0.21,-2.89,1.43,-1.40,-1.38,-0.78,4.91,1018.81
2.519,-0.68,1.42,-0.21,-7.69,3.91,-3.42,-1.38,-0.78,4.91,1018.81
2.539,-0.09,1.49,0.21,-7.69,3.91,-3.42,-1.38,-0.78,4.91,1018.81
2.567,-0.09,1.49,0.21,-7.69,3.91,-3.42,-1.38,-0.78,4.91,1018.34
2.57,-0.09,1.49,0.21,-7.69,3.91,-3.42,-0.83,-1.40,5.23,1018.34
2.59,-0.09,1.49,0.21,-9.29,6.90,0.92,-0.83,-1.40,5.23,1018.34
2.611,0.34,0.56,0.25,-9.29,6.90,0.92,-0.83,-1.40,5.23,1018.34
2.641,0.34,0.56,0.25,-9.29,6.90,0.92,0.08,-1.06,-1.18,1018.34
2.646,0.34,0.56,0.25,-9.29,6.90,0.92,0.08,-1.06,-1.18,1018.52
2.66,0.34,0.56,0.25,-2.55,1.75,1.38,0.08,-1.06,-1.18,1018.52
2.68,-0.26,0.42,-0.10,-2.55,1.75,1.38,0.08,-1.06,-1.18,1018.52
2.686,-0.26,0.42,-0.10,-2.55,1.75,1.38,0.08,-1.06,-1.18,1018.86
2.711,-0.26,0.42,-0.10,-2.55,1.75,1.38,-0.06,0.18,-3.58,1018.86
2.731,-0.26,0.42,-0.10,-9.88,-3.62,-0.51,-0.06,0.18,-3.58,1018.86
2.751,-0.09,0.67,-0.06,-9.88,-3.62,-0.51,-0.06,0.18,-3.58,1018.86
2.767,-0.09,0.67,-0.06,-9.88,-3.62,-0.51,-0.06,0.18,-3.58,1018.87
2.78,-0.09,0.67,-0.06,-9.88,-3.62,-0.51,0.31,0.07,-5.16,1018.87
2.801,-0.09,0.67,-0.06,-3.14,-3.43,-0.50,0.31,0.07,-5.16,1018.87
2.824,0.02,1.20,-0.16,-3.14,-3.43,-0.50,0.31,0.07,-5.16,1018.87
2.846,0.02,1.20,-0.16,-3.14,-3.43,-0.50,0.31,0.07,-5.16,1018.90
2.85,0.02,1.20,-0.16,-3.14,-3.43,-0.50,0.57,-0.08,-5.11,1018.90
2.871,0.02,1.20,-0.16,0.30,0.80,-0.99,0.57,-0.08,-5.11,1018.90
2.887,0.02,1.20,-0.16,0.30,0.80,-0.99,0.57,-0.08,-5.11,1018.85
2.89,0.04,1.64,-0.13,0.30,0.80,-0.99,0.57,-0.08,-5.11,1018.85
2.919,0.04,1.64,-0.13,0.30,0.80,-0.99,0.44,0.71,-3.66,1018.85
2.94,0.04,1.64,-0.13,2.99,5.86,-1.06,0.44,0.71,-3.66,1018.85
2.959,1.58,1.57,0.12,2.99,5.86,-1.06,0.44,0.71,-3.66,1018.85
2.966,1.58,1.57,0.12,2.99,5.86,-1.06,0.44,0.71,-3.66,1019.02
2.991,1.58,1.57,0.12,2.99,5.86,-1.06,-0.08,0.53,-1.74,1019.02
3.011,1.58,1.57,0.12,15.01,9.03,0.66,-0.08,0.53,-1.74,1019.02
3.03,0.02,1.14,-0.27,15.01,9.03,0.66,-0.08,0.53,-1.74,1019.02
3.047,0.02,1.14,-0.27,15.01,9.03,0.66,-0.08,0.53,-1.74,1019.22
3.059,0.02,1.14,-0.27,15.01,9.03,0.66,-1.06,0.59,3.69,1019.22
3.08,0.02,1.14,-0.27,12.84,4.02,3.16,-1.06,0.59,3.69,1019.22
3.085,0.02,1.14,-0.27,12.84,4.02,3.16,-1.06,0.59,3.69,1019.46
3.099,0.56,1.23,0.31,12.84,4.02,3.16,-1.06,0.59,3.69,1019.46
3.13,0.56,1.23,0.31,12.84,4.02,3.16,-0.44,0.62,1.23,1019.46
3.151,0.56,1.23,0.31,2.84,0.09,-0.90,-0.44,0.62,1.23,1019.46
3.167,0.56,1.23,0.31,2.84,0.09,-0.90,-0.44,0.62,1.23,1019.59
3.17,-0.10,1.01,-0.18,2.84,0.09,-0.90,-0.44,0.62,1.23,1019.59
3.2,-0.10,1.01,-0.18,2.84,0.09,-0.90,-0.27,0.09,0.30,1019.59
3.22,-0.10,1.01,-0.18,2.85,1.96,-1.29,-0.27,0.09,0.30,1019.59
3.241,-0.09,1.00,0.01,2.85,1.96,-1.29,-0.27,0.09,0.30,1019.59
3.246,-0.09,1.00,0.01,2.85,1.96,-1.29,-0.27,0.09,0.30,1019.19
3.271,-0.09,1.00,0.01,2.85,1.96,-1.29,-0.09,0.06,0.17,1019.19
3.287,-0.09,1.00,0.01,2.85,1.96,-1.29,-0.09,0.06,0.17,1018.99
3.291,-0.09,1.00,0.01,0.28,0.26,0.31,-0.09,0.06,0.17,1018.99
3.31,-0.12,0.98,0.00,0.28,0.26,0.31,-0.09,0.06,0.17,1018.99
3.343,-0.12,0.98,0.00,0.28,0.26,0.31,-0.05,0.00,0.15,1018.99
3.361,-0.12,0.98,0.00,0.14,0.24,-0.09,-0.05,0.00,0.15,1018.99
3.365,-0.12,0.98,0.00,0.14,0.24,-0.09,-0.05,0.00,0.15,1018.92
3.38,-0.11,0.98,-0.00,0.14,0.24,-0.09,-0.05,0.00,0.15,1018.92
3.411,-0.11,0.98,-0.00,0.14,0.24,-0.09,-0.04,-0.04,0.18,1018.92
3.431,-0.11,0.98,-0.00,0.05,0.13,-0.11,-0.04,-0.04,0.18,1018.92
3.446,-0.11,0.98,-0.00,0.05,0.13,-0.11,-0.04,-0.04,0.18,1018.89
3.45,-0.11,0.97,0.03,0.05,0.13,-0.11,-0.04,-0.04,0.18,1018.89
3.48,-0.11,0.97,0.03,0.05,0.13,-0.11,0.03,-0.08,0.24,1018.89
3.486,-0.11,0.97,0.03,0.05,0.13,-0.11,0.03,-0.08,0.24,1018.97
3.501,-0.11,0.97,0.03,-0.06,0.01,0.15,0.03,-0.08,0.24,1018.97
3.519,-0.09,0.98,0.03,-0.06,0.01,0.15,0.03,-0.08,0.24,1018.97
3.551,-0.09,0.98,0.03,-0.06,0.01,0.15,0.13,-0.12,0.31,1018.97
3.567,-0.09,0.98,0.03,-0.06,0.01,0.15,0.13,-0.12,0.31,1019.04
3.571,-0.09,0.98,0.03,-0.06,0.08,0.18,0.13,-0.12,0.31,1019.04
3.591,-0.17,1.04,-0.03,-0.06,0.08,0.18,0.13,-0.12,0.31,1019.04
3.62,-0.17,1.04,-0.03,-0.06,0.08,0.18,0.10,-0.18,0.76,1019.04
3.64,-0.17,1.04,-0.03,-0.72,0.36,0.22,0.10,-0.18,0.76,1019.04
3.647,-0.17,1.04,-0.03,-0.72,0.36,0.22,0.10,-0.18,0.76,1019.07
3.66,-0.30,1.16,-0.11,-0.72,0.36,0.22,0.10,-0.18,0.76,1019.07
3.689,-0.30,1.16,-0.11,-0.72,0.36,0.22,0.10,-0.18,0.76,1019.11
3.69,-0.30,1.16,-0.11,-0.72,0.36,0.22,-0.21,-0.18,1.97,1019.11
3.711,-0.30,1.16,-0.11,-2.67,1.42,-1.01,-0.21,-0.18,1.97,1019.11
3.73,-0.70,1.42,-0.21,-2.67,1.42,-1.01,-0.21,-0.18,1.97,1019.11
3.759,-0.70,1.42,-0.21,-2.67,1.42,-1.01,-0.70,-0.60,4.58,1019.11
3.765,-0.70,1.42,-0.21,-2.67,1.42,-1.01,-0.70,-0.60,4.58,1018.84
3.78,-0.70,1.42,-0.21,-6.86,3.84,-2.14,-0.70,-0.60,4.58,1018.84
3.801,-0.26,1.46,0.28,-6.86,3.84,-2.14,-0.70,-0.60,4.58,1018.84
3.83,-0.26,1.46,0.28,-6.86,3.84,-2.14,-0.13,-0.85,5.82,1018.84
3.846,-0.26,1.46,0.28,-6.86,3.84,-2.14,-0.13,-0.85,5.82,1018.29
3.85,-0.26,1.46,0.28,-10.86,6.47,0.71,-0.13,-0.85,5.82,1018.29
3.87,0.51,0.79,0.18,-10.86,6.47,0.71,-0.13,-0.85,5.82,1018.29
3.887,0.51,0.79,0.18,-10.86,6.47,0.71,-0.13,-0.85,5.82,1018.54
3.9,0.51,0.79,0.18,-10.86,6.47,0.71,-0.15,-0.06,-0.22,1018.54
3.921,0.51,0.79,0.18,-4.20,3.53,2.09,-0.15,-0.06,-0.22,1018.54
3.94,-0.35,0.28,0.01,-4.20,3.53,2.09,-0.15,-0.06,-0.22,1018.54
3.967,-0.35,0.28,0.01,-4.20,3.53,2.09,-0.15,-0.06,-0.22,1018.79
3.969,-0.35,0.28,0.01,-4.20,3.53,2.09,-0.11,0.25,-2.85,1018.79
3.991,-0.35,0.28,0.01,-7.80,-3.46,0.58,-0.11,0.25,-2.85,1018.79
4.01,-0.07,0.52,-0.05,-7.80,-3.46,0.58,-0.11,0.25,-2.85,1018.79
4.039,-0.07,0.52,-0.05,-7.80,-3.46,0.58,0.39,0.02,-4.96,1018.79
4.047,-0.07,0.52,-0.05,-7.80,-3.46,0.58,0.39,0.02,-4.96,1018.94
4.059,-0.07,0.52,-0.05,-3.67,-4.42,-0.39,0.39,0.02,-4.96,1018.94
4.079,0.01,1.11,-0.16,-3.67,-4.42,-0.39,0.39,0.02,-4.96,1018.94
4.086,0.01,1.11,-0.16,-3.67,-4.42,-0.39,0.39,0.02,-4.96,1018.94
4.11,0.01,1.11,-0.16,-3.67,-4.42,-0.39,0.56,0.40,-5.38,1018.94
4.13,0.01,1.11,-0.16,-1.04,-0.24,-1.22,0.56,0.40,-5.38,1018.94
4.15,-0.10,1.66,-0.12,-1.04,-0.24,-1.22,0.56,0.40,-5.38,1018.94
4.166,-0.10,1.66,-0.12,-1.04,-0.24,-1.22,0.56,0.40,-5.38,1018.91
4.18,-0.10,1.66,-0.12,-1.04,-0.24,-1.22,0.55,0.27,-4.54,1018.91
4.2,-0.10,1.66,-0.12,1.90,5.68,-0.99,0.55,0.27,-4.54,1018.91
4.22,0.92,1.74,0.08,1.90,5.68,-0.99,0.55,0.27,-4.54,1018.91
4.248,0.92,1.74,0.08,1.90,5.68,-0.99,0.55,0.27,-4.54,1019.09
4.253,0.92,1.74,0.08,1.90,5.68,-0.99,0.13,-0.19,-2.11,1019.09
4.271,0.92,1.74,0.08,8.73,9.99,0.69,0.13,-0.19,-2.11,1019.09
4.286,0.92,1.74,0.08,8.73,9.99,0.69,0.13,-0.19,-2.11,1018.99
4.292,0.84,1.23,0.12,8.73,9.99,0.69,0.13,-0.19,-2.11,1018.99
4.32,0.84,1.23,0.12,8.73,9.99,0.69,-0.78,0.91,3.22,1018.99
4.344,0.84,1.23,0.12,19.39,3.86,1.76,-0.78,0.91,3.22,1018.99
4.362,0.18,1.12,0.15,19.39,3.86,1.76,-0.78,0.91,3.22,1018.99
4.366,0.18,1.12,0.15,19.39,3.86,1.76,-0.78,0.91,3.22,1019.64
4.391,0.18,1.12,0.15,19.39,3.86,1.76,-0.45,0.88,2.02,1019.64
4.41,0.18,1.12,0.15,-1.50,1.85,-2.18,-0.45,0.88,2.02,1019.64
4.43,0.01,1.10,-0.37,-1.50,1.85,-2.18,-0.45,0.88,2.02,1019.64
4.447,0.01,1.10,-0.37,-1.50,1.85,-2.18,-0.45,0.88,2.02,1019.59
4.46,0.01,1.10,-0.37,-1.50,1.85,-2.18,-0.41,0.03,0.24,1019.59
4.48,0.01,1.10,-0.37,5.83,2.69,0.54,-0.41,0.03,0.24,1019.59
4.486,0.01,1.10,-0.37,5.83,2.69,0.54,-0.41,0.03,0.24,1019.17
4.506,-0.13,0.97,0.08,5.83,2.69,0.54,-0.41,0.03,0.24,1019.17
4.53,-0.13,0.97,0.08,5.83,2.69,0.54,-0.06,0.04,0.15,1019.17
4.551,-0.13,0.97,0.08,0.07,0.06,0.76,-0.06,0.04,0.15,1019.17
4.566,-0.13,0.97,0.08,0.07,0.06,0.76,-0.06,0.04,0.15,1019.04
4.57,-0.13,0.99,-0.03,0.07,0.06,0.76,-0.06,0.04,0.15,1019.04
4.6,-0.13,0.99,-0.03,0.07,0.06,0.76,-0.07,-0.03,0.07,1019.04
4.621,-0.13,0.99,-0.03,0.22,0.31,-0.22,-0.07,-0.03,0.07,1019.04
4.64,-0.14,0.97,0.00,0.22,0.31,-0.22,-0.07,-0.03,0.07,1019.04
4.648,-0.14,0.97,0.00,0.22,0.31,-0.22,-0.07,-0.03,0.07,1018.95
4.67,-0.14,0.97,0.00,0.22,0.31,-0.22,-0.02,-0.04,0.11,1018.95
4.687,-0.14,0.97,0.00,0.22,0.31,-0.22,-0.02,-0.04,0.11,1018.92
4.69,-0.14,0.97,0.00,-0.07,0.13,0.11,-0.02,-0.04,0.11,1018.92
4.711,-0.16,0.97,0.01,-0.07,0.13,0.11,-0.02,-0.04,0.11,1018.92
4.741,-0.16,0.97,0.01,-0.07,0.13,0.11,0.01,-0.06,0.22,1018.92
4.76,-0.16,0.97,0.01,-0.27,0.13,-0.03,0.01,-0.06,0.22,1018.92
4.765,-0.16,0.97,0.01,-0.27,0.13,-0.03,0.01,-0.06,0.22,1018.94
4.78,-0.11,0.97,0.01,-0.27,0.13,-0.03,0.01,-0.06,0.22,1018.94
4.811,-0.11,0.97,0.01,-0.27,0.13,-0.03,0.04,-0.05,0.25,1018.94
4.831,-0.11,0.97,0.01,-0.14,0.11,0.05,0.04,-0.05,0.25,1018.94
4.851,-0.11,0.97,0.01,-0.14,0.11,0.05,0.04,-0.05,0.25,1018.98
4.852,-0.13,0.98,0.02,-0.14,0.11,0.05,0.04,-0.05,0.25,1018.98
4.88,-0.13,0.98,0.02,-0.14,0.11,0.05,0.14,-0.10,0.38,1018.98
4.885,-0.13,0.98,0.02,-0.14,0.11,0.05,0.14,-0.10,0.38,1019.04
4.9,-0.13,0.98,0.02,-0.21,0.12,0.13,0.14,-0.10,0.38,1019.04
4.923,-0.18,1.05,-0.05,-0.21,0.12,0.13,0.14,-0.10,0.38,1019.04
4.95,-0.18,1.05,-0.05,-0.21,0.12,0.13,0.08,-0.16,0.90,1019.04
4.966,-0.18,1.05,-0.05,-0.21,0.12,0.13,0.08,-0.16,0.90,1019.04
4.97,-0.18,1.05,-0.05,-0.94,0.54,-0.11,0.08,-0.16,0.90,1019.04
4.991,-0.42,1.24,-0.17,-0.94,0.54,-0.11,0.08,-0.16,0.90,1019.04
5.021,-0.42,1.24,-0.17,-0.94,0.54,-0.11,-0.45,-0.20,2.53,1019.04
5.04,-0.42,1.24,-0.17,-3.75,1.95,-1.20,-0.45,-0.20,2.53,1019.04
5.052,-0.42,1.24,-0.17,-3.75,1.95,-1.20,-0.45,-0.20,2.53,1018.99
5.06,-0.87,1.47,-0.17,-3.75,1.95,-1.20,-0.45,-0.20,2.53,1018.99
5.086,-0.87,1.47,-0.17,-3.75,1.95,-1.20,-0.45,-0.20,2.53,1018.63
5.09,-0.87,1.47,-0.17,-3.75,1.95,-1.20,-0.87,-0.75,5.50,1018.63
5.111,-0.87,1.47,-0.17,-10.08,4.85,-2.87,-0.87,-0.75,5.50,1018.63
5.13,-0.10,1.29,0.38,-10.08,4.85,-2.87,-0.87,-0.75,5.50,1018.63
5.162,-0.10,1.29,0.38,-10.08,4.85,-2.87,-0.13,-0.91,4.79,1018.63
5.166,-0.10,1.29,0.38,-10.08,4.85,-2.87,-0.13,-0.91,4.79,1018.34
5.18,-0.10,1.29,0.38,-8.89,6.45,2.61,-0.13,-0.91,4.79,1018.34
5.2,0.36,0.39,0.18,-8.89,6.45,2.61,-0.13,-0.91,4.79,1018.34
5.23,0.36,0.39,0.18,-8.89,6.45,2.61,0.04,-0.08,-1.86,1018.34
5.246,0.36,0.39,0.18,-8.89,6.45,2.61,0.04,-0.08,-1.86,1018.71
5.25,0.36,0.39,0.18,-1.70,-0.60,2.03,0.04,-0.08,-1.86,1018.71
5.271,-0.18,0.35,-0.08,-1.70,-0.60,2.03,0.04,-0.08,-1.86,1018.71
5.287,-0.18,0.35,-0.08,-1.70,-0.60,2.03,0.04,-0.08,-1.86,1018.77
5.3,-0.18,0.35,-0.08,-1.70,-0.60,2.03,-0.01,0.16,-3.77,1018.77
5.32,-0.18,0.35,-0.08,-9.23,-4.83,-0.75,-0.01,0.16,-3.77,1018.77
5.34,-0.11,0.76,-0.14,-9.23,-4.83,-0.75,-0.01,0.16,-3.77,1018.77
5.366,-0.11,0.76,-0.14,-9.23,-4.83,-0.75,-0.01,0.16,-3.77,1018.83
5.37,-0.11,0.76,-0.14,-9.23,-4.83,-0.75,0.33,0.25,-5.00,1018.83
5.391,-0.11,0.76,-0.14,-3.66,-3.03,-1.11,0.33,0.25,-5.00,1018.83
5.411,-0.03,1.34,-0.27,-3.66,-3.03,-1.11,0.33,0.25,-5.00,1018.83
5.44,-0.03,1.34,-0.27,-3.66,-3.03,-1.11,0.71,0.77,-4.69,1018.83
5.447,-0.03,1.34,-0.27,-3.66,-3.03,-1.11,0.71,0.77,-4.69,1018.80
5.46,-0.03,1.34,-0.27,0.65,2.18,-2.12,0.71,0.77,-4.69,1018.80
5.48,0.35,1.85,-0.14,0.65,2.18,-2.12,0.71,0.77,-4.69,1018.80
5.486,0.35,1.85,-0.14,0.65,2.18,-2.12,0.71,0.77,-4.69,1018.91
5.511,0.35,1.85,-0.14,0.65,2.18,-2.12,0.87,0.13,-3.81,1018.91
5.531,0.35,1.85,-0.14,3.57,8.51,-1.90,0.87,0.13,-3.81,1018.91
5.553,1.57,1.30,0.30,3.57,8.51,-1.90,0.87,0.13,-3.81,1018.91
5.566,1.57,1.30,0.30,3.57,8.51,-1.90,0.87,0.13,-3.81,1019.28
5.58,1.57,1.30,0.30,3.57,8.51,-1.90,0.04,-0.58,1.05,1019.28
5.6,1.57,1.30,0.30,20.27,7.18,3.55,0.04,-0.58,1.05,1019.28
5.621,-0.23,1.18,-0.21,20.27,7.18,3.55,0.04,-0.58,1.05,1019.28
5.649,-0.23,1.18,-0.21,20.27,7.18,3.55,0.04,-0.58,1.05,1019.49
5.653,-0.23,1.18,-0.21,20.27,7.18,3.55,-1.04,0.77,2.92,1019.49
5.672,-0.23,1.18,-0.21,2.85,1.57,-1.32,-1.04,0.77,2.92,1019.49
5.686,-0.23,1.18,-0.21,2.85,1.57,-1.32,-1.04,0.77,2.92,1019.76
5.691,0.47,1.22,0.04,2.85,1.57,-1.32,-1.04,0.77,2.92,1019.76
5.721,0.47,1.22,0.04,2.85,1.57,-1.32,-0.35,0.16,0.37,1019.76
5.74,0.47,1.22,0.04,5.67,3.28,1.24,-0.35,0.16,0.37,1019.76
5.76,-0.13,0.97,0.06,5.67,3.28,1.24,-0.35,0.16,0.37,1019.76
5.766,-0.13,0.97,0.06,5.67,3.28,1.24,-0.35,0.16,0.37,1019.25
5.792,-0.13,0.97,0.06,5.67,3.28,1.24,-0.17,0.02,0.24,1019.25
5.812,-0.13,0.97,0.06,0.56,0.45,0.37,-0.17,0.02,0.24,1019.25
5.831,-0.09,0.98,0.01,0.56,0.45,0.37,-0.17,0.02,0.24,1019.25
5.85,-0.09,0.98,0.01,0.56,0.45,0.37,-0.17,0.02,0.24,1019.05
5.86,-0.09,0.98,0.01,0.56,0.45,0.37,-0.06,-0.02,0.10,1019.05
5.88,-0.09,0.98,0.01,0.25,0.21,0.29,-0.06,-0.02,0.10,1019.05
5.887,-0.09,0.98,0.01,0.25,0.21,0.29,-0.06,-0.02,0.10,1018.97
5.9,-0.12,0.98,0.01,0.25,0.21,0.29,-0.06,-0.02,0.10,1018.97
5.932,-0.12,0.98,0.01,0.25,0.21,0.29,-0.01,-0.04,0.10,1018.97
5.951,-0.12,0.98,0.01,-0.09,0.25,-0.03,-0.01,-0.04,0.10,1018.97
5.966,-0.12,0.98,0.01,-0.09,0.25,-0.03,-0.01,-0.04,0.10,1018.95
5.971,-0.13,0.97,0.02,-0.09,0.25,-0.03,-0.01,-0.04,0.10,1018.95
6.0,-0.13,0.97,0.02,-0.09,0.25,-0.03,0.04,-0.06,0.16,1018.95
6.021,-0.13,0.97,0.02,-0.14,0.16,0.02,0.04,-0.06,0.16,1018.95
6.042,-0.11,0.98,-0.00,-0.14,0.16,0.02,0.04,-0.06,0.16,1018.95
6.048,-0.11,0.98,-0.00,-0.14,0.16,0.02,0.04,-0.06,0.16,1018.97
6.071,-0.11,0.98,-0.00,-0.14,0.16,0.02,0.05,-0.06,0.22,1018.97
6.086,-0.11,0.98,-0.00,-0.14,0.16,0.02,0.05,-0.06,0.22,1019.04
6.091,-0.11,0.98,-0.00,-0.35,0.15,-0.02,0.05,-0.06,0.22,1019.04
6.111,-0.09,0.97,0.02,-0.35,0.15,-0.02,0.05,-0.06,0.22,1019.04
6.14,-0.09,0.97,0.02,-0.35,0.15,-0.02,0.14,-0.07,0.26,1019.04
6.16,-0.09,0.97,0.02,-0.12,0.11,0.18,0.14,-0.07,0.26,1019.04
6.165,-0.09,0.97,0.02,-0.12,0.11,0.18,0.14,-0.07,0.26,1019.08
6.18,-0.12,1.03,-0.04,-0.12,0.11,0.18,0.14,-0.07,0.26,1019.08
6.211,-0.12,1.03,-0.04,-0.12,0.11,0.18,0.10,-0.09,0.52,1019.08
6.232,-0.12,1.03,-0.04,-0.64,0.41,-0.07,0.10,-0.09,0.52,1019.08
6.247,-0.12,1.03,-0.04,-0.64,0.41,-0.07,0.10,-0.09,0.52,1019.07
6.251,-0.23,1.10,-0.07,-0.64,0.41,-0.07,0.10,-0.09,0.52,1019.07
6.28,-0.23,1.10,-0.07,-0.64,0.41,-0.07,-0.01,-0.15,1.34,1019.07
6.286,-0.23,1.10,-0.07,-0.64,0.41,-0.07,-0.01,-0.15,1.34,1019.05
6.301,-0.23,1.10,-0.07,-1.83,1.01,-0.44,-0.01,-0.15,1.34,1019.05
6.321,-0.47,1.32,-0.19,-1.83,1.01,-0.44,-0.01,-0.15,1.34,1019.05
6.351,-0.47,1.32,-0.19,-1.83,1.01,-0.44,-0.36,-0.31,3.26,1019.05
6.366,-0.47,1.32,-0.19,-1.83,1.01,-0.44,-0.36,-0.31,3.26,1018.90
6.371,-0.47,1.32,-0.19,-4.69,2.82,-1.76,-0.36,-0.31,3.26,1018.90
6.392,-0.58,1.39,0.11,-4.69,2.82,-1.76,-0.36,-0.31,3.26,1018.90
6.42,-0.58,1.39,0.11,-4.69,2.82,-1.76,-0.13,-0.59,5.45,1018.90
6.441,-0.58,1.39,0.11,-11.10,5.06,-0.41,-0.13,-0.59,5.45,1018.90
6.445,-0.58,1.39,0.11,-11.10,5.06,-0.41,-0.13,-0.59,5.45,1018.35
6.462,0.18,0.84,0.33,-11.10,5.06,-0.41,-0.13,-0.59,5.45,1018.35
6.486,0.18,0.84,0.33,-11.10,5.06,-0.41,-0.13,-0.59,5.45,1018.32
6.491,0.18,0.84,0.33,-11.10,5.06,-0.41,0.47,0.11,2.53,1018.32
6.511,0.18,0.84,0.33,-6.19,4.71,4.35,0.47,0.11,2.53,1018.32
6.531,0.22,0.49,0.12,-6.19,4.71,4.35,0.47,0.11,2.53,1018.32
6.561,0.22,0.49,0.12,-6.19,4.71,4.35,0.55,1.22,-1.70,1018.32
6.567,0.22,0.49,0.12,-6.19,4.71,4.35,0.55,1.22,-1.70,1018.67
6.581,0.22,0.49,0.12,-1.71,-2.41,1.49,0.55,1.22,-1.70,1018.67
6.601,0.12,0.47,0.06,-1.71,-2.41,1.49,0.55,1.22,-1.70,1018.67
6.634,0.12,0.47,0.06,-1.71,-2.41,1.49,1.00,1.43,-4.14,1018.67
6.646,0.12,0.47,0.06,-1.71,-2.41,1.49,1.00,1.43,-4.14,1018.90
6.651,0.12,0.47,0.06,-5.47,-3.75,-0.15,1.00,1.43,-4.14,1018.90
6.672,0.01,0.79,0.18,-5.47,-3.75,-0.15,1.00,1.43,-4.14,1018.90
6.686,0.01,0.79,0.18,-5.47,-3.75,-0.15,1.00,1.43,-4.14,1019.03
6.7,0.01,0.79,0.18,-5.47,-3.75,-0.15,1.37,1.53,-4.92,1019.03
6.721,0.01,0.79,0.18,-2.62,-2.60,1.49,1.37,1.53,-4.92,1019.03
6.741,-0.07,1.31,0.18,-2.62,-2.60,1.49,1.37,1.53,-4.92,1019.03
6.766,-0.07,1.31,0.18,-2.62,-2.60,1.49,1.37,1.53,-4.92,1019.03
6.771,-0.07,1.31,0.18,-2.62,-2.60,1.49,0.76,2.73,-4.55,1019.03
6.792,-0.07,1.31,0.18,0.99,2.03,2.56,0.76,2.73,-4.55,1019.03
6.812,-0.02,1.60,0.30,0.99,2.03,2.56,0.76,2.73,-4.55,1019.03
6.842,-0.02,1.60,0.30,0.99,2.03,2.56,-0.16,3.10,-2.45,1019.03
6.847,-0.02,1.60,0.30,0.99,2.03,2.56,-0.16,3.10,-2.45,1018.87
6.861,-0.02,1.60,0.30,2.26,6.45,4.07,-0.16,3.10,-2.45,1018.87
6.881,0.98,1.41,0.45,2.26,6.45,4.07,-0.16,3.10,-2.45,1018.87
6.886,0.98,1.41,0.45,2.26,6.45,4.07,-0.16,3.10,-2.45,1018.89
6.912,0.98,1.41,0.45,2.26,6.45,4.07,-0.87,2.74,0.08,1018.89
6.931,0.98,1.41,0.45,9.06,6.53,5.79,-0.87,2.74,0.08,1018.89
6.952,0.65,1.17,0.10,9.06,6.53,5.79,-0.87,2.74,0.08,1018.89
6.966,0.65,1.17,0.10,9.06,6.53,5.79,-0.87,2.74,0.08,1019.10
6.981,0.65,1.17,0.10,9.06,6.53,5.79,-1.23,1.24,1.02,1019.10
7.001,0.65,1.17,0.10,13.71,1.11,5.56,-1.23,1.24,1.02,1019.10
7.021,0.04,1.11,-0.12,13.71,1.11,5.56,-1.23,1.24,1.02,1019.10
7.046,0.04,1.11,-0.12,13.71,1.11,5.56,-1.23,1.24,1.02,1020.26
7.053,0.04,1.11,-0.12,13.71,1.11,5.56,-0.82,0.37,0.19,1020.26
7.071,0.04,1.11,-0.12,2.06,3.63,-2.30,-0.82,0.37,0.19,1020.26
7.086,0.04,1.11,-0.12,2.06,3.63,-2.30,-0.82,0.37,0.19,1019.37
7.092,-0.13,0.97,-0.06,2.06,3.63,-2.30,-0.82,0.37,0.19,1019.37
7.12,-0.13,0.97,-0.06,2.06,3.63,-2.30,-0.46,0.10,0.19,1019.37
7.141,-0.13,0.97,-0.06,-0.06,0.32,0.16,-0.46,0.10,0.19,1019.37
7.161,-0.15,0.98,-0.01,-0.06,0.32,0.16,-0.46,0.10,0.19,1019.37
7.165,-0.15,0.98,-0.01,-0.06,0.32,0.16,-0.46,0.10,0.19,1019.15
7.191,-0.15,0.98,-0.01,-0.06,0.32,0.16,-0.22,0.11,0.14,1019.15
7.211,-0.15,0.98,-0.01,0.21,0.23,0.39,-0.22,0.11,0.14,1019.15
7.231,-0.14,0.98,0.00,0.21,0.23,0.39,-0.22,0.11,0.14,1019.15
7.246,-0.14,0.98,0.00,0.21,0.23,0.39,-0.22,0.11,0.14,1019.00
7.261,-0.14,0.98,0.00,0.21,0.23,0.39,-0.07,0.10,0.13,1019.00
7.282,-0.14,0.98,0.00,0.04,0.28,0.18,-0.07,0.10,0.13,1019.00
7.286,-0.14,0.98,0.00,0.04,0.28,0.18,-0.07,0.10,0.13,1018.92
7.301,-0.14,0.98,-0.04,0.04,0.28,0.18,-0.07,0.10,0.13,1018.92
7.332,-0.14,0.98,-0.04,0.04,0.28,0.18,-0.07,0.07,0.16,1018.92
7.351,-0.14,0.98,-0.04,0.08,0.25,-0.17,-0.07,0.07,0.16,1018.92
7.366,-0.14,0.98,-0.04,0.08,0.25,-0.17,-0.07,0.07,0.16,1018.94
7.374,-0.11,0.97,-0.00,0.08,0.25,-0.17,-0.07,0.07,0.16,1018.94
7.401,-0.11,0.97,-0.00,0.08,0.25,-0.17,-0.03,0.04,0.14,1018.94
7.421,-0.11,0.97,-0.00,0.16,0.15,-0.07,-0.03,0.04,0.14,1018.94
7.441,-0.13,0.98,-0.02,0.16,0.15,-0.07,-0.03,0.04,0.14,1018.94
7.445,-0.13,0.98,-0.02,0.16,0.15,-0.07,-0.03,0.04,0.14,1018.99
7.471,-0.13,0.98,-0.02,0.16,0.15,-0.07,0.00,0.04,0.21,1018.99
7.487,-0.13,0.98,-0.02,0.16,0.15,-0.07,0.00,0.04,0.21,1018.99
7.491,-0.13,0.98,-0.02,-0.06,0.22,0.00,0.00,0.04,0.21,1018.99
7.511,-0.12,0.99,-0.02,-0.06,0.22,0.00,0.00,0.04,0.21,1018.99
7.541,-0.12,0.99,-0.02,-0.06,0.22,0.00,0.07,0.02,0.34,1018.99
7.561,-0.12,0.99,-0.02,-0.23,0.20,-0.01,0.07,0.02,0.34,1018.99
7.565,-0.12,0.99,-0.02,-0.23,0.20,-0.01,0.07,0.02,0.34,1019.01
7.581,-0.13,1.03,-0.05,-0.23,0.20,-0.01,0.07,0.02,0.34,1019.01
7.612,-0.13,1.03,-0.05,-0.23,0.20,-0.01,0.14,0.02,0.59,1019.01
7.631,-0.13,1.03,-0.05,-0.49,0.50,-0.09,0.14,0.02,0.59,1019.01
7.646,-0.13,1.03,-0.05,-0.49,0.50,-0.09,0.14,0.02,0.59,1019.00
7.653,-0.19,1.05,-0.05,-0.49,0.50,-0.09,0.14,0.02,0.59,1019.00
7.692,-0.19,1.05,-0.05,-0.49,0.50,-0.09,0.17,-0.00,1.28,1019.00
7.692,-0.19,1.05,-0.05,-0.49,0.50,-0.09,0.17,-0.00,1.28,1019.01
7.701,-0.19,1.05,-0.05,-1.10,0.59,-0.18,0.17,-0.00,1.28,1019.01
7.721,-0.56,1.36,-0.22,-1.10,0.59,-0.18,0.17,-0.00,1.28,1019.01
7.752,-0.56,1.36,-0.22,-1.10,0.59,-0.18,-0.06,-0.05,3.42,1019.01
7.766,-0.56,1.36,-0.22,-1.10,0.59,-0.18,-0.06,-0.05,3.42,1018.77
7.772,-0.56,1.36,-0.22,-5.01,2.48,-0.82,-0.06,-0.05,3.42,1018.77
7.791,-0.29,1.29,0.17,-5.01,2.48,-0.82,-0.06,-0.05,3.42,1018.77
7.821,-0.29,1.29,0.17,-5.01,2.48,-0.82,0.84,1.03,4.88,1018.77
7.841,-0.29,1.29,0.17,-9.25,4.87,-0.50,0.84,1.03,4.88,1018.77
7.846,-0.29,1.29,0.17,-9.25,4.87,-0.50,0.84,1.03,4.88,1018.30
7.861,0.52,0.69,0.30,-9.25,4.87,-0.50,0.84,1.03,4.88,1018.30
7.886,0.52,0.69,0.30,-9.25,4.87,-0.50,0.84,1.03,4.88,1018.37
7.891,0.52,0.69,0.30,-9.25,4.87,-0.50,1.61,2.70,1.56,1018.37
7.911,0.52,0.69,0.30,-3.42,0.89,4.73,1.61,2.70,1.56,1018.37
7.931,-0.13,0.60,0.13,-3.42,0.89,4.73,1.61,2.70,1.56,1018.37
7.961,-0.13,0.60,0.13,-3.42,0.89,4.73,1.42,2.91,-1.32,1018.37
7.965,-0.13,0.60,0.13,-3.42,0.89,4.73,1.42,2.91,-1.32,1018.80
7.981,-0.13,0.60,0.13,-2.57,-1.37,1.03,1.42,2.91,-1.32,1018.80
8.001,-0.01,0.57,0.42,-2.57,-1.37,1.03,1.42,2.91,-1.32,1018.80
8.031,-0.01,0.57,0.42,-2.57,-1.37,1.03,2.12,1.78,-3.38,1018.80
8.046,-0.01,0.57,0.42,-2.57,-1.37,1.03,2.12,1.78,-3.38,1019.00
8.061,-0.01,0.57,0.42,-6.06,-3.02,2.98,2.12,1.78,-3.38,1019.00
8.071,0.00,0.94,0.52,-6.06,-3.02,2.98,2.12,1.78,-3.38,1019.00
8.086,0.00,0.94,0.52,-6.06,-3.02,2.98,2.12,1.78,-3.38,1019.14
8.102,0.00,0.94,0.52,-6.06,-3.02,2.98,1.82,1.86,-4.34,1019.14
8.121,0.00,0.94,0.52,-2.39,-1.48,5.83,1.82,1.86,-4.34,1019.14
8.141,-0.02,1.40,0.55,-2.39,-1.48,5.83,1.82,1.86,-4.34,1019.14
8.166,-0.02,1.40,0.55,-2.39,-1.48,5.83,1.82,1.86,-4.34,1019.03
8.171,-0.02,1.40,0.55,-2.39,-1.48,5.83,0.35,3.06,-4.13,1019.03
8.192,-0.02,1.40,0.55,0.83,3.46,6.53,0.35,3.06,-4.13,1019.03
8.211,-0.10,1.46,0.48,0.83,3.46,6.53,0.35,3.06,-4.13,1019.03
8.241,-0.10,1.46,0.48,0.83,3.46,6.53,-0.53,2.73,-3.28,1019.03
8.246,-0.10,1.46,0.48,0.83,3.46,6.53,-0.53,2.73,-3.28,1018.92
8.261,-0.10,1.46,0.48,1.55,5.32,6.97,-0.53,2.73,-3.28,1018.92
8.281,0.28,1.28,0.30,1.55,5.32,6.97,-0.53,2.73,-3.28,1018.92
8.286,0.28,1.28,0.30,1.55,5.32,6.97,-0.53,2.73,-3.28,1018.86
8.311,0.28,1.28,0.30,1.55,5.32,6.97,-0.35,1.63,-1.43,1018.86
8.332,0.28,1.28,0.30,5.23,4.47,4.96,-0.35,1.63,-1.43,1018.86
8.352,1.05,1.13,0.02,5.23,4.47,4.96,-0.35,1.63,-1.43,1018.86
8.366,1.05,1.13,0.02,5.23,4.47,4.96,-0.35,1.63,-1.43,1018.91
8.381,1.05,1.13,0.02,5.23,4.47,4.96,-0.96,2.12,0.28,1018.91
8.401,1.05,1.13,0.02,12.39,3.25,2.30,-0.96,2.12,0.28,1018.91
8.421,0.13,1.23,-0.13,12.39,3.25,2.30,-0.96,2.12,0.28,1018.91
8.446,0.13,1.23,-0.13,12.39,3.25,2.30,-0.96,2.12,0.28,1019.27
8.452,0.13,1.23,-0.13,12.39,3.25,2.30,-1.37,1.38,1.41,1019.27
8.472,0.13,1.23,-0.13,8.43,4.16,1.61,-1.37,1.38,1.41,1019.27
8.487,0.13,1.23,-0.13,8.43,4.16,1.61,-1.37,1.38,1.41,1019.96
8.491,-0.01,1.11,-0.17,8.43,4.16,1.61,-1.37,1.38,1.41,1019.96
8.521,-0.01,1.11,-0.17,8.43,4.16,1.61,-0.61,0.25,0.18,1019.96
8.541,-0.01,1.11,-0.17,1.69,0.74,-1.33,-0.61,0.25,0.18,1019.96
8.561,-0.17,0.93,0.02,1.69,0.74,-1.33,-0.61,0.25,0.18,1019.96
8.566,-0.17,0.93,0.02,1.69,0.74,-1.33,-0.61,0.25,0.18,1019.27
8.591,-0.17,0.93,0.02,1.69,0.74,-1.33,-0.33,0.15,0.13,1019.27
8.612,-0.17,0.93,0.02,-0.03,-0.13,0.44,-0.33,0.15,0.13,1019.27
8.631,-0.19,0.98,-0.04,-0.03,-0.13,0.44,-0.33,0.15,0.13,1019.27
8.646,-0.19,0.98,-0.04,-0.03,-0.13,0.44,-0.33,0.15,0.13,1019.18
8.661,-0.19,0.98,-0.04,-0.03,-0.13,0.44,-0.24,0.10,0.10,1019.18
8.681,-0.19,0.98,-0.04,0.41,0.32,0.03,-0.24,0.10,0.10,1019.18
8.686,-0.19,0.98,-0.04,0.41,0.32,0.03,-0.24,0.10,0.10,1019.04
8.701,-0.22,0.95,0.03,0.41,0.32,0.03,-0.24,0.10,0.10,1019.04
8.731,-0.22,0.95,0.03,0.41,0.32,0.03,-0.08,0.17,0.29,1019.04
8.752,-0.22,0.95,0.03,-0.31,-0.03,0.74,-0.08,0.17,0.29,1019.04
8.779,-0.22,0.95,0.03,-0.31,-0.03,0.74,-0.08,0.17,0.29,1019.00
8.781,-0.16,0.99,-0.05,-0.31,-0.03,0.74,-0.08,0.17,0.29,1019.00
8.801,-0.16,0.99,-0.05,-0.31,-0.03,0.74,-0.08,0.09,0.31,1019.00
8.821,-0.16,0.99,-0.05,-0.10,0.34,-0.08,-0.08,0.09,0.31,1019.00
8.841,-0.12,0.96,0.01,-0.10,0.34,-0.08,-0.08,0.09,0.31,1019.00
8.846,-0.12,0.96,0.01,-0.10,0.34,-0.08,-0.08,0.09,0.31,1018.94
8.871,-0.12,0.96,0.01,-0.10,0.34,-0.08,0.01,0.05,0.26,1018.94
8.886,-0.12,0.96,0.01,-0.10,0.34,-0.08,0.01,0.05,0.26,1019.01
8.892,-0.12,0.96,0.01,0.28,0.04,0.36,0.01,0.05,0.26,1019.01
8.912,-0.12,0.98,-0.01,0.28,0.04,0.36,0.01,0.05,0.26,1019.01
8.941,-0.12,0.98,-0.01,0.28,0.04,0.36,0.09,0.02,0.26,1019.01
8.963,-0.12,0.98,-0.01,0.15,0.07,0.43,0.09,0.02,0.26,1019.01
8.969,-0.12,0.98,-0.01,0.15,0.07,0.43,0.09,0.02,0.26,1019.06
8.982,-0.14,1.00,-0.03,0.15,0.07,0.43,0.09,0.02,0.26,1019.06
9.011,-0.14,1.00,-0.03,0.15,0.07,0.43,0.16,0.01,0.44,1019.06
9.033,-0.14,1.00,-0.03,-0.16,0.29,0.24,0.16,0.01,0.44,1019.06
9.046,-0.14,1.00,-0.03,-0.16,0.29,0.24,0.16,0.01,0.44,1019.05
9.052,-0.17,1.03,-0.04,-0.16,0.29,0.24,0.16,0.01,0.44,1019.05
9.082,-0.17,1.03,-0.04,-0.16,0.29,0.24,0.20,0.01,0.87,1019.05
9.086,-0.17,1.03,-0.04,-0.16,0.29,0.24,0.20,0.01,0.87,1019.11
9.102,-0.17,1.03,-0.04,-0.86,0.46,0.16,0.20,0.01,0.87,1019.11
9.121,-0.24,1.11,-0.09,-0.86,0.46,0.16,0.20,0.01,0.87,1019.11
9.152,-0.24,1.11,-0.09,-0.86,0.46,0.16,0.18,0.05,1.78,1019.11
9.166,-0.24,1.11,-0.09,-0.86,0.46,0.16,0.18,0.05,1.78,1019.10
9.172,-0.24,1.11,-0.09,-2.03,1.02,0.06,0.18,0.05,1.78,1019.10
9.192,-0.47,1.29,-0.16,-2.03,1.02,0.06,0.18,0.05,1.78,1019.10
9.222,-0.47,1.29,-0.16,-2.03,1.02,0.06,0.05,-0.01,3.63,1019.10
9.242,-0.47,1.29,-0.16,-5.12,2.80,-0.82,0.05,-0.01,3.63,1019.10
9.246,-0.47,1.29,-0.16,-5.12,2.80,-0.82,0.05,-0.01,3.63,1018.70
9.261,-0.25,1.32,0.23,-5.12,2.80,-0.82,0.05,-0.01,3.63,1018.70
9.286,-0.25,1.32,0.23,-5.12,2.80,-0.82,0.05,-0.01,3.63,1018.22
9.292,-0.25,1.32,0.23,-5.12,2.80,-0.82,0.58,-0.10,5.11,1018.22
9.312,-0.25,1.32,0.23,-9.04,4.23,1.63,0.58,-0.10,5.11,1018.22
9.332,0.75,0.97,0.19,-9.04,4.23,1.63,0.58,-0.10,5.11,1018.22
9.361,0.75,0.97,0.19,-9.04,4.23,1.63,0.45,1.74,0.82,1018.22
9.365,0.75,0.97,0.19,-9.04,4.23,1.63,0.45,1.74,0.82,1018.52
9.382,0.75,0.97,0.19,-5.13,3.46,5.01,0.45,1.74,0.82,1018.52
9.402,-0.38,0.43,0.12,-5.13,3.46,5.01,0.45,1.74,0.82,1018.52
9.432,-0.38,0.43,0.12,-5.13,3.46,5.01,0.05,1.82,-2.07,1018.52
9.446,-0.38,0.43,0.12,-5.13,3.46,5.01,0.05,1.82,-2.07,1018.77
9.452,-0.38,0.43,0.12,-2.47,-1.22,0.13,0.05,1.82,-2.07,1018.77
9.472,-0.04,0.49,0.18,-2.47,-1.22,0.13,0.05,1.82,-2.07,1018.77
9.486,-0.04,0.49,0.18,-2.47,-1.22,0.13,0.05,1.82,-2.07,1018.87
9.502,-0.04,0.49,0.18,-2.47,-1.22,0.13,0.61,0.33,-3.78,1018.87
9.522,-0.04,0.49,0.18,-5.27,-4.18,1.64,0.61,0.33,-3.78,1018.87
9.542,0.06,0.90,0.07,-5.27,-4.18,1.64,0.61,0.33,-3.78,1018.87
9.566,0.06,0.90,0.07,-5.27,-4.18,1.64,0.61,0.33,-3.78,1018.91
9.572,0.06,0.90,0.07,-5.27,-4.18,1.64,0.55,0.34,-4.31,1018.91
9.592,0.06,0.90,0.07,-1.68,-1.69,0.84,0.55,0.34,-4.31,1018.91
9.612,0.05,1.34,0.00,-1.68,-1.69,0.84,0.55,0.34,-4.31,1018.91
9.642,0.05,1.34,0.00,-1.68,-1.69,0.84,0.17,1.04,-3.87,1018.91
9.646,0.05,1.34,0.00,-1.68,-1.69,0.84,0.17,1.04,-3.87,1018.87
9.662,0.05,1.34,0.00,1.85,2.79,0.56,0.17,1.04,-3.87,1018.87
9.682,-0.03,1.48,-0.01,1.85,2.79,0.56,0.17,1.04,-3.87,1018.87
9.686,-0.03,1.48,-0.01,1.85,2.79,0.56,0.17,1.04,-3.87,1018.87
9.712,-0.03,1.48,-0.01,1.85,2.79,0.56,0.26,0.56,-2.30,1018.87
9.733,-0.03,1.48,-0.01,2.63,5.29,0.51,0.26,0.56,-2.30,1018.87
9.752,1.02,1.29,0.11,2.63,5.29,0.51,0.26,0.56,-2.30,1018.87
9.767,1.02,1.29,0.11,2.63,5.29,0.51,0.26,0.56,-2.30,1019.07
9.782,1.02,1.29,0.11,2.63,5.29,0.51,0.24,-0.71,-1.14,1019.07
9.802,1.02,1.29,0.11,9.77,5.44,0.88,0.24,-0.71,-1.14,1019.07
9.822,0.21,1.18,-0.04,9.77,5.44,0.88,0.24,-0.71,-1.14,1019.07
9.846,0.21,1.18,-0.04,9.77,5.44,0.88,0.24,-0.71,-1.14,1019.26
9.852,0.21,1.18,-0.04,9.77,5.44,0.88,-0.45,0.75,3.25,1019.26
9.872,0.21,1.18,-0.04,10.24,0.02,1.67,-0.45,0.75,3.25,1019.26
9.885,0.21,1.18,-0.04,10.24,0.02,1.67,-0.45,0.75,3.25,1020.12
9.893,0.62,1.27,-0.19,10.24,0.02,1.67,-0.45,0.75,3.25,1020.12
9.922,0.62,1.27,-0.19,10.24,0.02,1.67,-0.42,0.38,0.41,1020.12
9.942,0.62,1.27,-0.19,8.97,5.73,1.02,-0.42,0.38,0.41,1020.12
9.962,-0.09,0.95,0.11,8.97,5.73,1.02,-0.42,0.38,0.41,1020.12
9.965,-0.09,0.95,0.11,8.97,5.73,1.02,-0.42,0.38,0.41,1019.39
9.993,-0.09,0.95,0.11,8.97,5.73,1.02,-0.20,0.15,0.23,1019.39
10.014,-0.09,0.95,0.11,-0.31,0.14,-1.77,-0.20,0.15,0.23,1019.39
10.032,-0.13,1.01,-0.06,-0.31,0.14,-1.77,-0.20,0.15,0.23,1019.39
10.046,-0.13,1.01,-0.06,-0.31,0.14,-1.77,-0.20,0.15,0.23,1019.23
10.062,-0.13,1.01,-0.06,-0.31,0.14,-1.77,-0.14,0.05,0.13,1019.23
10.082,-0.13,1.01,-0.06,0.29,0.38,0.34,-0.14,0.05,0.13,1019.23
10.085,-0.13,1.01,-0.06,0.29,0.38,0.34,-0.14,0.05,0.13,1019.04
10.102,-0.15,0.97,0.05,0.29,0.38,0.34,-0.14,0.05,0.13,1019.04
10.133,-0.15,0.97,0.05,0.29,0.38,0.34,0.01,0.00,0.16,1019.04
10.153,-0.15,0.97,0.05,-0.08,0.25,0.15,0.01,0.00,0.16,1019.04
10.166,-0.15,0.97,0.05,-0.08,0.25,0.15,0.01,0.00,0.16,1019.00
10.173,-0.14,0.98,-0.00,-0.08,0.25,0.15,0.01,0.00,0.16,1019.00
10.202,-0.14,0.98,-0.00,-0.08,0.25,0.15,0.06,-0.01,0.20,1019.00
10.222,-0.14,0.98,-0.00,-0.06,0.12,0.24,0.06,-0.01,0.20,1019.00
10.242,-0.14,0.97,0.02,-0.06,0.12,0.24,0.06,-0.01,0.20,1019.00
10.246,-0.14,0.97,0.02,-0.06,0.12,0.24,0.06,-0.01,0.20,1018.99
10.272,-0.14,0.97,0.02,-0.06,0.12,0.24,0.14,-0.04,0.30,1018.99
10.286,-0.14,0.97,0.02,-0.06,0.12,0.24,0.14,-0.04,0.30,1018.98
10.292,-0.14,0.97,0.02,-0.32,0.04,0.45,0.14,-0.04,0.30,1018.98
10.312,-0.10,0.98,-0.01,-0.32,0.04,0.45,0.14,-0.04,0.30,1018.98
10.342,-0.10,0.98,-0.01,-0.32,0.04,0.45,0.17,-0.08,0.33,1018.98
10.362,-0.10,0.98,-0.01,-0.12,0.18,0.17,0.17,-0.08,0.33,1018.98
10.366,-0.10,0.98,-0.01,-0.12,0.18,0.17,0.17,-0.08,0.33,1019.06
10.382,-0.15,1.01,-0.02,-0.12,0.18,0.17,0.17,-0.08,0.33,1019.06
10.412,-0.15,1.01,-0.02,-0.12,0.18,0.17,0.22,-0.12,0.65,1019.06
10.433,-0.15,1.01,-0.02,-0.52,0.25,0.37,0.22,-0.12,0.65,1019.06
10.447,-0.15,1.01,-0.02,-0.52,0.25,0.37,0.22,-0.12,0.65,1019.07
10.452,-0.25,1.13,-0.13,-0.52,0.25,0.37,0.22,-0.12,0.65,1019.07
10.482,-0.25,1.13,-0.13,-0.52,0.25,0.37,-0.07,0.01,1.63,1019.07
10.486,-0.25,1.13,-0.13,-0.52,0.25,0.37,-0.07,0.01,1.63,1019.07
10.502,-0.25,1.13,-0.13,-2.05,1.15,-0.82,-0.07,0.01,1.63,1019.07
10.522,-0.51,1.35,-0.15,-2.05,1.15,-0.82,-0.07,0.01,1.63,1019.07
10.552,-0.51,1.35,-0.15,-2.05,1.15,-0.82,-0.29,-0.46,3.69,1019.07
10.566,-0.51,1.35,-0.15,-2.05,1.15,-0.82,-0.29,-0.46,3.69,1018.85
10.573,-0.51,1.35,-0.15,-5.25,2.93,-0.77,-0.29,-0.46,3.69,1018.85
10.592,-0.59,1.43,0.11,-5.25,2.93,-0.77,-0.29,-0.46,3.69,1018.85
10.622,-0.59,1.43,0.11,-5.25,2.93,-0.77,-0.09,-1.41,6.00,1018.85
10.642,-0.59,1.43,0.11,-12.19,5.31,0.63,-0.09,-1.41,6.00,1018.85
10.648,-0.59,1.43,0.11,-12.19,5.31,0.63,-0.09,-1.41,6.00,1018.33
10.662,0.41,0.98,0.15,-12.19,5.31,0.63,-0.09,-1.41,6.00,1018.33
10.686,0.41,0.98,0.15,-12.19,5.31,0.63,-0.09,-1.41,6.00,1018.51
10.693,0.41,0.98,0.15,-12.19,5.31,0.63,-0.21,-0.34,1.98,1018.51
10.713,0.41,0.98,0.15,-7.38,5.45,3.57,-0.21,-0.34,1.98,1018.51
10.733,0.01,0.44,0.09,-7.38,5.45,3.57,-0.21,-0.34,1.98,1018.51
10.768,0.01,0.44,0.09,-7.38,5.45,3.57,-0.79,0.98,-2.04,1018.51
10.769,0.01,0.44,0.09,-7.38,5.45,3.57,-0.79,0.98,-2.04,1018.64
10.782,0.01,0.44,0.09,-1.15,-1.09,1.00,-0.79,0.98,-2.04,1018.64
10.802,0.01,0.37,-0.01,-1.15,-1.09,1.00,-0.79,0.98,-2.04,1018.64
10.833,0.01,0.37,-0.01,-1.15,-1.09,1.00,-0.37,0.18,-4.39,1018.64
10.846,0.01,0.37,-0.01,-1.15,-1.09,1.00,-0.37,0.18,-4.39,1018.76
10.853,0.01,0.37,-0.01,-5.73,-4.88,-0.64,-0.37,0.18,-4.39,1018.76
10.873,-0.06,0.86,-0.21,-5.73,-4.88,-0.64,-0.37,0.18,-4.39,1018.76
10.887,-0.06,0.86,-0.21,-5.73,-4.88,-0.64,-0.37,0.18,-4.39,1018.85
10.903,-0.06,0.86,-0.21,-5.73,-4.88,-0.64,0.15,-0.35,-4.94,1018.85
10.922,-0.06,0.86,-0.21,-3.12,-2.38,-1.80,0.15,-0.35,-4.94,1018.85
10.942,-0.01,1.40,-0.30,-3.12,-2.38,-1.80,0.15,-0.35,-4.94,1018.85
10.966,-0.01,1.40,-0.30,-3.12,-2.38,-1.80,0.15,-0.35,-4.94,1018.82
10.973,-0.01,1.40,-0.30,-3.12,-2.38,-1.80,0.38,0.22,-4.41,1018.82
10.993,-0.01,1.40,-0.30,1.44,3.13,-2.89,0.38,0.22,-4.41,1018.82
11.013,0.45,1.83,-0.24,1.44,3.13,-2.89,0.38,0.22,-4.41,1018.82
11.042,0.45,1.83,-0.24,1.44,3.13,-2.89,0.47,0.51,-3.44,1018.82
11.045,0.45,1.83,-0.24,1.44,3.13,-2.89,0.47,0.51,-3.44,1018.97
11.062,0.45,1.83,-0.24,4.16,8.52,-2.42,0.47,0.51,-3.44,1018.97
11.082,1.40,1.17,0.14,4.16,8.52,-2.42,0.47,0.51,-3.44,1018.97
11.085,1.40,1.17,0.14,4.16,8.52,-2.42,0.47,0.51,-3.44,1019.18
11.113,1.40,1.17,0.14,4.16,8.52,-2.42,0.03,-0.58,0.87,1019.18
11.133,1.40,1.17,0.14,20.91,5.54,2.12,0.03,-0.58,0.87,1019.18
11.153,-0.21,1.22,-0.05,20.91,5.54,2.12,0.03,-0.58,0.87,1019.18
11.168,-0.21,1.22,-0.05,20.91,5.54,2.12,0.03,-0.58,0.87,1019.40
11.182,-0.21,1.22,-0.05,20.91,5.54,2.12,-0.63,0.76,3.09,1019.40
11.203,-0.21,1.22,-0.05,0.71,1.74,-0.26,-0.63,0.76,3.09,1019.40
11.223,0.46,1.22,-0.05,0.71,1.74,-0.26,-0.63,0.76,3.09,1019.40
11.246,0.46,1.22,-0.05,0.71,1.74,-0.26,-0.63,0.76,3.09,1019.86
11.253,0.46,1.22,-0.05,0.71,1.74,-0.26,-0.16,0.23,0.24,1019.86
11.273,0.46,1.22,-0.05,7.14,3.81,0.25,-0.16,0.23,0.24,1019.86
11.286,0.46,1.22,-0.05,7.14,3.81,0.25,-0.16,0.23,0.24,1019.25
11.293,-0.17,0.97,0.09,7.14,3.81,0.25,-0.16,0.23,0.24,1019.25
11.323,-0.17,0.97,0.09,7.14,3.81,0.25,-0.17,0.05,0.24,1019.25
11.344,-0.17,0.97,0.09,-0.01,0.25,-0.04,-0.17,0.05,0.24,1019.25
11.367,-0.12,0.99,0.02,-0.01,0.25,-0.04,-0.17,0.05,0.24,1019.25
11.369,-0.12,0.99,0.02,-0.01,0.25,-0.04,-0.17,0.05,0.24,1019.07
11.393,-0.12,0.99,0.02,-0.01,0.25,-0.04,-0.10,-0.00,0.13,1019.07
11.413,-0.12,0.99,0.02,0.10,0.28,0.21,-0.10,-0.00,0.13,1019.07
11.433,-0.13,0.98,0.04,0.10,0.28,0.21,-0.10,-0.00,0.13,1019.07
11.446,-0.13,0.98,0.04,0.10,0.28,0.21,-0.10,-0.00,0.13,1018.94
11.462,-0.13,0.98,0.04,0.10,0.28,0.21,-0.05,-0.03,0.11,1018.94
11.483,-0.13,0.98,0.04,-0.10,0.26,0.07,-0.05,-0.03,0.11,1018.94
11.486,-0.13,0.98,0.04,-0.10,0.26,0.07,-0.05,-0.03,0.11,1018.93
11.502,-0.13,0.97,0.04,-0.10,0.26,0.07,-0.05,-0.03,0.11,1018.93
11.533,-0.13,0.97,0.04,-0.10,0.26,0.07,0.02,-0.10,0.15,1018.93
11.553,-0.13,0.97,0.04,-0.07,0.13,0.19,0.02,-0.10,0.15,1018.93
11.566,-0.13,0.97,0.04,-0.07,0.13,0.19,0.02,-0.10,0.15,1018.95
11.573,-0.14,0.98,0.03,-0.07,0.13,0.19,0.02,-0.10,0.15,1018.95
11.603,-0.14,0.98,0.03,-0.07,0.13,0.19,0.07,-0.12,0.24,1018.95
11.624,-0.14,0.98,0.03,-0.38,0.12,0.28,0.07,-0.12,0.24,1018.95
11.644,-0.13,0.99,0.03,-0.38,0.12,0.28,0.07,-0.12,0.24,1018.95
11.646,-0.13,0.99,0.03,-0.38,0.12,0.28,0.07,-0.12,0.24,1019.01
11.673,-0.13,0.99,0.03,-0.38,0.12,0.28,0.11,-0.16,0.39,1019.01
11.689,-0.13,0.99,0.03,-0.38,0.12,0.28,0.11,-0.16,0.39,1019.04
11.696,-0.13,0.99,0.03,-0.30,0.21,0.13,0.11,-0.16,0.39,1019.04
11.713,-0.19,1.06,-0.02,-0.30,0.21,0.13,0.11,-0.16,0.39,1019.04
11.742,-0.19,1.06,-0.02,-0.30,0.21,0.13,0.01,-0.19,0.96,1019.04
11.775,-0.19,1.06,-0.02,-1.22,0.52,0.19,0.01,-0.19,0.96,1019.04
11.776,-0.19,1.06,-0.02,-1.22,0.52,0.19,0.01,-0.19,0.96,1019.05
11.794,-0.38,1.22,-0.12,-1.22,0.52,0.19,0.01,-0.19,0.96,1019.05
11.812,-0.38,1.22,-0.12,-1.22,0.52,0.19,-0.37,-0.25,2.44,1019.05
11.833,-0.38,1.22,-0.12,-3.45,1.87,-1.04,-0.37,-0.25,2.44,1019.05
11.846,-0.38,1.22,-0.12,-3.45,1.87,-1.04,-0.37,-0.25,2.44,1018.97
11.853,-0.91,1.48,-0.13,-3.45,1.87,-1.04,-0.37,-0.25,2.44,1018.97
11.883,-0.91,1.48,-0.13,-3.45,1.87,-1.04,-0.87,-0.89,5.54,1018.97
11.887,-0.91,1.48,-0.13,-3.45,1.87,-1.04,-0.87,-0.89,5.54,1018.46
11.903,-0.91,1.48,-0.13,-9.96,4.86,-2.09,-0.87,-0.89,5.54,1018.46
11.922,-0.18,1.30,0.37,-9.96,4.86,-2.09,-0.87,-0.89,5.54,1018.46
11.953,-0.18,1.30,0.37,-9.96,4.86,-2.09,-0.16,-1.13,5.81,1018.46
11.966,-0.18,1.30,0.37,-9.96,4.86,-2.09,-0.16,-1.13,5.81,1018.32
11.974,-0.18,1.30,0.37,-10.30,6.58,1.90,-0.16,-1.13,5.81,1018.32
11.994,0.71,0.52,0.19,-10.30,6.58,1.90,-0.16,-1.13,5.81,1018.32
12.023,0.71,0.52,0.19,-10.30,6.58,1.90,-0.01,-0.07,-1.96,1018.32
12.043,0.71,0.52,0.19,-0.13,1.57,1.72,-0.01,-0.07,-1.96,1018.32
12.048,0.71,0.52,0.19,-0.13,1.57,1.72,-0.01,-0.07,-1.96,1018.71
12.063,-0.30,0.30,-0.01,-0.13,1.57,1.72,-0.01,-0.07,-1.96,1018.71
12.086,-0.30,0.30,-0.01,-0.13,1.57,1.72,-0.01,-0.07,-1.96,1018.86
12.093,-0.30,0.30,-0.01,-0.13,1.57,1.72,0.04,0.46,-3.76,1018.86
12.113,-0.30,0.30,-0.01,-10.14,-4.79,0.47,0.04,0.46,-3.76,1018.86
12.134,-0.13,0.62,-0.05,-10.14,-4.79,0.47,0.04,0.46,-3.76,1018.86
12.167,-0.13,0.62,-0.05,-10.14,-4.79,0.47,0.46,0.27,-5.07,1018.86
12.17,-0.13,0.62,-0.05,-10.14,-4.79,0.47,0.46,0.27,-5.07,1018.89
12.183,-0.13,0.62,-0.05,-3.50,-3.87,-0.15,0.46,0.27,-5.07,1018.89
12.203,-0.06,1.23,-0.15,-3.50,-3.87,-0.15,0.46,0.27,-5.07,1018.89
12.233,-0.06,1.23,-0.15,-3.50,-3.87,-0.15,0.61,0.25,-4.80,1018.89
12.248,-0.06,1.23,-0.15,-3.50,-3.87,-0.15,0.61,0.25,-4.80,1018.84
12.253,-0.06,1.23,-0.15,-0.66,1.02,-1.24,0.61,0.25,-4.80,1018.84
12.273,0.24,1.88,-0.25,-0.66,1.02,-1.24,0.61,0.25,-4.80,1018.84
12.286,0.24,1.88,-0.25,-0.66,1.02,-1.24,0.61,0.25,-4.80,1018.93
12.303,0.24,1.88,-0.25,-0.66,1.02,-1.24,0.47,0.23,-3.65,1018.93
12.323,0.24,1.88,-0.25,1.99,7.75,-1.83,0.47,0.23,-3.65,1018.93
12.343,2.03,1.35,0.28,1.99,7.75,-1.83,0.47,0.23,-3.65,1018.93
12.372,2.03,1.35,0.28,1.99,7.75,-1.83,0.47,0.23,-3.65,1019.16
12.373,2.03,1.35,0.28,1.99,7.75,-1.83,0.14,-0.16,-0.64,1019.16
12.393,2.03,1.35,0.28,21.00,7.63,1.89,0.14,-0.16,-0.64,1019.16
12.413,-0.49,1.15,-0.18,21.00,7.63,1.89,0.14,-0.16,-0.64,1019.16
12.443,-0.49,1.15,-0.18,21.00,7.63,1.89,-1.08,0.82,3.41,1019.16
12.445,-0.49,1.15,-0.18,21.00,7.63,1.89,-1.08,0.82,3.41,1019.70
12.466,-0.49,1.15,-0.18,3.97,2.24,-1.53,-1.08,0.82,3.41,1019.70
12.483,0.59,1.27,0.01,3.97,2.24,-1.53,-1.08,0.82,3.41,1019.70
12.485,0.59,1.27,0.01,3.97,2.24,-1.53,-1.08,0.82,3.41,1019.62
12.513,0.59,1.27,0.01,3.97,2.24,-1.53,-0.29,0.18,0.37,1019.62
12.533,0.59,1.27,0.01,7.38,3.50,1.70,-0.29,0.18,0.37,1019.62
12.553,-0.15,0.97,0.11,7.38,3.50,1.70,-0.29,0.18,0.37,1019.62
12.566,-0.15,0.97,0.11,7.38,3.50,1.70,-0.29,0.18,0.37,1019.14
12.586,-0.15,0.97,0.11,7.38,3.50,1.70,-0.14,0.03,0.21,1019.14
12.603,-0.15,0.97,0.11,0.35,0.37,0.50,-0.14,0.03,0.21,1019.14
12.623,-0.11,0.99,0.03,0.35,0.37,0.50,-0.14,0.03,0.21,1019.14
12.645,-0.11,0.99,0.03,0.35,0.37,0.50,-0.14,0.03,0.21,1019.00
12.653,-0.11,0.99,0.03,0.35,0.37,0.50,-0.10,-0.04,0.10,1019.00
12.673,-0.11,0.99,0.03,0.07,0.30,0.14,-0.10,-0.04,0.10,1019.00
12.686,-0.11,0.99,0.03,0.07,0.30,0.14,-0.10,-0.04,0.10,1018.91
12.693,-0.14,0.97,0.05,0.07,0.30,0.14,-0.10,-0.04,0.10,1018.91
12.724,-0.14,0.97,0.05,0.07,0.30,0.14,-0.03,-0.06,0.10,1018.91
12.744,-0.14,0.97,0.05,-0.17,0.22,0.26,-0.03,-0.06,0.10,1018.91
12.763,-0.15,0.97,0.04,-0.17,0.22,0.26,-0.03,-0.06,0.10,1018.91
12.774,-0.15,0.97,0.04,-0.17,0.22,0.26,-0.03,-0.06,0.10,1018.94
12.794,-0.15,0.97,0.04,-0.17,0.22,0.26,0.01,-0.08,0.20,1018.94
12.814,-0.15,0.97,0.04,-0.27,0.19,0.09,0.01,-0.08,0.20,1018.94
12.834,-0.13,0.98,0.03,-0.27,0.19,0.09,0.01,-0.08,0.20,1018.94
12.847,-0.13,0.98,0.03,-0.27,0.19,0.09,0.01,-0.08,0.20,1018.96
12.864,-0.13,0.98,0.03,-0.27,0.19,0.09,0.03,-0.09,0.28,1018.96
12.883,-0.13,0.98,0.03,-0.43,0.17,0.21,0.03,-0.09,0.28,1018.96
12.886,-0.13,0.98,0.03,-0.43,0.17,0.21,0.03,-0.09,0.28,1019.00
12.903,-0.11,0.98,0.05,-0.43,0.17,0.21,0.03,-0.09,0.28,1019.00
12.934,-0.11,0.98,0.05,-0.43,0.17,0.21,0.10,-0.12,0.38,1019.00
12.954,-0.11,0.98,0.05,-0.40,0.18,0.27,0.10,-0.12,0.38,1019.00
12.966,-0.11,0.98,0.05,-0.40,0.18,0.27,0.10,-0.12,0.38,1019.06
12.974,-0.19,1.04,0.03,-0.40,0.18,0.27,0.10,-0.12,0.38,1019.06
13.003,-0.19,1.04,0.03,-0.40,0.18,0.27,0.11,-0.18,0.90,1019.06
13.024,-0.19,1.04,0.03,-1.19,0.48,0.28,0.11,-0.18,0.90,1019.06
13.044,-0.33,1.19,-0.13,-1.19,0.48,0.28,0.11,-0.18,0.90,1019.06
13.046,-0.33,1.19,-0.13,-1.19,0.48,0.28,0.11,-0.18,0.90,1019.09
13.074,-0.33,1.19,-0.13,-1.19,0.48,0.28,-0.29,-0.21,2.22,1019.09
13.086,-0.33,1.19,-0.13,-1.19,0.48,0.28,-0.29,-0.21,2.22,1019.05
13.094,-0.33,1.19,-0.13,-3.18,1.68,-0.90,-0.29,-0.21,2.22,1019.05
13.113,-0.83,1.46,-0.17,-3.18,1.68,-0.90,-0.29,-0.21,2.22,1019.05
13.144,-0.83,1.46,-0.17,-3.18,1.68,-0.90,-0.81,-0.75,5.16,1019.05
13.164,-0.83,1.46,-0.17,-8.49,4.43,-2.15,-0.81,-0.75,5.16,1019.05
13.166,-0.83,1.46,-0.17,-8.49,4.43,-2.15,-0.81,-0.75,5.16,1018.62
13.183,-0.25,1.43,0.36,-8.49,4.43,-2.15,-0.81,-0.75,5.16,1018.62
13.214,-0.25,1.43,0.36,-8.49,4.43,-2.15,-0.08,-1.05,6.05,1018.62
13.234,-0.25,1.43,0.36,-11.29,7.23,1.52,-0.08,-1.05,6.05,1018.62
13.246,-0.25,1.43,0.36,-11.29,7.23,1.52,-0.08,-1.05,6.05,1018.32
13.255,0.76,0.63,0.27,-11.29,7.23,1.52,-0.08,-1.05,6.05,1018.32
13.285,0.76,0.63,0.27,-11.29,7.23,1.52,0.14,0.18,-1.08,1018.32
13.285,0.76,0.63,0.27,-11.29,7.23,1.52,0.14,0.18,-1.08,1018.70
13.304,0.76,0.63,0.27,-1.17,2.96,2.55,0.14,0.18,-1.08,1018.70
13.323,-0.41,0.25,0.00,-1.17,2.96,2.55,0.14,0.18,-1.08,1018.70
13.353,-0.41,0.25,0.00,-1.17,2.96,2.55,0.01,0.41,-3.05,1018.70
13.366,-0.41,0.25,0.00,-1.17,2.96,2.55,0.01,0.41,-3.05,1018.85
13.374,-0.41,0.25,0.00,-9.27,-4.16,0.32,0.01,0.41,-3.05,1018.85
13.393,-0.08,0.50,0.01,-9.27,-4.16,0.32,0.01,0.41,-3.05,1018.85
13.423,-0.08,0.50,0.01,-9.27,-4.16,0.32,0.38,0.16,-4.89,1018.85
13.444,-0.08,0.50,0.01,-4.32,-4.55,0.30,0.38,0.16,-4.89,1018.85
13.446,-0.08,0.50,0.01,-4.32,-4.55,0.30,0.38,0.16,-4.89,1018.90
13.464,-0.02,1.12,-0.11,-4.32,-4.55,0.30,0.38,0.16,-4.89,1018.90
13.486,-0.02,1.12,-0.11,-4.32,-4.55,0.30,0.38,0.16,-4.89,1018.86
13.494,-0.02,1.12,-0.11,-4.32,-4.55,0.30,0.54,-0.02,-5.43,1018.86
13.514,-0.02,1.12,-0.11,-1.31,-0.05,-0.98,0.54,-0.02,-5.43,1018.86
13.534,-0.02,1.82,-0.20,-1.31,-0.05,-0.98,0.54,-0.02,-5.43,1018.86
13.563,-0.02,1.82,-0.20,-1.31,-0.05,-0.98,0.58,0.66,-4.59,1018.86
13.565,-0.02,1.82,-0.20,-1.31,-0.05,-0.98,0.58,0.66,-4.59,1018.97
13.583,-0.02,1.82,-0.20,1.84,6.81,-1.68,0.58,0.66,-4.59,1018.97
13.604,1.56,1.70,0.20,1.84,6.81,-1.68,0.58,0.66,-4.59,1018.97
13.633,1.56,1.70,0.20,1.84,6.81,-1.68,0.14,-0.24,-1.65,1018.97
13.646,1.56,1.70,0.20,1.84,6.81,-1.68,0.14,-0.24,-1.65,1019.17
13.654,1.56,1.70,0.20,12.64,11.01,0.71,0.14,-0.24,-1.65,1019.17
13.674,0.15,1.10,-0.20,12.64,11.01,0.71,0.14,-0.24,-1.65,1019.17
13.688,0.15,1.10,-0.20,12.64,11.01,0.71,0.14,-0.24,-1.65,1019.34
13.703,0.15,1.10,-0.20,12.64,11.01,0.71,-1.04,0.67,4.10,1019.34
13.724,0.15,1.10,-0.20,13.66,2.49,1.83,-1.04,0.67,4.10,1019.34
13.744,0.57,1.30,0.14,13.66,2.49,1.83,-1.04,0.67,4.10,1019.34
13.766,0.57,1.30,0.14,13.66,2.49,1.83,-1.04,0.67,4.10,1019.83
13.773,0.57,1.30,0.14,13.66,2.49,1.83,-0.31,0.60,0.94,1019.83
13.794,0.57,1.30,0.14,5.27,2.70,2.82,-0.31,0.60,0.94,1019.83
13.814,-0.10,0.99,0.08,5.27,2.70,2.82,-0.31,0.60,0.94,1019.83
13.844,-0.10,0.99,0.08,5.27,2.70,2.82,-0.21,0.03,0.26,1019.83
13.846,-0.10,0.99,0.08,5.27,2.70,2.82,-0.21,0.03,0.26,1019.20
13.863,-0.10,0.99,0.08,1.48,1.55,-2.96,-0.21,0.03,0.26,1019.20
13.883,-0.12,0.99,0.03,1.48,1.55,-2.96,-0.21,0.03,0.26,1019.20
13.887,-0.12,0.99,0.03,1.48,1.55,-2.96,-0.21,0.03,0.26,1019.04
13.913,-0.12,0.99,0.03,1.48,1.55,-2.96,-0.06,-0.01,0.18,1019.04
13.934,-0.12,0.99,0.03,-0.13,0.30,0.57,-0.06,-0.01,0.18,1019.04
13.954,-0.12,0.97,0.05,-0.13,0.30,0.57,-0.06,-0.01,0.18,1019.04
13.966,-0.12,0.97,0.05,-0.13,0.30,0.57,-0.06,-0.01,0.18,1018.96
13.983,-0.12,0.97,0.05,-0.13,0.30,0.57,0.01,-0.05,0.17,1018.96
14.004,-0.12,0.97,0.05,-0.23,0.34,0.01,0.01,-0.05,0.17,1018.96
14.024,-0.12,0.98,0.04,-0.23,0.34,0.01,0.01,-0.05,0.17,1018.96
14.046,-0.12,0.98,0.04,-0.23,0.34,0.01,0.01,-0.05,0.17,1018.95
14.054,-0.12,0.98,0.04,-0.23,0.34,0.01,0.06,-0.07,0.21,1018.95
14.073,-0.12,0.98,0.04,-0.28,0.16,0.23,0.06,-0.07,0.21,1018.95
14.088,-0.12,0.98,0.04,-0.28,0.16,0.23,0.06,-0.07,0.21,1018.98
14.094,-0.11,0.98,0.02,-0.28,0.16,0.23,0.06,-0.07,0.21,1018.98
14.123,-0.11,0.98,0.02,-0.28,0.16,0.23,0.08,-0.09,0.27,1018.98
14.143,-0.11,0.98,0.02,-0.41,0.19,0.16,0.08,-0.09,0.27,1018.98
14.165,-0.12,1.00,0.04,-0.41,0.19,0.16,0.08,-0.09,0.27,1018.98
14.166,-0.12,1.00,0.04,-0.41,0.19,0.16,0.08,-0.09,0.27,1019.03
14.193,-0.12,1.00,0.04,-0.41,0.19,0.16,0.14,-0.13,0.44,1019.03
14.213,-0.12,1.00,0.04,-0.45,0.31,0.14,0.14,-0.13,0.44,1019.03
14.233,-0.21,1.08,-0.06,-0.45,0.31,0.14,0.14,-0.13,0.44,1019.03
14.245,-0.21,1.08,-0.06,-0.45,0.31,0.14,0.14,-0.13,0.44,1019.06
14.263,-0.21,1.08,-0.06,-0.45,0.31,0.14,-0.05,-0.14,1.16,1019.06
14.284,-0.21,1.08,-0.06,-1.53,0.87,-0.35,-0.05,-0.14,1.16,1019.06
14.286,-0.21,1.08,-0.06,-1.53,0.87,-0.35,-0.05,-0.14,1.16,1019.05
14.303,-0.44,1.28,-0.12,-1.53,0.87,-0.35,-0.05,-0.14,1.16,1019.05
14.333,-0.44,1.28,-0.12,-1.53,0.87,-0.35,-0.39,-0.40,2.96,1019.05
14.353,-0.44,1.28,-0.12,-4.52,2.37,-0.90,-0.39,-0.40,2.96,1019.05
14.365,-0.44,1.28,-0.12,-4.52,2.37,-0.90,-0.39,-0.40,2.96,1018.85
14.373,-0.92,1.51,-0.12,-4.52,2.37,-0.90,-0.39,-0.40,2.96,1018.85
14.403,-0.92,1.51,-0.12,-4.52,2.37,-0.90,-0.69,-0.90,6.03,1018.85
14.424,-0.92,1.51,-0.12,-12.01,5.78,-2.49,-0.69,-0.90,6.03,1018.85
14.443,-0.04,1.15,0.47,-12.01,5.78,-2.49,-0.69,-0.90,6.03,1018.85
14.446,-0.04,1.15,0.47,-12.01,5.78,-2.49,-0.69,-0.90,6.03,1018.44
14.473,-0.04,1.15,0.47,-12.01,5.78,-2.49,0.20,-0.40,4.22,1018.44
14.486,-0.04,1.15,0.47,-12.01,5.78,-2.49,0.20,-0.40,4.22,1018.57
14.493,-0.04,1.15,0.47,-8.32,7.48,3.63,0.20,-0.40,4.22,1018.57
14.516,0.53,0.47,0.16,-8.32,7.48,3.63,0.20,-0.40,4.22,1018.57
14.543,0.53,0.47,0.16,-8.32,7.48,3.63,0.05,0.53,-2.07,1018.57
14.563,0.53,0.47,0.16,-1.41,-0.63,2.11,0.05,0.53,-2.07,1018.57
14.566,0.53,0.47,0.16,-1.41,-0.63,2.11,0.05,0.53,-2.07,1018.70
14.589,-0.09,0.25,0.07,-1.41,-0.63,2.11,0.05,0.53,-2.07,1018.70
14.614,-0.09,0.25,0.07,-1.41,-0.63,2.11,0.34,0.33,-4.16,1018.70
14.634,-0.09,0.25,0.07,-8.31,-5.29,0.03,0.34,0.33,-4.16,1018.70
14.645,-0.09,0.25,0.07,-8.31,-5.29,0.03,0.34,0.33,-4.16,1018.79
14.654,-0.04,0.71,0.01,-8.31,-5.29,0.03,0.34,0.33,-4.16,1018.79
14.683,-0.04,0.71,0.01,-8.31,-5.29,0.03,0.63,-0.22,-5.25,1018.79
14.686,-0.04,0.71,0.01,-8.31,-5.29,0.03,0.63,-0.22,-5.25,1018.89
14.705,-0.04,0.71,0.01,-3.00,-3.52,0.14,0.63,-0.22,-5.25,1018.89
14.724,0.09,1.33,-0.13,-3.00,-3.52,0.14,0.63,-0.22,-5.25,1018.89
14.755,0.09,1.33,-0.13,-3.00,-3.52,0.14,0.32,0.84,-5.19,1018.89
14.766,0.09,1.33,-0.13,-3.00,-3.52,0.14,0.32,0.84,-5.19,1018.85
14.774,0.09,1.33,-0.13,1.31,2.35,-0.68,0.32,0.84,-5.19,1018.85
14.794,0.46,1.81,-0.02,1.31,2.35,-0.68,0.32,0.84,-5.19,1018.85
14.823,0.46,1.81,-0.02,1.31,2.35,-0.68,0.44,1.37,-4.17,1018.85
14.844,0.46,1.81,-0.02,5.55,8.27,-0.83,0.44,1.37,-4.17,1018.85
14.845,0.46,1.81,-0.02,5.55,8.27,-0.83,0.44,1.37,-4.17,1019.16
14.863,1.36,1.41,0.26,5.55,8.27,-0.83,0.44,1.37,-4.17,1019.16
14.885,1.36,1.41,0.26,5.55,8.27,-0.83,0.44,1.37,-4.17,1018.97
14.893,1.36,1.41,0.26,5.55,8.27,-0.83,-0.53,0.62,0.90,1018.97
14.914,1.36,1.41,0.26,16.04,7.79,3.42,-0.53,0.62,0.90,1018.97
14.934,-0.34,1.09,-0.18,16.04,7.79,3.42,-0.53,0.62,0.90,1018.97
14.964,-0.34,1.09,-0.18,16.04,7.79,3.42,-0.91,0.79,2.83,1018.97
14.965,-0.34,1.09,-0.18,16.04,7.79,3.42,-0.91,0.79,2.83,1019.74
14.984,-0.34,1.09,-0.18,2.75,1.33,-0.11,-0.91,0.79,2.83,1019.74
15.003,0.36,1.24,0.01,2.75,1.33,-0.11,-0.91,0.79,2.83,1019.74
15.034,0.36,1.24,0.01,2.75,1.33,-0.11,-0.47,0.18,0.51,1019.74
15.045,0.36,1.24,0.01,2.75,1.33,-0.11,-0.47,0.18,0.51,1019.49
15.054,0.36,1.24,0.01,6.37,3.62,0.77,-0.47,0.18,0.51,1019.49
15.074,-0.16,0.97,0.11,6.37,3.62,0.77,-0.47,0.18,0.51,1019.49
15.085,-0.16,0.97,0.11,6.37,3.62,0.77,-0.47,0.18,0.51,1019.17
15.104,-0.16,0.97,0.11,6.37,3.62,0.77,-0.20,0.01,0.25,1019.17
15.124,-0.16,0.97,0.11,0.46,0.56,-0.19,-0.20,0.01,0.25,1019.17
15.144,-0.12,0.99,0.01,0.46,0.56,-0.19,-0.20,0.01,0.25,1019.17
15.165,-0.12,0.99,0.01,0.46,0.56,-0.19,-0.20,0.01,0.25,1019.02
15.174,-0.12,0.99,0.01,0.46,0.56,-0.19,-0.09,-0.03,0.10,1019.02
15.194,-0.12,0.99,0.01,0.12,0.33,0.31,-0.09,-0.03,0.10,1019.02
15.214,-0.18,0.97,0.05,0.12,0.33,0.31,-0.09,-0.03,0.10,1019.02
15.244,-0.18,0.97,0.05,0.12,0.33,0.31,0.02,-0.03,0.19,1019.02
15.245,-0.18,0.97,0.05,0.12,0.33,0.31,0.02,-0.03,0.19,1018.96
15.265,-0.18,0.97,0.05,-0.40,0.28,0.30,0.02,-0.03,0.19,1018.96
15.284,-0.17,0.98,0.02,-0.40,0.28,0.30,0.02,-0.03,0.19,1018.96
15.286,-0.17,0.98,0.02,-0.40,0.28,0.30,0.02,-0.03,0.19,1018.92
15.315,-0.17,0.98,0.02,-0.40,0.28,0.30,0.03,-0.05,0.28,1018.92
15.335,-0.17,0.98,0.02,-0.62,0.30,-0.03,0.03,-0.05,0.28,1018.92
15.355,-0.12,0.97,0.03,-0.62,0.30,-0.03,0.03,-0.05,0.28,1018.92
15.367,-0.12,0.97,0.03,-0.62,0.30,-0.03,0.03,-0.05,0.28,1018.93
15.385,-0.12,0.97,0.03,-0.62,0.30,-0.03,0.08,-0.08,0.26,1018.93
15.405,-0.12,0.97,0.03,-0.22,0.26,0.12,0.08,-0.08,0.26,1018.93
15.427,-0.11,0.96,0.04,-0.22,0.26,0.12,0.08,-0.08,0.26,1018.93
15.446,-0.11,0.96,0.04,-0.22,0.26,0.12,0.08,-0.08,0.26,1019.04
15.454,-0.11,0.96,0.04,-0.22,0.26,0.12,0.14,-0.02,0.29,1019.04
15.475,-0.11,0.96,0.04,-0.25,0.04,0.38,0.14,-0.02,0.29,1019.04
15.486,-0.11,0.96,0.04,-0.25,0.04,0.38,0.14,-0.02,0.29,1019.09
15.494,-0.15,1.01,-0.00,-0.25,0.04,0.38,0.14,-0.02,0.29,1019.09
15.524,-0.15,1.01,-0.00,-0.25,0.04,0.38,0.17,-0.02,0.54,1019.09
15.544,-0.15,1.01,-0.00,-0.68,0.40,0.12,0.17,-0.02,0.54,1019.09
15.564,-0.21,1.07,-0.04,-0.68,0.40,0.12,0.17,-0.02,0.54,1019.09
15.565,-0.21,1.07,-0.04,-0.68,0.40,0.12,0.17,-0.02,0.54,1019.08
15.594,-0.21,1.07,-0.04,-0.68,0.40,0.12,0.13,-0.05,1.23,1019.08
15.614,-0.21,1.07,-0.04,-1.72,0.92,-0.25,0.13,-0.05,1.23,1019.08
15.635,-0.38,1.26,-0.13,-1.72,0.92,-0.25,0.13,-0.05,1.23,1019.08
15.646,-0.38,1.26,-0.13,-1.72,0.92,-0.25,0.13,-0.05,1.23,1019.04
15.664,-0.38,1.26,-0.13,-1.72,0.92,-0.25,-0.01,-0.10,2.75,1019.04
15.684,-0.38,1.26,-0.13,-3.89,2.10,-0.52,-0.01,-0.10,2.75,1019.04
15.685,-0.38,1.26,-0.13,-3.89,2.10,-0.52,-0.01,-0.10,2.75,1018.73
15.708,-0.70,1.43,-0.05,-3.89,2.10,-0.52,-0.01,-0.10,2.75,1018.73
15.764,-0.70,1.43,-0.05,-3.89,2.10,-0.52,-0.01,-0.23,5.27,1018.73
15.765,-0.70,1.43,-0.05,-10.17,5.16,-1.51,-0.01,-0.23,5.27,1018.73
15.765,-0.70,1.43,-0.05,-10.17,5.16,-1.51,-0.01,-0.23,5.27,1018.31
15.783,0.08,1.05,0.45,-10.17,5.16,-1.51,-0.01,-0.23,5.27,1018.31
15.804,0.08,1.05,0.45,-10.17,5.16,-1.51,1.01,0.89,3.78,1018.31
15.824,0.08,1.05,0.45,-6.46,5.38,4.65,1.01,0.89,3.78,1018.31
15.85,0.45,0.50,0.12,-6.46,5.38,4.65,1.01,0.89,3.78,1018.31
15.851,0.45,0.50,0.12,-6.46,5.38,4.65,1.01,0.89,3.78,1018.55
15.874,0.45,0.50,0.12,-6.46,5.38,4.65,0.91,1.86,-1.53,1018.55
15.886,0.45,0.50,0.12,-6.46,5.38,4.65,0.91,1.86,-1.53,1018.81
15.899,0.45,0.50,0.12,-0.81,-0.78,1.40,0.91,1.86,-1.53,1018.81
15.914,-0.12,0.37,0.23,-0.81,-0.78,1.40,0.91,1.86,-1.53,1018.81
15.944,-0.12,0.37,0.23,-0.81,-0.78,1.40,1.53,0.77,-3.33,1018.81
15.964,-0.12,0.37,0.23,-8.23,-4.33,1.63,1.53,0.77,-3.33,1018.81
15.966,-0.12,0.37,0.23,-8.23,-4.33,1.63,1.53,0.77,-3.33,1018.96
15.986,0.04,0.75,0.39,-8.23,-4.33,1.63,1.53,0.77,-3.33,1018.96
16.014,0.04,0.75,0.39,-8.23,-4.33,1.63,1.63,1.49,-4.65,1018.96
16.034,0.04,0.75,0.39,-3.18,-2.75,4.31,1.63,1.49,-4.65,1018.96
16.045,0.04,0.75,0.39,-3.18,-2.75,4.31,1.63,1.49,-4.65,1019.07
16.054,0.08,1.29,0.36,-3.18,-2.75,4.31,1.63,1.49,-4.65,1019.07
16.084,0.08,1.29,0.36,-3.18,-2.75,4.31,0.18,3.04,-4.81,1019.07
16.086,0.08,1.29,0.36,-3.18,-2.75,4.31,0.18,3.04,-4.81,1018.88
16.105,0.08,1.29,0.36,1.20,1.94,4.80,0.18,3.04,-4.81,1018.88
16.124,-0.24,1.52,0.41,1.20,1.94,4.80,0.18,3.04,-4.81,1018.88
16.154,-0.24,1.52,0.41,1.20,1.94,4.80,-0.79,2.18,-3.91,1018.88
16.165,-0.24,1.52,0.41,1.20,1.94,4.80,-0.79,2.18,-3.91,1018.83
16.174,-0.24,1.52,0.41,0.34,5.82,4.74,-0.79,2.18,-3.91,1018.83
16.194,0.35,1.45,0.30,0.34,5.82,4.74,-0.79,2.18,-3.91,1018.83
16.224,0.35,1.45,0.30,0.34,5.82,4.74,-0.18,0.40,-2.48,1018.83
16.246,0.35,1.45,0.30,5.08,6.52,3.90,-0.18,0.40,-2.48,1018.83
16.247,0.35,1.45,0.30,5.08,6.52,3.90,-0.18,0.40,-2.48,1019.01
16.264,0.94,1.16,0.14,5.08,6.52,3.90,-0.18,0.40,-2.48,1019.01
16.286,0.94,1.16,0.14,5.08,6.52,3.90,-0.18,0.40,-2.48,1018.89
16.295,0.94,1.16,0.14,5.08,6.52,3.90,-0.33,-0.30,1.79,1018.89
16.315,0.94,1.16,0.14,14.18,4.04,2.86,-0.33,-0.30,1.79,1018.89
16.335,-0.06,1.23,-0.61,14.18,4.04,2.86,-0.33,-0.30,1.79,1018.89
16.364,-0.06,1.23,-0.61,14.18,4.04,2.86,-1.13,1.09,2.80,1018.89
16.366,-0.06,1.23,-0.61,14.18,4.04,2.86,-1.13,1.09,2.80,1019.83
16.385,-0.06,1.23,-0.61,2.31,2.03,-4.48,-1.13,1.09,2.80,1019.83
16.404,0.31,1.18,0.23,2.31,2.03,-4.48,-1.13,1.09,2.80,1019.83
16.435,0.31,1.18,0.23,2.31,2.03,-4.48,-0.39,0.26,0.47,1019.83
16.446,0.31,1.18,0.23,2.31,2.03,-4.48,-0.39,0.26,0.47,1019.37
16.455,0.31,1.18,0.23,6.58,3.68,-0.13,-0.39,0.26,0.47,1019.37
16.474,-0.12,0.97,0.07,6.58,3.68,-0.13,-0.39,0.26,0.47,1019.37
16.486,-0.12,0.97,0.07,6.58,3.68,-0.13,-0.39,0.26,0.47,1019.10
16.505,-0.12,0.97,0.07,6.58,3.68,-0.13,-0.16,0.11,0.28,1019.10
16.525,-0.12,0.97,0.07,0.01,0.18,1.20,-0.16,0.11,0.28,1019.10
16.545,-0.12,0.99,0.02,0.01,0.18,1.20,-0.16,0.11,0.28,1019.10
16.566,-0.12,0.99,0.02,0.01,0.18,1.20,-0.16,0.11,0.28,1019.03
16.574,-0.12,0.99,0.02,0.01,0.18,1.20,-0.12,-0.01,0.13,1019.03
16.595,-0.12,0.99,0.02,0.39,0.51,-0.28,-0.12,-0.01,0.13,1019.03
16.614,-0.14,0.98,0.06,0.39,0.51,-0.28,-0.12,-0.01,0.13,1019.03
16.645,-0.14,0.98,0.06,0.39,0.51,-0.28,-0.00,-0.01,0.18,1019.03
16.645,-0.14,0.98,0.06,0.39,0.51,-0.28,-0.00,-0.01,0.18,1018.96
16.664,-0.14,0.98,0.06,-0.24,0.22,0.30,-0.00,-0.01,0.18,1018.96
16.685,-0.14,0.98,0.04,-0.24,0.22,0.30,-0.00,-0.01,0.18,1018.96
16.686,-0.14,0.98,0.04,-0.24,0.22,0.30,-0.00,-0.01,0.18,1018.96
16.715,-0.14,0.98,0.04,-0.24,0.22,0.30,0.06,-0.07,0.28,1018.96
16.736,-0.14,0.98,0.04,-0.40,0.31,-0.06,0.06,-0.07,0.28,1018.96
16.754,-0.09,0.98,0.03,-0.40,0.31,-0.06,0.06,-0.07,0.28,1018.96
16.766,-0.09,0.98,0.03,-0.40,0.31,-0.06,0.06,-0.07,0.28,1018.97
16.784,-0.09,0.98,0.03,-0.40,0.31,-0.06,0.07,-0.08,0.26,1018.97
16.807,-0.09,0.98,0.03,-0.13,0.25,-0.03,0.07,-0.08,0.26,1018.97
16.825,-0.09,0.97,0.05,-0.13,0.25,-0.03,0.07,-0.08,0.26,1018.97
16.846,-0.09,0.97,0.05,-0.13,0.25,-0.03,0.07,-0.08,0.26,1019.02
16.855,-0.09,0.97,0.05,-0.13,0.25,-0.03,0.13,-0.07,0.30,1019.02
16.875,-0.09,0.97,0.05,-0.11,0.15,0.12,0.13,-0.07,0.30,1019.02
16.886,-0.09,0.97,0.05,-0.11,0.15,0.12,0.13,-0.07,0.30,1019.12
16.895,-0.12,1.01,0.01,-0.11,0.15,0.12,0.13,-0.07,0.30,1019.12
16.925,-0.12,1.01,0.01,-0.11,0.15,0.12,0.13,-0.05,0.59,1019.12
16.945,-0.12,1.01,0.01,-0.58,0.38,-0.01,0.13,-0.05,0.59,1019.12
16.965,-0.21,1.08,-0.02,-0.58,0.38,-0.01,0.13,-0.05,0.59,1019.12
16.966,-0.21,1.08,-0.02,-0.58,0.38,-0.01,0.13,-0.05,0.59,1019.12
16.994,-0.21,1.08,-0.02,-0.58,0.38,-0.01,0.08,-0.03,1.40,1019.12
17.015,-0.21,1.08,-0.02,-1.90,0.88,-0.24,0.08,-0.03,1.40,1019.12
17.035,-0.41,1.30,-0.14,-1.90,0.88,-0.24,0.08,-0.03,1.40,1019.12
17.046,-0.41,1.30,-0.14,-1.90,0.88,-0.24,0.08,-0.03,1.40,1019.08
17.066,-0.41,1.30,-0.14,-1.90,0.88,-0.24,-0.15,-0.27,3.16,1019.08
17.085,-0.41,1.30,-0.14,-4.40,2.64,-0.99,-0.15,-0.27,3.16,1019.08
17.085,-0.41,1.30,-0.14,-4.40,2.64,-0.99,-0.15,-0.27,3.16,1018.69
17.105,-0.66,1.43,0.06,-4.40,2.64,-0.99,-0.15,-0.27,3.16,1018.69
17.135,-0.66,1.43,0.06,-4.40,2.64,-0.99,-0.11,-0.68,5.66,1018.69
17.155,-0.66,1.43,0.06,-11.37,5.30,-0.88,-0.11,-0.68,5.66,1018.69
17.167,-0.66,1.43,0.06,-11.37,5.30,-0.88,-0.11,-0.68,5.66,1018.37
17.175,0.15,0.94,0.33,-11.37,5.30,-0.88,-0.11,-0.68,5.66,1018.37
17.204,0.15,0.94,0.33,-11.37,5.30,-0.88,0.53,0.28,2.82,1018.37
17.225,0.15,0.94,0.33,-6.21,6.20,3.55,0.53,0.28,2.82,1018.37
17.245,0.42,0.55,0.10,-6.21,6.20,3.55,0.53,0.28,2.82,1018.37
17.246,0.42,0.55,0.10,-6.21,6.20,3.55,0.53,0.28,2.82,1018.65
17.276,0.42,0.55,0.10,-6.21,6.20,3.55,0.47,1.27,-2.12,1018.65
17.286,0.42,0.55,0.10,-6.21,6.20,3.55,0.47,1.27,-2.12,1018.80
17.295,0.42,0.55,0.10,-0.73,-1.62,1.55,0.47,1.27,-2.12,1018.80
17.316,-0.02,0.35,0.20,-0.73,-1.62,1.55,0.47,1.27,-2.12,1018.80
17.345,-0.02,0.35,0.20,-0.73,-1.62,1.55,0.77,1.02,-4.04,1018.80
17.365,-0.02,0.35,0.20,-6.77,-4.68,0.82,0.77,1.02,-4.04,1018.80
17.366,-0.02,0.35,0.20,-6.77,-4.68,0.82,0.77,1.02,-4.04,1018.86
17.386,-0.02,0.72,0.20,-6.77,-4.68,0.82,0.77,1.02,-4.04,1018.86
17.415,-0.02,0.72,0.20,-6.77,-4.68,0.82,0.77,0.96,-4.80,1018.86
17.435,-0.02,0.72,0.20,-2.99,-3.25,1.80,0.77,0.96,-4.80,1018.86
17.447,-0.02,0.72,0.20,-2.99,-3.25,1.80,0.77,0.96,-4.80,1018.89
17.456,-0.06,1.31,0.12,-2.99,-3.25,1.80,0.77,0.96,-4.80,1018.89
17.485,-0.06,1.31,0.12,-2.99,-3.25,1.80,0.25,1.18,-4.60,1018.89
17.486,-0.06,1.31,0.12,-2.99,-3.25,1.80,0.25,1.18,-4.60,1018.86
17.506,-0.06,1.31,0.12,0.77,1.97,1.57,0.25,1.18,-4.60,1018.86
17.525,0.05,1.71,0.10,0.77,1.97,1.57,0.25,1.18,-4.60,1018.86
17.556,0.05,1.71,0.10,0.77,1.97,1.57,0.30,1.54,-3.31,1018.86
17.566,0.05,1.71,0.10,0.77,1.97,1.57,0.30,1.54,-3.31,1019.02
17.575,0.05,1.71,0.10,2.63,7.27,1.35,0.30,1.54,-3.31,1019.02
17.594,1.34,1.46,0.24,2.63,7.27,1.35,0.30,1.54,-3.31,1019.02
17.625,1.34,1.46,0.24,2.63,7.27,1.35,-0.29,0.63,0.01,1019.02
17.646,1.34,1.46,0.24,13.29,7.68,2.96,-0.29,0.63,0.01,1019.02
17.647,1.34,1.46,0.24,13.29,7.68,2.96,-0.29,0.63,0.01,1019.12
17.665,0.08,1.14,-0.03,13.29,7.68,2.96,-0.29,0.63,0.01,1019.12
17.686,0.08,1.14,-0.03,13.29,7.68,2.96,-0.29,0.63,0.01,1019.85
17.695,0.08,1.14,-0.03,13.29,7.68,2.96,-1.10,0.89,2.87,1019.85
17.715,0.08,1.14,-0.03,8.68,1.95,0.38,-1.10,0.89,2.87,1019.85
17.735,0.34,1.21,-0.15,8.68,1.95,0.38,-1.10,0.89,2.87,1019.85
17.766,0.34,1.21,-0.15,8.68,1.95,0.38,-0.51,0.19,0.38,1019.85
17.766,0.34,1.21,-0.15,8.68,1.95,0.38,-0.51,0.19,0.38,1019.40
17.785,0.34,1.21,-0.15,6.27,3.86,0.35,-0.51,0.19,0.38,1019.40
17.805,-0.12,0.96,0.13,6.27,3.86,0.35,-0.51,0.19,0.38,1019.40
17.835,-0.12,0.96,0.13,6.27,3.86,0.35,-0.19,0.04,0.29,1019.40
17.846,-0.12,0.96,0.13,6.27,3.86,0.35,-0.19,0.04,0.29,1019.16
17.855,-0.12,0.96,0.13,-0.44,0.01,-0.24,-0.19,0.04,0.29,1019.16
17.875,-0.11,1.00,-0.01,-0.44,0.01,-0.24,-0.19,0.04,0.29,1019.16
17.886,-0.11,1.00,-0.01,-0.44,0.01,-0.24,-0.19,0.04,0.29,1019.07
17.905,-0.11,1.00,-0.01,-0.44,0.01,-0.24,-0.11,-0.03,0.13,1019.07
17.925,-0.11,1.00,-0.01,0.39,0.41,-0.12,-0.11,-0.03,0.13,1019.07
17.945,-0.15,0.97,0.06,0.39,0.41,-0.12,-0.11,-0.03,0.13,1019.07
17.966,-0.15,0.97,0.06,0.39,0.41,-0.12,-0.11,-0.03,0.13,1018.95
17.975,-0.15,0.97,0.06,0.39,0.41,-0.12,0.06,-0.01,0.19,1018.95
17.995,-0.15,0.97,0.06,-0.15,0.33,0.25,0.06,-0.01,0.19,1018.95
18.015,-0.14,0.98,0.00,-0.15,0.33,0.25,0.06,-0.01,0.19,1018.95
18.045,-0.14,0.98,0.00,-0.15,0.33,0.25,0.07,-0.01,0.27,1018.95
18.046,-0.14,0.98,0.00,-0.15,0.33,0.25,0.07,-0.01,0.27,1018.94
18.065,-0.14,0.98,0.00,-0.24,0.29,-0.12,0.07,-0.01,0.27,1018.94
18.087,-0.11,0.98,0.01,-0.24,0.29,-0.12,0.07,-0.01,0.27,1018.94
18.088,-0.11,0.98,0.01,-0.24,0.29,-0.12,0.07,-0.01,0.27,1018.96
18.115,-0.11,0.98,0.01,-0.24,0.29,-0.12,0.09,-0.03,0.30,1018.96
18.135,-0.11,0.98,0.01,-0.15,0.22,-0.03,0.09,-0.03,0.30,1018.96
18.155,-0.10,0.97,0.03,-0.15,0.22,-0.03,0.09,-0.03,0.30,1018.96
18.171,-0.10,0.97,0.03,-0.15,0.22,-0.03,0.09,-0.03,0.30,1019.06
18.186,-0.10,0.97,0.03,-0.15,0.22,-0.03,0.18,-0.01,0.36,1019.06
18.206,-0.10,0.97,0.03,-0.08,0.13,0.15,0.18,-0.01,0.36,1019.06
18.225,-0.12,1.02,-0.02,-0.08,0.13,0.15,0.18,-0.01,0.36,1019.06
18.246,-0.12,1.02,-0.02,-0.08,0.13,0.15,0.18,-0.01,0.36,1019.10
18.255,-0.12,1.02,-0.02,-0.08,0.13,0.15,0.21,0.03,0.64,1019.10
18.276,-0.12,1.02,-0.02,-0.56,0.41,0.02,0.21,0.03,0.64,1019.10
18.285,-0.12,1.02,-0.02,-0.56,0.41,0.02,0.21,0.03,0.64,1019.07
18.295,-0.18,1.08,-0.07,-0.56,0.41,0.02,0.21,0.03,0.64,1019.07
18.325,-0.18,1.08,-0.07,-0.56,0.41,0.02,0.16,0.05,1.31,1019.07
18.346,-0.18,1.08,-0.07,-1.63,0.98,-0.43,0.16,0.05,1.31,1019.07
18.366,-0.32,1.23,-0.13,-1.63,0.98,-0.43,0.16,0.05,1.31,1019.07
18.367,-0.32,1.23,-0.13,-1.63,0.98,-0.43,0.16,0.05,1.31,1019.07
18.395,-0.32,1.23,-0.13,-1.63,0.98,-0.43,0.13,-0.02,2.75,1019.07
18.415,-0.32,1.23,-0.13,-3.51,1.98,-0.57,0.13,-0.02,2.75,1019.07
18.435,-0.61,1.36,-0.01,-3.51,1.98,-0.57,0.13,-0.02,2.75,1019.07
18.446,-0.61,1.36,-0.01,-3.51,1.98,-0.57,0.13,-0.02,2.75,1018.88
18.466,-0.61,1.36,-0.01,-3.51,1.98,-0.57,0.22,-0.29,5.08,1018.88
18.486,-0.61,1.36,-0.01,-9.61,4.53,-0.72,0.22,-0.29,5.08,1018.88
18.488,-0.61,1.36,-0.01,-9.61,4.53,-0.72,0.22,-0.29,5.08,1018.40
18.506,0.16,1.13,0.49,-9.61,4.53,-0.72,0.22,-0.29,5.08,1018.40
18.535,0.16,1.13,0.49,-9.61,4.53,-0.72,1.10,0.85,3.60,1018.40
18.555,0.16,1.13,0.49,-5.80,5.51,5.24,1.10,0.85,3.60,1018.40
18.566,0.16,1.13,0.49,-5.80,5.51,5.24,1.10,0.85,3.60,1018.45
18.575,0.53,0.62,0.15,-5.80,5.51,5.24,1.10,0.85,3.60,1018.45
18.606,0.53,0.62,0.15,-5.80,5.51,5.24,0.61,1.93,-2.17,1018.45
18.626,0.53,0.62,0.15,0.92,0.47,2.56,0.61,1.93,-2.17,1018.45
18.646,-0.14,0.36,0.19,0.92,0.47,2.56,0.61,1.93,-2.17,1018.45
18.646,-0.14,0.36,0.19,0.92,0.47,2.56,0.61,1.93,-2.17,1018.72
18.675,-0.14,0.36,0.19,0.92,0.47,2.56,1.10,0.82,-3.28,1018.72
18.686,-0.14,0.36,0.19,0.92,0.47,2.56,1.10,0.82,-3.28,1018.89
18.696,-0.14,0.36,0.19,-9.29,-4.50,1.32,1.10,0.82,-3.28,1018.89
18.717,0.37,0.73,0.24,-9.29,-4.50,1.32,1.10,0.82,-3.28,1018.89
18.746,0.37,0.73,0.24,-9.29,-4.50,1.32,1.18,2.25,-4.35,1018.89
18.766,0.37,0.73,0.24,-0.10,-2.98,2.84,1.18,2.25,-4.35,1018.89
18.767,0.37,0.73,0.24,-0.10,-2.98,2.84,1.18,2.25,-4.35,1018.95
18.786,0.24,1.08,0.27,-0.10,-2.98,2.84,1.18,2.25,-4.35,1018.95
18.815,0.24,1.08,0.27,-0.10,-2.98,2.84,0.37,3.84,-4.21,1018.95
18.836,0.24,1.08,0.27,3.43,0.69,3.02,0.37,3.84,-4.21,1018.95
18.846,0.24,1.08,0.27,3.43,0.69,3.02,0.37,3.84,-4.21,1018.93
18.856,-0.17,1.30,0.42,3.43,0.69,3.02,0.37,3.84,-4.21,1018.93
18.886,-0.17,1.30,0.42,3.43,0.69,3.02,-0.04,2.71,-3.80,1018.93
18.887,-0.17,1.30,0.42,3.43,0.69,3.02,-0.04,2.71,-3.80,1018.91
18.905,-0.17,1.30,0.42,0.92,3.01,4.55,-0.04,2.71,-3.80,1018.91
18.926,0.19,1.44,0.39,0.92,3.01,4.55,-0.04,2.71,-3.80,1018.91
18.955,0.19,1.44,0.39,0.92,3.01,4.55,0.21,1.27,-1.99,1018.91
18.966,0.19,1.44,0.39,0.92,3.01,4.55,0.21,1.27,-1.99,1018.96
18.976,0.19,1.44,0.39,3.82,5.99,4.78,0.21,1.27,-1.99,1018.96
18.995,1.34,1.33,0.14,3.82,5.99,4.78,0.21,1.27,-1.99,1018.96
19.025,1.34,1.33,0.14,3.82,5.99,4.78,-1.33,2.46,0.72,1018.96
19.046,1.34,1.33,0.14,3.82,5.99,4.78,-1.33,2.46,0.72,1018.97
19.046,1.34,1.33,0.14,14.80,5.13,3.96,-1.33,2.46,0.72,1018.97
19.066,-0.27,1.14,-0.40,14.80,5.13,3.96,-1.33,2.46,0.72,1018.97
19.086,-0.27,1.14,-0.40,14.80,5.13,3.96,-1.33,2.46,0.72,1019.46
19.096,-0.27,1.14,-0.40,14.80,5.13,3.96,-1.15,0.98,1.60,1019.46
19.116,-0.27,1.14,-0.40,2.23,2.00,-0.55,-1.15,0.98,1.60,1019.46
19.136,0.08,1.10,0.00,2.23,2.00,-0.55,-1.15,0.98,1.60,1019.46
19.166,0.08,1.10,0.00,2.23,2.00,-0.55,-0.57,0.01,0.34,1019.46
19.168,0.08,1.10,0.00,2.23,2.00,-0.55,-0.57,0.01,0.34,1019.57
19.188,0.08,1.10,0.00,4.37,2.32,-1.11,-0.57,0.01,0.34,1019.57
19.207,-0.17,0.94,0.04,4.37,2.32,-1.11,-0.57,0.01,0.34,1019.57
19.236,-0.17,0.94,0.04,4.37,2.32,-1.11,-0.30,0.05,0.14,1019.57
19.247,-0.17,0.94,0.04,4.37,2.32,-1.11,-0.30,0.05,0.14,1019.22
19.256,-0.17,0.94,0.04,0.95,0.28,0.51,-0.30,0.05,0.14,1019.22
19.276,-0.19,0.98,-0.00,0.95,0.28,0.51,-0.30,0.05,0.14,1019.22
19.287,-0.19,0.98,-0.00,0.95,0.28,0.51,-0.30,0.05,0.14,1019.11
19.306,-0.19,0.98,-0.00,0.95,0.28,0.51,-0.14,0.05,0.17,1019.11
19.326,-0.19,0.98,-0.00,0.23,0.54,-0.16,-0.14,0.05,0.17,1019.11
19.346,-0.19,0.98,-0.01,0.23,0.54,-0.16,-0.14,0.05,0.17,1019.11
19.367,-0.19,0.98,-0.01,0.23,0.54,-0.16,-0.14,0.05,0.17,1018.98
19.376,-0.19,0.98,-0.01,0.23,0.54,-0.16,-0.05,0.10,0.30,1018.98
19.396,-0.19,0.98,-0.01,-0.23,0.32,0.24,-0.05,0.10,0.30,1018.98
19.416,-0.12,0.97,0.00,-0.23,0.32,0.24,-0.05,0.10,0.30,1018.98
19.446,-0.12,0.97,0.00,-0.23,0.32,0.24,0.01,0.04,0.26,1018.98
19.447,-0.12,0.97,0.00,-0.23,0.32,0.24,0.01,0.04,0.26,1018.92
19.466,-0.12,0.97,0.00,0.13,0.23,0.08,0.01,0.04,0.26,1018.92
19.486,-0.11,0.97,0.01,0.13,0.23,0.08,0.01,0.04,0.26,1018.92
19.487,-0.11,0.97,0.01,0.13,0.23,0.08,0.01,0.04,0.26,1018.96
19.516,-0.11,0.97,0.01,0.13,0.23,0.08,0.11,0.00,0.22,1018.96
19.536,-0.11,0.97,0.01,0.30,0.17,0.22,0.11,0.00,0.22,1018.96
19.556,-0.13,0.99,-0.03,0.30,0.17,0.22,0.11,0.00,0.22,1018.96
19.566,-0.13,0.99,-0.03,0.30,0.17,0.22,0.11,0.00,0.22,1019.08
19.586,-0.13,0.99,-0.03,0.30,0.17,0.22,0.15,0.04,0.31,1019.08
19.606,-0.13,0.99,-0.03,0.06,0.30,0.11,0.15,0.04,0.31,1019.08
19.627,-0.13,1.00,-0.03,0.06,0.30,0.11,0.15,0.04,0.31,1019.08
19.647,-0.13,1.00,-0.03,0.06,0.30,0.11,0.15,0.04,0.31,1019.03
19.656,-0.13,1.00,-0.03,0.06,0.30,0.11,0.23,0.09,0.54,1019.03
19.676,-0.13,1.00,-0.03,-0.38,0.44,0.02,0.23,0.09,0.54,1019.03
19.687,-0.13,1.00,-0.03,-0.38,0.44,0.02,0.23,0.09,0.54,1018.97
19.696,-0.15,1.04,-0.07,-0.38,0.44,0.02,0.23,0.09,0.54,1018.97
19.726,-0.15,1.04,-0.07,-0.38,0.44,0.02,0.27,0.15,1.01,1018.97
19.746,-0.15,1.04,-0.07,-0.78,0.62,-0.06,0.27,0.15,1.01,1018.97
19.766,-0.31,1.19,-0.11,-0.78,0.62,-0.06,0.27,0.15,1.01,1018.97
19.767,-0.31,1.19,-0.11,-0.78,0.62,-0.06,0.27,0.15,1.01,1019.02
19.796,-0.31,1.19,-0.11,-0.78,0.62,-0.06,0.29,0.13,2.23,1019.02
19.816,-0.31,1.19,-0.11,-2.68,1.54,-0.19,0.29,0.13,2.23,1019.02
19.837,-0.46,1.31,-0.15,-2.68,1.54,-0.19,0.29,0.13,2.23,1019.02
19.846,-0.46,1.31,-0.15,-2.68,1.54,-0.19,0.29,0.13,2.23,1019.01
19.866,-0.46,1.31,-0.15,-2.68,1.54,-0.19,0.30,0.09,4.07,1019.01
19.886,-0.46,1.31,-0.15,-2.68,1.54,-0.19,0.30,0.09,4.07,1018.57
19.887,-0.46,1.31,-0.15,-6.58,3.61,-1.00,0.30,0.09,4.07,1018.57
19.907,0.05,1.10,0.33,-6.58,3.61,-1.00,0.30,0.09,4.07,1018.57
19.936,0.05,1.10,0.33,-6.58,3.61,-1.00,1.36,0.76,4.43,1018.57
19.957,0.05,1.10,0.33,-5.95,3.70,3.70,1.36,0.76,4.43,1018.57
19.966,0.05,1.10,0.33,-5.95,3.70,3.70,1.36,0.76,4.43,1018.34
19.976,0.87,0.80,0.12,-5.95,3.70,3.70,1.36,0.76,4.43,1018.34
20.006,0.87,0.80,0.12,-5.95,3.70,3.70,0.77,3.29,-1.11,1018.34
20.029,0.87,0.80,0.12,1.53,1.63,2.16,0.77,3.29,-1.11,1018.34
20.046,-0.35,0.47,0.19,1.53,1.63,2.16,0.77,3.29,-1.11,1018.34
20.047,-0.35,0.47,0.19,1.53,1.63,2.16,0.77,3.29,-1.11,1018.66
20.076,-0.35,0.47,0.19,1.53,1.63,2.16,0.87,2.38,-2.26,1018.66
20.087,-0.35,0.47,0.19,1.53,1.63,2.16,0.87,2.38,-2.26,1018.94
20.097,-0.35,0.47,0.19,-7.77,-2.76,1.42,0.87,2.38,-2.26,1018.94
20.117,0.09,0.58,0.41,-7.77,-2.76,1.42,0.87,2.38,-2.26,1018.94
20.146,0.09,0.58,0.41,-7.77,-2.76,1.42,1.49,1.71,-3.73,1018.94
20.166,0.09,0.58,0.41,-7.77,-2.76,1.42,1.49,1.71,-3.73,1018.97
20.167,0.09,0.58,0.41,-2.68,-3.85,4.16,1.49,1.71,-3.73,1018.97
20.186,-0.02,0.98,0.41,-2.68,-3.85,4.16,1.49,1.71,-3.73,1018.97
20.216,-0.02,0.98,0.41,-2.68,-3.85,4.16,0.72,1.69,-4.10,1018.97
20.236,-0.02,0.98,0.41,-0.80,-0.81,4.79,0.72,1.69,-4.10,1018.97
20.246,-0.02,0.98,0.41,-0.80,-0.81,4.79,0.72,1.69,-4.10,1018.96
20.257,-0.16,1.26,0.28,-0.80,-0.81,4.79,0.72,1.69,-4.10,1018.96
20.287,-0.16,1.26,0.28,-0.80,-0.81,4.79,-0.30,1.79,-3.68,1018.96
20.289,-0.16,1.26,0.28,-0.80,-0.81,4.79,-0.30,1.79,-3.68,1018.87
20.308,-0.16,1.26,0.28,0.13,2.59,3.68,-0.30,1.79,-3.68,1018.87
20.326,-0.03,1.44,0.12,0.13,2.59,3.68,-0.30,1.79,-3.68,1018.87
20.356,-0.03,1.44,0.12,0.13,2.59,3.68,0.04,1.76,-2.74,1018.87
20.366,-0.03,1.44,0.12,0.13,2.59,3.68,0.04,1.76,-2.74,1018.89
20.377,-0.03,1.44,0.12,1.91,4.80,2.19,0.04,1.76,-2.74,1018.89
20.396,0.79,1.37,0.11,1.91,4.80,2.19,0.04,1.76,-2.74,1018.89
20.426,0.79,1.37,0.11,1.91,4.80,2.19,-0.07,0.51,-0.77,1018.89
20.446,0.79,1.37,0.11,1.91,4.80,2.19,-0.07,0.51,-0.77,1018.96
20.447,0.79,1.37,0.11,8.96,5.83,2.24,-0.07,0.51,-0.77,1018.96
20.466,0.37,1.00,-0.03,8.96,5.83,2.24,-0.07,0.51,-0.77,1018.96
20.486,0.37,1.00,-0.03,8.96,5.83,2.24,-0.07,0.51,-0.77,1018.88
20.496,0.37,1.00,-0.03,8.96,5.83,2.24,-0.88,0.87,3.02,1018.88
20.517,0.37,1.00,-0.03,12.39,2.09,1.50,-0.88,0.87,3.02,1018.88
20.536,0.58,1.33,0.08,12.39,2.09,1.50,-0.88,0.87,3.02,1018.88
20.566,0.58,1.33,0.08,12.39,2.09,1.50,-0.54,0.43,0.65,1018.88
20.567,0.58,1.33,0.08,12.39,2.09,1.50,-0.54,0.43,0.65,1019.89
20.586,0.58,1.33,0.08,4.69,2.23,0.37,-0.54,0.43,0.65,1019.89
20.606,-0.31,0.93,-0.10,4.69,2.23,0.37,-0.54,0.43,0.65,1019.89
20.636,-0.31,0.93,-0.10,4.69,2.23,0.37,-0.36,0.10,0.30,1019.89
20.646,-0.31,0.93,-0.10,4.69,2.23,0.37,-0.36,0.10,0.30,1019.44
20.656,-0.31,0.93,-0.10,1.04,1.43,-0.60,-0.36,0.10,0.30,1019.44
20.676,-0.11,0.99,-0.00,1.04,1.43,-0.60,-0.36,0.10,0.30,1019.44
20.686,-0.11,0.99,-0.00,1.04,1.43,-0.60,-0.36,0.10,0.30,1019.21
20.706,-0.11,0.99,-0.00,1.04,1.43,-0.60,-0.20,0.07,0.16,1019.21
20.726,-0.11,0.99,-0.00,0.52,0.21,0.78,-0.20,0.07,0.16,1019.21
20.746,-0.15,0.99,0.02,0.52,0.21,0.78,-0.20,0.07,0.16,1019.21
20.766,-0.15,0.99,0.02,0.52,0.21,0.78,-0.20,0.07,0.16,1019.07
20.776,-0.15,0.99,0.02,0.52,0.21,0.78,-0.10,0.00,0.14,1019.07
20.796,-0.15,0.99,0.02,0.17,0.40,0.02,-0.10,0.00,0.14,1019.07
20.816,-0.15,0.98,0.02,0.17,0.40,0.02,-0.10,0.00,0.14,1019.07
20.846,-0.15,0.98,0.02,0.17,0.40,0.02,-0.00,-0.02,0.22,1019.07
20.847,-0.15,0.98,0.02,0.17,0.40,0.02,-0.00,-0.02,0.22,1018.99
20.866,-0.15,0.98,0.02,0.02,0.26,0.36,-0.00,-0.02,0.22,1018.99
20.886,-0.13,0.98,0.02,0.02,0.26,0.36,-0.00,-0.02,0.22,1018.99
20.887,-0.13,0.98,0.02,0.02,0.26,0.36,-0.00,-0.02,0.22,1018.92
20.917,-0.13,0.98,0.02,0.02,0.26,0.36,0.06,-0.03,0.31,1018.92
20.937,-0.13,0.98,0.02,-0.21,0.21,0.30,0.06,-0.03,0.31,1018.92
20.957,-0.08,0.98,0.02,-0.21,0.21,0.30,0.06,-0.03,0.31,1018.92
20.966,-0.08,0.98,0.02,-0.21,0.21,0.30,0.06,-0.03,0.31,1018.95
20.986,-0.08,0.98,0.02,-0.21,0.21,0.30,0.12,-0.05,0.30,1018.95
21.006,-0.08,0.98,0.02,0.15,0.16,0.31,0.12,-0.05,0.30,1018.95
21.03,-0.09,0.99,-0.01,0.15,0.16,0.31,0.12,-0.05,0.30,1018.95
21.046,-0.09,0.99,-0.01,0.15,0.16,0.31,0.12,-0.05,0.30,1019.01
21.057,-0.09,0.99,-0.01,0.15,0.16,0.31,0.12,-0.04,0.43,1019.01
21.076,-0.09,0.99,-0.01,-0.01,0.21,0.21,0.12,-0.04,0.43,1019.01
21.086,-0.09,0.99,-0.01,-0.01,0.21,0.21,0.12,-0.04,0.43,1019.07
21.096,-0.18,1.05,-0.04,-0.01,0.21,0.21,0.12,-0.04,0.43,1019.07
21.128,-0.18,1.05,-0.04,-0.01,0.21,0.21,0.06,-0.03,1.02,1019.07
21.147,-0.18,1.05,-0.04,-1.07,0.57,0.12,0.06,-0.03,1.02,1019.07
21.166,-0.18,1.05,-0.04,-1.07,0.57,0.12,0.06,-0.03,1.02,1019.11
21.167,-0.31,1.19,-0.08,-1.07,0.57,0.12,0.06,-0.03,1.02,1019.11
21.196,-0.31,1.19,-0.08,-1.07,0.57,0.12,-0.04,-0.13,2.28,1019.11
21.217,-0.31,1.19,-0.08,-2.90,1.62,-0.39,-0.04,-0.13,2.28,1019.11
21.237,-0.74,1.40,-0.10,-2.90,1.62,-0.39,-0.04,-0.13,2.28,1019.11
21.246,-0.74,1.40,-0.10,-2.90,1.62,-0.39,-0.04,-0.13,2.28,1019.04
21.267,-0.74,1.40,-0.10,-2.90,1.62,-0.39,-0.35,-0.88,4.82,1019.04
21.286,-0.74,1.40,-0.10,-2.90,1.62,-0.39,-0.35,-0.88,4.82,1018.49
21.287,-0.74,1.40,-0.10,-8.28,4.28,-1.24,-0.35,-0.88,4.82,1018.49
21.307,-0.01,1.34,0.41,-8.28,4.28,-1.24,-0.35,-0.88,4.82,1018.49
21.336,-0.01,1.34,0.41,-8.28,4.28,-1.24,0.38,-0.64,4.99,1018.49
21.357,-0.01,1.34,0.41,-8.43,5.74,3.37,0.38,-0.64,4.99,1018.49
21.366,-0.01,1.34,0.41,-8.43,5.74,3.37,0.38,-0.64,4.99,1018.48
21.376,0.53,0.63,0.16,-8.43,5.74,3.37,0.38,-0.64,4.99,1018.48
21.408,0.53,0.63,0.16,-8.43,5.74,3.37,-0.28,0.92,-1.13,1018.48
21.427,0.53,0.63,0.16,-0.05,1.98,2.65,-0.28,0.92,-1.13,1018.48
21.446,0.53,0.63,0.16,-0.05,1.98,2.65,-0.28,0.92,-1.13,1018.66
21.447,-0.19,0.30,0.02,-0.05,1.98,2.65,-0.28,0.92,-1.13,1018.66
21.476,-0.19,0.30,0.02,-0.05,1.98,2.65,-0.25,0.67,-3.25,1018.66
21.486,-0.19,0.30,0.02,-0.05,1.98,2.65,-0.25,0.67,-3.25,1018.81
21.496,-0.19,0.30,0.02,-8.69,-4.59,0.47,-0.25,0.67,-3.25,1018.81
21.517,-0.05,0.58,-0.10,-8.69,-4.59,0.47,-0.25,0.67,-3.25,1018.81
21.547,-0.05,0.58,-0.10,-8.69,-4.59,0.47,0.34,-0.28,-4.69,1018.81
21.566,-0.05,0.58,-0.10,-8.69,-4.59,0.47,0.34,-0.28,-4.69,1018.86
21.567,-0.05,0.58,-0.10,-3.69,-4.24,-0.75,0.34,-0.28,-4.69,1018.86
21.586,0.10,1.19,-0.20,-3.69,-4.24,-0.75,0.34,-0.28,-4.69,1018.86
21.617,0.10,1.19,-0.20,-3.69,-4.24,-0.75,0.30,0.45,-4.68,1018.86
21.636,0.10,1.19,-0.20,0.97,0.58,-1.62,0.30,0.45,-4.68,1018.86
21.646,0.10,1.19,-0.20,0.97,0.58,-1.62,0.30,0.45,-4.68,1018.92
21.657,-0.10,1.58,-0.24,0.97,0.58,-1.62,0.30,0.45,-4.68,1018.92
21.686,-0.10,1.58,-0.24,0.97,0.58,-1.62,0.30,0.45,-4.68,1018.97
21.686,-0.10,1.58,-0.24,0.97,0.58,-1.62,0.34,-0.23,-3.11,1018.97
21.706,-0.10,1.58,-0.24,2.10,5.65,-2.01,0.34,-0.23,-3.11,1018.97
21.727,0.68,1.53,-0.24,2.10,5.65,-2.01,0.34,-0.23,-3.11,1018.97
21.756,0.68,1.53,-0.24,2.10,5.65,-2.01,0.38,-1.84,-1.53,1018.97
21.766,0.68,1.53,-0.24,2.10,5.65,-2.01,0.38,-1.84,-1.53,1019.01
21.778,0.68,1.53,-0.24,6.04,7.24,-2.28,0.38,-1.84,-1.53,1019.01
21.796,0.82,0.90,0.02,6.04,7.24,-2.28,0.38,-1.84,-1.53,1019.01
21.826,0.82,0.90,0.02,6.04,7.24,-2.28,0.12,-1.73,2.77,1019.01
21.846,0.82,0.90,0.02,6.04,7.24,-2.28,0.12,-1.73,2.77,1019.13
21.849,0.82,0.90,0.02,15.56,1.48,0.07,0.12,-1.73,2.77,1019.13
21.867,0.69,1.40,0.13,15.56,1.48,0.07,0.12,-1.73,2.77,1019.13
21.886,0.69,1.40,0.13,15.56,1.48,0.07,0.12,-1.73,2.77,1019.77
21.896,0.69,1.40,0.13,15.56,1.48,0.07,0.15,0.80,0.79,1019.77
21.917,0.69,1.40,0.13,9.11,3.55,2.63,0.15,0.80,0.79,1019.77
21.937,-0.18,1.05,-0.18,9.11,3.55,2.63,0.15,0.80,0.79,1019.77
21.966,-0.18,1.05,-0.18,9.11,3.55,2.63,0.15,0.80,0.79,1019.46
21.967,-0.18,1.05,-0.18,9.11,3.55,2.63,-0.32,0.12,0.21,1019.46
21.987,-0.18,1.05,-0.18,0.32,1.75,-4.19,-0.32,0.12,0.21,1019.46
22.008,-0.14,0.98,0.06,0.32,1.75,-4.19,-0.32,0.12,0.21,1019.46
22.037,-0.14,0.98,0.06,0.32,1.75,-4.19,-0.09,0.04,0.14,1019.46
22.046,-0.14,0.98,0.06,0.32,1.75,-4.19,-0.09,0.04,0.14,1019.17
22.057,-0.14,0.98,0.06,-0.06,0.13,0.58,-0.09,0.04,0.14,1019.17
22.077,-0.15,0.99,0.03,-0.06,0.13,0.58,-0.09,0.04,0.14,1019.17
22.086,-0.15,0.99,0.03,-0.06,0.13,0.58,-0.09,0.04,0.14,1019.09
22.107,-0.15,0.99,0.03,-0.06,0.13,0.58,-0.12,-0.03,0.11,1019.09
22.127,-0.15,0.99,0.03,-0.01,0.36,-0.09,-0.12,-0.03,0.11,1019.09
22.147,-0.14,0.97,0.06,-0.01,0.36,-0.09,-0.12,-0.03,0.11,1019.09
22.165,-0.14,0.97,0.06,-0.01,0.36,-0.09,-0.12,-0.03,0.11,1018.94
22.178,-0.14,0.97,0.06,-0.01,0.36,-0.09,-0.06,-0.03,0.11,1018.94
22.197,-0.14,0.97,0.06,-0.05,0.23,0.22,-0.06,-0.03,0.11,1018.94
22.217,-0.14,0.96,0.09,-0.05,0.23,0.22,-0.06,-0.03,0.11,1018.94
22.246,-0.14,0.96,0.09,-0.05,0.23,0.22,-0.06,-0.03,0.11,1018.93
22.247,-0.14,0.96,0.09,-0.05,0.23,0.22,0.05,-0.09,0.15,1018.93
22.267,-0.14,0.96,0.09,-0.00,0.08,0.27,0.05,-0.09,0.15,1018.93
22.286,-0.14,0.96,0.09,-0.00,0.08,0.27,0.05,-0.09,0.15,1018.99
22.286,-0.14,0.98,0.05,-0.00,0.08,0.27,0.05,-0.09,0.15,1018.99
22.317,-0.14,0.98,0.05,-0.00,0.08,0.27,0.07,-0.10,0.21,1018.99
22.339,-0.14,0.98,0.05,-0.29,0.11,0.27,0.07,-0.10,0.21,1018.99
22.357,-0.13,0.99,0.05,-0.29,0.11,0.27,0.07,-0.10,0.21,1018.99
22.365,-0.13,0.99,0.05,-0.29,0.11,0.27,0.07,-0.10,0.21,1019.05
22.387,-0.13,0.99,0.05,-0.29,0.11,0.27,0.09,-0.12,0.28,1019.05
22.407,-0.13,0.99,0.05,-0.09,0.23,0.07,0.09,-0.12,0.28,1019.05
22.427,-0.16,1.01,0.05,-0.09,0.23,0.07,0.09,-0.12,0.28,1019.05
22.446,-0.16,1.01,0.05,-0.09,0.23,0.07,0.09,-0.12,0.28,1019.04
22.457,-0.16,1.01,0.05,-0.09,0.23,0.07,0.17,-0.20,0.57,1019.04
22.477,-0.16,1.01,0.05,-0.73,0.38,0.30,0.17,-0.20,0.57,1019.04
22.486,-0.16,1.01,0.05,-0.73,0.38,0.30,0.17,-0.20,0.57,1019.06
22.497,-0.27,1.10,-0.01,-0.73,0.38,0.30,0.17,-0.20,0.57,1019.06
22.527,-0.27,1.10,-0.01,-0.73,0.38,0.30,-0.03,-0.32,1.42,1019.06
22.547,-0.27,1.10,-0.01,-1.97,0.97,-0.11,-0.03,-0.32,1.42,1019.06
22.566,-0.27,1.10,-0.01,-1.97,0.97,-0.11,-0.03,-0.32,1.42,1019.08
22.566,-0.40,1.28,-0.25,-1.97,0.97,-0.11,-0.03,-0.32,1.42,1019.08
22.597,-0.40,1.28,-0.25,-1.97,0.97,-0.11,-1.07,-0.72,3.05,1019.08
22.617,-0.40,1.28,-0.25,-4.18,2.34,-2.23,-1.07,-0.72,3.05,1019.08
22.637,-0.72,1.48,-0.03,-4.18,2.34,-2.23,-1.07,-0.72,3.05,1019.08
22.645,-0.72,1.48,-0.03,-4.18,2.34,-2.23,-1.07,-0.72,3.05,1018.84
22.669,-0.72,1.48,-0.03,-4.18,2.34,-2.23,-1.69,-1.75,5.47,1018.84
22.685,-0.72,1.48,-0.03,-4.18,2.34,-2.23,-1.69,-1.75,5.47,1018.43
22.686,-0.72,1.48,-0.03,-11.38,5.44,-4.31,-1.69,-1.75,5.47,1018.43
22.707,-0.23,0.95,0.33,-11.38,5.44,-4.31,-1.69,-1.75,5.47,1018.43
22.737,-0.23,0.95,0.33,-11.38,5.44,-4.31,-0.69,-1.85,3.43,1018.43
22.757,-0.23,0.95,0.33,-8.36,6.31,3.59,-0.69,-1.85,3.43,1018.43
22.765,-0.23,0.95,0.33,-8.36,6.31,3.59,-0.69,-1.85,3.43,1018.53
22.777,0.58,0.47,0.03,-8.36,6.31,3.59,-0.69,-1.85,3.43,1018.53
22.809,0.58,0.47,0.03,-8.36,6.31,3.59,-0.53,-0.35,-2.92,1018.53
22.828,0.58,0.47,0.03,-0.90,-2.33,0.75,-0.53,-0.35,-2.92,1018.53
22.846,0.58,0.47,0.03,-0.90,-2.33,0.75,-0.53,-0.35,-2.92,1018.77
22.847,-0.04,0.36,-0.14,-0.90,-2.33,0.75,-0.53,-0.35,-2.92,1018.77
22.877,-0.04,0.36,-0.14,-0.90,-2.33,0.75,0.02,0.14,-4.72,1018.77
22.886,-0.04,0.36,-0.14,-0.90,-2.33,0.75,0.02,0.14,-4.72,1018.85
22.898,-0.04,0.36,-0.14,-6.17,-4.96,-2.81,0.02,0.14,-4.72,1018.85
22.917,-0.21,0.80,-0.21,-6.17,-4.96,-2.81,0.02,0.14,-4.72,1018.85
22.947,-0.21,0.80,-0.21,-6.17,-4.96,-2.81,0.93,-0.38,-5.29,1018.85
22.966,-0.21,0.80,-0.21,-6.17,-4.96,-2.81,0.93,-0.38,-5.29,1018.93
22.967,-0.21,0.80,-0.21,-3.46,-2.95,-2.52,0.93,-0.38,-5.29,1018.93
22.987,-0.18,1.45,-0.32,-3.46,-2.95,-2.52,0.93,-0.38,-5.29,1018.93
23.017,-0.18,1.45,-0.32,-3.46,-2.95,-2.52,0.92,-0.26,-4.85,1018.93
23.038,-0.18,1.45,-0.32,0.40,3.24,-2.74,0.92,-0.26,-4.85,1018.93
23.046,-0.18,1.45,-0.32,0.40,3.24,-2.74,0.92,-0.26,-4.85,1018.96
23.058,0.43,1.96,-0.19,0.40,3.24,-2.74,0.92,-0.26,-4.85,1018.96
23.086,0.43,1.96,-0.19,0.40,3.24,-2.74,0.92,-0.26,-4.85,1019.06
23.087,0.43,1.96,-0.19,0.40,3.24,-2.74,0.65,-0.35,-2.89,1019.06
23.107,0.43,1.96,-0.19,4.39,10.31,-2.37,0.65,-0.35,-2.89,1019.06
23.127,1.28,1.27,0.28,4.39,10.31,-2.37,0.65,-0.35,-2.89,1019.06
23.157,1.28,1.27,0.28,4.39,10.31,-2.37,-0.40,0.06,2.48,1019.06
23.166,1.28,1.27,0.28,4.39,10.31,-2.37,-0.40,0.06,2.48,1019.05
23.178,1.28,1.27,0.28,20.64,6.47,2.74,-0.40,0.06,2.48,1019.05
23.197,-0.07,1.02,-0.03,20.64,6.47,2.74,-0.40,0.06,2.48,1019.05
23.227,-0.07,1.02,-0.03,20.64,6.47,2.74,-0.60,0.71,2.27,1019.05
23.246,-0.07,1.02,-0.03,20.64,6.47,2.74,-0.60,0.71,2.27,1019.53
23.247,-0.07,1.02,-0.03,-1.00,0.82,-0.38,-0.60,0.71,2.27,1019.53
23.267,0.36,1.22,-0.05,-1.00,0.82,-0.38,-0.60,0.71,2.27,1019.53
23.286,0.36,1.22,-0.05,-1.00,0.82,-0.38,-0.60,0.71,2.27,1019.38
23.297,0.36,1.22,-0.05,-1.00,0.82,-0.38,-0.50,0.08,0.32,1019.38
23.317,0.36,1.22,-0.05,8.49,3.40,-0.45,-0.50,0.08,0.32,1019.38
23.338,-0.14,0.98,0.09,8.49,3.40,-0.45,-0.50,0.08,0.32,1019.38
23.366,-0.14,0.98,0.09,8.49,3.40,-0.45,-0.50,0.08,0.32,1019.09
23.369,-0.14,0.98,0.09,8.49,3.40,-0.45,-0.15,0.01,0.15,1019.09
23.388,-0.14,0.98,0.09,-0.28,0.12,0.73,-0.15,0.01,0.15,1019.09
23.407,-0.14,0.99,0.04,-0.28,0.12,0.73,-0.15,0.01,0.15,1019.09
23.438,-0.14,0.99,0.04,-0.28,0.12,0.73,-0.09,-0.04,0.05,1019.09
23.446,-0.14,0.99,0.04,-0.28,0.12,0.73,-0.09,-0.04,0.05,1018.99
23.458,-0.14,0.99,0.04,0.22,0.31,0.25,-0.09,-0.04,0.05,1018.99
23.477,-0.15,0.97,0.06,0.22,0.31,0.25,-0.09,-0.04,0.05,1018.99
23.486,-0.15,0.97,0.06,0.22,0.31,0.25,-0.09,-0.04,0.05,1018.95
23.508,-0.15,0.97,0.06,0.22,0.31,0.25,-0.01,-0.05,0.04,1018.95
23.528,-0.15,0.97,0.06,-0.09,0.20,0.29,-0.01,-0.05,0.04,1018.95
23.548,-0.18,0.96,0.06,-0.09,0.20,0.29,-0.01,-0.05,0.04,1018.95
23.566,-0.18,0.96,0.06,-0.09,0.20,0.29,-0.01,-0.05,0.04,1018.99
23.577,-0.18,0.96,0.06,-0.09,0.20,0.29,0.04,-0.07,0.16,1018.99
23.6,-0.18,0.96,0.06,-0.23,0.17,0.16,0.04,-0.07,0.16,1018.99
23.618,-0.16,0.98,0.05,-0.23,0.17,0.16,0.04,-0.07,0.16,1018.99
23.646,-0.16,0.98,0.05,-0.23,0.17,0.16,0.04,-0.07,0.16,1019.02
23.651,-0.16,0.98,0.05,-0.23,0.17,0.16,0.07,-0.08,0.28,1019.02
23.669,-0.16,0.98,0.05,-0.53,0.16,0.22,0.07,-0.08,0.28,1019.02
23.686,-0.16,0.98,0.05,-0.53,0.16,0.22,0.07,-0.08,0.28,1019.02
23.688,-0.14,0.99,0.05,-0.53,0.16,0.22,0.07,-0.08,0.28,1019.02
23.718,-0.14,0.99,0.05,-0.53,0.16,0.22,0.11,-0.11,0.36,1019.02
23.739,-0.14,0.99,0.05,-0.25,0.29,0.04,0.11,-0.11,0.36,1019.02
23.758,-0.20,1.04,0.01,-0.25,0.29,0.04,0.11,-0.11,0.36,1019.02
23.768,-0.20,1.04,0.01,-0.25,0.29,0.04,0.11,-0.11,0.36,1019.05
23.787,-0.20,1.04,0.01,-0.25,0.29,0.04,0.09,-0.19,0.83,1019.05
23.811,-0.20,1.04,0.01,-1.00,0.56,0.14,0.09,-0.19,0.83,1019.05
23.828,-0.42,1.20,-0.07,-1.00,0.56,0.14,0.09,-0.19,0.83,1019.05
23.846,-0.42,1.20,-0.07,-1.00,0.56,0.14,0.09,-0.19,0.83,1019.04
23.858,-0.42,1.20,-0.07,-1.00,0.56,0.14,-0.23,-0.32,2.29,1019.04
23.878,-0.42,1.20,-0.07,-3.43,1.69,-0.70,-0.23,-0.32,2.29,1019.04
23.886,-0.42,1.20,-0.07,-3.43,1.69,-0.70,-0.23,-0.32,2.29,1019.03
23.899,-0.93,1.48,-0.17,-3.43,1.69,-0.70,-0.23,-0.32,2.29,1019.03
23.927,-0.93,1.48,-0.17,-3.43,1.69,-0.70,-0.85,-1.08,5.31,1019.03
23.949,-0.93,1.48,-0.17,-9.58,4.67,-2.39,-0.85,-1.08,5.31,1019.03
23.967,-0.93,1.48,-0.17,-9.58,4.67,-2.39,-0.85,-1.08,5.31,1018.62
23.968,-0.17,1.37,0.40,-9.58,4.67,-2.39,-0.85,-1.08,5.31,1018.62
24.0,-0.17,1.37,0.40,-9.58,4.67,-2.39,-0.26,-1.26,5.13,1018.62
24.018,-0.17,1.37,0.40,-10.90,6.54,2.20,-0.26,-1.26,5.13,1018.62
24.042,0.42,0.43,0.23,-10.90,6.54,2.20,-0.26,-1.26,5.13,1018.62
24.047,0.42,0.43,0.23,-10.90,6.54,2.20,-0.26,-1.26,5.13,1018.40
24.068,0.42,0.43,0.23,-10.90,6.54,2.20,-0.21,-0.06,-1.46,1018.40
24.088,0.42,0.43,0.23,-10.90,6.54,2.20,-0.21,-0.06,-1.46,1018.70
24.09,0.42,0.43,0.23,-0.11,0.48,2.47,-0.21,-0.06,-1.46,1018.70
24.112,-0.13,0.26,-0.01,-0.11,0.48,2.47,-0.21,-0.06,-1.46,1018.70
24.139,-0.13,0.26,-0.01,-0.11,0.48,2.47,-0.12,0.34,-3.47,1018.70
24.158,-0.13,0.26,-0.01,-9.17,-5.39,-0.38,-0.12,0.34,-3.47,1018.70
24.167,-0.13,0.26,-0.01,-9.17,-5.39,-0.38,-0.12,0.34,-3.47,1018.81
24.178,-0.06,0.61,-0.08,-9.17,-5.39,-0.38,-0.12,0.34,-3.47,1018.81
24.207,-0.06,0.61,-0.08,-9.17,-5.39,-0.38,0.32,-0.27,-4.72,1018.81
24.228,-0.06,0.61,-0.08,-3.19,-4.10,-0.92,0.32,-0.27,-4.72,1018.81
24.247,-0.06,0.61,-0.08,-3.19,-4.10,-0.92,0.32,-0.27,-4.72,1018.89
24.251,0.12,1.21,-0.23,-3.19,-4.10,-0.92,0.32,-0.27,-4.72,1018.89
24.278,0.12,1.21,-0.23,-3.19,-4.10,-0.92,0.27,-0.14,-4.58,1018.89
24.287,0.12,1.21,-0.23,-3.19,-4.10,-0.92,0.27,-0.14,-4.58,1018.89
24.298,0.12,1.21,-0.23,1.11,1.07,-1.99,0.27,-0.14,-4.58,1018.89
24.318,0.04,1.56,-0.25,1.11,1.07,-1.99,0.27,-0.14,-4.58,1018.89
24.348,0.04,1.56,-0.25,1.11,1.07,-1.99,0.47,-0.35,-3.47,1018.89
24.367,0.04,1.56,-0.25,1.11,1.07,-1.99,0.47,-0.35,-3.47,1018.93
24.371,0.04,1.56,-0.25,2.99,5.58,-2.77,0.47,-0.35,-3.47,1018.93
24.388,0.93,1.51,-0.06,2.99,5.58,-2.77,0.47,-0.35,-3.47,1018.93
24.419,0.93,1.51,-0.06,2.99,5.58,-2.77,0.41,-0.35,-1.51,1018.93
24.439,0.93,1.51,-0.06,9.79,7.37,-1.13,0.41,-0.35,-1.51,1018.93
24.447,0.93,1.51,-0.06,9.79,7.37,-1.13,0.41,-0.35,-1.51,1019.11
24.459,0.22,1.08,-0.02,9.79,7.37,-1.13,0.41,-0.35,-1.51,1019.11
24.487,0.22,1.08,-0.02,9.79,7.37,-1.13,0.41,-0.35,-1.51,1019.05
24.489,0.22,1.08,-0.02,9.79,7.37,-1.13,-0.72,0.56,3.92,1019.05
24.509,0.22,1.08,-0.02,10.85,2.37,0.89,-0.72,0.56,3.92,1019.05
24.528,0.53,1.38,0.04,10.85,2.37,0.89,-0.72,0.56,3.92,1019.05
24.558,0.53,1.38,0.04,10.85,2.37,0.89,-0.26,0.38,0.44,1019.05
24.565,0.53,1.38,0.04,10.85,2.37,0.89,-0.26,0.38,0.44,1019.58
24.578,0.53,1.38,0.04,7.51,4.23,2.90,-0.26,0.38,0.44,1019.58
24.598,-0.10,0.97,0.12,7.51,4.23,2.90,-0.26,0.38,0.44,1019.58
24.628,-0.10,0.97,0.12,7.51,4.23,2.90,-0.24,0.04,0.23,1019.58
24.646,-0.10,0.97,0.12,7.51,4.23,2.90,-0.24,0.04,0.23,1019.19
24.648,-0.10,0.97,0.12,-0.94,0.95,-3.24,-0.24,0.04,0.23,1019.19
24.668,-0.12,0.99,0.04,-0.94,0.95,-3.24,-0.24,0.04,0.23,1019.19
24.686,-0.12,0.99,0.04,-0.94,0.95,-3.24,-0.24,0.04,0.23,1019.07
24.698,-0.12,0.99,0.04,-0.94,0.95,-3.24,-0.07,0.01,0.12,1019.07
24.719,-0.12,0.99,0.04,-0.00,0.27,0.76,-0.07,0.01,0.12,1019.07
24.743,-0.15,0.98,0.07,-0.00,0.27,0.76,-0.07,0.01,0.12,1019.07
24.766,-0.15,0.98,0.07,-0.00,0.27,0.76,-0.07,0.01,0.12,1019.02
24.769,-0.15,0.98,0.07,-0.00,0.27,0.76,0.03,-0.04,0.09,1019.02
24.789,-0.15,0.98,0.07,-0.16,0.35,0.08,0.03,-0.04,0.09,1019.02
24.81,-0.16,0.97,0.06,-0.16,0.35,0.08,0.03,-0.04,0.09,1019.02
24.838,-0.16,0.97,0.06,-0.16,0.35,0.08,0.09,-0.06,0.14,1019.02
24.846,-0.16,0.97,0.06,-0.16,0.35,0.08,0.09,-0.06,0.14,1019.00
24.858,-0.16,0.97,0.06,-0.24,0.19,0.23,0.09,-0.06,0.14,1019.00
24.878,-0.16,0.97,0.05,-0.24,0.19,0.23,0.09,-0.06,0.14,1019.00
24.887,-0.16,0.97,0.05,-0.24,0.19,0.23,0.09,-0.06,0.14,1019.01
24.908,-0.16,0.97,0.05,-0.24,0.19,0.23,0.13,-0.06,0.27,1019.01
24.929,-0.16,0.97,0.05,-0.51,0.14,0.28,0.13,-0.06,0.27,1019.01
24.948,-0.11,0.98,0.03,-0.51,0.14,0.28,0.13,-0.06,0.27,1019.01
24.966,-0.11,0.98,0.03,-0.51,0.14,0.28,0.13,-0.06,0.27,1019.02
24.978,-0.11,0.98,0.03,-0.51,0.14,0.28,0.15,-0.05,0.29,1019.02
24.998,-0.11,0.98,0.03,-0.23,0.24,0.04,0.15,-0.05,0.29,1019.02
25.018,-0.16,1.00,0.03,-0.23,0.24,0.04,0.15,-0.05,0.29,1019.02
25.046,-0.16,1.00,0.03,-0.23,0.24,0.04,0.15,-0.05,0.29,1019.01
25.048,-0.16,1.00,0.03,-0.23,0.24,0.04,0.20,-0.06,0.51,1019.01
25.069,-0.16,1.00,0.03,-0.64,0.26,0.38,0.20,-0.06,0.51,1019.01
25.087,-0.16,1.00,0.03,-0.64,0.26,0.38,0.20,-0.06,0.51,1019.08
25.089,-0.27,1.10,-0.04,-0.64,0.26,0.38,0.20,-0.06,0.51,1019.08
25.119,-0.27,1.10,-0.04,-0.64,0.26,0.38,0.01,-0.11,1.38,1019.08
25.14,-0.27,1.10,-0.04,-1.84,0.98,-0.44,0.01,-0.11,1.38,1019.08
25.158,-0.49,1.31,-0.16,-1.84,0.98,-0.44,0.01,-0.11,1.38,1019.08
25.166,-0.49,1.31,-0.16,-1.84,0.98,-0.44,0.01,-0.11,1.38,1019.06
25.19,-0.49,1.31,-0.16,-1.84,0.98,-0.44,-0.36,-0.45,3.25,1019.06
25.208,-0.49,1.31,-0.16,-5.12,2.65,-1.14,-0.36,-0.45,3.25,1019.06
25.229,-0.77,1.40,0.07,-5.12,2.65,-1.14,-0.36,-0.45,3.25,1019.06
25.246,-0.77,1.40,0.07,-5.12,2.65,-1.14,-0.36,-0.45,3.25,1018.87
25.258,-0.77,1.40,0.07,-5.12,2.65,-1.14,-0.38,-1.27,5.74,1018.87
25.279,-0.77,1.40,0.07,-12.05,4.96,-0.98,-0.38,-1.27,5.74,1018.87
25.297,-0.77,1.40,0.07,-12.05,4.96,-0.98,-0.38,-1.27,5.74,1018.42
25.3,-0.03,0.93,0.39,-12.05,4.96,-0.98,-0.38,-1.27,5.74,1018.42
25.329,-0.03,0.93,0.39,-12.05,4.96,-0.98,-0.03,-0.81,3.31,1018.42
25.349,-0.03,0.93,0.39,-7.38,5.77,4.00,-0.03,-0.81,3.31,1018.42
25.366,-0.03,0.93,0.39,-7.38,5.77,4.00,-0.03,-0.81,3.31,1018.51
25.368,0.55,0.54,0.11,-7.38,5.77,4.00,-0.03,-0.81,3.31,1018.51
25.4,0.55,0.54,0.11,-7.38,5.77,4.00,-0.39,0.69,-2.17,1018.51
25.42,0.55,0.54,0.11,-0.26,-1.45,2.14,-0.39,0.69,-2.17,1018.51
25.439,-0.00,0.39,-0.02,-0.26,-1.45,2.14,-0.39,0.69,-2.17,1018.51
25.446,-0.00,0.39,-0.02,-0.26,-1.45,2.14,-0.39,0.69,-2.17,1018.69
25.47,-0.00,0.39,-0.02,-0.26,-1.45,2.14,-0.29,0.71,-4.20,1018.69
25.491,-0.00,0.39,-0.02,-0.26,-1.45,2.14,-0.29,0.71,-4.20,1018.77
25.493,-0.00,0.39,-0.02,-6.96,-4.37,-0.88,-0.29,0.71,-4.20,1018.77
25.509,-0.10,0.73,-0.11,-6.96,-4.37,-0.88,-0.29,0.71,-4.20,1018.77
25.539,-0.10,0.73,-0.11,-6.96,-4.37,-0.88,0.34,0.05,-5.05,1018.77
25.558,-0.10,0.73,-0.11,-3.11,-3.17,-1.50,0.34,0.05,-5.05,1018.77
25.565,-0.10,0.73,-0.11,-3.11,-3.17,-1.50,0.34,0.05,-5.05,1018.86
25.579,-0.03,1.32,-0.30,-3.11,-3.17,-1.50,0.34,0.05,-5.05,1018.86
25.609,-0.03,1.32,-0.30,-3.11,-3.17,-1.50,0.60,0.27,-4.83,1018.86
25.629,-0.03,1.32,-0.30,1.06,2.15,-2.69,0.60,0.27,-4.83,1018.86
25.646,-0.03,1.32,-0.30,1.06,2.15,-2.69,0.60,0.27,-4.83,1018.88
25.649,0.13,1.79,-0.23,1.06,2.15,-2.69,0.60,0.27,-4.83,1018.88
25.679,0.13,1.79,-0.23,1.06,2.15,-2.69,0.77,-0.10,-2.84,1018.88
25.686,0.13,1.79,-0.23,1.06,2.15,-2.69,0.77,-0.10,-2.84,1019.15
25.699,0.13,1.79,-0.23,3.47,7.86,-2.54,0.77,-0.10,-2.84,1019.15
25.719,1.50,1.40,0.17,3.47,7.86,-2.54,0.77,-0.10,-2.84,1019.15
25.751,1.50,1.40,0.17,3.47,7.86,-2.54,-0.30,-0.28,1.92,1019.15
25.766,1.50,1.40,0.17,3.47,7.86,-2.54,-0.30,-0.28,1.92,1019.10
25.769,1.50,1.40,0.17,17.39,8.16,0.96,-0.30,-0.28,1.92,1019.10
25.789,0.35,1.28,0.20,17.39,8.16,0.96,-0.30,-0.28,1.92,1019.10
25.819,0.35,1.28,0.20,17.39,8.16,0.96,-0.41,0.56,1.49,1019.10
25.839,0.35,1.28,0.20,6.35,2.29,1.67,-0.41,0.56,1.49,1019.10
25.846,0.35,1.28,0.20,6.35,2.29,1.67,-0.41,0.56,1.49,1019.56
25.86,-0.04,1.05,-0.16,6.35,2.29,1.67,-0.41,0.56,1.49,1019.56
25.887,-0.04,1.05,-0.16,6.35,2.29,1.67,-0.41,0.56,1.49,1019.21
25.889,-0.04,1.05,-0.16,6.35,2.29,1.67,-0.46,0.07,0.28,1019.21
25.91,-0.04,1.05,-0.16,4.14,2.13,-0.89,-0.46,0.07,0.28,1019.21
25.93,-0.12,0.98,0.11,4.14,2.13,-0.89,-0.46,0.07,0.28,1019.21
25.959,-0.12,0.98,0.11,4.14,2.13,-0.89,-0.14,0.03,0.11,1019.21
25.966,-0.12,0.98,0.11,4.14,2.13,-0.89,-0.14,0.03,0.11,1019.12
25.98,-0.12,0.98,0.11,-0.31,0.14,0.54,-0.14,0.03,0.11,1019.12
25.999,-0.18,0.98,0.05,-0.31,0.14,0.54,-0.14,0.03,0.11,1019.12
26.03,-0.18,0.98,0.05,-0.31,0.14,0.54,-0.05,-0.03,0.08,1019.12
26.046,-0.18,0.98,0.05,-0.31,0.14,0.54,-0.05,-0.03,0.08,1019.02
26.048,-0.18,0.98,0.05,-0.17,0.35,0.04,-0.05,-0.03,0.08,1019.02
26.07,-0.17,0.97,0.06,-0.17,0.35,0.04,-0.05,-0.03,0.08,1019.02
26.086,-0.17,0.97,0.06,-0.17,0.35,0.04,-0.05,-0.03,0.08,1018.99
26.099,-0.17,0.97,0.06,-0.17,0.35,0.04,0.01,-0.07,0.09,1018.99
26.12,-0.17,0.97,0.06,-0.24,0.26,0.21,0.01,-0.07,0.09,1018.99
26.14,-0.20,0.96,0.07,-0.24,0.26,0.21,0.01,-0.07,0.09,1018.99
26.167,-0.20,0.96,0.07,-0.24,0.26,0.21,0.01,-0.07,0.09,1018.97
26.169,-0.20,0.96,0.07,-0.24,0.26,0.21,0.07,-0.09,0.20,1018.97
26.19,-0.20,0.96,0.07,-0.43,0.15,0.17,0.07,-0.09,0.20,1018.97
26.21,-0.15,0.98,0.04,-0.43,0.15,0.17,0.07,-0.09,0.20,1018.97
26.239,-0.15,0.98,0.04,-0.43,0.15,0.17,0.06,-0.08,0.23,1018.97
26.246,-0.15,0.98,0.04,-0.43,0.15,0.17,0.06,-0.08,0.23,1019.01
26.26,-0.15,0.98,0.04,-0.35,0.19,0.03,0.06,-0.08,0.23,1019.01
26.279,-0.16,0.98,0.06,-0.35,0.19,0.03,0.06,-0.08,0.23,1019.01
26.285,-0.16,0.98,0.06,-0.35,0.19,0.03,0.06,-0.08,0.23,1019.03
26.31,-0.16,0.98,0.06,-0.35,0.19,0.03,0.14,-0.11,0.32,1019.03
26.329,-0.16,0.98,0.06,-0.33,0.22,0.17,0.14,-0.11,0.32,1019.03
26.349,-0.21,1.03,0.01,-0.33,0.22,0.17,0.14,-0.11,0.32,1019.03
26.367,-0.21,1.03,0.01,-0.33,0.22,0.17,0.14,-0.11,0.32,1019.05
26.38,-0.21,1.03,0.01,-0.33,0.22,0.17,0.08,-0.19,0.74,1019.05
26.399,-0.21,1.03,0.01,-1.10,0.51,-0.03,0.08,-0.19,0.74,1019.05
26.42,-0.40,1.15,-0.04,-1.10,0.51,-0.03,0.08,-0.19,0.74,1019.05
26.446,-0.40,1.15,-0.04,-1.10,0.51,-0.03,0.08,-0.19,0.74,1019.07
26.448,-0.40,1.15,-0.04,-1.10,0.51,-0.03,-0.14,-0.26,2.02,1019.07
26.47,-0.40,1.15,-0.04,-3.14,1.32,-0.41,-0.14,-0.26,2.02,1019.07
26.487,-0.40,1.15,-0.04,-3.14,1.32,-0.41,-0.14,-0.26,2.02,1019.08
26.495,-0.84,1.41,-0.16,-3.14,1.32,-0.41,-0.14,-0.26,2.02,1019.08
26.519,-0.84,1.41,-0.16,-3.14,1.32,-0.41,-0.67,-0.90,4.72,1019.08
26.549,-0.84,1.41,-0.16,-7.95,3.95,-1.93,-0.67,-0.90,4.72,1019.08
26.56,-0.33,1.40,0.31,-7.95,3.95,-1.93,-0.67,-0.90,4.72,1019.08
26.566,-0.33,1.40,0.31,-7.95,3.95,-1.93,-0.67,-0.90,4.72,1018.64
26.59,-0.33,1.40,0.31,-7.95,3.95,-1.93,-0.19,-1.30,5.84,1018.64
26.612,-0.33,1.40,0.31,-12.05,6.09,0.93,-0.19,-1.30,5.84,1018.64
26.632,0.65,0.64,0.20,-12.05,6.09,0.93,-0.19,-1.30,5.84,1018.64
26.646,0.65,0.64,0.20,-12.05,6.09,0.93,-0.19,-1.30,5.84,1018.41
26.661,0.65,0.64,0.20,-12.05,6.09,0.93,-0.01,-0.39,-0.25,1018.41
26.68,0.65,0.64,0.20,-3.86,1.57,2.12,-0.01,-0.39,-0.25,1018.41
26.686,0.65,0.64,0.20,-3.86,1.57,2.12,-0.01,-0.39,-0.25,1018.66
26.701,-0.34,0.22,-0.00,-3.86,1.57,2.12,-0.01,-0.39,-0.25,1018.66
26.73,-0.34,0.22,-0.00,-3.86,1.57,2.12,-0.35,0.44,-2.80,1018.66
26.751,-0.34,0.22,-0.00,-5.94,-3.62,0.50,-0.35,0.44,-2.80,1018.66
26.767,-0.34,0.22,-0.00,-5.94,-3.62,0.50,-0.35,0.44,-2.80,1018.78
26.769,0.01,0.47,-0.02,-5.94,-3.62,0.50,-0.35,0.44,-2.80,1018.78
26.8,0.01,0.47,-0.02,-5.94,-3.62,0.50,0.06,0.24,-5.00,1018.78
26.82,0.01,0.47,-0.02,-2.89,-4.77,-0.38,0.06,0.24,-5.00,1018.78
26.841,-0.05,1.04,-0.12,-2.89,-4.77,-0.38,0.06,0.24,-5.00,1018.78
26.846,-0.05,1.04,-0.12,-2.89,-4.77,-0.38,0.06,0.24,-5.00,1018.85
26.87,-0.05,1.04,-0.12,-2.89,-4.77,-0.38,0.33,-0.36,-5.39,1018.85
26.887,-0.05,1.04,-0.12,-2.89,-4.77,-0.38,0.33,-0.36,-5.39,1018.95
26.889,-0.05,1.04,-0.12,-1.51,-0.80,-1.13,0.33,-0.36,-5.39,1018.95
26.91,-0.14,1.70,-0.23,-1.51,-0.80,-1.13,0.33,-0.36,-5.39,1018.95
26.941,-0.14,1.70,-0.23,-1.51,-0.80,-1.13,0.37,-1.03,-4.44,1018.95
26.965,-0.14,1.70,-0.23,0.63,5.78,-2.37,0.37,-1.03,-4.44,1018.95
26.966,-0.14,1.70,-0.23,0.63,5.78,-2.37,0.37,-1.03,-4.44,1019.00
26.98,0.85,1.68,-0.13,0.63,5.78,-2.37,0.37,-1.03,-4.44,1019.00
27.009,0.85,1.68,-0.13,0.63,5.78,-2.37,0.43,-0.70,-0.78,1019.00
27.03,0.85,1.68,-0.13,8.04,9.70,-2.39,0.43,-0.70,-0.78,1019.00
27.046,0.85,1.68,-0.13,8.04,9.70,-2.39,0.43,-0.70,-0.78,1019.10
27.049,0.52,1.18,-0.03,8.04,9.70,-2.39,0.43,-0.70,-0.78,1019.10
27.08,0.52,1.18,-0.03,8.04,9.70,-2.39,-0.42,0.76,3.40,1019.10
27.086,0.52,1.18,-0.03,8.04,9.70,-2.39,-0.42,0.76,3.40,1019.29
27.107,0.52,1.18,-0.03,15.22,3.01,-0.01,-0.42,0.76,3.40,1019.29
27.12,0.44,1.32,-0.06,15.22,3.01,-0.01,-0.42,0.76,3.40,1019.29
27.15,0.44,1.32,-0.06,15.22,3.01,-0.01,-0.34,0.51,0.74,1019.29
27.166,0.44,1.32,-0.06,15.22,3.01,-0.01,-0.34,0.51,0.74,1019.57
27.169,0.44,1.32,-0.06,4.34,3.99,0.76,-0.34,0.51,0.74,1019.57
27.19,-0.15,0.96,0.04,4.34,3.99,0.76,-0.34,0.51,0.74,1019.57
27.22,-0.15,0.96,0.04,4.34,3.99,0.76,-0.15,0.07,0.27,1019.57
27.241,-0.15,0.96,0.04,0.72,1.00,-1.78,-0.15,0.07,0.27,1019.57
27.246,-0.15,0.96,0.04,0.72,1.00,-1.78,-0.15,0.07,0.27,1019.13
27.26,-0.14,0.98,0.07,0.72,1.00,-1.78,-0.15,0.07,0.27,1019.13
27.287,-0.14,0.98,0.07,0.72,1.00,-1.78,-0.15,0.07,0.27,1019.08
27.289,-0.14,0.98,0.07,0.72,1.00,-1.78,-0.06,0.05,0.11,1019.08
27.31,-0.14,0.98,0.07,0.12,0.33,0.23,-0.06,0.05,0.11,1019.08
27.33,-0.17,0.98,0.05,0.12,0.33,0.23,-0.06,0.05,0.11,1019.08
27.366,-0.17,0.98,0.05,0.12,0.33,0.23,-0.04,-0.03,0.07,1019.08
27.368,-0.17,0.98,0.05,0.12,0.33,0.23,-0.04,-0.03,0.07,1018.97
27.38,-0.17,0.98,0.05,-0.21,0.38,-0.05,-0.04,-0.03,0.07,1018.97
27.4,-0.17,0.96,0.08,-0.21,0.38,-0.05,-0.04,-0.03,0.07,1018.97
27.429,-0.17,0.96,0.08,-0.21,0.38,-0.05,0.02,-0.05,0.10,1018.97
27.446,-0.17,0.96,0.08,-0.21,0.38,-0.05,0.02,-0.05,0.10,1018.99
27.449,-0.17,0.96,0.08,-0.35,0.15,0.22,0.02,-0.05,0.10,1018.99
27.47,-0.17,0.97,0.07,-0.35,0.15,0.22,0.02,-0.05,0.10,1018.99
27.486,-0.17,0.97,0.07,-0.35,0.15,0.22,0.02,-0.05,0.10,1018.98
27.5,-0.17,0.97,0.07,-0.35,0.15,0.22,0.07,-0.07,0.16,1018.98
27.52,-0.17,0.97,0.07,-0.42,0.14,0.21,0.07,-0.07,0.16,1018.98
27.541,-0.15,0.98,0.05,-0.42,0.14,0.21,0.07,-0.07,0.16,1018.98
27.568,-0.15,0.98,0.05,-0.42,0.14,0.21,0.07,-0.07,0.16,1019.01
27.57,-0.15,0.98,0.05,-0.42,0.14,0.21,0.06,-0.10,0.19,1019.01
27.591,-0.15,0.98,0.05,-0.37,0.20,0.02,0.06,-0.10,0.19,1019.01
27.61,-0.18,0.99,0.07,-0.37,0.20,0.02,0.06,-0.10,0.19,1019.01
27.64,-0.18,0.99,0.07,-0.37,0.20,0.02,0.16,-0.14,0.36,1019.01
27.646,-0.18,0.99,0.07,-0.37,0.20,0.02,0.16,-0.14,0.36,1019.04
27.661,-0.18,0.99,0.07,-0.69,0.26,0.30,0.16,-0.14,0.36,1019.04
27.68,-0.21,1.03,0.04,-0.69,0.26,0.30,0.16,-0.14,0.36,1019.04
27.686,-0.21,1.03,0.04,-0.69,0.26,0.30,0.16,-0.14,0.36,1019.03
27.71,-0.21,1.03,0.04,-0.69,0.26,0.30,0.18,-0.27,0.80,1019.03
27.731,-0.21,1.03,0.04,-1.02,0.55,0.08,0.18,-0.27,0.80,1019.03
27.75,-0.44,1.21,-0.10,-1.02,0.55,0.08,0.18,-0.27,0.80,1019.03
27.767,-0.44,1.21,-0.10,-1.02,0.55,0.08,0.18,-0.27,0.80,1019.04
27.781,-0.44,1.21,-0.10,-1.02,0.55,0.08,-0.25,-0.53,2.22,1019.04
27.8,-0.44,1.21,-0.10,-3.71,1.67,-0.65,-0.25,-0.53,2.22,1019.04
27.82,-0.86,1.38,-0.04,-3.71,1.67,-0.65,-0.25,-0.53,2.22,1019.04
27.847,-0.86,1.38,-0.04,-3.71,1.67,-0.65,-0.25,-0.53,2.22,1018.88
27.85,-0.86,1.38,-0.04,-3.71,1.67,-0.65,-0.98,-2.05,4.72,1018.88
27.871,-0.86,1.38,-0.04,-9.42,4.37,-2.18,-0.98,-2.05,4.72,1018.88
27.886,-0.86,1.38,-0.04,-9.42,4.37,-2.18,-0.98,-2.05,4.72,1018.51
27.891,-0.12,1.24,0.34,-9.42,4.37,-2.18,-0.98,-2.05,4.72,1018.51
27.921,-0.12,1.24,0.34,-9.42,4.37,-2.18,-0.65,-2.81,4.21,1018.51
27.941,-0.12,1.24,0.34,-8.74,4.84,3.02,-0.65,-2.81,4.21,1018.51
27.961,0.23,0.45,0.10,-8.74,4.84,3.02,-0.65,-2.81,4.21,1018.51
27.966,0.23,0.45,0.10,-8.74,4.84,3.02,-0.65,-2.81,4.21,1018.60
27.99,0.23,0.45,0.10,-8.74,4.84,3.02,-0.92,-1.84,-1.24,1018.60
28.012,0.23,0.45,0.10,-2.22,-0.68,2.15,-0.92,-1.84,-1.24,1018.60
28.031,-0.07,0.37,-0.25,-2.22,-0.68,2.15,-0.92,-1.84,-1.24,1018.60
28.047,-0.07,0.37,-0.25,-2.22,-0.68,2.15,-0.92,-1.84,-1.24,1018.76
28.061,-0.07,0.37,-0.25,-2.22,-0.68,2.15,-1.29,-0.92,-3.38,1018.76
28.081,-0.07,0.37,-0.25,-7.16,-4.69,-1.94,-1.29,-0.92,-3.38,1018.76
28.086,-0.07,0.37,-0.25,-7.16,-4.69,-1.94,-1.29,-0.92,-3.38,1018.81
28.1,-0.12,0.77,-0.41,-7.16,-4.69,-1.94,-1.29,-0.92,-3.38,1018.81
28.131,-0.12,0.77,-0.41,-7.16,-4.69,-1.94,-0.62,-1.12,-4.60,1018.81
28.151,-0.12,0.77,-0.41,-3.31,-3.04,-3.39,-0.62,-1.12,-4.60,1018.81
28.166,-0.12,0.77,-0.41,-3.31,-3.04,-3.39,-0.62,-1.12,-4.60,1018.92
28.171,-0.11,1.28,-0.57,-3.31,-3.04,-3.39,-0.62,-1.12,-4.60,1018.92
28.201,-0.11,1.28,-0.57,-3.31,-3.04,-3.39,0.03,-0.57,-4.60,1018.92
28.221,-0.11,1.28,-0.57,0.10,2.11,-5.70,0.03,-0.57,-4.60,1018.92
28.241,-0.30,1.57,-0.53,0.10,2.11,-5.70,0.03,-0.57,-4.60,1018.92
28.246,-0.30,1.57,-0.53,0.10,2.11,-5.70,0.03,-0.57,-4.60,1019.02
28.272,-0.30,1.57,-0.53,0.10,2.11,-5.70,0.71,-1.89,-2.19,1019.02
28.287,-0.30,1.57,-0.53,0.10,2.11,-5.70,0.71,-1.89,-2.19,1019.11
28.291,-0.30,1.57,-0.53,0.33,5.97,-5.53,0.71,-1.89,-2.19,1019.11
28.311,1.19,1.31,-0.25,0.33,5.97,-5.53,0.71,-1.89,-2.19,1019.11
28.341,1.19,1.31,-0.25,0.33,5.97,-5.53,0.72,-1.90,-0.03,1019.11
28.361,1.19,1.31,-0.25,9.82,5.87,-4.38,0.72,-1.90,-0.03,1019.11
28.366,1.19,1.31,-0.25,9.82,5.87,-4.38,0.72,-1.90,-0.03,1019.17
28.38,-0.03,0.97,0.09,9.82,5.87,-4.38,0.72,-1.90,-0.03,1019.17
28.412,-0.03,0.97,0.09,9.82,5.87,-4.38,0.06,0.04,2.52,1019.17
28.434,-0.03,0.97,0.09,9.82,0.23,0.48,0.06,0.04,2.52,1019.17
28.448,-0.03,0.97,0.09,9.82,0.23,0.48,0.06,0.04,2.52,1019.22
28.451,0.61,1.30,-0.29,9.82,0.23,0.48,0.06,0.04,2.52,1019.22
28.482,0.61,1.30,-0.29,9.82,0.23,0.48,-0.32,0.30,0.20,1019.22
28.486,0.61,1.30,-0.29,9.82,0.23,0.48,-0.32,0.30,0.20,1019.32
28.501,0.61,1.30,-0.29,5.74,3.90,-0.96,-0.32,0.30,0.20,1019.32
28.521,-0.17,0.96,0.18,5.74,3.90,-0.96,-0.32,0.30,0.20,1019.32
28.55,-0.17,0.96,0.18,5.74,3.90,-0.96,-0.09,0.08,0.18,1019.32
28.566,-0.17,0.96,0.18,5.74,3.90,-0.96,-0.09,0.08,0.18,1019.16
28.571,-0.17,0.96,0.18,-0.26,0.18,0.03,-0.09,0.08,0.18,1019.16
28.592,-0.17,0.98,0.06,-0.26,0.18,0.03,-0.09,0.08,0.18,1019.16
28.621,-0.17,0.98,0.06,-0.26,0.18,0.03,-0.06,0.04,0.10,1019.16
28.641,-0.17,0.98,0.06,-0.11,0.33,0.32,-0.06,0.04,0.10,1019.16
28.649,-0.17,0.98,0.06,-0.11,0.33,0.32,-0.06,0.04,0.10,1019.04
28.661,-0.16,0.97,0.07,-0.11,0.33,0.32,-0.06,0.04,0.10,1019.04
28.687,-0.16,0.97,0.07,-0.11,0.33,0.32,-0.06,0.04,0.10,1019.01
28.691,-0.16,0.97,0.07,-0.11,0.33,0.32,-0.03,-0.04,0.05,1019.01
28.713,-0.16,0.97,0.07,-0.29,0.26,0.27,-0.03,-0.04,0.05,1019.01
28.731,-0.18,0.97,0.07,-0.29,0.26,0.27,-0.03,-0.04,0.05,1019.01
28.761,-0.18,0.97,0.07,-0.29,0.26,0.27,-0.02,-0.09,0.08,1019.01
28.769,-0.18,0.97,0.07,-0.29,0.26,0.27,-0.02,-0.09,0.08,1019.00
28.781,-0.18,0.97,0.07,-0.29,0.19,0.16,-0.02,-0.09,0.08,1019.00
28.801,-0.18,0.96,0.09,-0.29,0.19,0.16,-0.02,-0.09,0.08,1019.00
28.831,-0.18,0.96,0.09,-0.29,0.19,0.16,0.05,-0.12,0.16,1019.00
28.847,-0.18,0.96,0.09,-0.29,0.19,0.16,0.05,-0.12,0.16,1019.03
28.851,-0.18,0.96,0.09,-0.55,0.09,0.53,0.05,-0.12,0.16,1019.03
28.871,-0.14,0.98,0.06,-0.55,0.09,0.53,0.05,-0.12,0.16,1019.03
28.887,-0.14,0.98,0.06,-0.55,0.09,0.53,0.05,-0.12,0.16,1019.02
28.901,-0.14,0.98,0.06,-0.55,0.09,0.53,0.03,-0.14,0.12,1019.02
28.921,-0.14,0.98,0.06,-0.20,0.24,0.12,0.03,-0.14,0.12,1019.02
28.941,-0.18,0.99,0.06,-0.20,0.24,0.12,0.03,-0.14,0.12,1019.02
28.967,-0.18,0.99,0.06,-0.20,0.24,0.12,0.03,-0.14,0.12,1018.96
28.971,-0.18,0.99,0.06,-0.20,0.24,0.12,0.04,-0.17,0.26,1018.96
28.992,-0.18,0.99,0.06,-0.65,0.25,0.29,0.04,-0.17,0.26,1018.96
29.012,-0.20,1.01,0.08,-0.65,0.25,0.29,0.04,-0.17,0.26,1018.96
29.041,-0.20,1.01,0.08,-0.65,0.25,0.29,0.15,-0.32,0.55,1018.96
29.046,-0.20,1.01,0.08,-0.65,0.25,0.29,0.15,-0.32,0.55,1018.95
29.061,-0.20,1.01,0.08,-0.82,0.30,0.40,0.15,-0.32,0.55,1018.95
29.082,-0.30,1.09,0.01,-0.82,0.30,0.40,0.15,-0.32,0.55,1018.95
29.086,-0.30,1.09,0.01,-0.82,0.30,0.40,0.15,-0.32,0.55,1018.97
29.112,-0.30,1.09,0.01,-0.82,0.30,0.40,-0.02,-0.44,1.43,1018.97
29.132,-0.30,1.09,0.01,-2.11,0.90,0.12,-0.02,-0.44,1.43,1018.97
29.151,-0.64,1.37,-0.27,-2.11,0.90,0.12,-0.02,-0.44,1.43,1018.97
29.166,-0.64,1.37,-0.27,-2.11,0.90,0.12,-0.02,-0.44,1.43,1018.95
29.183,-0.64,1.37,-0.27,-2.11,0.90,0.12,-1.19,-0.91,3.58,1018.95
29.201,-0.64,1.37,-0.27,-5.85,3.05,-2.26,-1.19,-0.91,3.58,1018.95
29.221,-0.52,1.37,0.10,-5.85,3.05,-2.26,-1.19,-0.91,3.58,1018.95
29.248,-0.52,1.37,0.10,-5.85,3.05,-2.26,-1.19,-0.91,3.58,1018.55
29.251,-0.52,1.37,0.10,-5.85,3.05,-2.26,-1.05,-1.74,5.22,1018.55
29.271,-0.52,1.37,0.10,-11.23,5.04,-2.27,-1.05,-1.74,5.22,1018.55
29.292,-0.52,1.37,0.10,-11.23,5.04,-2.27,-1.05,-1.74,5.22,1018.50
29.293,0.32,0.79,0.26,-11.23,5.04,-2.27,-1.05,-1.74,5.22,1018.50
29.321,0.32,0.79,0.26,-11.23,5.04,-2.27,-0.36,-1.61,1.26,1018.50
29.341,0.32,0.79,0.26,-6.51,3.26,1.29,-0.36,-1.61,1.26,1018.50
29.361,-0.17,0.31,0.01,-6.51,3.26,1.29,-0.36,-1.61,1.26,1018.50
29.368,-0.17,0.31,0.01,-6.51,3.26,1.29,-0.36,-1.61,1.26,1018.74
29.391,-0.17,0.31,0.01,-6.51,3.26,1.29,0.01,-0.55,-2.17,1018.74
29.411,-0.17,0.31,0.01,-3.79,-3.97,1.36,0.01,-0.55,-2.17,1018.74
29.431,0.08,0.46,-0.06,-3.79,-3.97,1.36,0.01,-0.55,-2.17,1018.74
29.446,0.08,0.46,-0.06,-3.79,-3.97,1.36,0.01,-0.55,-2.17,1018.88
29.46,0.08,0.46,-0.06,-3.79,-3.97,1.36,0.14,0.24,-4.38,1018.88
29.48,0.08,0.46,-0.06,-3.06,-4.55,-1.53,0.14,0.24,-4.38,1018.88
29.486,0.08,0.46,-0.06,-3.06,-4.55,-1.53,0.14,0.24,-4.38,1018.95
29.5,-0.04,0.94,-0.08,-3.06,-4.55,-1.53,0.14,0.24,-4.38,1018.95
29.531,-0.04,0.94,-0.08,-3.06,-4.55,-1.53,0.64,-0.02,-4.56,1018.95
29.552,-0.04,0.94,-0.08,-2.11,-1.61,-0.55,0.64,-0.02,-4.56,1018.95
29.567,-0.04,0.94,-0.08,-2.11,-1.61,-0.55,0.64,-0.02,-4.56,1018.90
29.571,-0.05,1.40,-0.28,-2.11,-1.61,-0.55,0.64,-0.02,-4.56,1018.90
29.601,-0.05,1.40,-0.28,-2.11,-1.61,-0.55,0.56,0.61,-3.75,1018.90
29.621,-0.05,1.40,-0.28,1.90,3.52,-2.45,0.56,0.61,-3.75,1018.90
29.642,0.19,1.72,-0.12,1.90,3.52,-2.45,0.56,0.61,-3.75,1018.90
29.647,0.19,1.72,-0.12,1.90,3.52,-2.45,0.56,0.61,-3.75,1018.90
29.671,0.19,1.72,-0.12,1.90,3.52,-2.45,0.70,-0.68,-1.98,1018.90
29.686,0.19,1.72,-0.12,1.90,3.52,-2.45,0.70,-0.68,-1.98,1019.12
29.691,0.19,1.72,-0.12,2.90,7.51,-0.68,0.70,-0.68,-1.98,1019.12
29.711,1.00,1.21,0.24,2.90,7.51,-0.68,0.70,-0.68,-1.98,1019.12
29.741,1.00,1.21,0.24,2.90,7.51,-0.68,0.09,-0.90,1.50,1019.12
29.761,1.00,1.21,0.24,15.91,4.76,2.93,0.09,-0.90,1.50,1019.12
29.766,1.00,1.21,0.24,15.91,4.76,2.93,0.09,-0.90,1.50,1019.07
29.782,0.35,1.15,-0.01,15.91,4.76,2.93,0.09,-0.90,1.50,1019.07
29.811,0.35,1.15,-0.01,15.91,4.76,2.93,-0.58,1.17,1.68,1019.07
29.832,0.35,1.15,-0.01,4.04,2.14,1.66,-0.58,1.17,1.68,1019.07
29.847,0.35,1.15,-0.01,4.04,2.14,1.66,-0.58,1.17,1.68,1019.38
29.851,-0.00,1.09,-0.11,4.04,2.14,1.66,-0.58,1.17,1.68,1019.38
29.881,-0.00,1.09,-0.11,4.04,2.14,1.66,-0.45,0.18,0.32,1019.38
29.886,-0.00,1.09,-0.11,4.04,2.14,1.66,-0.45,0.18,0.32,1019.28
29.901,-0.00,1.09,-0.11,3.54,1.96,-1.78,-0.45,0.18,0.32,1019.28
29.921,-0.11,0.98,0.05,3.54,1.96,-1.78,-0.45,0.18,0.32,1019.28
29.953,-0.11,0.98,0.05,3.54,1.96,-1.78,-0.32,0.06,0.11,1019.28
29.967,-0.11,0.98,0.05,3.54,1.96,-1.78,-0.32,0.06,0.11,1019.19
29.971,-0.11,0.98,0.05,0.61,0.33,0.28,-0.32,0.06,0.11,1019.19
29.991,-0.17,0.99,0.05,0.61,0.33,0.28,-0.32,0.06,0.11,1019.19
30.023,-0.17,0.99,0.05,0.61,0.33,0.28,-0.21,0.01,0.05,1019.19
30.041,-0.17,0.99,0.05,-0.01,0.37,0.13,-0.21,0.01,0.05,1019.19
30.046,-0.17,0.99,0.05,-0.01,0.37,0.13,-0.21,0.01,0.05,1019.06
30.062,-0.17,0.98,0.05,-0.01,0.37,0.13,-0.21,0.01,0.05,1019.06
30.087,-0.17,0.98,0.05,-0.01,0.37,0.13,-0.21,0.01,0.05,1018.98
30.091,-0.17,0.98,0.05,-0.01,0.37,0.13,-0.15,-0.04,0.05,1018.98
30.111,-0.17,0.98,0.05,-0.28,0.28,0.23,-0.15,-0.04,0.05,1018.98
30.131,-0.17,0.97,0.06,-0.28,0.28,0.23,-0.15,-0.04,0.05,1018.98
30.161,-0.17,0.97,0.06,-0.28,0.28,0.23,-0.10,-0.08,0.06,1018.98
30.168,-0.17,0.97,0.06,-0.28,0.28,0.23,-0.10,-0.08,0.06,1018.93
30.182,-0.17,0.97,0.06,-0.22,0.22,0.27,-0.10,-0.08,0.06,1018.93
30.201,-0.18,0.96,0.08,-0.22,0.22,0.27,-0.10,-0.08,0.06,1018.93
30.231,-0.18,0.96,0.08,-0.22,0.22,0.27,-0.03,-0.12,0.14,1018.93
30.247,-0.18,0.96,0.08,-0.22,0.22,0.27,-0.03,-0.12,0.14,1018.93
30.253,-0.18,0.96,0.08,-0.41,0.11,0.33,-0.03,-0.12,0.14,1018.93
30.272,-0.14,0.97,0.08,-0.41,0.11,0.33,-0.03,-0.12,0.14,1018.93
30.286,-0.14,0.97,0.08,-0.41,0.11,0.33,-0.03,-0.12,0.14,1018.98
30.305,-0.14,0.97,0.08,-0.41,0.11,0.33,0.01,-0.13,0.14,1018.98
30.322,-0.14,0.97,0.08,-0.24,0.13,0.33,0.01,-0.13,0.14,1018.98
30.342,-0.17,0.98,0.07,-0.24,0.13,0.33,0.01,-0.13,0.14,1018.98
30.368,-0.17,0.98,0.07,-0.24,0.13,0.33,0.01,-0.13,0.14,1019.04
30.371,-0.17,0.98,0.07,-0.24,0.13,0.33,0.05,-0.15,0.23,1019.04
30.392,-0.17,0.98,0.07,-0.34,0.17,0.28,0.05,-0.15,0.23,1019.04
30.411,-0.19,1.00,0.06,-0.34,0.17,0.28,0.05,-0.15,0.23,1019.04
30.442,-0.19,1.00,0.06,-0.34,0.17,0.28,0.07,-0.25,0.49,1019.04
30.446,-0.19,1.00,0.06,-0.34,0.17,0.28,0.07,-0.25,0.49,1019.06
30.462,-0.19,1.00,0.06,-0.73,0.31,0.24,0.07,-0.25,0.49,1019.06
30.482,-0.28,1.07,0.02,-0.73,0.31,0.24,0.07,-0.25,0.49,1019.06
30.488,-0.28,1.07,0.02,-0.73,0.31,0.24,0.07,-0.25,0.49,1019.09
30.511,-0.28,1.07,0.02,-0.73,0.31,0.24,-0.09,-0.36,1.23,1019.09
30.532,-0.28,1.07,0.02,-1.61,0.67,-0.09,-0.09,-0.36,1.23,1019.09
30.553,-0.53,1.29,-0.12,-1.61,0.67,-0.09,-0.09,-0.36,1.23,1019.09
30.566,-0.53,1.29,-0.12,-1.61,0.67,-0.09,-0.09,-0.36,1.23,1019.05
30.581,-0.53,1.29,-0.12,-1.61,0.67,-0.09,-0.61,-0.66,3.01,1019.05
30.602,-0.53,1.29,-0.12,-4.53,2.22,-1.17,-0.61,-0.66,3.01,1019.05
30.624,-0.68,1.40,0.04,-4.53,2.22,-1.17,-0.61,-0.66,3.01,1019.05
30.647,-0.68,1.40,0.04,-4.53,2.22,-1.17,-0.61,-0.66,3.01,1018.72
30.652,-0.68,1.40,0.04,-4.53,2.22,-1.17,-0.92,-1.53,5.16,1018.72
30.672,-0.68,1.40,0.04,-11.03,4.53,-1.97,-0.92,-1.53,5.16,1018.72
30.694,-0.68,1.40,0.04,-11.03,4.53,-1.97,-0.92,-1.53,5.16,1018.45
30.695,-0.18,0.94,0.22,-11.03,4.53,-1.97,-0.92,-1.53,5.16,1018.45
30.722,-0.18,0.94,0.22,-11.03,4.53,-1.97,-0.42,-1.65,3.77,1018.45
30.742,-0.18,0.94,0.22,-7.27,4.74,2.15,-0.42,-1.65,3.77,1018.45
30.762,0.61,0.40,0.06,-7.27,4.74,2.15,-0.42,-1.65,3.77,1018.45
30.766,0.61,0.40,0.06,-7.27,4.74,2.15,-0.42,-1.65,3.77,1018.63
30.792,0.61,0.40,0.06,-7.27,4.74,2.15,-0.17,-1.05,-2.35,1018.63
30.812,0.61,0.40,0.06,-0.49,-2.78,0.47,-0.17,-1.05,-2.35,1018.63
30.832,-0.00,0.33,-0.07,-0.49,-2.78,0.47,-0.17,-1.05,-2.35,1018.63
30.847,-0.00,0.33,-0.07,-0.49,-2.78,0.47,-0.17,-1.05,-2.35,1018.86
30.862,-0.00,0.33,-0.07,-0.49,-2.78,0.47,-0.18,-0.31,-4.19,1018.86
30.882,-0.00,0.33,-0.07,-6.73,-5.62,-1.06,-0.18,-0.31,-4.19,1018.86
30.889,-0.00,0.33,-0.07,-6.73,-5.62,-1.06,-0.18,-0.31,-4.19,1018.97
30.901,0.01,0.82,-0.12,-6.73,-5.62,-1.06,-0.18,-0.31,-4.19,1018.97
30.931,0.01,0.82,-0.12,-6.73,-5.62,-1.06,0.02,-0.01,-4.75,1018.97
30.951,0.01,0.82,-0.12,-1.01,-2.71,-1.18,0.02,-0.01,-4.75,1018.97
30.967,0.01,0.82,-0.12,-1.01,-2.71,-1.18,0.02,-0.01,-4.75,1018.94
30.971,-0.02,1.28,-0.23,-1.01,-2.71,-1.18,0.02,-0.01,-4.75,1018.94
31.001,-0.02,1.28,-0.23,-1.01,-2.71,-1.18,0.24,-0.33,-3.91,1018.94
31.027,-0.02,1.28,-0.23,1.56,2.20,-2.18,0.24,-0.33,-3.91,1018.94
31.041,-0.16,1.56,-0.25,1.56,2.20,-2.18,0.24,-0.33,-3.91,1018.94
31.047,-0.16,1.56,-0.25,1.56,2.20,-2.18,0.24,-0.33,-3.91,1018.89
31.072,-0.16,1.56,-0.25,1.56,2.20,-2.18,0.39,-2.17,-1.65,1018.89
31.087,-0.16,1.56,-0.25,1.56,2.20,-2.18,0.39,-2.17,-1.65,1018.97
31.092,-0.16,1.56,-0.25,1.22,5.67,-2.04,0.39,-2.17,-1.65,1018.97
31.112,1.28,1.23,-0.14,1.22,5.67,-2.04,0.39,-2.17,-1.65,1018.97
31.142,1.28,1.23,-0.14,1.22,5.67,-2.04,0.48,-2.78,-0.70,1018.97
31.162,1.28,1.23,-0.14,10.56,5.39,-3.26,0.48,-2.78,-0.70,1018.97
31.166,1.28,1.23,-0.14,10.56,5.39,-3.26,0.48,-2.78,-0.70,1019.12
31.181,-0.07,0.98,0.35,10.56,5.39,-3.26,0.48,-2.78,-0.70,1019.12
31.211,-0.07,0.98,0.35,10.56,5.39,-3.26,0.77,0.23,2.16,1019.12
31.232,-0.07,0.98,0.35,9.96,-0.42,2.49,0.77,0.23,2.16,1019.12
31.247,-0.07,0.98,0.35,9.96,-0.42,2.49,0.77,0.23,2.16,1019.42
31.253,0.51,1.29,-0.67,9.96,-0.42,2.49,0.77,0.23,2.16,1019.42
31.281,0.51,1.29,-0.67,9.96,-0.42,2.49,-0.97,0.28,0.19,1019.42
31.286,0.51,1.29,-0.67,9.96,-0.42,2.49,-0.97,0.28,0.19,1019.24
31.305,0.51,1.29,-0.67,6.05,4.16,-7.37,-0.97,0.28,0.19,1019.24
31.323,-0.16,0.93,0.27,6.05,4.16,-7.37,-0.97,0.28,0.19,1019.24
31.354,-0.16,0.93,0.27,6.05,4.16,-7.37,-0.07,0.16,0.24,1019.24
31.367,-0.16,0.93,0.27,6.05,4.16,-7.37,-0.07,0.16,0.24,1019.21
31.372,-0.16,0.93,0.27,-0.49,-0.44,2.99,-0.07,0.16,0.24,1019.21
31.392,-0.16,1.00,-0.00,-0.49,-0.44,2.99,-0.07,0.16,0.24,1019.21
31.422,-0.16,1.00,-0.00,-0.49,-0.44,2.99,-0.09,0.05,0.08,1019.21
31.443,-0.16,1.00,-0.00,0.14,0.39,0.09,-0.09,0.05,0.08,1019.21
31.446,-0.16,1.00,-0.00,0.14,0.39,0.09,-0.09,0.05,0.08,1019.10
31.462,-0.17,0.97,0.11,0.14,0.39,0.09,-0.09,0.05,0.08,1019.10
31.488,-0.17,0.97,0.11,0.14,0.39,0.09,-0.09,0.05,0.08,1019.04
31.494,-0.17,0.97,0.11,0.14,0.39,0.09,-0.02,-0.04,0.01,1019.04
31.513,-0.17,0.97,0.11,0.05,0.19,0.18,-0.02,-0.04,0.01,1019.04
31.533,-0.17,0.97,0.08,0.05,0.19,0.18,-0.02,-0.04,0.01,1019.04
31.562,-0.17,0.97,0.08,0.05,0.19,0.18,-0.01,-0.09,0.00,1019.04
31.566,-0.17,0.97,0.08,0.05,0.19,0.18,-0.01,-0.09,0.00,1019.02
31.582,-0.17,0.97,0.08,0.02,0.18,0.02,-0.01,-0.09,0.00,1019.02
31.602,-0.20,0.95,0.11,0.02,0.18,0.02,-0.01,-0.09,0.00,1019.02
31.632,-0.20,0.95,0.11,0.02,0.18,0.02,0.06,-0.11,0.08,1019.02
31.646,-0.20,0.95,0.11,0.02,0.18,0.02,0.06,-0.11,0.08,1019.05
31.653,-0.20,0.95,0.11,-0.16,-0.01,0.40,0.06,-0.11,0.08,1019.05
31.673,-0.19,0.97,0.07,-0.16,-0.01,0.40,0.06,-0.11,0.08,1019.05
31.686,-0.19,0.97,0.07,-0.16,-0.01,0.40,0.06,-0.11,0.08,1019.05
31.702,-0.19,0.97,0.07,-0.16,-0.01,0.40,0.05,-0.16,0.15,1019.05
31.722,-0.19,0.97,0.07,-0.23,0.09,0.08,0.05,-0.16,0.15,1019.05
31.743,-0.21,0.97,0.10,-0.23,0.09,0.08,0.05,-0.16,0.15,1019.05
31.767,-0.21,0.97,0.10,-0.23,0.09,0.08,0.05,-0.16,0.15,1019.03
31.774,-0.21,0.97,0.10,-0.23,0.09,0.08,0.16,-0.20,0.35,1019.03
31.793,-0.21,0.97,0.10,-0.56,0.15,0.24,0.16,-0.20,0.35,1019.03
31.812,-0.19,1.01,0.13,-0.56,0.15,0.24,0.16,-0.20,0.35,1019.03
31.842,-0.19,1.01,0.13,-0.56,0.15,0.24,0.41,-0.31,0.58,1019.03
31.846,-0.19,1.01,0.13,-0.56,0.15,0.24,0.41,-0.31,0.58,1018.97
31.863,-0.19,1.01,0.13,-0.90,0.26,0.78,0.41,-0.31,0.58,1018.97
31.882,-0.48,1.24,-0.14,-0.90,0.26,0.78,0.41,-0.31,0.58,1018.97
31.886,-0.48,1.24,-0.14,-0.90,0.26,0.78,0.41,-0.31,0.58,1018.93
31.913,-0.48,1.24,-0.14,-0.90,0.26,0.78,-0.28,-0.60,1.94,1018.93
31.933,-0.48,1.24,-0.14,-2.35,1.50,-0.52,-0.28,-0.60,1.94,1018.93
31.952,-1.02,1.49,-0.80,-2.35,1.50,-0.52,-0.28,-0.60,1.94,1018.93
31.966,-1.02,1.49,-0.80,-2.35,1.50,-0.52,-0.28,-0.60,1.94,1018.56
31.982,-1.02,1.49,-0.80,-2.35,1.50,-0.52,-2.90,-2.23,4.56,1018.56
32.002,-1.02,1.49,-0.80,-10.50,5.58,-7.52,-2.90,-2.23,4.56,1018.56
32.022,0.06,1.11,0.55,-10.50,5.58,-7.52,-2.90,-2.23,4.56,1018.56
32.047,0.06,1.11,0.55,-10.50,5.58,-7.52,-2.90,-2.23,4.56,1018.49
32.052,0.06,1.11,0.55,-10.50,5.58,-7.52,-1.00,-2.81,2.76,1018.49
32.073,0.06,1.11,0.55,-7.17,4.47,0.53,-1.00,-2.81,2.76,1018.49
32.086,0.06,1.11,0.55,-7.17,4.47,0.53,-1.00,-2.81,2.76,1018.63
32.099,-0.02,0.19,0.09,-7.17,4.47,0.53,-1.00,-2.81,2.76,1018.63
32.123,-0.02,0.19,0.09,-7.17,4.47,0.53,0.23,-1.98,-1.22,1018.63
32.15,-0.02,0.19,0.09,-3.49,-5.04,0.98,0.23,-1.98,-1.22,1018.63
32.162,0.10,0.42,-0.44,-3.49,-5.04,0.98,0.23,-1.98,-1.22,1018.63
32.166,0.10,0.42,-0.44,-3.49,-5.04,0.98,0.23,-1.98,-1.22,1018.82
32.193,0.10,0.42,-0.44,-3.49,-5.04,0.98,0.03,0.43,-3.39,1018.82
32.212,0.10,0.42,-0.44,-4.33,-5.35,-5.05,0.03,0.43,-3.39,1018.82
32.232,-0.19,0.78,-0.19,-4.33,-5.35,-5.05,0.03,0.43,-3.39,1018.82
32.247,-0.19,0.78,-0.19,-4.33,-5.35,-5.05,0.03,0.43,-3.39,1018.87
32.262,-0.19,0.78,-0.19,-4.33,-5.35,-5.05,1.08,-0.45,-4.30,1018.87
32.283,-0.19,0.78,-0.19,-2.33,-2.83,-2.92,1.08,-0.45,-4.30,1018.87
32.286,-0.19,0.78,-0.19,-2.33,-2.83,-2.92,1.08,-0.45,-4.30,1018.94
32.302,-0.24,1.34,-0.24,-2.33,-2.83,-2.92,1.08,-0.45,-4.30,1018.94
32.332,-0.24,1.34,-0.24,-2.33,-2.83,-2.92,1.08,-1.56,-3.92,1018.94
32.353,-0.24,1.34,-0.24,-0.87,2.28,-1.77,1.08,-1.56,-3.92,1018.94
32.367,-0.24,1.34,-0.24,-0.87,2.28,-1.77,1.08,-1.56,-3.92,1018.94
32.376,0.06,1.72,-0.27,-0.87,2.28,-1.77,1.08,-1.56,-3.92,1018.94
32.402,0.06,1.72,-0.27,-0.87,2.28,-1.77,0.61,-2.29,-1.46,1018.94
32.425,0.06,1.72,-0.27,1.03,7.57,-2.73,0.61,-2.29,-1.46,1018.94
32.442,1.47,1.19,0.13,1.03,7.57,-2.73,0.61,-2.29,-1.46,1018.94
32.446,1.47,1.19,0.13,1.03,7.57,-2.73,0.61,-2.29,-1.46,1019.04
32.472,1.47,1.19,0.13,1.03,7.57,-2.73,0.27,-1.39,0.57,1019.04
32.487,1.47,1.19,0.13,1.03,7.57,-2.73,0.27,-1.39,0.57,1019.00
32.492,1.47,1.19,0.13,17.86,4.74,0.80,0.27,-1.39,0.57,1019.00
32.519,0.13,1.14,0.00,17.86,4.74,0.80,0.27,-1.39,0.57,1019.00
32.541,0.13,1.14,0.00,17.86,4.74,0.80,-0.44,1.06,1.87,1019.00
32.562,0.13,1.14,0.00,4.06,2.05,1.20,-0.44,1.06,1.87,1019.00
32.565,0.13,1.14,0.00,4.06,2.05,1.20,-0.44,1.06,1.87,1019.52
32.583,0.18,1.20,-0.05,4.06,2.05,1.20,-0.44,1.06,1.87,1019.52
32.612,0.18,1.20,-0.05,4.06,2.05,1.20,-0.47,0.13,0.14,1019.52
32.632,0.18,1.20,-0.05,5.33,2.52,-1.95,-0.47,0.13,0.14,1019.52
32.646,0.18,1.20,-0.05,5.33,2.52,-1.95,-0.47,0.13,0.14,1019.23
32.655,-0.23,0.96,0.10,5.33,2.52,-1.95,-0.47,0.13,0.14,1019.23
32.682,-0.23,0.96,0.10,5.33,2.52,-1.95,-0.15,0.01,0.10,1019.23
32.686,-0.23,0.96,0.10,5.33,2.52,-1.95,-0.15,0.01,0.10,1019.10
32.703,-0.23,0.96,0.10,0.33,0.17,1.06,-0.15,0.01,0.10,1019.10
