time,gFx,gFy,gFz,ax,ay,az,wx,wy,wz,P
0.001,0.10,0.98,-0.00,0.00,0.00,0.01,-0.01,0.00,0.00,1018.97
0.002,0.10,0.98,-0.00,0.00,0.00,0.01,-0.00,-0.00,0.00,1018.97
0.021,0.10,0.98,-0.01,0.00,0.00,0.01,-0.00,-0.00,0.00,1018.97
0.022,0.10,0.98,-0.01,-0.02,-0.00,-0.03,-0.00,-0.00,0.00,1018.97
0.051,0.11,0.98,-0.00,-0.02,-0.00,-0.03,-0.00,-0.00,0.00,1018.97
0.052,0.10,0.98,-0.01,-0.02,-0.00,-0.03,-0.00,-0.00,0.00,1018.97
0.065,0.10,0.98,-0.01,-0.02,-0.00,-0.03,-0.00,-0.00,0.00,1018.96
0.07,0.10,0.98,-0.01,-0.02,-0.00,-0.03,-0.00,0.00,-0.00,1018.96
0.091,0.10,0.98,-0.00,-0.02,-0.00,-0.03,-0.00,0.00,-0.00,1018.96
0.092,0.10,0.98,-0.00,-0.02,-0.00,-0.03,-0.00,0.00,-0.00,1018.96
0.093,0.10,0.98,-0.00,0.01,0.01,-0.02,-0.00,0.00,-0.00,1018.96
0.104,0.10,0.98,-0.00,0.01,0.01,-0.02,-0.00,0.00,-0.00,1018.93
0.118,0.10,0.98,-0.01,0.01,0.01,-0.02,-0.00,0.00,-0.00,1018.93
0.141,0.10,0.98,-0.01,0.01,0.01,-0.02,-0.00,-0.00,-0.00,1018.93
0.142,0.10,0.98,-0.00,0.01,0.01,-0.02,-0.00,-0.00,-0.00,1018.93
0.161,0.10,0.97,-0.00,0.01,0.01,-0.02,-0.00,-0.00,-0.00,1018.93
0.161,0.10,0.97,-0.00,-0.00,-0.01,0.01,-0.00,-0.00,-0.00,1018.93
0.185,0.10,0.98,-0.00,-0.00,-0.01,0.01,-0.00,-0.00,-0.00,1018.93
0.186,0.10,0.98,-0.00,-0.00,-0.01,0.01,-0.00,-0.00,-0.00,1018.94
0.21,0.10,0.98,-0.01,-0.00,-0.01,0.01,-0.00,-0.00,-0.00,1018.94
0.211,0.10,0.98,-0.01,-0.00,-0.01,0.01,0.00,-0.00,-0.01,1018.94
0.231,0.10,0.98,-0.01,0.00,-0.01,0.01,0.00,-0.00,-0.01,1018.94
0.231,0.10,0.98,-0.01,0.00,-0.01,0.01,0.00,-0.00,-0.01,1018.94
0.232,0.11,0.98,-0.01,0.00,-0.01,0.01,0.00,-0.00,-0.01,1018.94
0.251,0.10,0.98,0.00,0.00,-0.01,0.01,0.00,-0.00,-0.01,1018.94
0.265,0.10,0.98,0.00,0.00,-0.01,0.01,0.00,-0.00,-0.01,1018.96
0.281,0.10,0.98,0.00,0.00,-0.01,0.01,-0.00,-0.00,-0.01,1018.96
0.281,0.10,0.98,-0.00,0.00,-0.01,0.01,-0.00,-0.00,-0.01,1018.96
0.301,0.10,0.98,-0.00,0.00,-0.01,0.01,-0.00,-0.00,-0.01,1018.96
0.302,0.10,0.98,-0.00,0.02,0.01,-0.04,-0.00,-0.00,-0.01,1018.96
0.305,0.10,0.98,-0.00,0.02,0.01,-0.04,-0.00,-0.00,-0.01,1018.96
0.317,0.10,0.98,-0.01,0.02,0.01,-0.04,-0.00,-0.00,-0.01,1018.96
0.342,0.11,0.98,-0.00,0.02,0.01,-0.04,-0.00,-0.00,-0.01,1018.96
0.352,0.11,0.98,-0.00,0.02,0.01,-0.04,0.01,-0.01,-0.01,1018.96
0.371,0.11,0.98,-0.00,-0.03,-0.00,0.03,0.01,-0.01,-0.01,1018.96
0.372,0.10,0.97,-0.00,-0.03,-0.00,0.03,0.01,-0.01,-0.01,1018.96
0.372,0.09,0.98,-0.02,-0.03,-0.00,0.03,0.01,-0.01,-0.01,1018.96
0.385,0.09,0.98,-0.02,-0.03,-0.00,0.03,0.01,-0.01,-0.01,1018.96
0.421,0.09,0.98,-0.02,-0.03,-0.00,0.03,0.00,-0.01,-0.01,1018.96
0.422,0.10,0.98,-0.02,-0.03,-0.00,0.03,0.00,-0.01,-0.01,1018.96
0.422,0.10,0.98,0.00,-0.03,-0.00,0.03,0.00,-0.01,-0.01,1018.96
0.442,0.10,0.98,-0.02,-0.03,-0.00,0.03,0.00,-0.01,-0.01,1018.96
0.443,0.10,0.98,-0.02,-0.00,-0.01,-0.01,0.00,-0.01,-0.01,1018.96
0.451,0.10,0.98,-0.01,-0.00,-0.01,-0.01,0.00,-0.01,-0.01,1018.96
0.465,0.10,0.98,-0.01,-0.00,-0.01,-0.01,0.00,-0.01,-0.01,1018.96
0.491,0.10,0.98,0.02,-0.00,-0.01,-0.01,0.00,-0.01,-0.01,1018.96
0.492,0.10,0.98,0.02,-0.00,-0.01,-0.01,-0.01,-0.02,-0.02,1018.96
0.505,0.11,0.98,-0.02,-0.00,-0.01,-0.01,-0.01,-0.02,-0.02,1018.96
0.506,0.11,0.98,-0.02,-0.00,-0.01,-0.01,-0.01,-0.02,-0.02,1018.97
0.512,0.09,0.99,-0.05,-0.00,-0.01,-0.01,-0.01,-0.02,-0.02,1018.97
0.513,0.09,0.99,-0.05,-0.00,0.02,-0.08,-0.01,-0.02,-0.02,1018.97
0.56,0.09,0.99,-0.05,-0.00,0.02,-0.08,-0.08,-0.05,-0.03,1018.97
0.562,0.08,0.98,-0.05,-0.00,0.02,-0.08,-0.08,-0.05,-0.03,1018.97
0.562,0.10,0.97,-0.00,-0.00,0.02,-0.08,-0.08,-0.05,-0.03,1018.97
0.581,0.10,0.97,-0.00,0.03,0.03,-0.08,-0.08,-0.05,-0.03,1018.97
0.582,0.11,0.97,0.07,0.03,0.03,-0.08,-0.08,-0.05,-0.03,1018.97
0.584,0.11,0.97,0.07,0.03,0.03,-0.08,-0.08,-0.05,-0.03,1018.92
0.633,0.11,0.97,0.07,0.03,0.03,-0.08,-0.00,-0.09,-0.05,1018.92
0.634,0.10,0.97,0.02,0.03,0.03,-0.08,-0.00,-0.09,-0.05,1018.92
0.635,0.08,0.97,-0.02,0.03,0.03,-0.08,-0.00,-0.09,-0.05,1018.92
0.651,0.08,0.97,-0.01,0.03,0.03,-0.08,-0.00,-0.09,-0.05,1018.92
0.652,0.08,0.98,-0.03,0.03,0.03,-0.08,-0.00,-0.09,-0.05,1018.92
0.652,0.08,0.98,-0.03,0.03,-0.04,0.14,-0.00,-0.09,-0.05,1018.92
0.664,0.08,0.98,-0.03,0.03,-0.04,0.14,-0.00,-0.09,-0.05,1018.92
0.699,0.09,0.98,-0.00,0.03,-0.04,0.14,-0.00,-0.09,-0.05,1018.92
0.7,0.11,0.98,-0.00,0.03,-0.04,0.14,-0.00,-0.09,-0.05,1018.92
0.701,0.11,0.98,-0.00,0.03,-0.04,0.14,-0.08,-0.00,-0.01,1018.92
0.704,0.11,0.98,-0.00,0.03,-0.04,0.14,-0.08,-0.00,-0.01,1018.96
0.717,0.10,0.98,0.02,0.03,-0.04,0.14,-0.08,-0.00,-0.01,1018.96
0.72,0.10,0.98,0.02,-0.08,-0.03,-0.17,-0.08,-0.00,-0.01,1018.96
0.77,0.09,0.98,0.03,-0.08,-0.03,-0.17,-0.08,-0.00,-0.01,1018.96
0.772,0.08,0.97,-0.00,-0.08,-0.03,-0.17,-0.08,-0.00,-0.01,1018.96
0.773,0.08,0.97,-0.00,-0.08,-0.03,-0.17,-0.05,0.01,-0.02,1018.96
0.784,0.08,0.97,0.03,-0.08,-0.03,-0.17,-0.05,0.01,-0.02,1018.96
0.785,0.08,0.97,0.03,-0.08,-0.03,-0.17,-0.05,0.01,-0.02,1018.97
0.79,0.08,0.98,-0.01,-0.08,-0.03,-0.17,-0.05,0.01,-0.02,1018.97
0.79,0.08,0.98,-0.01,0.06,0.02,0.04,-0.05,0.01,-0.02,1018.97
0.841,0.08,0.98,-0.01,0.06,0.02,0.04,-0.05,0.01,-0.01,1018.97
0.842,0.09,0.98,-0.01,0.06,0.02,0.04,-0.05,0.01,-0.01,1018.97
0.843,0.10,0.97,0.04,0.06,0.02,0.04,-0.05,0.01,-0.01,1018.97
0.851,0.08,0.97,0.04,0.06,0.02,0.04,-0.05,0.01,-0.01,1018.97
0.862,0.08,0.97,0.04,-0.08,-0.04,-0.00,-0.05,0.01,-0.01,1018.97
0.864,0.08,0.97,0.04,-0.08,-0.04,-0.00,-0.05,0.01,-0.01,1019.03
0.905,0.08,0.97,0.04,-0.08,-0.04,-0.00,-0.05,0.01,-0.01,1019.08
0.906,0.08,0.98,-0.02,-0.08,-0.04,-0.00,-0.05,0.01,-0.01,1019.08
0.907,0.09,0.98,0.01,-0.08,-0.04,-0.00,-0.05,0.01,-0.01,1019.08
0.91,0.09,0.98,0.01,-0.08,-0.04,-0.00,-0.03,0.01,0.01,1019.08
0.917,0.09,0.98,-0.01,-0.08,-0.04,-0.00,-0.03,0.01,0.01,1019.08
0.932,0.09,0.98,0.02,-0.08,-0.04,-0.00,-0.03,0.01,0.01,1019.08
0.933,0.09,0.98,0.02,-0.04,-0.03,0.08,-0.03,0.01,0.01,1019.08
0.982,0.09,0.98,0.02,-0.04,-0.03,0.08,-0.07,0.03,-0.00,1019.08
0.983,0.11,0.99,-0.00,-0.04,-0.03,0.08,-0.07,0.03,-0.00,1019.08
0.984,0.10,0.99,0.03,-0.04,-0.03,0.08,-0.07,0.03,-0.00,1019.08
0.985,0.10,0.99,0.03,-0.04,-0.03,0.08,-0.07,0.03,-0.00,1019.11
1.002,0.10,0.98,0.07,-0.04,-0.03,0.08,-0.07,0.03,-0.00,1019.11
1.003,0.10,0.98,0.07,-0.02,0.03,-0.11,-0.07,0.03,-0.00,1019.11
1.051,0.10,0.98,0.07,-0.02,0.03,-0.11,0.04,-0.00,-0.06,1019.11
1.053,0.11,0.98,0.03,-0.02,0.03,-0.11,0.04,-0.00,-0.06,1019.11
1.054,0.10,0.98,0.02,-0.02,0.03,-0.11,0.04,-0.00,-0.06,1019.11
1.054,0.09,0.98,0.01,-0.02,0.03,-0.11,0.04,-0.00,-0.06,1019.11
1.064,0.09,0.98,0.01,-0.02,0.03,-0.11,0.04,-0.00,-0.06,1019.10
1.07,0.10,0.98,0.02,-0.02,0.03,-0.11,0.04,-0.00,-0.06,1019.10
1.071,0.10,0.98,0.02,0.12,0.06,0.11,0.04,-0.00,-0.06,1019.10
1.105,0.08,0.98,-0.00,0.12,0.06,0.11,0.04,-0.00,-0.06,1019.10
1.106,0.08,0.98,-0.00,0.12,0.06,0.11,0.04,-0.00,-0.06,1019.07
1.117,0.08,0.99,0.00,0.12,0.06,0.11,0.04,-0.00,-0.06,1019.07
1.121,0.08,0.99,0.00,0.12,0.06,0.11,0.05,-0.01,-0.10,1019.07
1.141,0.08,0.98,0.01,0.12,0.06,0.11,0.05,-0.01,-0.10,1019.07
1.142,0.08,0.98,0.01,0.15,0.03,0.07,0.05,-0.01,-0.10,1019.07
1.184,0.08,0.99,0.02,0.15,0.03,0.07,0.05,-0.01,-0.10,1019.07
1.186,0.09,0.98,0.03,0.15,0.03,0.07,0.05,-0.01,-0.10,1019.07
1.187,0.09,0.98,0.03,0.15,0.03,0.07,0.05,-0.01,-0.10,1019.07
1.19,0.09,0.98,0.03,0.15,0.03,0.07,0.07,0.02,-0.11,1019.07
1.21,0.09,0.98,0.03,-0.02,0.03,-0.07,0.07,0.02,-0.11,1019.07
1.211,0.10,0.98,0.03,-0.02,0.03,-0.07,0.07,0.02,-0.11,1019.07
1.212,0.07,0.98,0.03,-0.02,0.03,-0.07,0.07,0.02,-0.11,1019.07
1.251,0.07,0.98,0.01,-0.02,0.03,-0.07,0.07,0.02,-0.11,1019.07
1.252,0.09,0.98,0.02,-0.02,0.03,-0.07,0.07,0.02,-0.11,1019.07
1.261,0.09,0.98,0.02,-0.02,0.03,-0.07,0.16,0.03,-0.16,1019.07
1.264,0.09,0.98,0.02,-0.02,0.03,-0.07,0.16,0.03,-0.16,1019.00
1.281,0.09,0.98,0.02,0.16,0.01,0.24,0.16,0.03,-0.16,1019.00
1.282,0.07,0.98,0.01,0.16,0.01,0.24,0.16,0.03,-0.16,1019.00
1.305,0.07,0.98,0.01,0.16,0.01,0.24,0.16,0.03,-0.16,1019.00
1.306,0.07,0.98,0.01,0.16,0.01,0.24,0.16,0.03,-0.16,1019.00
1.317,0.06,0.98,0.00,0.16,0.01,0.24,0.16,0.03,-0.16,1019.00
1.33,0.06,0.98,0.00,0.16,0.01,0.24,0.24,0.02,-0.22,1019.00
1.352,0.06,0.98,0.00,0.14,-0.00,0.15,0.24,0.02,-0.22,1019.00
1.353,0.04,0.98,0.00,0.14,-0.00,0.15,0.24,0.02,-0.22,1019.00
1.354,0.05,0.98,-0.01,0.14,-0.00,0.15,0.24,0.02,-0.22,1019.00
1.384,0.05,0.98,-0.04,0.14,-0.00,0.15,0.24,0.02,-0.22,1019.00
1.386,0.05,0.98,-0.04,0.14,-0.00,0.15,0.24,0.02,-0.22,1019.02
1.401,0.04,0.98,-0.03,0.14,-0.00,0.15,0.24,0.02,-0.22,1019.02
1.403,0.04,0.98,-0.03,0.14,-0.00,0.15,0.31,-0.02,-0.27,1019.02
1.421,0.05,1.00,-0.04,0.14,-0.00,0.15,0.31,-0.02,-0.27,1019.02
1.422,0.05,1.00,-0.04,0.09,-0.02,0.23,0.31,-0.02,-0.27,1019.02
1.441,0.03,0.99,-0.07,0.09,-0.02,0.23,0.31,-0.02,-0.27,1019.02
1.451,0.07,1.00,-0.02,0.09,-0.02,0.23,0.31,-0.02,-0.27,1019.02
1.464,0.07,1.00,-0.02,0.09,-0.02,0.23,0.31,-0.02,-0.27,1019.00
1.47,0.07,1.00,-0.02,0.09,-0.02,0.23,0.36,-0.03,-0.39,1019.00
1.491,0.07,1.00,-0.02,0.20,0.05,0.00,0.36,-0.03,-0.39,1019.00
1.492,0.07,0.99,0.04,0.20,0.05,0.00,0.36,-0.03,-0.39,1019.00
1.492,0.10,1.01,0.02,0.20,0.05,0.00,0.36,-0.03,-0.39,1019.00
1.505,0.10,1.01,0.02,0.20,0.05,0.00,0.36,-0.03,-0.39,1019.00
1.518,0.08,1.04,-0.04,0.20,0.05,0.00,0.36,-0.03,-0.39,1019.00
1.541,0.08,1.04,-0.04,0.20,0.05,0.00,0.56,0.13,-0.74,1019.00
1.542,0.06,1.06,-0.13,0.20,0.05,0.00,0.56,0.13,-0.74,1019.00
1.561,0.05,1.08,-0.21,0.20,0.05,0.00,0.56,0.13,-0.74,1019.00
1.562,0.05,1.08,-0.21,0.70,0.16,0.69,0.56,0.13,-0.74,1019.00
1.584,0.06,1.14,-0.28,0.70,0.16,0.69,0.56,0.13,-0.74,1019.00
1.586,0.06,1.14,-0.28,0.70,0.16,0.69,0.56,0.13,-0.74,1018.99
1.61,0.06,1.14,-0.28,0.70,0.16,0.69,0.20,0.02,-1.31,1018.99
1.611,0.06,1.20,-0.36,0.70,0.16,0.69,0.20,0.02,-1.31,1018.99
1.637,0.14,1.30,-0.35,0.70,0.16,0.69,0.20,0.02,-1.31,1018.99
1.638,0.20,1.38,-0.30,0.70,0.16,0.69,0.20,0.02,-1.31,1018.99
1.639,0.20,1.38,-0.30,1.18,0.86,-0.43,0.20,0.02,-1.31,1018.99
1.651,0.29,1.46,-0.19,1.18,0.86,-0.43,0.20,0.02,-1.31,1018.99
1.664,0.29,1.46,-0.19,1.18,0.86,-0.43,0.20,0.02,-1.31,1018.85
1.683,0.29,1.46,-0.19,1.18,0.86,-0.43,-0.27,-0.13,-2.56,1018.85
1.685,0.30,1.42,-0.09,1.18,0.86,-0.43,-0.27,-0.13,-2.56,1018.85
1.698,0.27,1.41,-0.12,1.18,0.86,-0.43,-0.27,-0.13,-2.56,1018.85
1.701,0.27,1.41,-0.12,2.89,2.93,-2.20,-0.27,-0.13,-2.56,1018.85
1.704,0.27,1.41,-0.12,2.89,2.93,-2.20,-0.27,-0.13,-2.56,1018.82
1.718,0.20,1.31,0.03,2.89,2.93,-2.20,-0.27,-0.13,-2.56,1018.82
1.752,0.20,1.31,0.03,2.89,2.93,-2.20,-0.44,0.62,-3.92,1018.82
1.753,0.05,1.27,0.03,2.89,2.93,-2.20,-0.44,0.62,-3.92,1018.82
1.771,0.05,1.27,0.03,6.31,4.73,-0.28,-0.44,0.62,-3.92,1018.82
1.773,-0.13,1.20,0.14,6.31,4.73,-0.28,-0.44,0.62,-3.92,1018.82
1.773,-0.05,1.15,0.27,6.31,4.73,-0.28,-0.44,0.62,-3.92,1018.82
1.784,-0.05,1.15,0.27,6.31,4.73,-0.28,-0.44,0.62,-3.92,1018.44
1.822,-0.05,1.15,0.27,6.31,4.73,-0.28,0.24,0.01,-2.89,1018.44
1.823,-0.30,0.64,0.09,6.31,4.73,-0.28,0.24,0.01,-2.89,1018.44
1.824,-1.12,0.43,-0.13,6.31,4.73,-0.28,0.24,0.01,-2.89,1018.44
1.842,-1.12,0.43,-0.13,5.68,4.09,2.12,0.24,0.01,-2.89,1018.44
1.843,-0.11,0.47,0.25,5.68,4.09,2.12,0.24,0.01,-2.89,1018.44
1.854,0.68,0.74,-0.07,5.68,4.09,2.12,0.24,0.01,-2.89,1018.44
1.865,0.68,0.74,-0.07,5.68,4.09,2.12,0.24,0.01,-2.89,1018.37
1.891,0.68,0.74,-0.07,5.68,4.09,2.12,0.05,-0.48,0.79,1018.37
1.892,0.49,0.60,0.00,5.68,4.09,2.12,0.05,-0.48,0.79,1018.37
1.904,0.49,0.60,0.00,5.68,4.09,2.12,0.05,-0.48,0.79,1018.57
1.906,0.17,0.43,0.18,5.68,4.09,2.12,0.05,-0.48,0.79,1018.57
1.911,-0.06,0.43,0.08,5.68,4.09,2.12,0.05,-0.48,0.79,1018.57
1.911,-0.06,0.43,0.08,2.78,-2.14,1.41,0.05,-0.48,0.79,1018.57
1.94,0.10,0.53,0.01,2.78,-2.14,1.41,0.05,-0.48,0.79,1018.57
1.961,0.10,0.53,0.01,2.78,-2.14,1.41,0.18,-0.06,3.00,1018.57
1.962,0.18,0.66,-0.06,2.78,-2.14,1.41,0.18,-0.06,3.00,1018.57
1.982,0.15,0.75,-0.05,2.78,-2.14,1.41,0.18,-0.06,3.00,1018.57
1.983,0.15,0.75,-0.05,7.87,-2.83,1.17,0.18,-0.06,3.00,1018.57
1.984,0.15,0.75,-0.05,7.87,-2.83,1.17,0.18,-0.06,3.00,1018.83
2.038,0.15,0.75,-0.05,7.87,-2.83,1.17,0.21,0.05,4.16,1018.83
2.04,0.15,0.84,-0.09,7.87,-2.83,1.17,0.21,0.05,4.16,1018.83
2.04,0.14,0.96,-0.12,7.87,-2.83,1.17,0.21,0.05,4.16,1018.83
2.051,0.12,1.10,-0.14,7.87,-2.83,1.17,0.21,0.05,4.16,1018.83
2.052,0.07,1.28,-0.22,7.87,-2.83,1.17,0.21,0.05,4.16,1018.83
2.053,0.07,1.28,-0.22,4.25,-2.40,0.34,0.21,0.05,4.16,1018.83
2.065,0.07,1.28,-0.22,4.25,-2.40,0.34,0.21,0.05,4.16,1018.93
2.102,0.07,1.28,-0.22,4.25,-2.40,0.34,0.11,0.10,4.35,1018.93
2.104,0.05,1.43,-0.26,4.25,-2.40,0.34,0.11,0.10,4.35,1018.93
2.104,0.08,1.55,-0.26,4.25,-2.40,0.34,0.11,0.10,4.35,1018.93
2.105,0.08,1.55,-0.26,4.25,-2.40,0.34,0.11,0.10,4.35,1018.85
2.117,0.11,1.68,-0.29,4.25,-2.40,0.34,0.11,0.10,4.35,1018.85
2.121,0.11,1.68,-0.29,1.13,1.16,-0.58,0.11,0.10,4.35,1018.85
2.171,0.11,1.68,-0.29,1.13,1.16,-0.58,-0.30,-0.04,3.32,1018.85
2.173,0.02,1.80,-0.37,1.13,1.16,-0.58,-0.30,-0.04,3.32,1018.85
2.173,-0.34,1.77,-0.36,1.13,1.16,-0.58,-0.30,-0.04,3.32,1018.85
2.184,-1.00,1.43,-0.11,1.13,1.16,-0.58,-0.30,-0.04,3.32,1018.85
2.184,-1.00,1.43,-0.11,1.13,1.16,-0.58,-0.30,-0.04,3.32,1018.74
2.191,-1.05,1.24,-0.01,1.13,1.16,-0.58,-0.30,-0.04,3.32,1018.74
2.191,-1.05,1.24,-0.01,-1.81,6.33,-1.86,-0.30,-0.04,3.32,1018.74
2.241,-1.05,1.24,-0.01,-1.81,6.33,-1.86,-0.03,0.11,2.28,1018.74
2.242,-1.26,1.28,0.03,-1.81,6.33,-1.86,-0.03,0.11,2.28,1018.74
2.243,-1.48,1.24,-0.04,-1.81,6.33,-1.86,-0.03,0.11,2.28,1018.74
2.261,-0.96,1.17,-0.22,-1.81,6.33,-1.86,-0.03,0.11,2.28,1018.74
2.263,-0.96,1.17,-0.22,-10.98,6.38,-1.00,-0.03,0.11,2.28,1018.74
2.264,-0.96,1.17,-0.22,-10.98,6.38,-1.00,-0.03,0.11,2.28,1019.01
2.305,-0.96,1.17,-0.22,-10.98,6.38,-1.00,-0.03,0.11,2.28,1018.92
2.307,-1.10,1.02,-0.16,-10.98,6.38,-1.00,-0.03,0.11,2.28,1018.92
2.308,-1.01,0.99,0.00,-10.98,6.38,-1.00,-0.03,0.11,2.28,1018.92
2.31,-1.01,0.99,0.00,-10.98,6.38,-1.00,-0.50,-0.56,-1.30,1018.92
2.317,0.92,2.30,-0.17,-10.98,6.38,-1.00,-0.50,-0.56,-1.30,1018.92
2.331,1.70,0.83,-1.21,-10.98,6.38,-1.00,-0.50,-0.56,-1.30,1018.92
2.332,1.70,0.83,-1.21,-15.91,3.21,-0.18,-0.50,-0.56,-1.30,1018.92
2.381,1.70,0.83,-1.21,-15.91,3.21,-0.18,-0.84,-0.88,-2.86,1018.92
2.383,0.81,1.01,-0.04,-15.91,3.21,-0.18,-0.84,-0.88,-2.86,1018.92
2.384,-1.51,1.08,0.22,-15.91,3.21,-0.18,-0.84,-0.88,-2.86,1018.92
2.385,-1.51,1.08,0.22,-15.91,3.21,-0.18,-0.84,-0.88,-2.86,1019.54
2.401,-0.23,1.17,0.23,-15.91,3.21,-0.18,-0.84,-0.88,-2.86,1019.54
2.403,-0.23,1.17,0.23,0.22,3.72,-3.50,-0.84,-0.88,-2.86,1019.54
2.442,-0.36,1.04,-0.34,0.22,3.72,-3.50,-0.84,-0.88,-2.86,1019.54
2.443,0.20,0.96,-0.06,0.22,3.72,-3.50,-0.84,-0.88,-2.86,1019.54
2.456,-0.00,0.94,0.24,0.22,3.72,-3.50,-0.84,-0.88,-2.86,1019.54
2.457,-0.00,0.94,0.24,0.22,3.72,-3.50,-0.32,-0.38,-0.71,1019.54
2.464,-0.00,0.94,0.24,0.22,3.72,-3.50,-0.32,-0.38,-0.71,1019.87
2.471,-0.00,0.94,0.24,-4.57,1.06,1.02,-0.32,-0.38,-0.71,1019.87
2.472,0.05,0.98,0.12,-4.57,1.06,1.02,-0.32,-0.38,-0.71,1019.87
2.505,0.05,0.98,0.12,-4.57,1.06,1.02,-0.32,-0.38,-0.71,1019.46
2.506,0.02,0.98,-0.07,-4.57,1.06,1.02,-0.32,-0.38,-0.71,1019.46
2.517,0.03,0.99,-0.00,-4.57,1.06,1.02,-0.32,-0.38,-0.71,1019.46
2.521,0.03,0.99,-0.00,-4.57,1.06,1.02,0.00,-0.18,-0.38,1019.46
2.541,0.03,0.99,-0.00,-0.67,-0.07,0.45,0.00,-0.18,-0.38,1019.46
2.542,0.11,1.02,-0.06,-0.67,-0.07,0.45,0.00,-0.18,-0.38,1019.46
2.584,0.10,1.01,-0.01,-0.67,-0.07,0.45,0.00,-0.18,-0.38,1019.46
2.586,0.08,0.98,0.06,-0.67,-0.07,0.45,0.00,-0.18,-0.38,1019.46
2.586,0.08,0.98,0.06,-0.67,-0.07,0.45,0.00,-0.18,-0.38,1019.17
2.591,0.08,0.98,0.06,-0.67,-0.07,0.45,0.04,-0.04,-0.35,1019.17
2.611,0.08,0.98,0.06,-0.16,0.21,-0.26,0.04,-0.04,-0.35,1019.17
2.612,0.05,0.98,0.01,-0.16,0.21,-0.26,0.04,-0.04,-0.35,1019.17
2.613,0.04,0.98,-0.00,-0.16,0.21,-0.26,0.04,-0.04,-0.35,1019.17
2.651,0.04,0.99,-0.05,-0.16,0.21,-0.26,0.04,-0.04,-0.35,1019.17
2.661,0.03,0.99,-0.05,-0.16,0.21,-0.26,0.04,-0.04,-0.35,1019.17
2.662,0.03,0.99,-0.05,-0.16,0.21,-0.26,0.16,-0.02,-0.36,1019.17
2.664,0.03,0.99,-0.05,-0.16,0.21,-0.26,0.16,-0.02,-0.36,1018.97
2.681,0.03,0.99,-0.05,0.10,0.03,0.42,0.16,-0.02,-0.36,1018.97
2.683,0.04,0.99,-0.02,0.10,0.03,0.42,0.16,-0.02,-0.36,1018.97
2.698,0.02,0.98,-0.02,0.10,0.03,0.42,0.16,-0.02,-0.36,1018.97
2.704,0.02,0.98,-0.02,0.10,0.03,0.42,0.16,-0.02,-0.36,1018.83
2.717,0.00,0.98,-0.04,0.10,0.03,0.42,0.16,-0.02,-0.36,1018.83
2.731,0.00,0.98,-0.04,0.10,0.03,0.42,0.19,-0.02,-0.39,1018.83
2.757,0.02,0.99,-0.03,0.10,0.03,0.42,0.19,-0.02,-0.39,1018.83
2.759,-0.02,0.99,-0.06,0.10,0.03,0.42,0.19,-0.02,-0.39,1018.83
2.759,-0.02,0.99,-0.06,0.07,0.09,-0.01,0.19,-0.02,-0.39,1018.83
2.784,0.01,0.99,-0.04,0.07,0.09,-0.01,0.19,-0.02,-0.39,1018.83
2.786,0.01,0.99,-0.04,0.07,0.09,-0.01,0.19,-0.02,-0.39,1018.79
2.802,0.00,1.00,-0.06,0.07,0.09,-0.01,0.19,-0.02,-0.39,1018.79
2.803,0.00,1.00,-0.06,0.07,0.09,-0.01,0.21,-0.00,-0.44,1018.79
2.822,0.00,1.00,-0.06,0.03,0.04,0.07,0.21,-0.00,-0.44,1018.79
2.823,0.00,1.02,-0.06,0.03,0.04,0.07,0.21,-0.00,-0.44,1018.79
2.857,0.06,1.05,-0.04,0.03,0.04,0.07,0.21,-0.00,-0.44,1018.79
2.864,0.07,1.08,-0.07,0.03,0.04,0.07,0.21,-0.00,-0.44,1018.79
2.865,0.07,1.08,-0.07,0.03,0.04,0.07,0.21,-0.00,-0.44,1018.85
2.871,0.07,1.08,-0.07,0.03,0.04,0.07,0.23,0.05,-0.75,1018.85
2.891,0.07,1.08,-0.07,0.45,0.27,0.14,0.23,0.05,-0.75,1018.85
2.893,0.06,1.11,-0.13,0.45,0.27,0.14,0.23,0.05,-0.75,1018.85
2.893,0.11,1.18,-0.21,0.45,0.27,0.14,0.23,0.05,-0.75,1018.85
2.904,0.11,1.18,-0.21,0.45,0.27,0.14,0.23,0.05,-0.75,1018.92
2.918,0.12,1.24,-0.22,0.45,0.27,0.14,0.23,0.05,-0.75,1018.92
2.941,0.12,1.24,-0.22,0.45,0.27,0.14,-0.01,-0.05,-1.62,1018.92
2.942,0.16,1.29,-0.20,0.45,0.27,0.14,-0.01,-0.05,-1.62,1018.92
2.962,0.19,1.36,-0.26,0.45,0.27,0.14,-0.01,-0.05,-1.62,1018.92
2.963,0.19,1.36,-0.26,1.78,1.32,-0.47,-0.01,-0.05,-1.62,1018.92
2.985,0.27,1.46,-0.26,1.78,1.32,-0.47,-0.01,-0.05,-1.62,1018.92
2.988,0.27,1.46,-0.26,1.78,1.32,-0.47,-0.01,-0.05,-1.62,1018.99
3.012,0.27,1.46,-0.26,1.78,1.32,-0.47,-0.47,0.13,-3.18,1018.99
3.014,0.39,1.55,-0.17,1.78,1.32,-0.47,-0.47,0.13,-3.18,1018.99
3.033,0.53,1.55,0.14,1.78,1.32,-0.47,-0.47,0.13,-3.18,1018.99
3.034,0.50,1.54,0.23,1.78,1.32,-0.47,-0.47,0.13,-3.18,1018.99
3.035,0.50,1.54,0.23,4.01,3.53,-1.58,-0.47,0.13,-3.18,1018.99
3.065,0.18,1.51,0.16,4.01,3.53,-1.58,-0.47,0.13,-3.18,1018.99
3.066,0.18,1.51,0.16,4.01,3.53,-1.58,-0.47,0.13,-3.18,1018.82
3.082,0.18,1.51,0.16,4.01,3.53,-1.58,-0.34,0.84,-5.21,1018.82
3.083,-0.20,1.42,0.27,4.01,3.53,-1.58,-0.34,0.84,-5.21,1018.82
3.102,-0.20,1.42,0.27,9.20,6.66,0.59,-0.34,0.84,-5.21,1018.82
3.103,-0.09,1.28,0.32,9.20,6.66,0.59,-0.34,0.84,-5.21,1018.82
3.104,-0.09,1.28,0.32,9.20,6.66,0.59,-0.34,0.84,-5.21,1018.40
3.117,-0.62,0.26,-0.30,9.20,6.66,0.59,-0.34,0.84,-5.21,1018.40
3.152,-0.62,0.26,-0.30,9.20,6.66,0.59,-0.00,0.13,-1.68,1018.40
3.154,-0.89,0.68,0.20,9.20,6.66,0.59,-0.00,0.13,-1.68,1018.40
3.171,-0.89,0.68,0.20,6.59,5.97,2.68,-0.00,0.13,-1.68,1018.40
3.173,0.56,0.55,0.03,6.59,5.97,2.68,-0.00,0.13,-1.68,1018.40
3.173,0.56,0.54,-0.25,6.59,5.97,2.68,-0.00,0.13,-1.68,1018.40
3.187,0.56,0.54,-0.25,6.59,5.97,2.68,-0.00,0.13,-1.68,1018.47
3.222,0.32,0.31,0.10,6.59,5.97,2.68,-0.00,0.13,-1.68,1018.47
3.223,0.12,0.24,0.08,6.59,5.97,2.68,-0.00,0.13,-1.68,1018.47
3.224,0.12,0.24,0.08,6.59,5.97,2.68,-0.49,-0.06,1.82,1018.47
3.242,0.12,0.24,0.08,6.04,-1.71,-0.44,-0.49,-0.06,1.82,1018.47
3.243,0.11,0.34,-0.06,6.04,-1.71,-0.44,-0.49,-0.06,1.82,1018.47
3.264,0.20,0.45,-0.08,6.04,-1.71,-0.44,-0.49,-0.06,1.82,1018.47
3.266,0.20,0.45,-0.08,6.04,-1.71,-0.44,-0.49,-0.06,1.82,1018.67
3.291,0.20,0.45,-0.08,6.04,-1.71,-0.44,-0.01,0.14,4.18,1018.67
3.293,0.20,0.58,-0.10,6.04,-1.71,-0.44,-0.01,0.14,4.18,1018.67
3.304,0.17,0.73,-0.17,6.04,-1.71,-0.44,-0.01,0.14,4.18,1018.67
3.305,0.17,0.73,-0.17,6.04,-1.71,-0.44,-0.01,0.14,4.18,1018.79
3.311,0.11,0.86,-0.21,6.04,-1.71,-0.44,-0.01,0.14,4.18,1018.79
3.312,0.11,0.86,-0.21,6.95,-4.83,0.51,-0.01,0.14,4.18,1018.79
3.362,0.11,0.86,-0.21,6.95,-4.83,0.51,0.34,0.04,5.18,1018.79
3.364,0.10,1.00,-0.25,6.95,-4.83,0.51,0.34,0.04,5.18,1018.79
3.364,0.09,1.23,-0.32,6.95,-4.83,0.51,0.34,0.04,5.18,1018.79
3.382,0.09,1.23,-0.32,3.89,-2.38,-1.00,0.34,0.04,5.18,1018.79
3.383,0.11,1.48,-0.34,3.89,-2.38,-1.00,0.34,0.04,5.18,1018.79
3.384,0.11,1.48,-0.34,3.89,-2.38,-1.00,0.34,0.04,5.18,1018.86
3.432,0.11,1.48,-0.34,3.89,-2.38,-1.00,0.46,-0.06,5.16,1018.86
3.433,0.12,1.73,-0.28,3.89,-2.38,-1.00,0.46,-0.06,5.16,1018.86
3.434,0.11,1.99,-0.27,3.89,-2.38,-1.00,0.46,-0.06,5.16,1018.86
3.442,-0.36,2.09,-0.21,3.89,-2.38,-1.00,0.46,-0.06,5.16,1018.86
3.451,-0.61,1.88,-0.10,3.89,-2.38,-1.00,0.46,-0.06,5.16,1018.86
3.452,-0.61,1.88,-0.10,-0.21,3.39,-2.15,0.46,-0.06,5.16,1018.86
3.464,-0.61,1.88,-0.10,-0.21,3.39,-2.15,0.46,-0.06,5.16,1018.88
3.502,-0.61,1.88,-0.10,-0.21,3.39,-2.15,0.32,0.51,3.72,1018.88
3.504,-0.75,1.83,-0.09,-0.21,3.39,-2.15,0.32,0.51,3.72,1018.88
3.505,-2.03,1.73,-0.35,-0.21,3.39,-2.15,0.32,0.51,3.72,1018.88
3.506,-2.03,1.73,-0.35,-0.21,3.39,-2.15,0.32,0.51,3.72,1019.24
3.517,-2.55,1.32,-0.13,-0.21,3.39,-2.15,0.32,0.51,3.72,1019.24
3.521,-2.55,1.32,-0.13,-6.49,10.68,-0.97,0.32,0.51,3.72,1019.24
3.572,-2.55,1.32,-0.13,-6.49,10.68,-0.97,-0.61,-1.01,-2.08,1019.24
3.573,-1.55,1.32,-0.42,-6.49,10.68,-0.97,-0.61,-1.01,-2.08,1019.24
3.574,0.00,1.50,-0.36,-6.49,10.68,-0.97,-0.61,-1.01,-2.08,1019.24
3.584,0.65,0.80,-0.70,-6.49,10.68,-0.97,-0.61,-1.01,-2.08,1019.24
3.585,0.65,0.80,-0.70,-6.49,10.68,-0.97,-0.61,-1.01,-2.08,1019.24
3.591,0.60,0.91,-0.21,-6.49,10.68,-0.97,-0.61,-1.01,-2.08,1019.24
3.593,0.60,0.91,-0.21,-21.71,7.36,-1.14,-0.61,-1.01,-2.08,1019.24
3.642,0.60,0.91,-0.21,-21.71,7.36,-1.14,-1.06,-0.43,-2.82,1019.24
3.643,-0.91,1.25,0.10,-21.71,7.36,-1.14,-1.06,-0.43,-2.82,1019.24
3.644,-0.51,1.11,0.36,-21.71,7.36,-1.14,-1.06,-0.43,-2.82,1019.24
3.662,-0.17,1.02,-0.17,-21.71,7.36,-1.14,-1.06,-0.43,-2.82,1019.24
3.664,-0.17,1.02,-0.17,-1.15,1.65,-3.42,-1.06,-0.43,-2.82,1019.24
3.664,-0.17,1.02,-0.17,-1.15,1.65,-3.42,-1.06,-0.43,-2.82,1019.34
3.698,-0.11,0.97,0.01,-1.15,1.65,-3.42,-1.06,-0.43,-2.82,1019.34
3.7,-0.10,0.99,0.11,-1.15,1.65,-3.42,-1.06,-0.43,-2.82,1019.34
3.704,-0.10,0.99,0.11,-1.15,1.65,-3.42,-1.06,-0.43,-2.82,1019.70
3.711,-0.10,0.99,0.11,-1.15,1.65,-3.42,-0.49,-0.30,-0.84,1019.70
3.717,-0.02,1.00,0.07,-1.15,1.65,-3.42,-0.49,-0.30,-0.84,1019.70
3.732,0.01,0.99,-0.01,-1.15,1.65,-3.42,-0.49,-0.30,-0.84,1019.70
3.733,0.01,0.99,-0.01,-5.87,1.39,0.90,-0.49,-0.30,-0.84,1019.70
3.782,0.07,0.99,0.08,-5.87,1.39,0.90,-0.49,-0.30,-0.84,1019.70
3.783,0.08,1.01,0.03,-5.87,1.39,0.90,-0.49,-0.30,-0.84,1019.70
3.784,0.08,1.01,0.03,-5.87,1.39,0.90,-0.17,-0.04,-0.36,1019.70
3.784,0.08,1.01,0.03,-5.87,1.39,0.90,-0.17,-0.04,-0.36,1019.36
3.802,0.08,1.01,0.03,-1.36,0.18,0.67,-0.17,-0.04,-0.36,1019.36
3.803,0.11,1.00,0.05,-1.36,0.18,0.67,-0.17,-0.04,-0.36,1019.36
3.851,0.11,1.00,0.05,-1.36,0.18,0.67,0.06,-0.02,-0.36,1019.36
3.853,0.04,0.98,0.05,-1.36,0.18,0.67,0.06,-0.02,-0.36,1019.36
3.853,0.04,0.98,0.02,-1.36,0.18,0.67,0.06,-0.02,-0.36,1019.36
3.864,0.03,0.98,0.01,-1.36,0.18,0.67,0.06,-0.02,-0.36,1019.36
3.865,0.03,0.98,0.01,-1.36,0.18,0.67,0.06,-0.02,-0.36,1018.99
3.871,0.03,0.98,0.01,-1.36,0.18,0.67,0.06,-0.02,-0.36,1018.99
3.872,0.03,0.98,0.01,0.14,0.28,0.47,0.06,-0.02,-0.36,1018.99
3.905,0.04,0.99,0.00,0.14,0.28,0.47,0.06,-0.02,-0.36,1018.99
3.906,0.04,0.99,0.00,0.14,0.28,0.47,0.06,-0.02,-0.36,1018.83
3.917,-0.00,0.98,-0.01,0.14,0.28,0.47,0.06,-0.02,-0.36,1018.83
3.923,-0.00,0.98,-0.01,0.14,0.28,0.47,0.14,0.02,-0.33,1018.83
3.941,0.01,0.98,-0.01,0.14,0.28,0.47,0.14,0.02,-0.33,1018.83
3.942,0.01,0.98,-0.01,-0.10,0.10,0.20,0.14,0.02,-0.33,1018.83
3.984,0.00,0.97,-0.01,-0.10,0.10,0.20,0.14,0.02,-0.33,1018.83
3.986,0.01,0.99,-0.02,-0.10,0.10,0.20,0.14,0.02,-0.33,1018.83
3.987,0.01,0.99,-0.02,-0.10,0.10,0.20,0.14,0.02,-0.33,1018.78
3.992,0.01,0.99,-0.02,-0.10,0.10,0.20,0.14,0.04,-0.31,1018.78
4.012,0.01,0.99,-0.02,-0.07,0.07,0.06,0.14,0.04,-0.31,1018.78
4.013,0.01,0.99,-0.03,-0.07,0.07,0.06,0.14,0.04,-0.31,1018.78
4.014,-0.00,0.98,-0.02,-0.07,0.07,0.06,0.14,0.04,-0.31,1018.78
4.05,0.02,1.00,-0.01,-0.07,0.07,0.06,0.14,0.04,-0.31,1018.78
4.062,0.02,1.00,-0.01,-0.07,0.07,0.06,0.14,0.03,-0.39,1018.78
4.063,0.04,1.03,-0.02,-0.07,0.07,0.06,0.14,0.03,-0.39,1018.78
4.065,0.04,1.03,-0.02,-0.07,0.07,0.06,0.14,0.03,-0.39,1018.84
4.082,0.08,1.07,-0.01,-0.07,0.07,0.06,0.14,0.03,-0.39,1018.84
4.084,0.08,1.07,-0.01,0.04,0.10,0.01,0.14,0.03,-0.39,1018.84
4.105,0.08,1.07,-0.01,0.04,0.10,0.01,0.14,0.03,-0.39,1018.96
4.106,0.09,1.10,-0.06,0.04,0.10,0.01,0.14,0.03,-0.39,1018.96
4.117,0.13,1.13,-0.07,0.04,0.10,0.01,0.14,0.03,-0.39,1018.96
4.132,0.13,1.13,-0.07,0.04,0.10,0.01,0.11,0.12,-0.89,1018.96
4.153,0.13,1.13,-0.07,0.83,0.64,0.11,0.11,0.12,-0.89,1018.96
4.154,0.13,1.17,-0.13,0.83,0.64,0.11,0.11,0.12,-0.89,1018.96
4.154,0.16,1.24,-0.18,0.83,0.64,0.11,0.11,0.12,-0.89,1018.96
4.184,0.18,1.27,-0.14,0.83,0.64,0.11,0.11,0.12,-0.89,1018.96
4.186,0.18,1.27,-0.14,0.83,0.64,0.11,0.11,0.12,-0.89,1019.04
4.202,0.18,1.27,-0.14,0.83,0.64,0.11,-0.21,0.00,-1.99,1019.04
4.204,0.21,1.35,-0.21,0.83,0.64,0.11,-0.21,0.00,-1.99,1019.04
4.223,0.28,1.42,-0.19,0.83,0.64,0.11,-0.21,0.00,-1.99,1019.04
4.225,0.28,1.42,-0.19,2.43,1.94,-0.82,-0.21,0.00,-1.99,1019.04
4.25,0.39,1.54,-0.23,2.43,1.94,-0.82,-0.21,0.00,-1.99,1019.04
4.264,0.60,1.63,-0.03,2.43,1.94,-0.82,-0.21,0.00,-1.99,1019.04
4.266,0.60,1.63,-0.03,2.43,1.94,-0.82,-0.21,0.00,-1.99,1019.02
4.274,0.60,1.63,-0.03,2.43,1.94,-0.82,-0.65,0.24,-3.93,1019.02
4.292,0.60,1.63,-0.03,5.16,4.22,-1.68,-0.65,0.24,-3.93,1019.02
4.293,0.69,1.66,0.25,5.16,4.22,-1.68,-0.65,0.24,-3.93,1019.02
4.294,0.55,1.60,0.16,5.16,4.22,-1.68,-0.65,0.24,-3.93,1019.02
4.305,0.55,1.60,0.16,5.16,4.22,-1.68,-0.65,0.24,-3.93,1018.73
4.317,-0.14,1.58,0.17,5.16,4.22,-1.68,-0.65,0.24,-3.93,1018.73
4.345,-0.14,1.58,0.17,5.16,4.22,-1.68,-0.52,0.82,-6.05,1018.73
4.348,-0.13,1.34,0.24,5.16,4.22,-1.68,-0.52,0.82,-6.05,1018.73
4.362,-0.32,0.65,0.08,5.16,4.22,-1.68,-0.52,0.82,-6.05,1018.73
4.363,-0.32,0.65,0.08,11.44,8.13,0.49,-0.52,0.82,-6.05,1018.73
4.384,-1.66,0.28,-0.07,11.44,8.13,0.49,-0.52,0.82,-6.05,1018.73
4.386,-1.66,0.28,-0.07,11.44,8.13,0.49,-0.52,0.82,-6.05,1018.39
4.412,0.25,0.40,0.50,11.44,8.13,0.49,-0.52,0.82,-6.05,1018.39
4.414,0.25,0.40,0.50,11.44,8.13,0.49,-0.01,0.71,-0.67,1018.39
4.432,0.25,0.40,0.50,4.54,4.22,1.23,-0.01,0.71,-0.67,1018.39
4.433,0.65,0.58,-0.25,4.54,4.22,1.23,-0.01,0.71,-0.67,1018.39
4.434,0.29,0.36,-0.52,4.54,4.22,1.23,-0.01,0.71,-0.67,1018.39
4.465,-0.09,0.13,0.12,4.54,4.22,1.23,-0.01,0.71,-0.67,1018.39
4.466,-0.09,0.13,0.12,4.54,4.22,1.23,-0.01,0.71,-0.67,1018.64
4.482,-0.09,0.13,0.12,4.54,4.22,1.23,-0.28,0.00,2.45,1018.64
4.484,-0.15,0.12,0.08,4.54,4.22,1.23,-0.28,0.00,2.45,1018.64
4.502,0.15,0.33,-0.12,4.54,4.22,1.23,-0.28,0.00,2.45,1018.64
4.503,0.15,0.33,-0.12,7.50,-1.49,-0.57,-0.28,0.00,2.45,1018.64
4.504,0.15,0.33,-0.12,7.50,-1.49,-0.57,-0.28,0.00,2.45,1018.77
4.517,0.23,0.47,-0.11,7.50,-1.49,-0.57,-0.28,0.00,2.45,1018.77
4.552,0.23,0.47,-0.11,7.50,-1.49,-0.57,0.41,-0.25,4.82,1018.77
4.553,0.14,0.57,-0.05,7.50,-1.49,-0.57,0.41,-0.25,4.82,1018.77
4.573,0.14,0.57,-0.05,5.39,-5.48,0.21,0.41,-0.25,4.82,1018.77
4.574,0.06,0.71,-0.10,5.39,-5.48,0.21,0.41,-0.25,4.82,1018.77
4.575,0.13,0.91,-0.14,5.39,-5.48,0.21,0.41,-0.25,4.82,1018.77
4.584,0.13,0.91,-0.14,5.39,-5.48,0.21,0.41,-0.25,4.82,1018.83
4.622,0.13,0.91,-0.14,5.39,-5.48,0.21,0.68,0.05,5.58,1018.83
4.624,0.12,1.12,-0.19,5.39,-5.48,0.21,0.68,0.05,5.58,1018.83
4.625,0.09,1.37,-0.25,5.39,-5.48,0.21,0.68,0.05,5.58,1018.83
4.642,0.14,1.65,-0.25,5.39,-5.48,0.21,0.68,0.05,5.58,1018.83
4.643,0.14,1.65,-0.25,3.25,-2.27,-0.40,0.68,0.05,5.58,1018.83
4.665,0.05,1.89,-0.10,3.25,-2.27,-0.40,0.68,0.05,5.58,1018.83
4.666,0.05,1.89,-0.10,3.25,-2.27,-0.40,0.68,0.05,5.58,1018.86
4.692,0.05,1.89,-0.10,3.25,-2.27,-0.40,0.39,0.95,5.54,1018.86
4.694,-0.14,2.05,0.05,3.25,-2.27,-0.40,0.39,0.95,5.54,1018.86
4.698,-0.43,2.19,-0.15,3.25,-2.27,-0.40,0.39,0.95,5.54,1018.86
4.704,-0.43,2.19,-0.15,3.25,-2.27,-0.40,0.39,0.95,5.54,1018.91
4.713,-0.96,2.05,-0.38,3.25,-2.27,-0.40,0.39,0.95,5.54,1018.91
4.714,-0.96,2.05,-0.38,-0.40,4.94,-1.19,0.39,0.95,5.54,1018.91
4.744,-2.13,1.73,-0.32,-0.40,4.94,-1.19,0.39,0.95,5.54,1018.91
4.763,-2.13,1.73,-0.32,-0.40,4.94,-1.19,-0.08,0.50,2.70,1018.91
4.764,-2.94,1.35,0.15,-0.40,4.94,-1.19,-0.08,0.50,2.70,1018.91
4.782,-1.54,1.64,-0.46,-0.40,4.94,-1.19,-0.08,0.50,2.70,1018.91
4.783,-1.54,1.64,-0.46,-8.89,12.04,-0.70,-0.08,0.50,2.70,1018.91
4.784,-1.54,1.64,-0.46,-8.89,12.04,-0.70,-0.08,0.50,2.70,1019.15
4.832,-1.54,1.64,-0.46,-8.89,12.04,-0.70,-1.02,-1.68,-3.05,1019.15
4.834,-0.04,2.06,-0.28,-8.89,12.04,-0.70,-1.02,-1.68,-3.05,1019.15
4.834,1.34,0.68,-0.74,-8.89,12.04,-0.70,-1.02,-1.68,-3.05,1019.15
4.85,0.90,0.83,-0.40,-8.89,12.04,-0.70,-1.02,-1.68,-3.05,1019.15
4.851,-0.76,1.32,-0.15,-8.89,12.04,-0.70,-1.02,-1.68,-3.05,1019.15
4.852,-0.76,1.32,-0.15,-24.77,6.49,-1.15,-1.02,-1.68,-3.05,1019.15
4.866,-0.76,1.32,-0.15,-24.77,6.49,-1.15,-1.02,-1.68,-3.05,1019.28
4.903,-0.76,1.32,-0.15,-24.77,6.49,-1.15,-0.68,-0.72,-2.38,1019.28
4.904,-0.68,1.07,0.45,-24.77,6.49,-1.15,-0.68,-0.72,-2.38,1019.28
4.905,-0.39,1.12,-0.20,-24.77,6.49,-1.15,-0.68,-0.72,-2.38,1019.28
4.907,-0.39,1.12,-0.20,-24.77,6.49,-1.15,-0.68,-0.72,-2.38,1019.75
4.917,-0.14,1.02,-0.05,-24.77,6.49,-1.15,-0.68,-0.72,-2.38,1019.75
4.923,-0.14,1.02,-0.05,4.41,2.72,-3.86,-0.68,-0.72,-2.38,1019.75
4.942,-0.10,0.98,0.06,4.41,2.72,-3.86,-0.68,-0.72,-2.38,1019.75
4.973,-0.10,0.98,0.06,4.41,2.72,-3.86,-0.34,-0.22,-0.66,1019.75
4.973,-0.01,0.99,0.10,4.41,2.72,-3.86,-0.34,-0.22,-0.66,1019.75
4.985,0.03,0.99,0.08,4.41,2.72,-3.86,-0.34,-0.22,-0.66,1019.75
4.986,0.03,0.99,0.08,4.41,2.72,-3.86,-0.34,-0.22,-0.66,1019.61
4.992,0.02,0.99,0.10,4.41,2.72,-3.86,-0.34,-0.22,-0.66,1019.61
4.993,0.02,0.99,0.10,-4.37,0.96,0.73,-0.34,-0.22,-0.66,1019.61
5.048,0.02,0.99,0.10,-4.37,0.96,0.73,0.06,-0.02,-0.34,1019.61
5.049,0.00,1.00,0.02,-4.37,0.96,0.73,0.06,-0.02,-0.34,1019.61
5.05,0.05,1.00,-0.01,-4.37,0.96,0.73,0.06,-0.02,-0.34,1019.61
5.062,0.06,0.99,-0.01,-4.37,0.96,0.73,0.06,-0.02,-0.34,1019.61
5.063,0.06,0.99,-0.01,-0.71,0.22,0.96,0.06,-0.02,-0.34,1019.61
5.064,0.06,0.99,-0.01,-0.71,0.22,0.96,0.06,-0.02,-0.34,1019.14
5.105,0.04,0.97,0.01,-0.71,0.22,0.96,0.06,-0.02,-0.34,1019.14
5.106,0.04,0.97,0.01,-0.71,0.22,0.96,0.06,-0.02,-0.34,1019.14
5.107,0.04,0.97,0.01,-0.71,0.22,0.96,0.06,-0.02,-0.34,1018.88
5.112,0.04,0.97,0.01,-0.71,0.22,0.96,0.14,0.03,-0.30,1018.88
5.117,0.02,0.96,0.02,-0.71,0.22,0.96,0.14,0.03,-0.30,1018.88
5.132,0.01,0.97,-0.01,-0.71,0.22,0.96,0.14,0.03,-0.30,1018.88
5.133,0.01,0.97,-0.01,-0.04,0.28,0.09,0.14,0.03,-0.30,1018.88
5.182,0.01,0.97,-0.01,-0.04,0.28,0.09,0.19,0.05,-0.26,1018.88
5.183,-0.01,0.97,-0.04,-0.04,0.28,0.09,0.19,0.05,-0.26,1018.88
5.184,-0.01,0.97,-0.05,-0.04,0.28,0.09,0.19,0.05,-0.26,1018.88
5.184,-0.01,0.97,-0.05,-0.04,0.28,0.09,0.19,0.05,-0.26,1018.86
5.203,0.01,0.98,-0.05,-0.04,0.28,0.09,0.19,0.05,-0.26,1018.86
5.204,0.01,0.98,-0.05,0.06,0.01,0.30,0.19,0.05,-0.26,1018.86
5.25,0.01,0.98,-0.05,0.06,0.01,0.30,0.19,0.05,-0.26,1018.86
5.251,0.02,0.99,-0.02,0.06,0.01,0.30,0.19,0.05,-0.26,1018.86
5.252,0.02,0.99,-0.02,0.06,0.01,0.30,0.15,0.00,-0.27,1018.86
5.265,0.02,1.00,-0.06,0.06,0.01,0.30,0.15,0.00,-0.27,1018.86
5.266,0.02,1.00,-0.06,0.06,0.01,0.30,0.15,0.00,-0.27,1018.93
5.272,0.02,1.02,-0.06,0.06,0.01,0.30,0.15,0.00,-0.27,1018.93
5.272,0.02,1.02,-0.06,-0.09,0.08,-0.15,0.15,0.00,-0.27,1018.93
5.304,0.06,1.04,-0.01,-0.09,0.08,-0.15,0.15,0.00,-0.27,1018.93
5.305,0.06,1.04,-0.01,-0.09,0.08,-0.15,0.15,0.00,-0.27,1018.90
5.318,0.12,1.07,-0.02,-0.09,0.08,-0.15,0.15,0.00,-0.27,1018.90
5.323,0.12,1.07,-0.02,-0.09,0.08,-0.15,0.21,0.02,-0.50,1018.90
5.348,0.11,1.11,-0.09,-0.09,0.08,-0.15,0.21,0.02,-0.50,1018.90
5.349,0.11,1.11,-0.09,0.36,0.31,-0.00,0.21,0.02,-0.50,1018.90
5.384,0.12,1.17,-0.17,0.36,0.31,-0.00,0.21,0.02,-0.50,1018.90
5.385,0.17,1.22,-0.13,0.36,0.31,-0.00,0.21,0.02,-0.50,1018.90
5.386,0.17,1.22,-0.13,0.36,0.31,-0.00,0.21,0.02,-0.50,1018.86
5.393,0.17,1.22,-0.13,0.36,0.31,-0.00,0.11,0.04,-1.29,1018.86
5.412,0.17,1.22,-0.13,1.64,1.19,-0.02,0.11,0.04,-1.29,1018.86
5.413,0.23,1.30,-0.14,1.64,1.19,-0.02,0.11,0.04,-1.29,1018.86
5.414,0.23,1.37,-0.28,1.64,1.19,-0.02,0.11,0.04,-1.29,1018.86
5.449,0.25,1.42,-0.30,1.64,1.19,-0.02,0.11,0.04,-1.29,1018.86
5.463,0.25,1.42,-0.30,1.64,1.19,-0.02,-0.34,-0.10,-2.79,1018.86
5.464,0.36,1.49,-0.30,1.64,1.19,-0.02,-0.34,-0.10,-2.79,1018.86
5.464,0.36,1.49,-0.30,1.64,1.19,-0.02,-0.34,-0.10,-2.79,1018.95
5.483,0.50,1.51,-0.01,1.64,1.19,-0.02,-0.34,-0.10,-2.79,1018.95
5.484,0.50,1.51,-0.01,3.71,3.17,-1.21,-0.34,-0.10,-2.79,1018.95
5.506,0.69,1.51,0.22,3.71,3.17,-1.21,-0.34,-0.10,-2.79,1018.95
5.506,0.69,1.51,0.22,3.71,3.17,-1.21,-0.34,-0.10,-2.79,1018.86
5.518,0.53,1.51,0.13,3.71,3.17,-1.21,-0.34,-0.10,-2.79,1018.86
5.532,0.53,1.51,0.13,3.71,3.17,-1.21,-0.64,0.74,-5.15,1018.86
5.542,0.15,1.48,0.02,3.71,3.17,-1.21,-0.64,0.74,-5.15,1018.86
5.553,0.15,1.48,0.02,7.99,5.77,-1.05,-0.64,0.74,-5.15,1018.86
5.554,-0.25,1.34,0.21,7.99,5.77,-1.05,-0.64,0.74,-5.15,1018.86
5.584,-0.13,1.29,0.21,7.99,5.77,-1.05,-0.64,0.74,-5.15,1018.86
5.585,-0.13,1.29,0.21,7.99,5.77,-1.05,-0.64,0.74,-5.15,1018.49
5.603,-0.13,1.29,0.21,7.99,5.77,-1.05,-0.17,0.52,-4.95,1018.49
5.604,-0.56,0.04,-0.21,7.99,5.77,-1.05,-0.17,0.52,-4.95,1018.49
5.623,-1.98,0.43,-0.12,7.99,5.77,-1.05,-0.17,0.52,-4.95,1018.49
5.623,-1.98,0.43,-0.12,9.19,7.72,1.63,-0.17,0.52,-4.95,1018.49
5.651,0.54,0.34,0.28,9.19,7.72,1.63,-0.17,0.52,-4.95,1018.49
5.664,0.83,0.56,-0.15,9.19,7.72,1.63,-0.17,0.52,-4.95,1018.49
5.665,0.83,0.56,-0.15,9.19,7.72,1.63,-0.17,0.52,-4.95,1018.34
5.672,0.83,0.56,-0.15,9.19,7.72,1.63,-0.53,-0.27,1.72,1018.34
5.693,0.83,0.56,-0.15,0.60,-0.37,1.00,-0.53,-0.27,1.72,1018.34
5.694,0.40,0.37,-0.11,0.60,-0.37,1.00,-0.53,-0.27,1.72,1018.34
5.694,-0.10,0.14,0.20,0.60,-0.37,1.00,-0.53,-0.27,1.72,1018.34
5.705,-0.10,0.14,0.20,0.60,-0.37,1.00,-0.53,-0.27,1.72,1018.57
5.718,-0.08,0.19,0.11,0.60,-0.37,1.00,-0.53,-0.27,1.72,1018.57
5.741,0.28,0.46,-0.09,0.60,-0.37,1.00,-0.53,-0.27,1.72,1018.57
5.742,0.28,0.46,-0.09,0.60,-0.37,1.00,0.01,-0.16,3.88,1018.57
5.763,0.32,0.60,-0.13,0.60,-0.37,1.00,0.01,-0.16,3.88,1018.57
5.764,0.32,0.60,-0.13,10.74,-3.24,-0.50,0.01,-0.16,3.88,1018.57
5.785,0.09,0.70,-0.13,10.74,-3.24,-0.50,0.01,-0.16,3.88,1018.57
5.786,0.09,0.70,-0.13,10.74,-3.24,-0.50,0.01,-0.16,3.88,1018.83
5.814,0.03,0.81,-0.12,10.74,-3.24,-0.50,0.01,-0.16,3.88,1018.83
5.815,0.03,0.81,-0.12,10.74,-3.24,-0.50,0.57,0.20,5.43,1018.83
5.833,0.18,1.05,-0.26,10.74,-3.24,-0.50,0.57,0.20,5.43,1018.83
5.834,0.18,1.33,-0.33,10.74,-3.24,-0.50,0.57,0.20,5.43,1018.83
5.834,0.18,1.33,-0.33,5.49,-4.03,-0.42,0.57,0.20,5.43,1018.83
5.867,0.19,1.61,-0.30,5.49,-4.03,-0.42,0.57,0.20,5.43,1018.83
5.868,0.19,1.61,-0.30,5.49,-4.03,-0.42,0.57,0.20,5.43,1018.93
5.883,0.19,1.61,-0.30,5.49,-4.03,-0.42,0.58,0.19,5.77,1018.93
5.884,0.12,1.91,-0.29,5.49,-4.03,-0.42,0.58,0.19,5.77,1018.93
5.903,-0.16,2.14,-0.19,5.49,-4.03,-0.42,0.58,0.19,5.77,1018.93
5.903,-0.16,2.14,-0.19,1.23,0.65,-1.55,0.58,0.19,5.77,1018.93
5.904,-0.16,2.14,-0.19,1.23,0.65,-1.55,0.58,0.19,5.77,1018.95
5.918,0.01,2.87,-0.28,1.23,0.65,-1.55,0.58,0.19,5.77,1018.95
5.941,-1.80,1.21,-0.07,1.23,0.65,-1.55,0.58,0.19,5.77,1018.95
5.952,-1.80,1.21,-0.07,1.23,0.65,-1.55,0.21,0.73,4.81,1018.95
5.973,-1.80,1.21,-0.07,-3.47,10.26,-1.56,0.21,0.73,4.81,1018.95
5.974,-1.78,1.92,0.00,-3.47,10.26,-1.56,0.21,0.73,4.81,1018.95
5.975,-2.66,1.55,-0.00,-3.47,10.26,-1.56,0.21,0.73,4.81,1018.95
5.985,-2.66,1.55,-0.00,-3.47,10.26,-1.56,0.21,0.73,4.81,1019.17
6.023,-2.66,1.55,-0.00,-3.47,10.26,-1.56,-0.53,-1.30,-1.75,1019.17
6.024,-0.86,2.22,-0.61,-3.47,10.26,-1.56,-0.53,-1.30,-1.75,1019.17
6.025,-0.90,1.06,-0.43,-3.47,10.26,-1.56,-0.53,-1.30,-1.75,1019.17
6.05,1.08,0.99,-0.49,-3.47,10.26,-1.56,-0.53,-1.30,-1.75,1019.17
6.051,1.08,0.99,-0.49,-21.62,9.85,-0.08,-0.53,-1.30,-1.75,1019.17
6.067,0.29,1.13,-0.28,-21.62,9.85,-0.08,-0.53,-1.30,-1.75,1019.17
6.068,0.29,1.13,-0.28,-21.62,9.85,-0.08,-0.53,-1.30,-1.75,1019.02
6.093,0.29,1.13,-0.28,-21.62,9.85,-0.08,-0.88,-0.71,-2.85,1019.02
6.095,-1.03,1.14,0.08,-21.62,9.85,-0.08,-0.88,-0.71,-2.85,1019.02
6.104,-0.20,1.07,0.33,-21.62,9.85,-0.08,-0.88,-0.71,-2.85,1019.02
6.105,-0.20,1.07,0.33,-21.62,9.85,-0.08,-0.88,-0.71,-2.85,1019.59
6.113,-0.33,1.03,-0.24,-21.62,9.85,-0.08,-0.88,-0.71,-2.85,1019.59
6.114,-0.33,1.03,-0.24,-3.06,4.17,-3.65,-0.88,-0.71,-2.85,1019.59
6.141,0.00,1.01,0.07,-3.06,4.17,-3.65,-0.88,-0.71,-2.85,1019.59
6.166,0.00,1.01,0.07,-3.06,4.17,-3.65,-0.44,-0.31,-0.89,1019.59
6.167,-0.07,0.99,-0.00,-3.06,4.17,-3.65,-0.44,-0.31,-0.89,1019.59
6.183,-0.01,0.99,0.04,-3.06,4.17,-3.65,-0.44,-0.31,-0.89,1019.59
6.184,-0.01,0.99,0.04,-5.79,1.54,0.05,-0.44,-0.31,-0.89,1019.59
6.185,-0.01,0.99,0.04,-5.79,1.54,0.05,-0.44,-0.31,-0.89,1019.72
6.233,-0.01,0.99,0.04,-5.79,1.54,0.05,-0.17,-0.03,-0.39,1019.72
6.235,0.01,0.98,0.06,-5.79,1.54,0.05,-0.17,-0.03,-0.39,1019.72
6.235,0.00,0.98,0.07,-5.79,1.54,0.05,-0.17,-0.03,-0.39,1019.72
6.25,0.02,1.00,0.03,-5.79,1.54,0.05,-0.17,-0.03,-0.39,1019.72
6.252,0.04,0.99,0.03,-5.79,1.54,0.05,-0.17,-0.03,-0.39,1019.72
6.253,0.04,0.99,0.03,-0.89,0.31,0.50,-0.17,-0.03,-0.39,1019.72
6.267,0.04,0.99,0.03,-0.89,0.31,0.50,-0.17,-0.03,-0.39,1019.23
6.303,0.04,0.99,0.03,-0.89,0.31,0.50,0.04,0.03,-0.26,1019.23
6.304,0.05,0.99,0.03,-0.89,0.31,0.50,0.04,0.03,-0.26,1019.23
6.305,0.05,0.99,0.02,-0.89,0.31,0.50,0.04,0.03,-0.26,1019.23
6.305,0.05,0.99,0.02,-0.89,0.31,0.50,0.04,0.03,-0.26,1018.91
6.318,0.05,0.98,0.03,-0.89,0.31,0.50,0.04,0.03,-0.26,1018.91
6.322,0.05,0.98,0.03,-0.25,0.26,0.48,0.04,0.03,-0.26,1018.91
6.356,0.05,0.97,0.07,-0.25,0.26,0.48,0.04,0.03,-0.26,1018.91
6.358,0.06,0.96,0.08,-0.25,0.26,0.48,0.04,0.03,-0.26,1018.91
6.373,0.06,0.96,0.08,-0.25,0.26,0.48,0.22,0.04,-0.34,1018.91
6.385,0.00,0.97,0.00,-0.25,0.26,0.48,0.22,0.04,-0.34,1018.91
6.386,0.00,0.97,0.00,-0.25,0.26,0.48,0.22,0.04,-0.34,1018.83
6.393,0.01,0.97,-0.02,-0.25,0.26,0.48,0.22,0.04,-0.34,1018.83
6.394,0.01,0.97,-0.02,0.23,0.19,0.41,0.22,0.04,-0.34,1018.83
6.441,-0.01,0.98,-0.04,0.23,0.19,0.41,0.22,0.04,-0.34,1018.83
6.442,-0.02,0.98,-0.03,0.23,0.19,0.41,0.22,0.04,-0.34,1018.83
6.443,-0.02,0.98,-0.03,0.23,0.19,0.41,0.29,0.00,-0.34,1018.83
6.463,-0.01,0.99,-0.06,0.23,0.19,0.41,0.29,0.00,-0.34,1018.83
6.464,-0.01,0.99,-0.06,0.21,0.03,0.57,0.29,0.00,-0.34,1018.83
6.465,-0.01,0.99,-0.06,0.21,0.03,0.57,0.29,0.00,-0.34,1018.87
6.505,-0.01,0.99,-0.06,0.21,0.03,0.57,0.29,0.00,-0.34,1018.93
6.506,0.01,1.01,-0.06,0.21,0.03,0.57,0.29,0.00,-0.34,1018.93
6.507,-0.00,1.01,-0.04,0.21,0.03,0.57,0.29,0.00,-0.34,1018.93
6.512,-0.00,1.01,-0.04,0.21,0.03,0.57,0.27,0.03,-0.39,1018.93
6.517,-0.00,1.01,-0.05,0.21,0.03,0.57,0.27,0.03,-0.39,1018.93
6.533,0.03,1.04,-0.06,0.21,0.03,0.57,0.27,0.03,-0.39,1018.93
6.534,0.03,1.04,-0.06,0.09,0.22,0.02,0.27,0.03,-0.39,1018.93
6.583,0.03,1.04,-0.06,0.09,0.22,0.02,0.26,0.12,-0.74,1018.93
6.584,0.09,1.08,-0.06,0.09,0.22,0.02,0.26,0.12,-0.74,1018.93
6.584,0.10,1.12,-0.12,0.09,0.22,0.02,0.26,0.12,-0.74,1018.93
6.585,0.10,1.12,-0.12,0.09,0.22,0.02,0.26,0.12,-0.74,1018.94
6.603,0.10,1.12,-0.12,0.56,0.54,0.16,0.26,0.12,-0.74,1018.94
6.605,0.10,1.18,-0.24,0.56,0.54,0.16,0.26,0.12,-0.74,1018.94
6.652,0.14,1.24,-0.25,0.56,0.54,0.16,0.26,0.12,-0.74,1018.94
6.653,0.19,1.30,-0.19,0.56,0.54,0.16,0.26,0.12,-0.74,1018.94
6.653,0.19,1.30,-0.19,0.56,0.54,0.16,-0.08,-0.10,-1.75,1018.94
6.664,0.19,1.30,-0.19,0.56,0.54,0.16,-0.08,-0.10,-1.75,1019.00
6.665,0.17,1.34,-0.24,0.56,0.54,0.16,-0.08,-0.10,-1.75,1019.00
6.672,0.24,1.42,-0.27,0.56,0.54,0.16,-0.08,-0.10,-1.75,1019.00
6.673,0.24,1.42,-0.27,2.15,1.78,-0.78,-0.08,-0.10,-1.75,1019.00
6.698,0.36,1.50,-0.18,2.15,1.78,-0.78,-0.08,-0.10,-1.75,1019.00
6.704,0.36,1.50,-0.18,2.15,1.78,-0.78,-0.08,-0.10,-1.75,1018.98
6.717,0.53,1.53,0.12,2.15,1.78,-0.78,-0.08,-0.10,-1.75,1018.98
6.723,0.53,1.53,0.12,2.15,1.78,-0.78,-0.37,-0.01,-3.41,1018.98
6.743,0.53,1.53,0.12,4.50,3.96,-1.64,-0.37,-0.01,-3.41,1018.98
6.744,0.68,1.51,0.28,4.50,3.96,-1.64,-0.37,-0.01,-3.41,1018.98
6.786,0.46,1.50,0.12,4.50,3.96,-1.64,-0.37,-0.01,-3.41,1018.98
6.787,-0.11,1.44,0.07,4.50,3.96,-1.64,-0.37,-0.01,-3.41,1018.98
6.787,-0.11,1.44,0.07,4.50,3.96,-1.64,-0.37,-0.01,-3.41,1018.66
6.793,-0.11,1.44,0.07,4.50,3.96,-1.64,-0.27,0.84,-5.67,1018.66
6.815,-0.11,1.44,0.07,10.22,6.80,1.34,-0.27,0.84,-5.67,1018.66
6.816,-0.20,1.33,0.29,10.22,6.80,1.34,-0.27,0.84,-5.67,1018.66
6.817,-0.12,1.12,0.18,10.22,6.80,1.34,-0.27,0.84,-5.67,1018.66
6.854,-0.62,0.03,-0.24,10.22,6.80,1.34,-0.27,0.84,-5.67,1018.66
6.864,-1.85,0.48,0.12,10.22,6.80,1.34,-0.27,0.84,-5.67,1018.66
6.865,-1.85,0.48,0.12,10.22,6.80,1.34,0.13,-0.03,-2.64,1018.66
6.866,-1.85,0.48,0.12,10.22,6.80,1.34,0.13,-0.03,-2.64,1018.25
6.884,0.35,0.40,0.05,10.22,6.80,1.34,0.13,-0.03,-2.64,1018.25
6.886,0.35,0.40,0.05,7.12,7.47,2.38,0.13,-0.03,-2.64,1018.25
6.905,0.53,0.48,-0.17,7.12,7.47,2.38,0.13,-0.03,-2.64,1018.25
6.906,0.53,0.48,-0.17,7.12,7.47,2.38,0.13,-0.03,-2.64,1018.49
6.918,0.29,0.27,0.01,7.12,7.47,2.38,0.13,-0.03,-2.64,1018.49
6.933,0.29,0.27,0.01,7.12,7.47,2.38,0.25,-0.98,1.94,1018.49
6.94,-0.24,0.05,0.22,7.12,7.47,2.38,0.25,-0.98,1.94,1018.49
6.953,-0.12,0.14,0.12,7.12,7.47,2.38,0.25,-0.98,1.94,1018.49
6.954,-0.12,0.14,0.12,2.37,-2.39,0.12,0.25,-0.98,1.94,1018.49
6.984,0.27,0.39,-0.00,2.37,-2.39,0.12,0.25,-0.98,1.94,1018.49
6.986,0.27,0.39,-0.00,2.37,-2.39,0.12,0.25,-0.98,1.94,1018.77
7.003,0.27,0.39,-0.00,2.37,-2.39,0.12,1.36,-0.95,4.59,1018.77
7.004,0.19,0.52,-0.06,2.37,-2.39,0.12,1.36,-0.95,4.59,1018.77
7.023,0.19,0.52,-0.06,6.63,-5.17,0.94,1.36,-0.95,4.59,1018.77
7.025,0.02,0.64,-0.04,6.63,-5.17,0.94,1.36,-0.95,4.59,1018.77
7.052,0.00,0.77,0.03,6.63,-5.17,0.94,1.36,-0.95,4.59,1018.77
7.065,0.18,0.99,-0.04,6.63,-5.17,0.94,1.36,-0.95,4.59,1018.77
7.066,0.18,0.99,-0.04,6.63,-5.17,0.94,1.36,-0.95,4.59,1018.97
7.072,0.18,0.99,-0.04,6.63,-5.17,0.94,1.27,-0.81,5.70,1018.97
7.093,0.18,0.99,-0.04,4.47,-3.27,0.51,1.27,-0.81,5.70,1018.97
7.094,0.47,1.43,-0.03,4.47,-3.27,0.51,1.27,-0.81,5.70,1018.97
7.095,0.50,1.80,0.20,4.47,-3.27,0.51,1.27,-0.81,5.70,1018.97
7.105,0.50,1.80,0.20,4.47,-3.27,0.51,1.27,-0.81,5.70,1019.01
7.117,-0.17,1.89,0.35,4.47,-3.27,0.51,1.27,-0.81,5.70,1019.01
7.141,-0.59,1.88,0.25,4.47,-3.27,0.51,1.27,-0.81,5.70,1019.01
7.142,-0.59,1.88,0.25,4.47,-3.27,0.51,0.59,0.37,5.00,1019.01
7.169,-0.58,1.93,-0.02,4.47,-3.27,0.51,0.59,0.37,5.00,1019.01
7.17,-0.58,1.93,-0.02,3.03,3.69,1.72,0.59,0.37,5.00,1019.01
7.184,-0.85,1.96,-0.22,3.03,3.69,1.72,0.59,0.37,5.00,1019.01
7.185,-0.85,1.96,-0.22,3.03,3.69,1.72,0.59,0.37,5.00,1018.98
7.213,-0.85,1.96,-0.22,3.03,3.69,1.72,-0.16,-0.31,4.02,1018.98
7.214,-1.47,1.70,-0.02,3.03,3.69,1.72,-0.16,-0.31,4.02,1018.98
7.233,-1.47,1.70,-0.02,-8.10,10.07,2.58,-0.16,-0.31,4.02,1018.98
7.235,-2.14,1.59,-0.07,-8.10,10.07,2.58,-0.16,-0.31,4.02,1018.98
7.236,-2.10,1.45,0.06,-8.10,10.07,2.58,-0.16,-0.31,4.02,1018.98
7.271,-0.74,1.83,-0.46,-8.10,10.07,2.58,-0.16,-0.31,4.02,1018.98
7.272,-0.74,1.83,-0.46,-8.10,10.07,2.58,-0.16,-0.31,4.02,1019.05
7.287,-0.12,1.39,-0.98,-8.10,10.07,2.58,-0.16,-0.31,4.02,1019.05
7.288,-0.12,1.39,-0.98,-8.10,10.07,2.58,-1.17,-2.62,-1.86,1019.05
7.303,1.11,0.99,-0.36,-8.10,10.07,2.58,-1.17,-2.62,-1.86,1019.05
7.306,1.11,0.99,-0.36,-21.31,7.55,0.94,-1.17,-2.62,-1.86,1019.05
7.306,1.11,0.99,-0.36,-21.31,7.55,0.94,-1.17,-2.62,-1.86,1019.51
7.321,-0.72,1.14,-0.18,-21.31,7.55,0.94,-1.17,-2.62,-1.86,1019.51
7.342,-0.53,1.06,0.39,-21.31,7.55,0.94,-1.17,-2.62,-1.86,1019.51
7.354,-0.53,1.06,0.39,-21.31,7.55,0.94,-1.14,-0.58,-2.23,1019.51
7.375,-0.53,1.06,0.39,-1.16,4.25,-4.11,-1.14,-0.58,-2.23,1019.51
7.376,0.04,1.10,-0.02,-1.16,4.25,-4.11,-1.14,-0.58,-2.23,1019.51
7.376,-0.02,0.96,0.15,-1.16,4.25,-4.11,-1.14,-0.58,-2.23,1019.51
7.387,-0.02,0.96,0.15,-1.16,4.25,-4.11,-1.14,-0.58,-2.23,1019.82
7.423,-0.02,0.96,0.15,-1.16,4.25,-4.11,-0.39,-0.17,-0.88,1019.82
7.424,-0.23,0.97,0.03,-1.16,4.25,-4.11,-0.39,-0.17,-0.88,1019.82
7.424,-0.06,1.00,-0.01,-1.16,4.25,-4.11,-0.39,-0.17,-0.88,1019.82
7.442,-0.02,0.99,-0.02,-1.16,4.25,-4.11,-0.39,-0.17,-0.88,1019.82
7.443,-0.02,0.99,-0.02,-4.24,0.87,1.57,-0.39,-0.17,-0.88,1019.82
7.473,-0.02,0.99,0.01,-4.24,0.87,1.57,-0.39,-0.17,-0.88,1019.82
7.474,-0.02,0.99,0.01,-4.24,0.87,1.57,-0.39,-0.17,-0.88,1019.31
7.494,-0.02,0.99,0.01,-4.24,0.87,1.57,-0.10,-0.01,-0.39,1019.31
7.495,0.02,0.99,0.07,-4.24,0.87,1.57,-0.10,-0.01,-0.39,1019.31
7.504,0.06,1.00,0.05,-4.24,0.87,1.57,-0.10,-0.01,-0.39,1019.31
7.505,0.06,1.00,0.05,-4.24,0.87,1.57,-0.10,-0.01,-0.39,1018.94
7.514,0.05,1.00,0.04,-4.24,0.87,1.57,-0.10,-0.01,-0.39,1018.94
7.514,0.05,1.00,0.04,-1.33,0.23,0.35,-0.10,-0.01,-0.39,1018.94
7.563,0.02,0.99,0.01,-1.33,0.23,0.35,-0.10,-0.01,-0.39,1018.94
7.565,0.02,0.98,-0.02,-1.33,0.23,0.35,-0.10,-0.01,-0.39,1018.94
7.565,0.02,0.98,-0.02,-1.33,0.23,0.35,0.23,0.04,-0.42,1018.94
7.584,-0.02,0.97,-0.05,-1.33,0.23,0.35,0.23,0.04,-0.42,1018.94
7.586,-0.02,0.97,-0.05,0.17,0.34,0.88,0.23,0.04,-0.42,1018.94
7.586,-0.02,0.97,-0.05,0.17,0.34,0.88,0.23,0.04,-0.42,1018.77
7.634,-0.02,0.97,-0.05,0.17,0.34,0.88,0.25,-0.05,-0.45,1018.77
7.635,-0.03,0.97,-0.08,0.17,0.34,0.88,0.25,-0.05,-0.45,1018.77
7.636,-0.01,0.97,-0.05,0.17,0.34,0.88,0.25,-0.05,-0.45,1018.77
7.65,-0.02,0.99,-0.07,0.17,0.34,0.88,0.25,-0.05,-0.45,1018.77
7.653,-0.05,0.99,-0.08,0.17,0.34,0.88,0.25,-0.05,-0.45,1018.77
7.654,-0.05,0.99,-0.08,0.14,0.16,0.30,0.25,-0.05,-0.45,1018.77
7.671,-0.05,0.99,-0.08,0.14,0.16,0.30,0.25,-0.05,-0.45,1018.78
7.698,-0.05,1.00,-0.09,0.14,0.16,0.30,0.25,-0.05,-0.45,1018.78
7.7,-0.06,0.99,-0.09,0.14,0.16,0.30,0.25,-0.05,-0.45,1018.78
7.703,-0.06,0.99,-0.09,0.14,0.16,0.30,0.19,-0.05,-0.47,1018.78
7.704,-0.06,0.99,-0.09,0.14,0.16,0.30,0.19,-0.05,-0.47,1018.78
7.717,-0.07,0.99,-0.09,0.14,0.16,0.30,0.19,-0.05,-0.47,1018.78
7.723,-0.07,0.99,-0.09,0.14,0.22,0.05,0.19,-0.05,-0.47,1018.78
7.741,-0.05,1.00,-0.08,0.14,0.22,0.05,0.19,-0.05,-0.47,1018.78
7.773,-0.05,1.00,-0.08,0.14,0.22,0.05,0.18,-0.06,-0.58,1018.78
7.775,-0.02,1.02,-0.07,0.14,0.22,0.05,0.18,-0.06,-0.58,1018.78
7.785,0.01,1.07,-0.09,0.14,0.22,0.05,0.18,-0.06,-0.58,1018.78
7.786,0.01,1.07,-0.09,0.14,0.22,0.05,0.18,-0.06,-0.58,1018.90
7.794,0.05,1.11,-0.06,0.14,0.22,0.05,0.18,-0.06,-0.58,1018.90
7.795,0.05,1.11,-0.06,0.15,0.35,-0.04,0.18,-0.06,-0.58,1018.90
7.843,0.05,1.11,-0.06,0.15,0.35,-0.04,0.22,-0.08,-1.23,1018.90
7.845,0.08,1.16,-0.11,0.15,0.35,-0.04,0.22,-0.08,-1.23,1018.90
7.846,0.06,1.19,-0.21,0.15,0.35,-0.04,0.22,-0.08,-1.23,1018.90
7.863,0.04,1.21,-0.23,0.15,0.35,-0.04,0.22,-0.08,-1.23,1018.90
7.864,0.04,1.21,-0.23,1.25,0.98,0.21,0.22,-0.08,-1.23,1018.90
7.865,0.04,1.21,-0.23,1.25,0.98,0.21,0.22,-0.08,-1.23,1019.06
7.905,0.04,1.21,-0.23,1.25,0.98,0.21,0.22,-0.08,-1.23,1019.29
7.907,0.07,1.23,-0.17,1.25,0.98,0.21,0.22,-0.08,-1.23,1019.29
7.908,0.18,1.39,-0.21,1.25,0.98,0.21,0.22,-0.08,-1.23,1019.29
7.913,0.18,1.39,-0.21,1.25,0.98,0.21,0.19,-0.18,-2.40,1019.29
7.917,0.37,1.53,-0.10,1.25,0.98,0.21,0.19,-0.18,-2.40,1019.29
7.933,0.49,1.58,0.07,1.25,0.98,0.21,0.19,-0.18,-2.40,1019.29
7.936,0.49,1.58,0.07,2.81,2.50,-0.72,0.19,-0.18,-2.40,1019.29
7.985,0.49,1.58,0.07,2.81,2.50,-0.72,0.14,0.38,-4.60,1019.29
7.986,0.49,1.58,0.07,2.81,2.50,-0.72,0.14,0.38,-4.60,1018.90
7.986,0.49,1.58,0.09,2.81,2.50,-0.72,0.14,0.38,-4.60,1018.90
7.987,0.31,1.55,-0.03,2.81,2.50,-0.72,0.14,0.38,-4.60,1018.90
8.003,0.31,1.55,-0.03,7.12,5.85,0.32,0.14,0.38,-4.60,1018.90
8.005,-0.11,1.46,0.13,7.12,5.85,0.32,0.14,0.38,-4.60,1018.90
8.056,-0.29,1.25,0.39,7.12,5.85,0.32,0.14,0.38,-4.60,1018.90
8.058,-0.32,0.81,0.27,7.12,5.85,0.32,0.14,0.38,-4.60,1018.90
8.059,-0.32,0.81,0.27,7.12,5.85,0.32,1.27,-0.82,-4.78,1018.90
8.064,-0.32,0.81,0.27,7.12,5.85,0.32,1.27,-0.82,-4.78,1018.30
8.065,-1.88,0.06,-0.65,7.12,5.85,0.32,1.27,-0.82,-4.78,1018.30
8.073,-0.95,0.46,0.26,7.12,5.85,0.32,1.27,-0.82,-4.78,1018.30
8.074,-0.95,0.46,0.26,8.41,8.13,2.53,1.27,-0.82,-4.78,1018.30
8.105,0.49,0.42,0.02,8.41,8.13,2.53,1.27,-0.82,-4.78,1018.30
8.106,0.49,0.42,0.02,8.41,8.13,2.53,1.27,-0.82,-4.78,1018.47
8.117,0.51,0.43,-0.06,8.41,8.13,2.53,1.27,-0.82,-4.78,1018.47
8.123,0.51,0.43,-0.06,8.41,8.13,2.53,1.23,-2.65,1.57,1018.47
8.143,0.38,0.28,0.27,8.41,8.13,2.53,1.23,-2.65,1.57,1018.47
8.145,0.38,0.28,0.27,-1.55,-0.06,1.25,1.23,-2.65,1.57,1018.47
8.185,-0.01,0.16,0.44,-1.55,-0.06,1.25,1.23,-2.65,1.57,1018.47
8.186,0.07,0.29,0.30,-1.55,-0.06,1.25,1.23,-2.65,1.57,1018.47
8.187,0.07,0.29,0.30,-1.55,-0.06,1.25,1.23,-2.65,1.57,1018.73
8.193,0.07,0.29,0.30,-1.55,-0.06,1.25,1.77,-0.98,3.50,1018.73
8.215,0.07,0.29,0.30,10.77,-3.05,1.67,1.77,-0.98,3.50,1018.73
8.216,0.17,0.45,0.13,10.77,-3.05,1.67,1.77,-0.98,3.50,1018.73
8.217,0.06,0.55,0.10,10.77,-3.05,1.67,1.77,-0.98,3.50,1018.73
8.254,-0.07,0.67,0.06,10.77,-3.05,1.67,1.77,-0.98,3.50,1018.73
8.264,-0.07,0.67,0.06,10.77,-3.05,1.67,1.72,-0.70,5.35,1018.73
8.265,0.06,0.86,0.04,10.77,-3.05,1.67,1.72,-0.70,5.35,1018.73
8.266,0.06,0.86,0.04,10.77,-3.05,1.67,1.72,-0.70,5.35,1018.92
8.283,0.46,1.28,0.18,10.77,-3.05,1.67,1.72,-0.70,5.35,1018.92
8.285,0.46,1.28,0.18,5.13,-4.25,3.21,1.72,-0.70,5.35,1018.92
8.304,0.46,1.28,0.18,5.13,-4.25,3.21,1.72,-0.70,5.35,1018.98
8.305,0.22,1.59,0.37,5.13,-4.25,3.21,1.72,-0.70,5.35,1018.98
8.317,-0.21,1.68,0.46,5.13,-4.25,3.21,1.72,-0.70,5.35,1018.98
8.335,-0.21,1.68,0.46,5.13,-4.25,3.21,0.82,-0.60,5.19,1018.98
8.341,-0.44,1.69,0.40,5.13,-4.25,3.21,0.82,-0.60,5.19,1018.98
8.354,-0.44,1.69,0.40,2.92,1.01,2.98,0.82,-0.60,5.19,1018.98
8.355,-0.12,1.84,0.13,2.92,1.01,2.98,0.82,-0.60,5.19,1018.98
8.384,-0.12,1.90,-0.15,2.92,1.01,2.98,0.82,-0.60,5.19,1018.98
8.385,-0.12,1.90,-0.15,2.92,1.01,2.98,0.82,-0.60,5.19,1018.86
8.405,-0.19,1.90,0.08,2.92,1.01,2.98,0.82,-0.60,5.19,1018.86
8.406,-0.19,1.90,0.08,2.92,1.01,2.98,-0.21,-0.75,5.46,1018.86
8.424,-0.71,1.65,0.39,2.92,1.01,2.98,-0.21,-0.75,5.46,1018.86
8.425,-0.71,1.65,0.39,-4.19,7.96,5.25,-0.21,-0.75,5.46,1018.86
8.441,-1.28,1.70,0.27,-4.19,7.96,5.25,-0.21,-0.75,5.46,1018.86
8.465,-1.88,1.51,0.22,-4.19,7.96,5.25,-0.21,-0.75,5.46,1018.86
8.466,-1.88,1.51,0.22,-4.19,7.96,5.25,-0.21,-0.75,5.46,1018.91
8.474,-1.88,1.51,0.22,-4.19,7.96,5.25,-0.63,-0.46,1.96,1018.91
8.494,-1.88,1.51,0.22,-8.97,9.65,3.02,-0.63,-0.46,1.96,1018.91
8.495,-1.68,1.35,-0.08,-8.97,9.65,3.02,-0.63,-0.46,1.96,1018.91
8.496,-1.29,1.19,0.03,-8.97,9.65,3.02,-0.63,-0.46,1.96,1018.91
8.504,-1.29,1.19,0.03,-8.97,9.65,3.02,-0.63,-0.46,1.96,1018.96
8.518,0.79,1.69,-1.29,-8.97,9.65,3.02,-0.63,-0.46,1.96,1018.96
8.541,0.45,1.01,-1.36,-8.97,9.65,3.02,-0.63,-0.46,1.96,1018.96
8.544,0.45,1.01,-1.36,-8.97,9.65,3.02,-1.35,-2.75,-2.30,1018.96
8.564,0.45,1.01,-1.36,-19.58,5.42,2.47,-1.35,-2.75,-2.30,1018.96
8.565,0.89,0.84,0.01,-19.58,5.42,2.47,-1.35,-2.75,-2.30,1018.96
8.593,-0.83,1.13,-0.11,-19.58,5.42,2.47,-1.35,-2.75,-2.30,1018.96
8.594,-0.83,1.13,-0.11,-19.58,5.42,2.47,-1.35,-2.75,-2.30,1019.56
8.614,-0.83,1.13,-0.11,-19.58,5.42,2.47,-1.29,-0.48,-2.25,1019.56
8.615,-0.22,1.07,0.41,-19.58,5.42,2.47,-1.29,-0.48,-2.25,1019.56
8.634,-0.22,1.07,0.41,3.90,2.43,-6.18,-1.29,-0.48,-2.25,1019.56
8.635,-0.20,1.07,0.05,3.90,2.43,-6.18,-1.29,-0.48,-2.25,1019.56
8.635,0.07,0.97,0.11,3.90,2.43,-6.18,-1.29,-0.48,-2.25,1019.56
8.664,-0.26,0.96,0.03,3.90,2.43,-6.18,-1.29,-0.48,-2.25,1019.56
8.665,-0.26,0.96,0.03,3.90,2.43,-6.18,-1.29,-0.48,-2.25,1019.71
8.684,-0.26,0.96,0.03,3.90,2.43,-6.18,-0.52,-0.23,-0.77,1019.71
8.685,-0.04,0.99,-0.01,3.90,2.43,-6.18,-0.52,-0.23,-0.77,1019.71
8.699,0.06,1.00,0.02,3.90,2.43,-6.18,-0.52,-0.23,-0.77,1019.71
8.704,0.06,1.00,0.02,-4.31,0.93,1.80,-0.52,-0.23,-0.77,1019.71
8.704,0.06,1.00,0.02,-4.31,0.93,1.80,-0.52,-0.23,-0.77,1019.21
8.719,0.06,1.00,0.09,-4.31,0.93,1.80,-0.52,-0.23,-0.77,1019.21
8.754,0.10,1.00,0.07,-4.31,0.93,1.80,-0.52,-0.23,-0.77,1019.21
8.754,0.10,1.00,0.07,-4.31,0.93,1.80,-0.13,-0.04,-0.41,1019.21
8.774,0.09,1.01,0.02,-4.31,0.93,1.80,-0.13,-0.04,-0.41,1019.21
8.774,0.05,1.00,0.01,-4.31,0.93,1.80,-0.13,-0.04,-0.41,1019.21
8.774,0.05,1.00,0.01,-1.30,0.30,0.61,-0.13,-0.04,-0.41,1019.21
8.785,0.05,1.00,0.01,-1.30,0.30,0.61,-0.13,-0.04,-0.41,1018.88
8.824,0.05,1.00,0.01,-1.30,0.30,0.61,0.08,0.03,-0.43,1018.88
8.825,0.04,0.99,-0.01,-1.30,0.30,0.61,0.08,0.03,-0.43,1018.88
8.825,0.03,0.98,0.01,-1.30,0.30,0.61,0.08,0.03,-0.43,1018.88
8.844,-0.01,0.96,-0.01,-1.30,0.30,0.61,0.08,0.03,-0.43,1018.88
8.845,-0.01,0.96,-0.01,0.34,0.42,0.77,0.08,0.03,-0.43,1018.88
8.866,-0.03,0.96,-0.06,0.34,0.42,0.77,0.08,0.03,-0.43,1018.88
8.866,-0.03,0.96,-0.06,0.34,0.42,0.77,0.08,0.03,-0.43,1018.75
8.895,0.00,0.96,-0.04,0.34,0.42,0.77,0.08,0.03,-0.43,1018.75
8.896,0.00,0.96,-0.04,0.34,0.42,0.77,0.09,0.01,-0.36,1018.75
8.904,0.01,0.96,0.01,0.34,0.42,0.77,0.09,0.01,-0.36,1018.75
8.905,0.01,0.96,0.01,0.34,0.42,0.77,0.09,0.01,-0.36,1018.77
8.915,-0.02,0.96,0.01,0.34,0.42,0.77,0.09,0.01,-0.36,1018.77
8.915,-0.02,0.96,0.01,-0.02,0.16,0.31,0.09,0.01,-0.36,1018.77
8.941,-0.04,0.97,-0.02,-0.02,0.16,0.31,0.09,0.01,-0.36,1018.77
8.965,-0.06,0.97,-0.06,-0.02,0.16,0.31,0.09,0.01,-0.36,1018.77
8.965,-0.06,0.97,-0.06,-0.02,0.16,0.31,0.12,-0.04,-0.31,1018.77
8.984,-0.01,0.98,0.01,-0.02,0.16,0.31,0.12,-0.04,-0.31,1018.77
8.985,-0.01,0.98,0.01,-0.02,0.16,0.31,0.12,-0.04,-0.31,1018.84
8.985,-0.01,0.98,0.01,0.04,0.03,0.37,0.12,-0.04,-0.31,1018.84
9.035,-0.01,0.98,0.01,0.04,0.03,0.37,0.20,-0.01,-0.32,1018.84
9.036,-0.01,0.99,0.01,0.04,0.03,0.37,0.20,-0.01,-0.32,1018.84
9.036,-0.00,1.02,-0.05,0.04,0.03,0.37,0.20,-0.01,-0.32,1018.84
9.051,-0.00,1.04,-0.09,0.04,0.03,0.37,0.20,-0.01,-0.32,1018.84
9.054,0.04,1.06,-0.10,0.04,0.03,0.37,0.20,-0.01,-0.32,1018.84
9.054,0.04,1.06,-0.10,-0.06,0.17,0.41,0.20,-0.01,-0.32,1018.84
9.065,0.04,1.06,-0.10,-0.06,0.17,0.41,0.20,-0.01,-0.32,1018.89
9.104,0.04,1.06,-0.10,-0.06,0.17,0.41,0.18,-0.06,-0.66,1018.89
9.105,0.05,1.06,-0.07,-0.06,0.17,0.41,0.18,-0.06,-0.66,1018.89
9.105,0.03,1.06,-0.04,-0.06,0.17,0.41,0.18,-0.06,-0.66,1018.89
9.105,0.03,1.06,-0.04,-0.06,0.17,0.41,0.18,-0.06,-0.66,1018.94
9.118,0.06,1.10,-0.07,-0.06,0.17,0.41,0.18,-0.06,-0.66,1018.94
9.125,0.06,1.10,-0.07,0.62,0.72,0.04,0.18,-0.06,-0.66,1018.94
9.141,0.08,1.15,-0.15,0.62,0.72,0.04,0.18,-0.06,-0.66,1018.94
9.174,0.09,1.19,-0.15,0.62,0.72,0.04,0.18,-0.06,-0.66,1018.94
9.178,0.09,1.19,-0.15,0.62,0.72,0.04,0.10,-0.03,-1.38,1018.94
9.184,0.08,1.22,-0.14,0.62,0.72,0.04,0.10,-0.03,-1.38,1018.94
9.185,0.08,1.22,-0.14,0.62,0.72,0.04,0.10,-0.03,-1.38,1019.12
9.195,0.12,1.31,-0.15,0.62,0.72,0.04,0.10,-0.03,-1.38,1019.12
9.195,0.12,1.31,-0.15,1.58,1.24,0.07,0.10,-0.03,-1.38,1019.12
9.245,0.23,1.39,-0.14,1.58,1.24,0.07,0.10,-0.03,-1.38,1019.12
9.246,0.36,1.45,-0.09,1.58,1.24,0.07,0.10,-0.03,-1.38,1019.12
9.246,0.36,1.45,-0.09,1.58,1.24,0.07,0.15,-0.01,-2.66,1019.12
9.264,0.45,1.52,-0.12,1.58,1.24,0.07,0.15,-0.01,-2.66,1019.12
9.265,0.45,1.52,-0.12,3.19,2.89,-0.61,0.15,-0.01,-2.66,1019.12
9.266,0.45,1.52,-0.12,3.19,2.89,-0.61,0.15,-0.01,-2.66,1019.19
9.305,0.45,1.52,-0.12,3.19,2.89,-0.61,0.15,-0.01,-2.66,1018.68
9.306,0.36,1.51,-0.09,3.19,2.89,-0.61,0.15,-0.01,-2.66,1018.68
9.307,0.34,1.47,-0.05,3.19,2.89,-0.61,0.15,-0.01,-2.66,1018.68
9.314,0.34,1.47,-0.05,3.19,2.89,-0.61,0.05,0.20,-4.70,1018.68
9.317,-0.18,1.40,0.16,3.19,2.89,-0.61,0.05,0.20,-4.70,1018.68
9.334,-0.42,1.13,0.36,3.19,2.89,-0.61,0.05,0.20,-4.70,1018.68
9.335,-0.42,1.13,0.36,7.69,5.83,-0.13,0.05,0.20,-4.70,1018.68
9.385,-0.22,0.96,0.22,7.69,5.83,-0.13,0.05,0.20,-4.70,1018.68
9.386,-0.58,0.06,-0.06,7.69,5.83,-0.13,0.05,0.20,-4.70,1018.68
9.387,-0.58,0.06,-0.06,7.69,5.83,-0.13,1.14,-1.04,-4.16,1018.68
9.387,-0.58,0.06,-0.06,7.69,5.83,-0.13,1.14,-1.04,-4.16,1018.30
9.404,-2.03,0.34,-0.09,7.69,5.83,-0.13,1.14,-1.04,-4.16,1018.30
9.405,-2.03,0.34,-0.09,6.67,6.89,2.27,1.14,-1.04,-4.16,1018.30
9.441,0.32,0.37,0.08,6.67,6.89,2.27,1.14,-1.04,-4.16,1018.30
9.443,0.47,0.41,-0.10,6.67,6.89,2.27,1.14,-1.04,-4.16,1018.30
9.454,0.47,0.41,-0.10,6.67,6.89,2.27,1.25,-1.41,2.07,1018.30
9.464,0.47,0.41,-0.10,6.67,6.89,2.27,1.25,-1.41,2.07,1018.51
9.465,0.23,0.29,-0.01,6.67,6.89,2.27,1.25,-1.41,2.07,1018.51
9.474,-0.01,0.16,0.20,6.67,6.89,2.27,1.25,-1.41,2.07,1018.51
9.475,-0.01,0.16,0.20,-0.19,-1.53,1.44,1.25,-1.41,2.07,1018.51
9.505,0.06,0.25,0.24,-0.19,-1.53,1.44,1.25,-1.41,2.07,1018.51
9.506,0.06,0.25,0.24,-0.19,-1.53,1.44,1.25,-1.41,2.07,1018.77
9.517,0.23,0.41,0.28,-0.19,-1.53,1.44,1.25,-1.41,2.07,1018.77
9.525,0.23,0.41,0.28,-0.19,-1.53,1.44,1.86,-1.37,3.93,1018.77
9.545,0.23,0.41,0.28,8.71,-3.96,0.89,1.86,-1.37,3.93,1018.77
9.546,0.29,0.61,0.26,8.71,-3.96,0.89,1.86,-1.37,3.93,1018.77
9.585,0.21,0.74,0.29,8.71,-3.96,0.89,1.86,-1.37,3.93,1018.77
9.587,0.29,1.02,0.30,8.71,-3.96,0.89,1.86,-1.37,3.93,1018.77
9.588,0.29,1.02,0.30,8.71,-3.96,0.89,1.86,-1.37,3.93,1018.95
9.594,0.29,1.02,0.30,8.71,-3.96,0.89,1.91,-1.02,4.80,1018.95
9.614,0.29,1.02,0.30,5.60,-3.83,3.99,1.91,-1.02,4.80,1018.95
9.616,0.23,1.32,0.46,5.60,-3.83,3.99,1.91,-1.02,4.80,1018.95
9.616,-0.07,1.48,0.58,5.60,-3.83,3.99,1.91,-1.02,4.80,1018.95
9.651,-0.16,1.64,0.57,5.60,-3.83,3.99,1.91,-1.02,4.80,1018.95
9.664,-0.07,1.80,0.51,5.60,-3.83,3.99,1.91,-1.02,4.80,1018.95
9.665,-0.07,1.80,0.51,5.60,-3.83,3.99,1.07,-1.41,4.93,1018.95
9.666,-0.07,1.80,0.51,5.60,-3.83,3.99,1.07,-1.41,4.93,1019.12
9.684,-0.07,1.80,0.51,2.40,2.85,6.26,1.07,-1.41,4.93,1019.12
9.685,-0.11,1.86,0.54,2.40,2.85,6.26,1.07,-1.41,4.93,1019.12
9.694,-0.11,1.80,0.53,2.40,2.85,6.26,1.07,-1.41,4.93,1019.12
9.706,-0.11,1.80,0.53,2.40,2.85,6.26,1.07,-1.41,4.93,1019.02
9.717,0.02,1.80,0.39,2.40,2.85,6.26,1.07,-1.41,4.93,1019.02
9.734,0.02,1.80,0.39,2.40,2.85,6.26,-0.76,-1.99,4.74,1019.02
9.775,0.02,1.80,0.39,-3.11,8.50,7.60,-0.76,-1.99,4.74,1019.02
9.776,-0.09,1.65,0.36,-3.11,8.50,7.60,-0.76,-1.99,4.74,1019.02
9.776,-0.23,1.58,0.36,-3.11,8.50,7.60,-0.76,-1.99,4.74,1019.02
9.785,-0.64,1.36,0.50,-3.11,8.50,7.60,-0.76,-1.99,4.74,1019.02
9.786,-0.64,1.36,0.50,-3.11,8.50,7.60,-0.76,-1.99,4.74,1018.91
9.804,-1.09,1.40,0.31,-3.11,8.50,7.60,-0.76,-1.99,4.74,1018.91
9.805,-1.09,1.40,0.31,-3.11,8.50,7.60,-1.11,-1.23,2.95,1018.91
9.824,-1.39,1.45,0.05,-3.11,8.50,7.60,-1.11,-1.23,2.95,1018.91
9.826,-1.39,1.45,0.05,-5.03,8.34,5.62,-1.11,-1.23,2.95,1018.91
9.851,-1.44,1.28,-0.21,-5.03,8.34,5.62,-1.11,-1.23,2.95,1018.91
9.865,-1.29,1.15,-0.27,-5.03,8.34,5.62,-1.11,-1.23,2.95,1018.91
9.866,-1.29,1.15,-0.27,-5.03,8.34,5.62,-1.11,-1.23,2.95,1019.05
9.875,-1.29,1.15,-0.27,-5.03,8.34,5.62,-1.24,-2.44,-0.76,1019.05
9.895,-1.29,1.15,-0.27,-15.23,5.60,3.73,-1.24,-2.44,-0.76,1019.05
9.896,-0.19,1.20,-0.73,-15.23,5.60,3.73,-1.24,-2.44,-0.76,1019.05
9.897,0.62,1.29,-1.58,-15.23,5.60,3.73,-1.24,-2.44,-0.76,1019.05
9.911,0.62,1.29,-1.58,-15.23,5.60,3.73,-1.24,-2.44,-0.76,1019.31
9.918,1.25,0.90,-0.23,-15.23,5.60,3.73,-1.24,-2.44,-0.76,1019.31
9.942,-1.00,1.24,-0.45,-15.23,5.60,3.73,-1.24,-2.44,-0.76,1019.31
9.944,-1.00,1.24,-0.45,-15.23,5.60,3.73,-1.59,-2.20,-2.76,1019.31
9.964,-0.33,1.08,0.35,-15.23,5.60,3.73,-1.59,-2.20,-2.76,1019.31
9.965,-0.33,1.08,0.35,-7.21,3.14,-5.84,-1.59,-2.20,-2.76,1019.31
9.985,-0.16,1.08,-0.00,-7.21,3.14,-5.84,-1.59,-2.20,-2.76,1019.31
9.986,-0.16,1.08,-0.00,-7.21,3.14,-5.84,-1.59,-2.20,-2.76,1019.57
10.015,-0.16,1.08,-0.00,-7.21,3.14,-5.84,-0.82,-0.51,-1.02,1019.57
10.015,0.17,0.96,0.01,-7.21,3.14,-5.84,-0.82,-0.51,-1.02,1019.57
10.034,0.17,0.96,0.01,-1.53,1.33,0.48,-0.82,-0.51,-1.02,1019.57
10.035,-0.07,0.93,0.13,-1.53,1.33,0.48,-0.82,-0.51,-1.02,1019.57
10.035,0.05,0.99,0.04,-1.53,1.33,0.48,-0.82,-0.51,-1.02,1019.57
10.064,0.04,1.01,-0.03,-1.53,1.33,0.48,-0.82,-0.51,-1.02,1019.57
10.065,0.04,1.01,-0.03,-1.53,1.33,0.48,-0.82,-0.51,-1.02,1019.26
10.084,0.04,1.01,-0.03,-1.53,1.33,0.48,-0.33,-0.24,-0.53,1019.26
10.085,0.04,1.00,0.07,-1.53,1.33,0.48,-0.33,-0.24,-0.53,1019.26
10.105,0.04,1.00,0.07,-0.88,0.16,0.91,-0.33,-0.24,-0.53,1019.26
10.105,0.09,1.01,0.01,-0.88,0.16,0.91,-0.33,-0.24,-0.53,1019.26
10.106,0.09,1.01,0.01,-0.88,0.16,0.91,-0.33,-0.24,-0.53,1018.98
10.117,0.12,0.99,0.04,-0.88,0.16,0.91,-0.33,-0.24,-0.53,1018.98
10.142,0.06,0.97,0.06,-0.88,0.16,0.91,-0.33,-0.24,-0.53,1018.98
10.154,0.06,0.97,0.06,-0.88,0.16,0.91,0.00,-0.10,-0.45,1018.98
10.175,0.06,0.97,0.06,0.12,0.46,0.76,0.00,-0.10,-0.45,1018.98
10.176,0.00,0.96,0.01,0.12,0.46,0.76,0.00,-0.10,-0.45,1018.98
10.176,0.01,0.97,-0.02,0.12,0.46,0.76,0.00,-0.10,-0.45,1018.98
10.186,0.01,0.97,-0.02,0.12,0.46,0.76,0.00,-0.10,-0.45,1018.83
10.225,-0.01,0.97,-0.04,0.12,0.46,0.76,0.00,-0.10,-0.45,1018.83
10.225,0.03,0.98,-0.05,0.12,0.46,0.76,0.00,-0.10,-0.45,1018.83
10.226,0.03,0.98,-0.05,0.12,0.46,0.76,0.10,-0.01,-0.30,1018.83
10.244,0.04,0.98,-0.03,0.12,0.46,0.76,0.10,-0.01,-0.30,1018.83
10.245,0.04,0.98,-0.03,0.13,0.14,0.87,0.10,-0.01,-0.30,1018.83
10.265,0.03,0.97,-0.01,0.13,0.14,0.87,0.10,-0.01,-0.30,1018.83
10.266,0.03,0.97,-0.01,0.13,0.14,0.87,0.10,-0.01,-0.30,1018.84
10.294,0.03,0.97,-0.01,0.13,0.14,0.87,0.09,-0.00,-0.27,1018.84
10.295,0.01,0.97,-0.01,0.13,0.14,0.87,0.09,-0.00,-0.27,1018.84
10.304,0.01,0.97,-0.00,0.13,0.14,0.87,0.09,-0.00,-0.27,1018.84
10.304,0.01,0.97,-0.00,0.13,0.14,0.87,0.09,-0.00,-0.27,1018.90
10.314,0.01,0.98,-0.04,0.13,0.14,0.87,0.09,-0.00,-0.27,1018.90
10.315,0.01,0.98,-0.04,0.11,0.15,0.35,0.09,-0.00,-0.27,1018.90
10.34,-0.01,0.98,-0.07,0.11,0.15,0.35,0.09,-0.00,-0.27,1018.90
10.364,0.03,0.99,-0.02,0.11,0.15,0.35,0.09,-0.00,-0.27,1018.90
10.365,0.03,0.99,-0.02,0.11,0.15,0.35,0.15,-0.05,-0.29,1018.90
10.385,0.01,1.00,-0.03,0.11,0.15,0.35,0.15,-0.05,-0.29,1018.90
10.385,0.01,1.00,-0.03,0.11,0.15,0.35,0.15,-0.05,-0.29,1018.93
10.386,0.01,1.00,-0.03,0.21,0.16,0.60,0.15,-0.05,-0.29,1018.93
10.435,0.01,1.00,-0.03,0.21,0.16,0.60,0.26,-0.07,-0.49,1018.93
10.436,0.04,1.03,-0.03,0.21,0.16,0.60,0.26,-0.07,-0.49,1018.93
10.437,0.04,1.04,-0.06,0.21,0.16,0.60,0.26,-0.07,-0.49,1018.93
10.44,0.07,1.07,-0.10,0.21,0.16,0.60,0.26,-0.07,-0.49,1018.93
10.455,0.07,1.10,-0.14,0.21,0.16,0.60,0.26,-0.07,-0.49,1018.93
10.455,0.07,1.10,-0.14,0.48,0.39,0.50,0.26,-0.07,-0.49,1018.93
10.465,0.07,1.10,-0.14,0.48,0.39,0.50,0.26,-0.07,-0.49,1018.90
10.505,0.09,1.11,-0.12,0.48,0.39,0.50,0.26,-0.07,-0.49,1018.90
10.506,0.12,1.17,-0.12,0.48,0.39,0.50,0.26,-0.07,-0.49,1018.90
10.506,0.12,1.17,-0.12,0.48,0.39,0.50,0.26,-0.07,-0.49,1019.00
10.507,0.12,1.17,-0.12,0.48,0.39,0.50,0.22,-0.10,-1.05,1019.00
10.517,0.13,1.20,-0.11,0.48,0.39,0.50,0.22,-0.10,-1.05,1019.00
10.525,0.13,1.20,-0.11,1.34,1.09,0.17,0.22,-0.10,-1.05,1019.00
10.535,0.12,1.22,-0.14,1.34,1.09,0.17,0.22,-0.10,-1.05,1019.00
10.575,0.12,1.22,-0.14,1.34,1.09,0.17,0.25,-0.14,-2.09,1019.00
10.576,0.16,1.34,-0.20,1.34,1.09,0.17,0.25,-0.14,-2.09,1019.00
10.586,0.23,1.38,-0.13,1.34,1.09,0.17,0.25,-0.14,-2.09,1019.00
10.586,0.23,1.38,-0.13,1.34,1.09,0.17,0.25,-0.14,-2.09,1019.20
10.595,0.23,1.38,-0.13,2.75,2.18,0.05,0.25,-0.14,-2.09,1019.20
10.596,0.31,1.38,-0.09,2.75,2.18,0.05,0.25,-0.14,-2.09,1019.20
10.646,0.31,1.38,-0.09,2.75,2.18,0.05,0.20,0.19,-3.70,1019.20
10.647,0.38,1.43,-0.00,2.75,2.18,0.05,0.20,0.19,-3.70,1019.20
10.647,0.29,1.44,0.02,2.75,2.18,0.05,0.20,0.19,-3.70,1019.20
10.665,0.29,1.44,0.02,2.75,2.18,0.05,0.20,0.19,-3.70,1018.92
10.666,0.24,1.36,0.01,2.75,2.18,0.05,0.20,0.19,-3.70,1018.92
10.666,0.24,1.36,0.01,5.41,4.40,-0.06,0.20,0.19,-3.70,1018.92
10.699,-0.05,1.34,0.25,5.41,4.40,-0.06,0.20,0.19,-3.70,1018.92
10.7,-0.07,1.20,0.36,5.41,4.40,-0.06,0.20,0.19,-3.70,1018.92
10.705,-0.07,1.20,0.36,5.41,4.40,-0.06,0.20,0.19,-3.70,1018.29
10.715,-0.07,1.20,0.36,5.41,4.40,-0.06,0.82,-0.18,-5.18,1018.29
10.718,-0.14,1.02,0.26,5.41,4.40,-0.06,0.82,-0.18,-5.18,1018.29
10.735,-0.98,-0.02,-0.16,5.41,4.40,-0.06,0.82,-0.18,-5.18,1018.29
10.736,-0.98,-0.02,-0.16,8.19,6.28,1.89,0.82,-0.18,-5.18,1018.29
10.786,-0.98,-0.02,-0.16,8.19,6.28,1.89,0.92,-2.23,-0.23,1018.29
10.787,-0.98,-0.02,-0.16,8.19,6.28,1.89,0.92,-2.23,-0.23,1018.50
10.787,-2.41,0.47,-0.51,8.19,6.28,1.89,0.92,-2.23,-0.23,1018.50
10.788,0.85,0.54,0.09,8.19,6.28,1.89,0.92,-2.23,-0.23,1018.50
10.806,0.62,0.54,-0.13,8.19,6.28,1.89,0.92,-2.23,-0.23,1018.50
10.806,0.62,0.54,-0.13,4.21,2.69,3.25,0.92,-2.23,-0.23,1018.50
10.851,0.36,0.40,0.05,4.21,2.69,3.25,0.92,-2.23,-0.23,1018.50
10.852,-0.07,0.25,0.30,4.21,2.69,3.25,0.92,-2.23,-0.23,1018.50
10.855,-0.07,0.25,0.30,4.21,2.69,3.25,0.43,-1.61,2.51,1018.50
10.866,0.04,0.30,0.23,4.21,2.69,3.25,0.43,-1.61,2.51,1018.50
10.866,0.04,0.30,0.23,4.21,2.69,3.25,0.43,-1.61,2.51,1018.66
10.878,0.21,0.47,0.11,4.21,2.69,3.25,0.43,-1.61,2.51,1018.66
10.883,0.21,0.47,0.11,5.06,-1.21,-1.17,0.43,-1.61,2.51,1018.66
10.905,0.06,0.55,0.09,5.06,-1.21,-1.17,0.43,-1.61,2.51,1018.66
10.906,0.06,0.55,0.09,5.06,-1.21,-1.17,0.43,-1.61,2.51,1018.77
10.919,0.09,0.66,0.04,5.06,-1.21,-1.17,0.43,-1.61,2.51,1018.77
10.924,0.09,0.66,0.04,5.06,-1.21,-1.17,1.12,0.07,4.86,1018.77
10.941,0.22,0.84,-0.04,5.06,-1.21,-1.17,1.12,0.07,4.86,1018.77
10.945,0.22,0.84,-0.04,5.98,-4.34,2.37,1.12,0.07,4.86,1018.77
10.985,0.28,1.11,-0.07,5.98,-4.34,2.37,1.12,0.07,4.86,1018.77
10.987,0.22,1.38,0.00,5.98,-4.34,2.37,1.12,0.07,4.86,1018.77
10.988,0.22,1.38,0.00,5.98,-4.34,2.37,1.12,0.07,4.86,1018.94
10.998,0.22,1.38,0.00,5.98,-4.34,2.37,0.86,0.12,5.04,1018.94
11.015,0.22,1.38,0.00,3.41,-1.73,1.24,0.86,0.12,5.04,1018.94
11.016,0.19,1.64,0.02,3.41,-1.73,1.24,0.86,0.12,5.04,1018.94
11.016,-0.22,1.72,0.01,3.41,-1.73,1.24,0.86,0.12,5.04,1018.94
11.051,-0.36,1.73,-0.11,3.41,-1.73,1.24,0.86,0.12,5.04,1018.94
11.065,-0.36,1.73,-0.11,3.41,-1.73,1.24,0.18,-0.06,4.91,1018.94
11.066,-0.36,1.73,-0.11,3.41,-1.73,1.24,0.18,-0.06,4.91,1019.00
11.067,-0.25,1.81,-0.28,3.41,-1.73,1.24,0.18,-0.06,4.91,1019.00
11.085,-0.43,1.75,-0.17,3.41,-1.73,1.24,0.18,-0.06,4.91,1019.00
11.086,-0.43,1.75,-0.17,-0.14,5.82,1.41,0.18,-0.06,4.91,1019.00
11.101,-0.60,1.61,0.16,-0.14,5.82,1.41,0.18,-0.06,4.91,1019.00
11.106,-0.60,1.61,0.16,-0.14,5.82,1.41,0.18,-0.06,4.91,1018.99
11.118,-0.94,1.68,0.10,-0.14,5.82,1.41,0.18,-0.06,4.91,1018.99
11.134,-0.94,1.68,0.10,-0.14,5.82,1.41,-0.01,-0.30,3.30,1018.99
11.155,-0.94,1.68,0.10,-7.49,8.66,0.15,-0.01,-0.30,3.30,1018.99
11.156,-1.83,1.50,0.10,-7.49,8.66,0.15,-0.01,-0.30,3.30,1018.99
11.157,-1.86,1.19,-0.12,-7.49,8.66,0.15,-0.01,-0.30,3.30,1018.99
11.185,-1.30,1.25,-0.20,-7.49,8.66,0.15,-0.01,-0.30,3.30,1018.99
11.186,-1.30,1.25,-0.20,-7.49,8.66,0.15,-0.01,-0.30,3.30,1019.06
11.205,-1.30,1.25,-0.20,-7.49,8.66,0.15,-0.70,-1.52,-1.68,1019.06
11.206,1.12,1.90,-0.65,-7.49,8.66,0.15,-0.70,-1.52,-1.68,1019.06
11.225,1.12,1.90,-0.65,-18.06,6.27,2.08,-0.70,-1.52,-1.68,1019.06
11.227,0.91,1.02,-0.46,-18.06,6.27,2.08,-0.70,-1.52,-1.68,1019.06
11.252,0.50,1.08,-0.05,-18.06,6.27,2.08,-0.70,-1.52,-1.68,1019.06
11.268,-0.82,1.13,-0.10,-18.06,6.27,2.08,-0.70,-1.52,-1.68,1019.06
11.269,-0.82,1.13,-0.10,-18.06,6.27,2.08,-0.70,-1.52,-1.68,1019.38
11.276,-0.82,1.13,-0.10,-18.06,6.27,2.08,-1.07,-0.64,-2.74,1019.38
11.298,-0.82,1.13,-0.10,0.63,3.91,-2.45,-1.07,-0.64,-2.74,1019.38
11.299,-0.35,1.08,0.24,0.63,3.91,-2.45,-1.07,-0.64,-2.74,1019.38
11.299,-0.30,1.06,-0.20,0.63,3.91,-2.45,-1.07,-0.64,-2.74,1019.38
11.305,-0.30,1.06,-0.20,0.63,3.91,-2.45,-1.07,-0.64,-2.74,1019.79
11.317,-0.03,0.98,-0.05,0.63,3.91,-2.45,-1.07,-0.64,-2.74,1019.79
11.346,-0.03,0.96,0.08,0.63,3.91,-2.45,-1.07,-0.64,-2.74,1019.79
11.347,-0.03,0.96,0.08,0.63,3.91,-2.45,-0.61,-0.24,-0.83,1019.79
11.366,-0.03,0.96,0.08,-4.61,1.58,0.48,-0.61,-0.24,-0.83,1019.79
11.366,0.03,0.97,0.11,-4.61,1.58,0.48,-0.61,-0.24,-0.83,1019.79
11.385,0.02,0.98,0.03,-4.61,1.58,0.48,-0.61,-0.24,-0.83,1019.79
11.386,0.02,0.98,0.03,-4.61,1.58,0.48,-0.61,-0.24,-0.83,1019.48
11.416,0.02,0.98,0.03,-4.61,1.58,0.48,-0.23,-0.11,-0.35,1019.48
11.417,0.02,0.99,0.01,-4.61,1.58,0.48,-0.23,-0.11,-0.35,1019.48
11.435,0.02,0.99,0.01,-0.73,0.16,0.91,-0.23,-0.11,-0.35,1019.48
11.437,0.07,1.01,-0.02,-0.73,0.16,0.91,-0.23,-0.11,-0.35,1019.48
11.438,0.09,1.00,0.01,-0.73,0.16,0.91,-0.23,-0.11,-0.35,1019.48
11.467,0.09,0.99,0.05,-0.73,0.16,0.91,-0.23,-0.11,-0.35,1019.48
11.469,0.09,0.99,0.05,-0.73,0.16,0.91,-0.23,-0.11,-0.35,1019.11
11.485,0.09,0.99,0.05,-0.73,0.16,0.91,-0.06,0.01,-0.29,1019.11
11.486,0.10,0.98,0.04,-0.73,0.16,0.91,-0.06,0.01,-0.29,1019.11
11.505,0.04,0.97,0.00,-0.73,0.16,0.91,-0.06,0.01,-0.29,1019.11
11.506,0.04,0.97,0.00,-0.73,0.16,0.91,-0.06,0.01,-0.29,1018.92
11.507,0.04,0.97,0.00,0.04,0.38,0.39,-0.06,0.01,-0.29,1018.92
11.518,0.04,0.98,-0.01,0.04,0.38,0.39,-0.06,0.01,-0.29,1018.92
11.541,0.03,0.98,-0.02,0.04,0.38,0.39,-0.06,0.01,-0.29,1018.92
11.555,0.03,0.98,-0.02,0.04,0.38,0.39,0.08,0.01,-0.29,1018.92
11.575,0.03,0.98,-0.02,0.41,0.20,0.66,0.08,0.01,-0.29,1018.92
11.576,0.03,0.98,-0.02,0.41,0.20,0.66,0.08,0.01,-0.29,1018.92
11.576,0.04,0.98,-0.02,0.41,0.20,0.66,0.08,0.01,-0.29,1018.92
11.585,0.04,0.98,-0.02,0.41,0.20,0.66,0.08,0.01,-0.29,1018.88
11.626,0.04,0.98,-0.02,0.41,0.20,0.66,0.11,0.01,-0.30,1018.88
11.627,0.03,0.98,0.00,0.41,0.20,0.66,0.11,0.01,-0.30,1018.88
11.628,0.03,0.99,-0.02,0.41,0.20,0.66,0.11,0.01,-0.30,1018.88
11.645,0.00,0.98,-0.04,0.41,0.20,0.66,0.11,0.01,-0.30,1018.88
11.646,0.00,0.98,-0.04,0.25,0.18,0.26,0.11,0.01,-0.30,1018.88
11.665,0.02,0.99,-0.02,0.25,0.18,0.26,0.11,0.01,-0.30,1018.88
11.666,0.02,0.99,-0.02,0.25,0.18,0.26,0.11,0.01,-0.30,1018.84
11.695,0.02,0.99,-0.02,0.25,0.18,0.26,0.18,-0.03,-0.30,1018.84
11.696,-0.01,0.99,-0.01,0.25,0.18,0.26,0.18,-0.03,-0.30,1018.84
11.698,0.01,0.98,0.01,0.25,0.18,0.26,0.18,-0.03,-0.30,1018.84
11.706,0.01,0.98,0.01,0.25,0.18,0.26,0.18,-0.03,-0.30,1018.84
11.715,0.05,1.01,-0.03,0.25,0.18,0.26,0.18,-0.03,-0.30,1018.84
11.716,0.05,1.01,-0.03,0.29,0.21,0.31,0.18,-0.03,-0.30,1018.84
11.765,0.05,1.01,-0.03,0.29,0.21,0.31,0.30,-0.01,-0.48,1018.84
11.766,0.05,1.04,-0.07,0.29,0.21,0.31,0.30,-0.01,-0.48,1018.84
11.766,0.11,1.08,-0.07,0.29,0.21,0.31,0.30,-0.01,-0.48,1018.84
11.786,0.09,1.09,-0.10,0.29,0.21,0.31,0.30,-0.01,-0.48,1018.84
11.786,0.09,1.09,-0.10,0.29,0.21,0.31,0.30,-0.01,-0.48,1018.86
11.787,0.09,1.09,-0.10,0.45,0.31,0.60,0.30,-0.01,-0.48,1018.86
11.837,0.11,1.14,-0.16,0.45,0.31,0.60,0.30,-0.01,-0.48,1018.86
11.838,0.16,1.18,-0.17,0.45,0.31,0.60,0.30,-0.01,-0.48,1018.86
11.838,0.18,1.27,-0.18,0.45,0.31,0.60,0.30,-0.01,-0.48,1018.86
11.839,0.18,1.27,-0.18,0.45,0.31,0.60,0.14,-0.05,-1.19,1018.86
11.855,0.21,1.32,-0.23,0.45,0.31,0.60,0.14,-0.05,-1.19,1018.86
11.856,0.21,1.32,-0.23,1.62,1.19,-0.05,0.14,-0.05,-1.19,1018.86
11.865,0.21,1.32,-0.23,1.62,1.19,-0.05,0.14,-0.05,-1.19,1018.94
11.905,0.21,1.32,-0.23,1.62,1.19,-0.05,-0.13,-0.18,-2.47,1018.94
11.907,0.21,1.32,-0.23,1.62,1.19,-0.05,-0.13,-0.18,-2.47,1019.07
11.907,0.18,1.34,-0.21,1.62,1.19,-0.05,-0.13,-0.18,-2.47,1019.07
11.908,0.28,1.43,-0.20,1.62,1.19,-0.05,-0.13,-0.18,-2.47,1019.07
11.917,0.38,1.42,0.02,1.62,1.19,-0.05,-0.13,-0.18,-2.47,1019.07
11.925,0.38,1.42,0.02,3.47,2.89,-1.03,-0.13,-0.18,-2.47,1019.07
11.941,0.52,1.44,0.20,3.47,2.89,-1.03,-0.13,-0.18,-2.47,1019.07
11.975,0.52,1.44,0.20,3.47,2.89,-1.03,-0.12,0.47,-4.44,1019.07
11.976,0.49,1.48,0.13,3.47,2.89,-1.03,-0.12,0.47,-4.44,1019.07
11.987,0.29,1.43,0.07,3.47,2.89,-1.03,-0.12,0.47,-4.44,1019.07
11.989,0.29,1.43,0.07,3.47,2.89,-1.03,-0.12,0.47,-4.44,1018.80
11.996,0.29,1.43,0.07,6.78,4.98,-0.06,-0.12,0.47,-4.44,1018.80
11.997,-0.11,1.36,0.21,6.78,4.98,-0.06,-0.12,0.47,-4.44,1018.80
12.046,-0.11,1.36,0.21,6.78,4.98,-0.06,0.49,0.08,-5.24,1018.80
12.048,-0.04,1.25,0.33,6.78,4.98,-0.06,0.49,0.08,-5.24,1018.80
12.048,-0.27,0.82,0.10,6.78,4.98,-0.06,0.49,0.08,-5.24,1018.80
12.065,-2.01,0.03,-0.54,6.78,4.98,-0.06,0.49,0.08,-5.24,1018.80
12.067,-2.01,0.03,-0.54,6.78,4.98,-0.06,0.49,0.08,-5.24,1018.37
12.068,-2.01,0.03,-0.54,8.99,7.07,2.42,0.49,0.08,-5.24,1018.37
12.105,-2.01,0.03,-0.54,8.99,7.07,2.42,0.49,0.08,-5.24,1018.65
12.107,-0.35,0.46,0.53,8.99,7.07,2.42,0.49,0.08,-5.24,1018.65
12.107,0.94,0.60,-0.18,8.99,7.07,2.42,0.49,0.08,-5.24,1018.65
12.116,0.94,0.60,-0.18,8.99,7.07,2.42,0.26,-1.20,1.17,1018.65
12.118,0.51,0.53,-0.30,8.99,7.07,2.42,0.26,-1.20,1.17,1018.65
12.135,0.06,0.27,0.30,8.99,7.07,2.42,0.26,-1.20,1.17,1018.65
12.136,0.06,0.27,0.30,-0.79,0.91,1.29,0.26,-1.20,1.17,1018.65
12.185,-0.07,0.18,0.14,-0.79,0.91,1.29,0.26,-1.20,1.17,1018.65
12.186,0.26,0.41,-0.11,-0.79,0.91,1.29,0.26,-1.20,1.17,1018.65
12.187,0.26,0.41,-0.11,-0.79,0.91,1.29,0.37,-0.30,3.36,1018.65
12.188,0.26,0.41,-0.11,-0.79,0.91,1.29,0.37,-0.30,3.36,1018.78
12.205,0.27,0.54,-0.12,-0.79,0.91,1.29,0.37,-0.30,3.36,1018.78
12.206,0.27,0.54,-0.12,11.68,-2.16,0.63,0.37,-0.30,3.36,1018.78
12.251,0.16,0.64,-0.09,11.68,-2.16,0.63,0.37,-0.30,3.36,1018.78
12.253,0.12,0.78,-0.14,11.68,-2.16,0.63,0.37,-0.30,3.36,1018.78
12.255,0.12,0.78,-0.14,11.68,-2.16,0.63,0.80,-0.17,5.00,1018.78
12.265,0.19,0.95,-0.18,11.68,-2.16,0.63,0.80,-0.17,5.00,1018.78
12.265,0.19,0.95,-0.18,11.68,-2.16,0.63,0.80,-0.17,5.00,1018.82
12.275,0.22,1.17,-0.17,11.68,-2.16,0.63,0.80,-0.17,5.00,1018.82
12.276,0.22,1.17,-0.17,5.77,-4.14,0.30,0.80,-0.17,5.00,1018.82
12.305,0.27,1.45,-0.19,5.77,-4.14,0.30,0.80,-0.17,5.00,1018.82
12.307,0.27,1.45,-0.19,5.77,-4.14,0.30,0.80,-0.17,5.00,1018.91
12.318,0.17,1.73,-0.23,5.77,-4.14,0.30,0.80,-0.17,5.00,1018.91
12.325,0.17,1.73,-0.23,5.77,-4.14,0.30,0.63,-0.01,5.32,1018.91
12.345,-0.04,1.86,-0.20,5.77,-4.14,0.30,0.63,-0.01,5.32,1018.91
12.346,-0.04,1.86,-0.20,2.57,-0.08,-0.32,0.63,-0.01,5.32,1018.91
12.386,-0.04,1.86,-0.20,2.57,-0.08,-0.32,0.63,-0.01,5.32,1018.82
12.387,-0.01,2.09,-0.22,2.57,-0.08,-0.32,0.63,-0.01,5.32,1018.82
12.388,-0.57,2.22,-0.30,2.57,-0.08,-0.32,0.63,-0.01,5.32,1018.82
12.406,-0.57,2.22,-0.30,2.57,-0.08,-0.32,0.01,0.68,4.89,1018.82
12.407,-1.31,1.85,0.14,2.57,-0.08,-0.32,0.01,0.68,4.89,1018.82
12.416,-1.79,1.69,0.06,2.57,-0.08,-0.32,0.01,0.68,4.89,1018.82
12.417,-1.79,1.69,0.06,-1.26,8.00,-0.53,0.01,0.68,4.89,1018.82
12.441,-2.45,1.44,0.25,-1.26,8.00,-0.53,0.01,0.68,4.89,1018.82
12.467,-1.58,1.38,-0.18,-1.26,8.00,-0.53,0.01,0.68,4.89,1018.82
12.468,-1.58,1.38,-0.18,-1.26,8.00,-0.53,0.01,0.68,4.89,1019.07
12.469,-1.58,1.38,-0.18,-1.26,8.00,-0.53,-0.27,-0.22,0.92,1019.07
12.486,-1.28,1.22,-0.04,-1.26,8.00,-0.53,-0.27,-0.22,0.92,1019.07
12.487,-1.28,1.22,-0.04,-14.90,11.06,0.54,-0.27,-0.22,0.92,1019.07
12.505,1.17,1.62,-0.49,-14.90,11.06,0.54,-0.27,-0.22,0.92,1019.07
12.506,1.17,1.62,-0.49,-14.90,11.06,0.54,-0.27,-0.22,0.92,1019.06
12.518,1.28,0.99,-0.60,-14.90,11.06,0.54,-0.27,-0.22,0.92,1019.06
12.535,1.28,0.99,-0.60,-14.90,11.06,0.54,-1.01,-1.38,-3.12,1019.06
12.555,1.28,0.99,-0.60,-16.44,6.88,0.53,-1.01,-1.38,-3.12,1019.06
12.557,0.34,1.13,-0.23,-16.44,6.88,0.53,-1.01,-1.38,-3.12,1019.06
12.558,-1.34,1.15,0.07,-16.44,6.88,0.53,-1.01,-1.38,-3.12,1019.06
12.587,0.01,1.11,0.34,-16.44,6.88,0.53,-1.01,-1.38,-3.12,1019.06
12.588,0.01,1.11,0.34,-16.44,6.88,0.53,-1.01,-1.38,-3.12,1019.56
12.608,0.01,1.11,0.34,-16.44,6.88,0.53,-0.64,-0.72,-1.69,1019.56
12.609,-0.44,1.11,-0.35,-16.44,6.88,0.53,-0.64,-0.72,-1.69,1019.56
12.625,-0.44,1.11,-0.35,0.93,0.14,-2.06,-0.64,-0.72,-1.69,1019.56
12.627,0.05,1.01,-0.11,0.93,0.14,-2.06,-0.64,-0.72,-1.69,1019.56
12.652,-0.14,0.95,0.12,0.93,0.14,-2.06,-0.64,-0.72,-1.69,1019.56
12.665,0.05,0.98,0.10,0.93,0.14,-2.06,-0.64,-0.72,-1.69,1019.56
12.666,0.05,0.98,0.10,0.93,0.14,-2.06,-0.64,-0.72,-1.69,1019.65
12.676,0.05,0.98,0.10,0.93,0.14,-2.06,-0.45,-0.13,-0.57,1019.65
12.696,0.05,0.98,0.10,-1.93,0.96,0.23,-0.45,-0.13,-0.57,1019.65
12.697,-0.01,0.97,0.05,-1.93,0.96,0.23,-0.45,-0.13,-0.57,1019.65
12.698,-0.00,0.98,0.07,-1.93,0.96,0.23,-0.45,-0.13,-0.57,1019.65
12.705,-0.00,0.98,0.07,-1.93,0.96,0.23,-0.45,-0.13,-0.57,1019.21
12.718,0.03,1.01,-0.02,-1.93,0.96,0.23,-0.45,-0.13,-0.57,1019.21
12.742,0.07,1.01,-0.00,-1.93,0.96,0.23,-0.45,-0.13,-0.57,1019.21
12.745,0.07,1.01,-0.00,-1.93,0.96,0.23,-0.14,-0.01,-0.26,1019.21
12.771,0.07,1.01,-0.00,-0.42,0.16,1.00,-0.14,-0.01,-0.26,1019.21
12.772,0.06,1.00,0.02,-0.42,0.16,1.00,-0.14,-0.01,-0.26,1019.21
12.789,0.05,0.99,0.04,-0.42,0.16,1.00,-0.14,-0.01,-0.26,1019.21
12.79,0.05,0.99,0.04,-0.42,0.16,1.00,-0.14,-0.01,-0.26,1018.92
12.816,0.05,0.98,0.05,-0.42,0.16,1.00,-0.14,-0.01,-0.26,1018.92
12.818,0.05,0.98,0.05,-0.42,0.16,1.00,-0.02,0.06,-0.26,1018.92
12.836,0.05,0.98,0.05,0.31,0.42,0.17,-0.02,0.06,-0.26,1018.92
12.837,0.04,0.97,0.04,0.31,0.42,0.17,-0.02,0.06,-0.26,1018.92
12.838,0.04,0.97,0.04,0.31,0.42,0.17,-0.02,0.06,-0.26,1018.92
12.871,0.02,0.97,0.02,0.31,0.42,0.17,-0.02,0.06,-0.26,1018.92
12.872,0.02,0.97,0.02,0.31,0.42,0.17,-0.02,0.06,-0.26,1018.79
12.889,0.02,0.97,0.02,0.31,0.42,0.17,0.13,0.07,-0.30,1018.79
12.891,0.04,0.97,0.06,0.31,0.42,0.17,0.13,0.07,-0.30,1018.79
12.906,0.00,0.97,0.02,0.31,0.42,0.17,0.13,0.07,-0.30,1018.79
12.908,0.00,0.97,0.02,0.31,0.42,0.17,0.13,0.07,-0.30,1018.80
12.908,0.00,0.97,0.02,0.36,0.14,0.59,0.13,0.07,-0.30,1018.80
12.918,-0.03,0.98,-0.04,0.36,0.14,0.59,0.13,0.07,-0.30,1018.80
12.942,-0.00,0.97,0.02,0.36,0.14,0.59,0.13,0.07,-0.30,1018.80
12.956,-0.00,0.97,0.02,0.36,0.14,0.59,0.21,0.01,-0.30,1018.80
12.977,-0.00,0.97,0.02,0.32,0.08,0.51,0.21,0.01,-0.30,1018.80
12.978,-0.02,0.98,0.01,0.32,0.08,0.51,0.21,0.01,-0.30,1018.80
12.978,0.02,0.99,0.01,0.32,0.08,0.51,0.21,0.01,-0.30,1018.80
12.989,0.02,0.99,0.01,0.32,0.08,0.51,0.21,0.01,-0.30,1018.91
13.026,0.02,0.99,0.01,0.32,0.08,0.51,0.28,0.06,-0.39,1018.91
13.027,0.03,1.01,-0.02,0.32,0.08,0.51,0.28,0.06,-0.39,1018.91
13.028,0.02,1.03,-0.04,0.32,0.08,0.51,0.28,0.06,-0.39,1018.91
13.045,0.05,1.06,-0.05,0.32,0.08,0.51,0.28,0.06,-0.39,1018.91
13.047,0.05,1.06,-0.05,0.31,0.19,0.47,0.28,0.06,-0.39,1018.91
13.065,0.08,1.09,-0.09,0.31,0.19,0.47,0.28,0.06,-0.39,1018.91
13.066,0.08,1.09,-0.09,0.31,0.19,0.47,0.28,0.06,-0.39,1018.98
13.098,0.09,1.13,-0.15,0.31,0.19,0.47,0.28,0.06,-0.39,1018.98
13.099,0.09,1.13,-0.15,0.31,0.19,0.47,0.15,0.08,-0.84,1018.98
13.105,0.09,1.16,-0.18,0.31,0.19,0.47,0.15,0.08,-0.84,1018.98
13.105,0.09,1.16,-0.18,0.31,0.19,0.47,0.15,0.08,-0.84,1019.04
13.117,0.09,1.16,-0.18,1.08,0.80,0.15,0.15,0.08,-0.84,1019.04
13.118,0.14,1.20,-0.12,1.08,0.80,0.15,0.15,0.08,-0.84,1019.04
13.135,0.15,1.25,-0.16,1.08,0.80,0.15,0.15,0.08,-0.84,1019.04
13.171,0.15,1.31,-0.23,1.08,0.80,0.15,0.15,0.08,-0.84,1019.04
13.176,0.15,1.31,-0.23,1.08,0.80,0.15,-0.19,-0.06,-1.83,1019.04
13.189,0.22,1.37,-0.21,1.08,0.80,0.15,-0.19,-0.06,-1.83,1019.04
13.19,0.22,1.37,-0.21,1.08,0.80,0.15,-0.19,-0.06,-1.83,1019.00
13.19,0.22,1.37,-0.21,2.43,1.94,-0.80,-0.19,-0.06,-1.83,1019.00
13.237,0.35,1.48,-0.19,2.43,1.94,-0.80,-0.19,-0.06,-1.83,1019.00
13.239,0.57,1.52,0.10,2.43,1.94,-0.80,-0.19,-0.06,-1.83,1019.00
13.24,0.57,1.52,0.10,2.43,1.94,-0.80,-0.51,0.19,-3.57,1019.00
13.251,0.64,1.55,0.25,2.43,1.94,-0.80,-0.51,0.19,-3.57,1019.00
13.255,0.53,1.53,0.11,2.43,1.94,-0.80,-0.51,0.19,-3.57,1019.00
13.256,0.53,1.53,0.11,4.83,4.03,-1.60,-0.51,0.19,-3.57,1019.00
13.267,0.53,1.53,0.11,4.83,4.03,-1.60,-0.51,0.19,-3.57,1018.80
13.306,-0.05,1.49,0.07,4.83,4.03,-1.60,-0.51,0.19,-3.57,1018.80
13.307,-0.19,1.37,0.29,4.83,4.03,-1.60,-0.51,0.19,-3.57,1018.80
13.308,-0.19,1.37,0.29,4.83,4.03,-1.60,-0.51,0.19,-3.57,1018.45
13.309,-0.19,1.37,0.29,4.83,4.03,-1.60,-0.41,0.96,-5.72,1018.45
13.324,-0.12,1.25,0.17,4.83,4.03,-1.60,-0.41,0.96,-5.72,1018.45
13.326,-0.12,1.25,0.17,10.91,7.18,1.36,-0.41,0.96,-5.72,1018.45
13.341,-0.56,-0.02,-0.11,10.91,7.18,1.36,-0.41,0.96,-5.72,1018.45
13.376,-0.56,-0.02,-0.11,10.91,7.18,1.36,-0.13,0.13,-1.49,1018.45
13.378,-1.75,0.48,0.11,10.91,7.18,1.36,-0.13,0.13,-1.49,1018.45
13.395,0.81,0.48,-0.07,10.91,7.18,1.36,-0.13,0.13,-1.49,1018.45
13.396,0.81,0.48,-0.07,10.91,7.18,1.36,-0.13,0.13,-1.49,1018.49
13.396,0.51,0.44,-0.17,10.91,7.18,1.36,-0.13,0.13,-1.49,1018.49
13.397,0.51,0.44,-0.17,6.77,6.40,1.95,-0.13,0.13,-1.49,1018.49
13.442,0.05,0.23,0.04,6.77,6.40,1.95,-0.13,0.13,-1.49,1018.49
13.443,-0.23,0.15,0.13,6.77,6.40,1.95,-0.13,0.13,-1.49,1018.49
13.446,-0.23,0.15,0.13,6.77,6.40,1.95,-0.33,-0.29,2.52,1018.49
13.465,-0.23,0.15,0.13,6.77,6.40,1.95,-0.33,-0.29,2.52,1018.68
13.466,0.19,0.35,-0.06,6.77,6.40,1.95,-0.33,-0.29,2.52,1018.68
13.467,0.19,0.35,-0.06,4.55,-2.25,-0.50,-0.33,-0.29,2.52,1018.68
13.505,0.29,0.47,-0.11,4.55,-2.25,-0.50,-0.33,-0.29,2.52,1018.68
13.506,0.20,0.56,-0.06,4.55,-2.25,-0.50,-0.33,-0.29,2.52,1018.68
13.507,0.20,0.56,-0.06,4.55,-2.25,-0.50,-0.33,-0.29,2.52,1018.78
13.515,0.20,0.56,-0.06,4.55,-2.25,-0.50,0.10,0.60,4.88,1018.78
13.517,0.13,0.71,-0.12,4.55,-2.25,-0.50,0.10,0.60,4.88,1018.78
13.536,0.22,0.92,-0.23,4.55,-2.25,-0.50,0.10,0.60,4.88,1018.78
13.537,0.22,0.92,-0.23,5.81,-4.88,0.33,0.10,0.60,4.88,1018.78
13.585,0.22,0.92,-0.23,5.81,-4.88,0.33,0.10,0.60,4.88,1018.96
13.586,0.18,1.08,-0.32,5.81,-4.88,0.33,0.10,0.60,4.88,1018.96
13.587,0.13,1.28,-0.38,5.81,-4.88,0.33,0.10,0.60,4.88,1018.96
13.588,0.13,1.28,-0.38,5.81,-4.88,0.33,0.31,1.14,5.27,1018.96
13.606,0.32,1.61,-0.41,5.81,-4.88,0.33,0.31,1.14,5.27,1018.96
13.607,0.32,1.61,-0.41,4.15,-2.10,-0.71,0.31,1.14,5.27,1018.96
13.651,0.03,1.82,-0.38,4.15,-2.10,-0.71,0.31,1.14,5.27,1018.96
13.653,-0.38,1.86,-0.52,4.15,-2.10,-0.71,0.31,1.14,5.27,1018.96
13.656,-0.38,1.86,-0.52,4.15,-2.10,-0.71,-0.24,0.38,4.43,1018.96
13.664,-0.81,1.87,-0.63,4.15,-2.10,-0.71,-0.24,0.38,4.43,1018.96
13.665,-0.81,1.87,-0.63,4.15,-2.10,-0.71,-0.24,0.38,4.43,1019.00
13.676,-1.20,1.63,-0.27,4.15,-2.10,-0.71,-0.24,0.38,4.43,1019.00
13.677,-1.20,1.63,-0.27,1.06,4.45,-2.88,-0.24,0.38,4.43,1019.00
13.7,-1.04,1.50,0.28,1.06,4.45,-2.88,-0.24,0.38,4.43,1019.00
13.704,-1.04,1.50,0.28,1.06,4.45,-2.88,-0.24,0.38,4.43,1019.00
13.718,-1.31,1.73,-0.02,1.06,4.45,-2.88,-0.24,0.38,4.43,1019.00
13.726,-1.31,1.73,-0.02,1.06,4.45,-2.88,0.40,-0.70,3.74,1019.00
13.741,-1.90,1.62,-0.18,1.06,4.45,-2.88,0.40,-0.70,3.74,1019.00
13.747,-1.90,1.62,-0.18,-10.44,8.96,-3.68,0.40,-0.70,3.74,1019.00
13.797,-1.60,1.08,0.02,-10.44,8.96,-3.68,0.40,-0.70,3.74,1019.00
13.8,0.22,2.74,-0.20,-10.44,8.96,-3.68,0.40,-0.70,3.74,1019.00
13.801,0.22,2.74,-0.20,-10.44,8.96,-3.68,0.40,-0.70,3.74,1019.01
13.802,0.22,2.74,-0.20,-10.44,8.96,-3.68,-0.63,-0.82,-1.58,1019.01
13.816,0.22,2.74,-0.20,-18.61,6.96,1.24,-0.63,-0.82,-1.58,1019.01
13.817,1.57,0.42,-0.11,-18.61,6.96,1.24,-0.63,-0.82,-1.58,1019.01
13.818,0.85,0.94,-0.53,-18.61,6.96,1.24,-0.63,-0.82,-1.58,1019.01
13.852,-0.81,1.27,-0.05,-18.61,6.96,1.24,-0.63,-0.82,-1.58,1019.01
13.865,-0.68,1.13,0.41,-18.61,6.96,1.24,-0.63,-0.82,-1.58,1019.01
13.866,-0.68,1.13,0.41,-18.61,6.96,1.24,-0.63,-0.82,-1.58,1019.27
13.867,-0.68,1.13,0.41,-18.61,6.96,1.24,-0.78,-0.46,-3.21,1019.27
13.89,-0.44,1.14,-0.15,-18.61,6.96,1.24,-0.78,-0.46,-3.21,1019.27
13.891,-0.44,1.14,-0.15,3.14,3.80,-1.59,-0.78,-0.46,-3.21,1019.27
13.907,-0.17,1.03,-0.22,3.14,3.80,-1.59,-0.78,-0.46,-3.21,1019.27
13.908,-0.17,1.03,-0.22,3.14,3.80,-1.59,-0.78,-0.46,-3.21,1019.79
13.921,-0.04,0.97,0.04,3.14,3.80,-1.59,-0.78,-0.46,-3.21,1019.79
13.937,-0.04,0.97,0.04,3.14,3.80,-1.59,-0.55,-0.33,-0.81,1019.79
13.941,-0.01,0.97,0.16,3.14,3.80,-1.59,-0.55,-0.33,-0.81,1019.79
13.956,0.00,0.98,0.11,3.14,3.80,-1.59,-0.55,-0.33,-0.81,1019.79
13.957,0.00,0.98,0.11,-6.71,2.03,0.45,-0.55,-0.33,-0.81,1019.79
13.99,0.02,0.99,0.06,-6.71,2.03,0.45,-0.55,-0.33,-0.81,1019.79
13.991,0.02,0.99,0.06,-6.71,2.03,0.45,-0.55,-0.33,-0.81,1019.39
14.008,0.02,0.99,0.06,-6.71,2.03,0.45,-0.19,-0.07,-0.34,1019.39
14.009,0.03,1.00,-0.01,-6.71,2.03,0.45,-0.19,-0.07,-0.34,1019.39
14.027,0.07,1.01,-0.01,-6.71,2.03,0.45,-0.19,-0.07,-0.34,1019.39
14.028,0.07,1.01,-0.01,-0.67,0.15,0.88,-0.19,-0.07,-0.34,1019.39
14.051,0.09,1.01,0.03,-0.67,0.15,0.88,-0.19,-0.07,-0.34,1019.39
14.064,0.05,0.99,0.05,-0.67,0.15,0.88,-0.19,-0.07,-0.34,1019.39
14.065,0.05,0.99,0.05,-0.67,0.15,0.88,-0.19,-0.07,-0.34,1019.06
14.076,0.05,0.99,0.05,-0.67,0.15,0.88,-0.14,0.06,-0.28,1019.06
14.096,0.05,0.99,0.05,0.10,0.40,0.12,-0.14,0.06,-0.28,1019.06
14.097,0.04,0.98,0.04,0.10,0.40,0.12,-0.14,0.06,-0.28,1019.06
14.098,0.04,0.98,0.07,0.10,0.40,0.12,-0.14,0.06,-0.28,1019.06
14.111,0.04,0.98,0.07,0.10,0.40,0.12,-0.14,0.06,-0.28,1018.80
14.119,0.03,0.98,0.05,0.10,0.40,0.12,-0.14,0.06,-0.28,1018.80
14.142,0.04,0.98,0.04,0.10,0.40,0.12,-0.14,0.06,-0.28,1018.80
14.146,0.04,0.98,0.04,0.10,0.40,0.12,-0.03,0.11,-0.28,1018.80
14.167,0.03,0.98,0.04,0.10,0.40,0.12,-0.03,0.11,-0.28,1018.80
14.168,0.03,0.98,0.04,0.36,0.25,0.39,-0.03,0.11,-0.28,1018.80
14.185,0.02,0.98,0.03,0.36,0.25,0.39,-0.03,0.11,-0.28,1018.80
14.186,0.02,0.98,0.03,0.36,0.25,0.39,-0.03,0.11,-0.28,1018.81
14.217,0.02,0.98,0.03,0.36,0.25,0.39,0.03,0.07,-0.31,1018.81
14.218,0.00,0.98,0.02,0.36,0.25,0.39,0.03,0.07,-0.31,1018.81
14.236,0.00,0.98,0.02,0.34,0.17,0.28,0.03,0.07,-0.31,1018.81
14.237,-0.01,0.98,0.03,0.34,0.17,0.28,0.03,0.07,-0.31,1018.81
14.237,-0.01,0.99,0.04,0.34,0.17,0.28,0.03,0.07,-0.31,1018.81
14.265,0.04,0.99,0.09,0.34,0.17,0.28,0.03,0.07,-0.31,1018.81
14.266,0.04,0.99,0.09,0.34,0.17,0.28,0.03,0.07,-0.31,1018.85
14.286,0.04,0.99,0.09,0.34,0.17,0.28,0.14,0.05,-0.33,1018.85
14.288,0.02,1.00,0.05,0.34,0.17,0.28,0.14,0.05,-0.33,1018.85
14.304,0.03,1.01,0.04,0.34,0.17,0.28,0.14,0.05,-0.33,1018.85
14.305,0.03,1.01,0.04,0.34,0.17,0.28,0.14,0.05,-0.33,1018.90
14.306,0.03,1.01,0.04,0.19,0.21,0.27,0.14,0.05,-0.33,1018.90
14.318,0.06,1.05,0.03,0.19,0.21,0.27,0.14,0.05,-0.33,1018.90
14.357,0.06,1.05,0.03,0.19,0.21,0.27,0.19,0.19,-0.63,1018.90
14.359,0.05,1.06,-0.01,0.19,0.21,0.27,0.19,0.19,-0.63,1018.90
14.377,0.05,1.06,-0.01,0.81,0.44,0.60,0.19,0.19,-0.63,1018.90
14.378,0.12,1.12,-0.05,0.81,0.44,0.60,0.19,0.19,-0.63,1018.90
14.378,0.09,1.13,-0.08,0.81,0.44,0.60,0.19,0.19,-0.63,1018.90
14.385,0.09,1.13,-0.08,0.81,0.44,0.60,0.19,0.19,-0.63,1019.06
14.426,0.09,1.13,-0.08,0.81,0.44,0.60,-0.11,0.16,-1.40,1019.06
14.428,0.08,1.18,-0.16,0.81,0.44,0.60,-0.11,0.16,-1.40,1019.06
14.429,0.13,1.23,-0.15,0.81,0.44,0.60,-0.11,0.16,-1.40,1019.06
14.436,0.19,1.30,-0.15,0.81,0.44,0.60,-0.11,0.16,-1.40,1019.06
14.447,0.19,1.30,-0.15,1.91,1.35,-0.15,-0.11,0.16,-1.40,1019.06
14.465,0.25,1.38,-0.19,1.91,1.35,-0.15,-0.11,0.16,-1.40,1019.06
14.466,0.25,1.38,-0.19,1.91,1.35,-0.15,-0.11,0.16,-1.40,1019.06
14.496,0.25,1.38,-0.19,1.91,1.35,-0.15,-0.65,0.07,-2.88,1019.06
14.497,0.38,1.52,-0.19,1.91,1.35,-0.15,-0.65,0.07,-2.88,1019.06
14.504,0.61,1.63,-0.08,1.91,1.35,-0.15,-0.65,0.07,-2.88,1019.06
14.505,0.61,1.63,-0.08,1.91,1.35,-0.15,-0.65,0.07,-2.88,1018.89
14.516,0.79,1.66,0.22,1.91,1.35,-0.15,-0.65,0.07,-2.88,1018.89
14.517,0.79,1.66,0.22,3.69,3.07,-1.59,-0.65,0.07,-2.88,1018.89
14.567,0.79,1.66,0.22,3.69,3.07,-1.59,-1.17,0.92,-5.55,1018.89
14.567,0.61,1.66,0.01,3.69,3.07,-1.59,-1.17,0.92,-5.55,1018.89
14.567,0.08,1.58,-0.02,3.69,3.07,-1.59,-1.17,0.92,-5.55,1018.89
14.585,-0.30,1.48,0.14,3.69,3.07,-1.59,-1.17,0.92,-5.55,1018.89
14.585,-0.30,1.48,0.14,3.69,3.07,-1.59,-1.17,0.92,-5.55,1018.49
14.586,-0.30,1.48,0.14,9.91,7.06,-0.88,-1.17,0.92,-5.55,1018.49
14.637,-0.30,1.48,0.14,9.91,7.06,-0.88,-0.58,0.61,-3.31,1018.49
14.638,-0.46,1.22,-0.01,9.91,7.06,-0.88,-0.58,0.61,-3.31,1018.49
14.639,-0.79,-0.20,0.24,9.91,7.06,-0.88,-0.58,0.61,-3.31,1018.49
14.651,-1.07,0.48,0.45,9.91,7.06,-0.88,-0.58,0.61,-3.31,1018.49
14.656,0.90,0.59,-0.16,9.91,7.06,-0.88,-0.58,0.61,-3.31,1018.49
14.657,0.90,0.59,-0.16,7.93,9.34,-0.16,-0.58,0.61,-3.31,1018.49
14.665,0.90,0.59,-0.16,7.93,9.34,-0.16,-0.58,0.61,-3.31,1018.42
14.699,0.54,0.37,-0.19,7.93,9.34,-0.16,-0.58,0.61,-3.31,1018.42
14.699,0.19,0.18,0.12,7.93,9.34,-0.16,-0.58,0.61,-3.31,1018.42
14.704,0.19,0.18,0.12,7.93,9.34,-0.16,-0.58,0.61,-3.31,1018.77
14.706,0.19,0.18,0.12,7.93,9.34,-0.16,-0.37,0.68,1.62,1018.77
14.718,-0.03,0.13,0.10,7.93,9.34,-0.16,-0.37,0.68,1.62,1018.77
14.727,-0.03,0.13,0.10,4.11,-1.90,1.01,-0.37,0.68,1.62,1018.77
14.742,-0.03,0.26,-0.07,4.11,-1.90,1.01,-0.37,0.68,1.62,1018.77
14.779,-0.03,0.26,-0.07,4.11,-1.90,1.01,-0.13,0.76,4.43,1018.77
14.78,0.31,0.41,-0.08,4.11,-1.90,1.01,-0.13,0.76,4.43,1018.77
14.784,0.34,0.56,-0.14,4.11,-1.90,1.01,-0.13,0.76,4.43,1018.77
14.784,0.34,0.56,-0.14,4.11,-1.90,1.01,-0.13,0.76,4.43,1018.85
14.797,0.34,0.56,-0.14,7.96,-4.70,-0.25,-0.13,0.76,4.43,1018.85
14.798,0.17,0.70,-0.25,7.96,-4.70,-0.25,-0.13,0.76,4.43,1018.85
14.847,0.17,0.70,-0.25,7.96,-4.70,-0.25,0.19,0.89,5.55,1018.85
14.848,0.14,0.86,-0.30,7.96,-4.70,-0.25,0.19,0.89,5.55,1018.85
14.849,0.23,1.04,-0.30,7.96,-4.70,-0.25,0.19,0.89,5.55,1018.85
14.865,0.23,1.04,-0.30,7.96,-4.70,-0.25,0.19,0.89,5.55,1018.92
14.866,0.35,1.36,-0.35,7.96,-4.70,-0.25,0.19,0.89,5.55,1018.92
14.867,0.35,1.36,-0.35,5.66,-3.50,-1.35,0.19,0.89,5.55,1018.92
14.904,0.35,1.36,-0.35,5.66,-3.50,-1.35,0.19,0.89,5.55,1019.03
14.905,0.53,1.85,-0.43,5.66,-3.50,-1.35,0.19,0.89,5.55,1019.03
14.905,0.10,2.17,-0.44,5.66,-3.50,-1.35,0.19,0.89,5.55,1019.03
14.917,0.10,2.17,-0.44,5.66,-3.50,-1.35,-0.01,2.20,4.98,1019.03
14.917,-0.49,2.07,-0.28,5.66,-3.50,-1.35,-0.01,2.20,4.98,1019.03
14.937,-0.59,2.16,-0.58,5.66,-3.50,-1.35,-0.01,2.20,4.98,1019.03
14.938,-0.59,2.16,-0.58,2.35,2.32,-2.87,-0.01,2.20,4.98,1019.03
14.957,-1.01,2.02,-0.56,2.35,2.32,-2.87,-0.01,2.20,4.98,1019.03
14.985,-1.84,1.64,-0.40,2.35,2.32,-2.87,-0.01,2.20,4.98,1019.03
14.985,-1.84,1.64,-0.40,2.35,2.32,-2.87,-0.01,2.20,4.98,1019.09
14.986,-1.84,1.64,-0.40,2.35,2.32,-2.87,0.21,2.88,3.44,1019.09
15.006,-2.70,1.37,-0.62,2.35,2.32,-2.87,0.21,2.88,3.44,1019.09
15.007,-2.70,1.37,-0.62,-5.14,11.85,-4.31,0.21,2.88,3.44,1019.09
15.052,-2.18,1.09,-0.38,-5.14,11.85,-4.31,0.21,2.88,3.44,1019.09
15.053,-1.29,1.27,-0.08,-5.14,11.85,-4.31,0.21,2.88,3.44,1019.09
15.056,-1.29,1.27,-0.08,-5.14,11.85,-4.31,0.28,-0.65,-1.50,1019.09
15.065,1.18,0.91,0.01,-5.14,11.85,-4.31,0.28,-0.65,-1.50,1019.09
15.066,1.18,0.91,0.01,-5.14,11.85,-4.31,0.28,-0.65,-1.50,1019.04
15.077,1.82,1.57,-0.97,-5.14,11.85,-4.31,0.28,-0.65,-1.50,1019.04
15.078,1.82,1.57,-0.97,-22.82,6.98,-5.16,0.28,-0.65,-1.50,1019.04
15.105,-1.34,1.18,-1.74,-22.82,6.98,-5.16,0.28,-0.65,-1.50,1019.04
15.105,-1.34,1.18,-1.74,-22.82,6.98,-5.16,0.28,-0.65,-1.50,1019.39
15.119,-0.65,1.20,2.02,-22.82,6.98,-5.16,0.28,-0.65,-1.50,1019.39
15.126,-0.65,1.20,2.02,-22.82,6.98,-5.16,-0.15,-1.02,-2.64,1019.39
15.141,-0.00,1.04,-0.53,-22.82,6.98,-5.16,-0.15,-1.02,-2.64,1019.39
15.146,-0.00,1.04,-0.53,0.50,2.86,-3.13,-0.15,-1.02,-2.64,1019.39
15.185,-0.23,0.95,-0.30,0.50,2.86,-3.13,-0.15,-1.02,-2.64,1019.39
15.186,-0.01,0.98,0.39,0.50,2.86,-3.13,-0.15,-1.02,-2.64,1019.39
15.186,-0.01,0.98,0.39,0.50,2.86,-3.13,-0.15,-1.02,-2.64,1019.58
15.196,-0.01,0.98,0.39,0.50,2.86,-3.13,-0.18,-0.41,-0.74,1019.58
15.218,-0.01,0.98,0.39,-6.60,1.55,-1.52,-0.18,-0.41,-0.74,1019.58
15.219,-0.01,1.02,-0.21,-6.60,1.55,-1.52,-0.18,-0.41,-0.74,1019.58
15.219,0.01,0.99,0.04,-6.60,1.55,-1.52,-0.18,-0.41,-0.74,1019.58
15.252,0.03,0.99,0.13,-6.60,1.55,-1.52,-0.18,-0.41,-0.74,1019.58
15.265,0.03,1.02,-0.08,-6.60,1.55,-1.52,-0.18,-0.41,-0.74,1019.58
15.266,0.03,1.02,-0.08,-6.60,1.55,-1.52,-0.18,-0.41,-0.74,1019.18
15.266,0.03,1.02,-0.08,-6.60,1.55,-1.52,-0.14,-0.05,-0.34,1019.18
15.298,0.02,1.00,0.02,-6.60,1.55,-1.52,-0.14,-0.05,-0.34,1019.18
15.299,0.02,1.00,0.02,-0.68,0.27,0.82,-0.14,-0.05,-0.34,1019.18
15.305,0.02,0.99,0.01,-0.68,0.27,0.82,-0.14,-0.05,-0.34,1019.18
15.305,0.02,0.99,0.01,-0.68,0.27,0.82,-0.14,-0.05,-0.34,1018.86
15.319,0.03,0.97,0.10,-0.68,0.27,0.82,-0.14,-0.05,-0.34,1018.86
15.337,0.03,0.97,0.10,-0.68,0.27,0.82,-0.07,0.06,-0.21,1018.86
15.356,0.03,0.97,0.10,0.09,0.39,0.20,-0.07,0.06,-0.21,1018.86
15.357,0.02,0.96,0.09,0.09,0.39,0.20,-0.07,0.06,-0.21,1018.86
15.358,-0.00,0.96,0.04,0.09,0.39,0.20,-0.07,0.06,-0.21,1018.86
15.386,-0.01,0.95,0.04,0.09,0.39,0.20,-0.07,0.06,-0.21,1018.86
15.386,-0.01,0.95,0.04,0.09,0.39,0.20,-0.07,0.06,-0.21,1018.77
15.406,-0.01,0.95,0.04,0.09,0.39,0.20,0.07,0.13,-0.10,1018.77
15.407,0.00,0.97,-0.01,0.09,0.39,0.20,0.07,0.13,-0.10,1018.77
15.429,0.02,0.98,-0.00,0.09,0.39,0.20,0.07,0.13,-0.10,1018.77
15.43,0.02,0.98,-0.00,0.08,0.05,0.67,0.07,0.13,-0.10,1018.77
15.441,0.03,0.98,0.03,0.08,0.05,0.67,0.07,0.13,-0.10,1018.77
15.465,0.04,0.98,0.05,0.08,0.05,0.67,0.07,0.13,-0.10,1018.77
15.466,0.04,0.98,0.05,0.08,0.05,0.67,0.07,0.13,-0.10,1018.90
15.477,0.04,0.98,0.05,0.08,0.05,0.67,0.06,0.17,-0.09,1018.90
15.503,0.04,0.98,0.05,0.09,0.06,0.17,0.06,0.17,-0.09,1018.90
15.503,0.02,0.97,0.06,0.09,0.06,0.17,0.06,0.17,-0.09,1018.90
15.504,0.00,0.98,-0.01,0.09,0.06,0.17,0.06,0.17,-0.09,1018.90
15.504,0.00,0.98,-0.01,0.09,0.06,0.17,0.06,0.17,-0.09,1019.03
15.518,0.04,0.99,-0.01,0.09,0.06,0.17,0.06,0.17,-0.09,1019.03
15.541,0.06,1.00,0.04,0.09,0.06,0.17,0.06,0.17,-0.09,1019.03
15.547,0.06,1.00,0.04,0.09,0.06,0.17,0.14,0.15,-0.14,1019.03
15.568,0.06,1.00,0.04,0.26,0.14,0.43,0.14,0.15,-0.14,1019.03
15.569,0.09,1.02,0.05,0.26,0.14,0.43,0.14,0.15,-0.14,1019.03
15.586,0.08,1.03,0.01,0.26,0.14,0.43,0.14,0.15,-0.14,1019.03
15.586,0.08,1.03,0.01,0.26,0.14,0.43,0.14,0.15,-0.14,1019.08
15.617,0.08,1.03,0.01,0.26,0.14,0.43,0.25,0.24,-0.44,1019.08
15.618,0.12,1.06,0.03,0.26,0.14,0.43,0.25,0.24,-0.44,1019.08
15.638,0.12,1.06,0.03,0.81,0.43,0.47,0.25,0.24,-0.44,1019.08
15.64,0.14,1.09,0.05,0.81,0.43,0.47,0.25,0.24,-0.44,1019.08
15.641,0.13,1.11,0.03,0.81,0.43,0.47,0.25,0.24,-0.44,1019.08
15.668,0.13,1.11,0.03,0.81,0.43,0.47,0.25,0.24,-0.44,1018.98
15.669,0.12,1.14,-0.14,0.81,0.43,0.47,0.25,0.24,-0.44,1018.98
15.687,0.12,1.14,-0.14,0.81,0.43,0.47,0.23,0.35,-1.12,1018.98
15.687,0.12,1.19,-0.22,0.81,0.43,0.47,0.23,0.35,-1.12,1018.98
15.697,0.15,1.25,-0.25,0.81,0.43,0.47,0.23,0.35,-1.12,1018.98
15.705,0.15,1.25,-0.25,0.81,0.43,0.47,0.23,0.35,-1.12,1018.95
15.706,0.15,1.25,-0.25,1.81,1.12,0.67,0.23,0.35,-1.12,1018.95
15.718,0.20,1.32,-0.25,1.81,1.12,0.67,0.23,0.35,-1.12,1018.95
15.741,0.30,1.49,-0.42,1.81,1.12,0.67,0.23,0.35,-1.12,1018.95
15.759,0.30,1.49,-0.42,1.81,1.12,0.67,-0.70,0.18,-2.31,1018.95
15.777,0.30,1.49,-0.42,2.88,2.48,-1.62,-0.70,0.18,-2.31,1018.95
15.777,0.51,1.64,-0.56,2.88,2.48,-1.62,-0.70,0.18,-2.31,1018.95
15.778,0.70,1.68,-0.35,2.88,2.48,-1.62,-0.70,0.18,-2.31,1018.95
15.784,0.70,1.68,-0.35,2.88,2.48,-1.62,-0.70,0.18,-2.31,1018.83
15.826,0.70,1.68,-0.35,2.88,2.48,-1.62,-2.27,1.14,-4.86,1018.83
15.827,0.78,1.67,-0.04,2.88,2.48,-1.62,-2.27,1.14,-4.86,1018.83
15.827,0.66,1.51,0.31,2.88,2.48,-1.62,-2.27,1.14,-4.86,1018.83
15.847,-0.25,1.38,0.26,2.88,2.48,-1.62,-2.27,1.14,-4.86,1018.83
15.847,-0.25,1.38,0.26,8.04,6.47,-4.47,-2.27,1.14,-4.86,1018.83
15.865,-0.33,1.35,0.23,8.04,6.47,-4.47,-2.27,1.14,-4.86,1018.83
15.865,-0.33,1.35,0.23,8.04,6.47,-4.47,-2.27,1.14,-4.86,1018.39
15.896,-0.33,1.35,0.23,8.04,6.47,-4.47,-1.69,2.00,-4.37,1018.39
15.897,-0.01,0.59,-0.07,8.04,6.47,-4.47,-1.69,2.00,-4.37,1018.39
15.905,-0.01,0.59,-0.07,8.04,6.47,-4.47,-1.69,2.00,-4.37,1018.48
15.906,-0.75,0.10,0.54,8.04,6.47,-4.47,-1.69,2.00,-4.37,1018.48
15.918,-0.02,0.28,0.14,8.04,6.47,-4.47,-1.69,2.00,-4.37,1018.48
15.919,-0.02,0.28,0.14,9.36,7.77,0.96,-1.69,2.00,-4.37,1018.48
15.942,0.44,0.45,-0.35,9.36,7.77,0.96,-1.69,2.00,-4.37,1018.48
15.961,0.09,0.29,-0.63,9.36,7.77,0.96,-1.69,2.00,-4.37,1018.48
15.968,0.09,0.29,-0.63,9.36,7.77,0.96,-1.29,2.06,0.98,1018.48
15.986,-0.23,0.14,-0.36,9.36,7.77,0.96,-1.29,2.06,0.98,1018.48
15.986,-0.23,0.14,-0.36,9.36,7.77,0.96,-1.29,2.06,0.98,1018.71
15.987,-0.23,0.14,-0.36,4.68,-1.41,1.57,-1.29,2.06,0.98,1018.71
16.038,-0.23,0.14,-0.36,4.68,-1.41,1.57,-0.90,-0.04,3.87,1018.71
16.038,-0.31,0.14,-0.23,4.68,-1.41,1.57,-0.90,-0.04,3.87,1018.71
16.039,-0.19,0.28,-0.39,4.68,-1.41,1.57,-0.90,-0.04,3.87,1018.71
16.052,0.19,0.47,-0.40,4.68,-1.41,1.57,-0.90,-0.04,3.87,1018.71
16.057,0.35,0.62,-0.28,4.68,-1.41,1.57,-0.90,-0.04,3.87,1018.71
16.057,0.35,0.62,-0.28,6.72,-4.17,-4.55,-0.90,-0.04,3.87,1018.71
16.065,0.35,0.62,-0.28,6.72,-4.17,-4.55,-0.90,-0.04,3.87,1018.72
16.104,0.35,0.62,-0.28,6.72,-4.17,-4.55,-0.90,-0.04,3.87,1018.88
16.105,0.25,0.76,-0.34,6.72,-4.17,-4.55,-0.90,-0.04,3.87,1018.88
16.105,0.14,0.97,-0.48,6.72,-4.17,-4.55,-0.90,-0.04,3.87,1018.88
16.106,0.14,0.97,-0.48,6.72,-4.17,-4.55,0.61,1.45,4.75,1018.88
16.118,0.12,1.14,-0.50,6.72,-4.17,-4.55,0.61,1.45,4.75,1018.88
16.126,0.12,1.14,-0.50,4.26,-4.35,-3.83,0.61,1.45,4.75,1018.88
16.142,0.15,1.37,-0.64,4.26,-4.35,-3.83,0.61,1.45,4.75,1018.88
16.182,0.15,1.37,-0.64,4.26,-4.35,-3.83,1.07,2.21,4.62,1018.88
16.183,0.25,1.66,-0.75,4.26,-4.35,-3.83,1.07,2.21,4.62,1018.88
16.184,-0.06,1.84,-0.66,4.26,-4.35,-3.83,1.07,2.21,4.62,1018.88
16.184,-0.06,1.84,-0.66,4.26,-4.35,-3.83,1.07,2.21,4.62,1019.05
16.197,-0.50,1.76,-0.44,4.26,-4.35,-3.83,1.07,2.21,4.62,1019.05
16.198,-0.50,1.76,-0.44,2.31,0.68,-3.92,1.07,2.21,4.62,1019.05
16.218,-0.31,1.88,-0.58,2.31,0.68,-3.92,1.07,2.21,4.62,1019.05
16.248,-0.31,1.88,-0.58,2.31,0.68,-3.92,0.46,1.42,4.47,1019.05
16.248,-0.46,1.89,-0.75,2.31,0.68,-3.92,0.46,1.42,4.47,1019.05
16.265,-1.03,1.59,-0.38,2.31,0.68,-3.92,0.46,1.42,4.47,1019.05
16.266,-1.03,1.59,-0.38,2.31,0.68,-3.92,0.46,1.42,4.47,1019.03
16.266,-1.03,1.59,-0.38,-2.88,7.73,-5.02,0.46,1.42,4.47,1019.03
16.304,-1.03,1.59,-0.38,-2.88,7.73,-5.02,0.46,1.42,4.47,1019.04
16.305,-1.93,1.31,0.21,-2.88,7.73,-5.02,0.46,1.42,4.47,1019.04
16.305,-1.82,1.38,-0.05,-2.88,7.73,-5.02,0.46,1.42,4.47,1019.04
16.319,-1.82,1.38,-0.05,-2.88,7.73,-5.02,-0.07,-0.33,0.89,1019.04
16.32,-1.11,1.20,-0.07,-2.88,7.73,-5.02,-0.07,-0.33,0.89,1019.04
16.337,0.75,1.52,-0.10,-2.88,7.73,-5.02,-0.07,-0.33,0.89,1019.04
16.338,0.75,1.52,-0.10,-11.65,8.58,-3.14,-0.07,-0.33,0.89,1019.04
16.385,0.76,0.94,-0.13,-11.65,8.58,-3.14,-0.07,-0.33,0.89,1019.04
16.386,0.48,0.99,-0.23,-11.65,8.58,-3.14,-0.07,-0.33,0.89,1019.04
16.386,0.48,0.99,-0.23,-11.65,8.58,-3.14,-0.07,-0.33,0.89,1019.09
16.387,0.48,0.99,-0.23,-11.65,8.58,-3.14,-1.00,-0.44,-3.26,1019.09
16.408,-0.55,1.09,0.05,-11.65,8.58,-3.14,-1.00,-0.44,-3.26,1019.09
16.409,-0.55,1.09,0.05,-12.20,4.47,0.50,-1.00,-0.44,-3.26,1019.09
16.451,-0.50,1.09,0.37,-12.20,4.47,0.50,-1.00,-0.44,-3.26,1019.09
16.452,-0.30,1.08,-0.07,-12.20,4.47,0.50,-1.00,-0.44,-3.26,1019.09
16.457,-0.30,1.08,-0.07,-12.20,4.47,0.50,-0.52,-0.62,-1.68,1019.09
16.465,-0.30,1.08,-0.07,-12.20,4.47,0.50,-0.52,-0.62,-1.68,1019.82
16.466,-0.22,1.03,-0.14,-12.20,4.47,0.50,-0.52,-0.62,-1.68,1019.82
16.478,-0.22,1.03,-0.14,-0.08,0.66,0.17,-0.52,-0.62,-1.68,1019.82
16.478,-0.06,0.99,0.02,-0.08,0.66,0.17,-0.52,-0.62,-1.68,1019.82
16.506,-0.06,0.98,0.07,-0.08,0.66,0.17,-0.52,-0.62,-1.68,1019.82
16.508,-0.06,0.98,0.07,-0.08,0.66,0.17,-0.52,-0.62,-1.68,1019.57
16.525,0.03,0.98,0.02,-0.08,0.66,0.17,-0.52,-0.62,-1.68,1019.57
16.527,0.03,0.98,0.02,-0.08,0.66,0.17,-0.34,-0.08,-0.44,1019.57
16.547,-0.01,0.97,0.04,-0.08,0.66,0.17,-0.34,-0.08,-0.44,1019.57
16.548,-0.01,0.97,0.04,-2.70,0.84,0.21,-0.34,-0.08,-0.44,1019.57
16.584,0.05,0.98,0.06,-2.70,0.84,0.21,-0.34,-0.08,-0.44,1019.57
16.586,0.06,1.00,0.02,-2.70,0.84,0.21,-0.34,-0.08,-0.44,1019.57
16.586,0.06,1.00,0.02,-2.70,0.84,0.21,-0.34,-0.08,-0.44,1019.15
16.608,0.06,1.00,0.02,-2.70,0.84,0.21,-0.14,0.04,-0.16,1019.15
16.617,0.06,1.00,0.02,-0.40,0.20,0.56,-0.14,0.04,-0.16,1019.15
16.618,0.06,0.99,0.02,-0.40,0.20,0.56,-0.14,0.04,-0.16,1019.15
16.618,0.09,0.99,0.04,-0.40,0.20,0.56,-0.14,0.04,-0.16,1019.15
16.651,0.06,0.99,0.04,-0.40,0.20,0.56,-0.14,0.04,-0.16,1019.15
16.664,0.06,0.99,0.04,-0.40,0.20,0.56,-0.14,0.04,-0.16,1018.93
16.666,0.05,0.99,0.02,-0.40,0.20,0.56,-0.14,0.04,-0.16,1018.93
16.666,0.05,0.99,0.02,-0.40,0.20,0.56,-0.03,0.08,-0.17,1018.93
16.687,0.06,0.98,0.03,-0.40,0.20,0.56,-0.03,0.08,-0.17,1018.93
16.688,0.06,0.98,0.03,0.41,0.32,0.36,-0.03,0.08,-0.17,1018.93
16.699,0.06,0.99,0.03,0.41,0.32,0.36,-0.03,0.08,-0.17,1018.93
16.704,0.06,0.99,0.03,0.41,0.32,0.36,-0.03,0.08,-0.17,1018.87
16.722,0.07,0.98,0.05,0.41,0.32,0.36,-0.03,0.08,-0.17,1018.87
16.737,0.07,0.98,0.05,0.41,0.32,0.36,0.04,0.11,-0.23,1018.87
16.742,0.03,0.98,0.02,0.41,0.32,0.36,0.04,0.11,-0.23,1018.87
16.757,0.03,0.98,0.02,0.40,0.24,0.31,0.04,0.11,-0.23,1018.87
16.758,0.03,0.98,0.01,0.40,0.24,0.31,0.04,0.11,-0.23,1018.87
16.785,0.01,0.98,0.00,0.40,0.24,0.31,0.04,0.11,-0.23,1018.87
16.787,0.01,0.98,0.00,0.40,0.24,0.31,0.04,0.11,-0.23,1018.87
16.808,0.01,0.98,0.00,0.40,0.24,0.31,0.06,0.04,-0.26,1018.87
16.809,0.01,0.98,0.03,0.40,0.24,0.31,0.06,0.04,-0.26,1018.87
16.827,0.01,0.98,0.03,0.40,0.24,0.31,0.06,0.04,-0.26,1018.87
16.828,0.01,0.98,0.03,0.52,0.20,0.31,0.06,0.04,-0.26,1018.87
16.852,0.01,0.99,0.02,0.52,0.20,0.31,0.06,0.04,-0.26,1018.87
16.865,0.00,0.99,0.01,0.52,0.20,0.31,0.06,0.04,-0.26,1018.87
16.866,0.00,0.99,0.01,0.52,0.20,0.31,0.06,0.04,-0.26,1018.90
16.877,0.00,0.99,0.01,0.52,0.20,0.31,0.12,0.02,-0.26,1018.90
16.9,-0.00,0.99,0.00,0.52,0.20,0.31,0.12,0.02,-0.26,1018.90
16.901,0.01,1.00,-0.02,0.52,0.20,0.31,0.12,0.02,-0.26,1018.90
16.902,0.01,1.00,-0.02,0.30,0.21,0.31,0.12,0.02,-0.26,1018.90
16.904,0.01,1.00,-0.02,0.30,0.21,0.31,0.12,0.02,-0.26,1018.89
16.92,0.03,1.02,-0.01,0.30,0.21,0.31,0.12,0.02,-0.26,1018.89
16.941,0.07,1.03,0.03,0.30,0.21,0.31,0.12,0.02,-0.26,1018.89
16.946,0.07,1.03,0.03,0.30,0.21,0.31,0.14,0.03,-0.36,1018.89
16.967,0.07,1.03,0.03,0.41,0.31,0.19,0.14,0.03,-0.36,1018.89
16.969,0.07,1.03,0.05,0.41,0.31,0.19,0.14,0.03,-0.36,1018.89
16.984,0.09,1.07,0.01,0.41,0.31,0.19,0.14,0.03,-0.36,1018.89
16.985,0.09,1.07,0.01,0.41,0.31,0.19,0.14,0.03,-0.36,1018.89
17.017,0.09,1.07,0.01,0.41,0.31,0.19,0.16,0.09,-0.83,1018.89
17.019,0.07,1.11,-0.10,0.41,0.31,0.19,0.16,0.09,-0.83,1018.89
17.038,0.13,1.16,-0.11,0.41,0.31,0.19,0.16,0.09,-0.83,1018.89
17.04,0.19,1.22,-0.09,0.41,0.31,0.19,0.16,0.09,-0.83,1018.89
17.04,0.19,1.22,-0.09,1.29,0.70,0.52,0.16,0.09,-0.83,1018.89
17.057,0.19,1.28,-0.12,1.29,0.70,0.52,0.16,0.09,-0.83,1018.89
17.064,0.19,1.28,-0.12,1.29,0.70,0.52,0.16,0.09,-0.83,1019.06
17.087,0.19,1.28,-0.12,1.29,0.70,0.52,-0.10,0.12,-1.90,1019.06
17.088,0.23,1.38,-0.16,1.29,0.70,0.52,-0.10,0.12,-1.90,1019.06
17.104,0.33,1.49,-0.19,1.29,0.70,0.52,-0.10,0.12,-1.90,1019.06
17.106,0.33,1.49,-0.19,1.29,0.70,0.52,-0.10,0.12,-1.90,1019.04
17.107,0.33,1.49,-0.19,2.63,1.92,-0.49,-0.10,0.12,-1.90,1019.04
17.12,0.54,1.58,-0.12,2.63,1.92,-0.49,-0.10,0.12,-1.90,1019.04
17.157,0.54,1.58,-0.12,2.63,1.92,-0.49,-0.36,0.40,-3.92,1019.04
17.159,0.65,1.58,-0.06,2.63,1.92,-0.49,-0.36,0.40,-3.92,1019.04
17.183,0.55,1.52,-0.10,2.63,1.92,-0.49,-0.36,0.40,-3.92,1019.04
17.184,0.16,1.49,-0.05,2.63,1.92,-0.49,-0.36,0.40,-3.92,1019.04
17.185,0.16,1.49,-0.05,5.76,4.78,-1.26,-0.36,0.40,-3.92,1019.04
17.186,0.16,1.49,-0.05,5.76,4.78,-1.26,-0.36,0.40,-3.92,1018.66
17.228,-0.19,1.38,0.22,5.76,4.78,-1.26,-0.36,0.40,-3.92,1018.66
17.229,-0.16,1.17,0.39,5.76,4.78,-1.26,-0.36,0.40,-3.92,1018.66
17.229,-0.16,1.17,0.39,5.76,4.78,-1.26,-0.12,0.14,-5.58,1018.66
17.248,-0.16,1.17,0.39,10.32,7.47,-0.58,-0.12,0.14,-5.58,1018.66
17.249,-0.04,0.70,0.18,10.32,7.47,-0.58,-0.12,0.14,-5.58,1018.66
17.265,-0.04,0.70,0.18,10.32,7.47,-0.58,-0.12,0.14,-5.58,1018.24
17.266,-0.94,-0.03,-0.05,10.32,7.47,-0.58,-0.12,0.14,-5.58,1018.24
17.3,-0.94,-0.03,-0.05,10.32,7.47,-0.58,0.64,-0.31,-1.14,1018.24
17.301,-1.35,0.27,-0.06,10.32,7.47,-0.58,0.64,-0.31,-1.14,1018.24
17.304,0.36,0.34,0.20,10.32,7.47,-0.58,0.64,-0.31,-1.14,1018.24
17.305,0.36,0.34,0.20,10.32,7.47,-0.58,0.64,-0.31,-1.14,1018.55
17.326,0.48,0.28,-0.06,10.32,7.47,-0.58,0.64,-0.31,-1.14,1018.55
17.328,0.48,0.28,-0.06,6.45,3.52,2.33,0.64,-0.31,-1.14,1018.55
17.368,0.48,0.28,-0.06,6.45,3.52,2.33,1.33,-0.43,2.05,1018.55
17.37,0.25,0.25,0.01,6.45,3.52,2.33,1.33,-0.43,2.05,1018.55
17.37,-0.04,0.18,0.14,6.45,3.52,2.33,1.33,-0.43,2.05,1018.55
17.384,-0.13,0.24,0.12,6.45,3.52,2.33,1.33,-0.43,2.05,1018.55
17.385,-0.13,0.24,0.12,6.45,3.52,2.33,1.33,-0.43,2.05,1018.89
17.387,-0.13,0.24,0.12,3.57,-3.18,0.45,1.33,-0.43,2.05,1018.89
17.438,-0.13,0.24,0.12,3.57,-3.18,0.45,1.86,-0.35,4.69,1018.89
17.439,-0.01,0.40,0.13,3.57,-3.18,0.45,1.86,-0.35,4.69,1018.89
17.44,0.05,0.51,0.19,3.57,-3.18,0.45,1.86,-0.35,4.69,1018.89
17.45,0.05,0.66,0.25,3.57,-3.18,0.45,1.86,-0.35,4.69,1018.89
17.457,-0.02,0.84,0.22,3.57,-3.18,0.45,1.86,-0.35,4.69,1018.89
17.458,-0.02,0.84,0.22,5.94,-4.78,1.81,1.86,-0.35,4.69,1018.89
17.464,-0.02,0.84,0.22,5.94,-4.78,1.81,1.86,-0.35,4.69,1018.96
17.505,-0.02,0.84,0.22,5.94,-4.78,1.81,1.86,-0.35,4.69,1019.15
17.506,0.14,1.18,0.14,5.94,-4.78,1.81,1.86,-0.35,4.69,1019.15
17.507,0.37,1.72,0.21,5.94,-4.78,1.81,1.86,-0.35,4.69,1019.15
17.508,0.37,1.72,0.21,5.94,-4.78,1.81,1.47,-0.97,5.57,1019.15
17.527,-0.04,1.93,0.54,5.94,-4.78,1.81,1.47,-0.97,5.57,1019.15
17.528,-0.04,1.93,0.54,2.95,-2.37,3.73,1.47,-0.97,5.57,1019.15
17.542,-0.57,1.85,0.67,2.95,-2.37,3.73,1.47,-0.97,5.57,1019.15
17.58,-0.42,1.82,0.51,2.95,-2.37,3.73,1.47,-0.97,5.57,1019.15
17.581,-0.42,1.82,0.51,2.95,-2.37,3.73,0.24,-1.53,5.34,1019.15
17.581,-0.15,1.86,0.34,2.95,-2.37,3.73,0.24,-1.53,5.34,1019.15
17.585,-0.15,1.86,0.34,2.95,-2.37,3.73,0.24,-1.53,5.34,1019.03
17.601,-0.26,1.81,-0.11,2.95,-2.37,3.73,0.24,-1.53,5.34,1019.03
17.606,-0.26,1.81,-0.11,0.31,7.12,5.48,0.24,-1.53,5.34,1019.03
17.648,-0.26,1.81,-0.11,0.31,7.12,5.48,-1.38,-1.99,4.08,1019.03
17.65,-0.24,1.77,0.07,0.31,7.12,5.48,-1.38,-1.99,4.08,1019.03
17.65,-0.70,1.57,0.30,0.31,7.12,5.48,-1.38,-1.99,4.08,1019.03
17.665,-1.22,1.42,0.59,0.31,7.12,5.48,-1.38,-1.99,4.08,1019.03
17.666,-1.22,1.42,0.59,0.31,7.12,5.48,-1.38,-1.99,4.08,1018.78
17.667,-1.22,1.42,0.59,-6.54,9.36,4.92,-1.38,-1.99,4.08,1018.78
17.701,-1.43,1.29,0.27,-6.54,9.36,4.92,-1.38,-1.99,4.08,1018.78
17.703,-1.22,1.26,-0.12,-6.54,9.36,4.92,-1.38,-1.99,4.08,1018.78
17.704,-1.22,1.26,-0.12,-6.54,9.36,4.92,-1.38,-1.99,4.08,1018.88
17.727,-1.22,1.26,-0.12,-6.54,9.36,4.92,-1.29,-2.05,0.28,1018.88
17.73,-1.03,1.18,-0.17,-6.54,9.36,4.92,-1.29,-2.05,0.28,1018.88
17.738,0.09,1.96,-0.48,-6.54,9.36,4.92,-1.29,-2.05,0.28,1018.88
17.739,0.09,1.96,-0.48,-12.36,6.98,4.85,-1.29,-2.05,0.28,1018.88
17.787,0.53,0.96,-1.18,-12.36,6.98,4.85,-1.29,-2.05,0.28,1018.88
17.788,0.90,0.87,-0.48,-12.36,6.98,4.85,-1.29,-2.05,0.28,1018.88
17.788,0.90,0.87,-0.48,-12.36,6.98,4.85,-1.29,-2.05,0.28,1019.26
17.789,0.90,0.87,-0.48,-12.36,6.98,4.85,-1.62,-3.29,-2.03,1019.26
17.807,0.58,1.03,-0.17,-12.36,6.98,4.85,-1.62,-3.29,-2.03,1019.26
17.808,0.58,1.03,-0.17,-11.22,5.45,-0.45,-1.62,-3.29,-2.03,1019.26
17.851,-0.87,1.06,-0.29,-11.22,5.45,-0.45,-1.62,-3.29,-2.03,1019.26
17.852,-0.11,1.05,0.30,-11.22,5.45,-0.45,-1.62,-3.29,-2.03,1019.26
17.858,-0.11,1.05,0.30,-11.22,5.45,-0.45,-1.02,-0.07,-1.55,1019.26
17.864,-0.00,1.04,-0.12,-11.22,5.45,-0.45,-1.02,-0.07,-1.55,1019.26
17.865,-0.00,1.04,-0.12,-11.22,5.45,-0.45,-1.02,-0.07,-1.55,1019.81
17.879,0.05,0.99,0.05,-11.22,5.45,-0.45,-1.02,-0.07,-1.55,1019.81
17.88,0.05,0.99,0.05,2.06,0.33,-4.97,-1.02,-0.07,-1.55,1019.81
17.905,0.01,0.97,0.15,2.06,0.33,-4.97,-1.02,-0.07,-1.55,1019.81
17.905,0.01,0.97,0.15,2.06,0.33,-4.97,-1.02,-0.07,-1.55,1019.51
17.918,0.05,0.98,0.08,2.06,0.33,-4.97,-1.02,-0.07,-1.55,1019.51
17.927,0.05,0.98,0.08,2.06,0.33,-4.97,-0.50,-0.20,-0.60,1019.51
17.941,0.06,0.99,0.06,2.06,0.33,-4.97,-0.50,-0.20,-0.60,1019.51
17.948,0.06,0.99,0.06,-1.73,0.77,1.21,-0.50,-0.20,-0.60,1019.51
17.984,0.09,1.00,0.01,-1.73,0.77,1.21,-0.50,-0.20,-0.60,1019.51
17.985,0.11,1.00,0.01,-1.73,0.77,1.21,-0.50,-0.20,-0.60,1019.51
17.985,0.11,1.00,0.01,-1.73,0.77,1.21,-0.50,-0.20,-0.60,1019.08
18.0,0.11,1.00,0.01,-1.73,0.77,1.21,-0.07,-0.08,-0.36,1019.08
18.015,0.12,0.99,0.02,-1.73,0.77,1.21,-0.07,-0.08,-0.36,1019.08
18.018,0.10,0.98,0.01,-1.73,0.77,1.21,-0.07,-0.08,-0.36,1019.08
18.018,0.10,0.98,0.01,-0.24,0.23,1.16,-0.07,-0.08,-0.36,1019.08
18.05,0.04,0.97,-0.03,-0.24,0.23,1.16,-0.07,-0.08,-0.36,1019.08
18.064,0.09,0.99,-0.06,-0.24,0.23,1.16,-0.07,-0.08,-0.36,1019.08
18.065,0.09,0.99,-0.06,-0.24,0.23,1.16,-0.07,-0.08,-0.36,1018.83
18.068,0.09,0.99,-0.06,-0.24,0.23,1.16,0.09,-0.05,-0.34,1018.83
18.088,0.09,0.98,-0.02,-0.24,0.23,1.16,0.09,-0.05,-0.34,1018.83
18.089,0.09,0.98,-0.02,0.55,0.32,0.46,0.09,-0.05,-0.34,1018.83
18.104,0.05,0.97,-0.01,0.55,0.32,0.46,0.09,-0.05,-0.34,1018.83
18.105,0.05,0.97,-0.01,0.55,0.32,0.46,0.09,-0.05,-0.34,1018.85
18.119,0.06,0.99,-0.02,0.55,0.32,0.46,0.09,-0.05,-0.34,1018.85
18.138,0.06,0.99,-0.02,0.55,0.32,0.46,0.11,-0.07,-0.38,1018.85
18.158,0.06,0.99,-0.02,0.41,0.19,0.05,0.11,-0.07,-0.38,1018.85
18.159,0.04,0.97,-0.03,0.41,0.19,0.05,0.11,-0.07,-0.38,1018.85
18.16,0.01,0.98,-0.07,0.41,0.19,0.05,0.11,-0.07,-0.38,1018.85
18.184,0.02,0.98,-0.02,0.41,0.19,0.05,0.11,-0.07,-0.38,1018.85
18.184,0.02,0.98,-0.02,0.41,0.19,0.05,0.11,-0.07,-0.38,1018.93
18.207,0.02,0.98,-0.02,0.41,0.19,0.05,0.17,-0.10,-0.38,1018.93
18.208,0.02,0.98,0.01,0.41,0.19,0.05,0.17,-0.10,-0.38,1018.93
18.228,0.02,0.98,0.00,0.41,0.19,0.05,0.17,-0.10,-0.38,1018.93
18.228,0.02,0.98,0.00,0.33,0.19,0.14,0.17,-0.10,-0.38,1018.93
18.251,-0.00,0.99,-0.05,0.33,0.19,0.14,0.17,-0.10,-0.38,1018.93
18.266,0.00,1.00,-0.08,0.33,0.19,0.14,0.17,-0.10,-0.38,1018.93
18.267,0.00,1.00,-0.08,0.33,0.19,0.14,0.17,-0.10,-0.38,1018.98
18.278,0.00,1.00,-0.08,0.33,0.19,0.14,0.32,-0.08,-0.41,1018.98
18.299,0.03,1.01,-0.08,0.33,0.19,0.14,0.32,-0.08,-0.41,1018.98
18.3,0.01,1.00,-0.06,0.33,0.19,0.14,0.32,-0.08,-0.41,1018.98
18.3,0.01,1.00,-0.06,0.40,0.24,0.57,0.32,-0.08,-0.41,1018.98
18.304,0.01,1.00,-0.06,0.40,0.24,0.57,0.32,-0.08,-0.41,1019.06
18.318,0.04,1.01,-0.07,0.40,0.24,0.57,0.32,-0.08,-0.41,1019.06
18.348,0.03,1.01,-0.07,0.40,0.24,0.57,0.32,-0.08,-0.41,1019.06
18.349,0.03,1.01,-0.07,0.40,0.24,0.57,0.43,-0.10,-0.62,1019.06
18.368,0.01,1.04,-0.13,0.40,0.24,0.57,0.43,-0.10,-0.62,1019.06
18.368,0.01,1.04,-0.13,0.66,0.45,0.13,0.43,-0.10,-0.62,1019.06
18.384,0.03,1.08,-0.19,0.66,0.45,0.13,0.43,-0.10,-0.62,1019.06
18.385,0.03,1.08,-0.19,0.66,0.45,0.13,0.43,-0.10,-0.62,1019.17
18.418,0.03,1.08,-0.19,0.66,0.45,0.13,0.49,-0.21,-1.06,1019.17
18.419,0.05,1.09,-0.17,0.66,0.45,0.13,0.49,-0.21,-1.06,1019.17
18.439,0.05,1.09,-0.17,1.30,0.76,0.15,0.49,-0.21,-1.06,1019.17
18.44,0.03,1.10,-0.10,1.30,0.76,0.15,0.49,-0.21,-1.06,1019.17
18.44,0.08,1.16,-0.11,1.30,0.76,0.15,0.49,-0.21,-1.06,1019.17
18.459,0.13,1.26,-0.13,1.30,0.76,0.15,0.49,-0.21,-1.06,1019.17
18.465,0.13,1.26,-0.13,1.30,0.76,0.15,0.49,-0.21,-1.06,1019.35
18.488,0.13,1.26,-0.13,1.30,0.76,0.15,0.71,-0.28,-1.93,1019.35
18.488,0.19,1.35,-0.19,1.30,0.76,0.15,0.71,-0.28,-1.93,1019.35
18.507,0.25,1.38,-0.18,1.30,0.76,0.15,0.71,-0.28,-1.93,1019.35
18.508,0.25,1.38,-0.18,1.30,0.76,0.15,0.71,-0.28,-1.93,1019.29
18.508,0.25,1.38,-0.18,2.33,1.75,0.15,0.71,-0.28,-1.93,1019.29
18.541,0.23,1.40,-0.19,2.33,1.75,0.15,0.71,-0.28,-1.93,1019.29
18.543,0.06,1.39,-0.03,2.33,1.75,0.15,0.71,-0.28,-1.93,1019.29
18.559,0.06,1.39,-0.03,2.33,1.75,0.15,0.88,-0.50,-3.34,1019.29
18.578,0.01,1.27,0.11,2.33,1.75,0.15,0.88,-0.50,-3.34,1019.29
18.579,-0.29,1.24,0.20,2.33,1.75,0.15,0.88,-0.50,-3.34,1019.29
18.58,-0.29,1.24,0.20,5.36,4.48,0.23,0.88,-0.50,-3.34,1019.29
18.586,-0.29,1.24,0.20,5.36,4.48,0.23,0.88,-0.50,-3.34,1018.34
18.629,-0.29,1.24,0.20,5.36,4.48,0.23,2.26,-1.77,-3.83,1018.34
18.63,-0.33,1.06,0.19,5.36,4.48,0.23,2.26,-1.77,-3.83,1018.34
18.63,-0.30,0.81,0.35,5.36,4.48,0.23,2.26,-1.77,-3.83,1018.34
18.649,-2.10,0.34,-0.32,5.36,4.48,0.23,2.26,-1.77,-3.83,1018.34
18.65,-2.10,0.34,-0.32,5.23,5.49,2.85,2.26,-1.77,-3.83,1018.34
18.665,-0.89,0.70,-0.40,5.23,5.49,2.85,2.26,-1.77,-3.83,1018.34
18.665,-0.89,0.70,-0.40,5.23,5.49,2.85,2.26,-1.77,-3.83,1017.87
18.704,-0.89,0.70,-0.40,5.23,5.49,2.85,1.96,-4.19,1.33,1017.87
18.705,0.75,0.81,-0.07,5.23,5.49,2.85,1.96,-4.19,1.33,1017.87
18.705,0.48,0.76,0.14,5.23,5.49,2.85,1.96,-4.19,1.33,1017.87
18.706,0.48,0.76,0.14,5.23,5.49,2.85,1.96,-4.19,1.33,1018.41
18.72,0.10,0.57,0.52,5.23,5.49,2.85,1.96,-4.19,1.33,1018.41
18.721,0.10,0.57,0.52,-3.75,1.00,1.94,1.96,-4.19,1.33,1018.41
18.741,-0.08,0.47,0.60,-3.75,1.00,1.94,1.96,-4.19,1.33,1018.41
18.768,-0.08,0.47,0.60,-3.75,1.00,1.94,1.83,-2.15,2.73,1018.41
18.769,0.00,0.48,0.44,-3.75,1.00,1.94,1.83,-2.15,2.73,1018.41
18.785,0.02,0.56,0.12,-3.75,1.00,1.94,1.83,-2.15,2.73,1018.41
18.786,0.02,0.56,0.12,-3.75,1.00,1.94,1.83,-2.15,2.73,1018.81
18.788,0.02,0.56,0.12,10.59,0.02,2.38,1.83,-2.15,2.73,1018.81
18.84,0.02,0.56,0.12,10.59,0.02,2.38,1.60,-2.15,4.08,1018.81
18.841,-0.03,0.66,-0.08,10.59,0.02,2.38,1.60,-2.15,4.08,1018.81
18.841,-0.02,0.65,0.15,10.59,0.02,2.38,1.60,-2.15,4.08,1018.81
18.85,0.12,0.72,0.27,10.59,0.02,2.38,1.60,-2.15,4.08,1018.81
18.86,0.13,0.82,0.27,10.59,0.02,2.38,1.60,-2.15,4.08,1018.81
18.861,0.13,0.82,0.27,4.38,-2.90,4.45,1.60,-2.15,4.08,1018.81
18.865,0.13,0.82,0.27,4.38,-2.90,4.45,1.60,-2.15,4.08,1018.97
18.905,0.13,0.82,0.27,4.38,-2.90,4.45,1.60,-2.15,4.08,1018.93
18.906,0.18,0.95,0.24,4.38,-2.90,4.45,1.60,-2.15,4.08,1018.93
18.906,0.29,1.15,0.21,4.38,-2.90,4.45,1.60,-2.15,4.08,1018.93
18.907,0.29,1.15,0.21,4.38,-2.90,4.45,1.19,-2.59,4.44,1018.93
18.928,0.45,1.35,0.23,4.38,-2.90,4.45,1.19,-2.59,4.44,1018.93
18.929,0.45,1.35,0.23,2.69,-1.84,3.25,1.19,-2.59,4.44,1018.93
18.942,0.27,1.45,0.40,2.69,-1.84,3.25,1.19,-2.59,4.44,1018.93
18.98,0.27,1.45,0.40,2.69,-1.84,3.25,0.98,-1.71,4.01,1018.93
18.981,0.04,1.45,0.62,2.69,-1.84,3.25,0.98,-1.71,4.01,1018.93
18.985,0.20,1.57,0.67,2.69,-1.84,3.25,0.98,-1.71,4.01,1018.93
18.985,0.20,1.57,0.67,2.69,-1.84,3.25,0.98,-1.71,4.01,1018.92
18.998,0.23,1.78,0.63,2.69,-1.84,3.25,0.98,-1.71,4.01,1018.92
18.999,0.23,1.78,0.63,2.84,2.57,4.27,0.98,-1.71,4.01,1018.92
19.022,-0.00,1.86,0.52,2.84,2.57,4.27,0.98,-1.71,4.01,1018.92
19.05,-0.00,1.86,0.52,2.84,2.57,4.27,-0.52,0.76,3.79,1018.92
19.051,-0.19,2.00,-0.19,2.84,2.57,4.27,-0.52,0.76,3.79,1018.92
19.066,-0.91,1.82,-0.47,2.84,2.57,4.27,-0.52,0.76,3.79,1018.92
19.067,-0.91,1.82,-0.47,2.84,2.57,4.27,-0.52,0.76,3.79,1018.89
19.068,-0.91,1.82,-0.47,-1.17,6.81,8.29,-0.52,0.76,3.79,1018.89
19.108,-2.10,1.09,0.30,-1.17,6.81,8.29,-0.52,0.76,3.79,1018.89
19.109,-1.77,1.15,0.32,-1.17,6.81,8.29,-0.52,0.76,3.79,1018.89
19.109,-1.77,1.15,0.32,-1.17,6.81,8.29,-0.52,0.76,3.79,1018.95
19.133,-1.77,1.15,0.32,-1.17,6.81,8.29,-1.09,-0.95,0.96,1018.95
19.133,-1.01,1.61,-0.35,-1.17,6.81,8.29,-1.09,-0.95,0.96,1018.95
19.139,-0.48,1.65,-0.33,-1.17,6.81,8.29,-1.09,-0.95,0.96,1018.95
19.139,-0.48,1.65,-0.33,-10.05,9.43,0.97,-1.09,-0.95,0.96,1018.95
19.188,0.46,1.24,-1.57,-10.05,9.43,0.97,-1.09,-0.95,0.96,1018.95
19.188,0.82,0.81,-0.31,-10.05,9.43,0.97,-1.09,-0.95,0.96,1018.95
19.189,0.82,0.81,-0.31,-10.05,9.43,0.97,-1.09,-0.95,0.96,1019.25
19.189,0.82,0.81,-0.31,-10.05,9.43,0.97,-1.40,-3.18,-2.61,1019.25
19.208,-0.04,1.15,-0.24,-10.05,9.43,0.97,-1.40,-3.18,-2.61,1019.25
19.208,-0.04,1.15,-0.24,-15.64,4.89,1.11,-1.40,-3.18,-2.61,1019.25
19.25,-0.91,1.04,-0.05,-15.64,4.89,1.11,-1.40,-3.18,-2.61,1019.25
19.251,0.25,1.07,0.25,-15.64,4.89,1.11,-1.40,-3.18,-2.61,1019.25
19.258,0.25,1.07,0.25,-15.64,4.89,1.11,-0.89,-0.42,-1.55,1019.25
19.266,-0.09,1.00,-0.20,-15.64,4.89,1.11,-0.89,-0.42,-1.55,1019.25
19.266,-0.09,1.00,-0.20,-15.64,4.89,1.11,-0.89,-0.42,-1.55,1019.79
19.278,0.09,0.96,0.13,-15.64,4.89,1.11,-0.89,-0.42,-1.55,1019.79
19.279,0.09,0.96,0.13,-0.31,1.20,-5.86,-0.89,-0.42,-1.55,1019.79
19.304,-0.16,0.97,0.09,-0.31,1.20,-5.86,-0.89,-0.42,-1.55,1019.79
19.304,-0.16,0.97,0.09,-0.31,1.20,-5.86,-0.89,-0.42,-1.55,1019.42
19.328,-0.16,0.97,0.09,-0.31,1.20,-5.86,-0.40,-0.23,-0.75,1019.42
19.329,-0.04,1.00,-0.06,-0.31,1.20,-5.86,-0.40,-0.23,-0.75,1019.42
19.344,0.02,1.00,-0.02,-0.31,1.20,-5.86,-0.40,-0.23,-0.75,1019.42
19.348,0.02,1.00,-0.02,-0.53,0.51,1.71,-0.40,-0.23,-0.75,1019.42
19.384,0.02,1.01,-0.00,-0.53,0.51,1.71,-0.40,-0.23,-0.75,1019.42
19.384,0.04,1.01,0.00,-0.53,0.51,1.71,-0.40,-0.23,-0.75,1019.42
19.384,0.04,1.01,0.00,-0.53,0.51,1.71,-0.40,-0.23,-0.75,1019.03
19.403,0.04,1.01,0.00,-0.53,0.51,1.71,-0.20,-0.01,-0.36,1019.03
19.425,0.04,1.01,0.00,-1.02,0.32,0.36,-0.20,-0.01,-0.36,1019.03
19.426,0.07,0.99,0.05,-1.02,0.32,0.36,-0.20,-0.01,-0.36,1019.03
19.426,0.04,0.98,0.06,-1.02,0.32,0.36,-0.20,-0.01,-0.36,1019.03
19.453,0.03,0.98,0.03,-1.02,0.32,0.36,-0.20,-0.01,-0.36,1019.03
19.465,0.02,0.98,0.01,-1.02,0.32,0.36,-0.20,-0.01,-0.36,1019.03
19.466,0.02,0.98,0.01,-1.02,0.32,0.36,-0.20,-0.01,-0.36,1018.80
19.474,0.02,0.98,0.01,-1.02,0.32,0.36,0.06,0.05,-0.34,1018.80
19.492,-0.00,0.99,-0.05,-1.02,0.32,0.36,0.06,0.05,-0.34,1018.80
19.493,-0.00,0.99,-0.05,0.17,0.32,0.55,0.06,0.05,-0.34,1018.80
19.505,0.00,0.98,-0.05,0.17,0.32,0.55,0.06,0.05,-0.34,1018.80
19.505,0.00,0.98,-0.05,0.17,0.32,0.55,0.06,0.05,-0.34,1018.76
19.541,-0.01,0.97,-0.00,0.17,0.32,0.55,0.06,0.05,-0.34,1018.76
19.541,-0.01,0.97,-0.00,0.17,0.32,0.55,0.09,0.01,-0.31,1018.76
19.542,-0.01,0.95,0.03,0.17,0.32,0.55,0.09,0.01,-0.31,1018.76
19.559,-0.02,0.96,0.01,0.17,0.32,0.55,0.09,0.01,-0.31,1018.76
19.559,-0.02,0.96,0.01,0.07,0.19,0.21,0.09,0.01,-0.31,1018.76
19.586,-0.05,0.98,-0.06,0.07,0.19,0.21,0.09,0.01,-0.31,1018.76
19.587,-0.05,0.98,-0.06,0.07,0.19,0.21,0.09,0.01,-0.31,1018.83
19.609,-0.05,0.98,-0.06,0.07,0.19,0.21,0.12,0.02,-0.26,1018.83
19.609,-0.03,0.97,-0.04,0.07,0.19,0.21,0.12,0.02,-0.26,1018.83
19.628,-0.03,0.97,-0.04,0.02,-0.00,0.43,0.12,0.02,-0.26,1018.83
19.628,-0.02,0.97,-0.00,0.02,-0.00,0.43,0.12,0.02,-0.26,1018.83
19.651,-0.03,0.97,-0.02,0.02,-0.00,0.43,0.12,0.02,-0.26,1018.83
19.664,0.01,1.00,-0.02,0.02,-0.00,0.43,0.12,0.02,-0.26,1018.83
19.665,0.01,1.00,-0.02,0.02,-0.00,0.43,0.12,0.02,-0.26,1018.94
19.679,0.01,1.00,-0.02,0.02,-0.00,0.43,0.17,0.01,-0.28,1018.94
19.7,0.01,1.00,-0.02,-0.06,0.10,0.15,0.17,0.01,-0.28,1018.94
19.7,0.05,1.04,-0.03,-0.06,0.10,0.15,0.17,0.01,-0.28,1018.94
19.701,0.06,1.06,-0.05,-0.06,0.10,0.15,0.17,0.01,-0.28,1018.94
19.706,0.06,1.06,-0.05,-0.06,0.10,0.15,0.17,0.01,-0.28,1019.06
19.741,0.10,1.10,-0.09,-0.06,0.10,0.15,0.17,0.01,-0.28,1019.06
19.742,0.09,1.13,-0.14,-0.06,0.10,0.15,0.17,0.01,-0.28,1019.06
19.748,0.09,1.13,-0.14,-0.06,0.10,0.15,0.19,-0.04,-0.75,1019.06
19.772,0.13,1.18,-0.12,-0.06,0.10,0.15,0.19,-0.04,-0.75,1019.06
19.772,0.13,1.18,-0.12,0.85,0.62,0.28,0.19,-0.04,-0.75,1019.06
19.786,0.16,1.22,-0.08,0.85,0.62,0.28,0.19,-0.04,-0.75,1019.06
19.786,0.16,1.22,-0.08,0.85,0.62,0.28,0.19,-0.04,-0.75,1019.11
19.799,0.16,1.27,-0.13,0.85,0.62,0.28,0.19,-0.04,-0.75,1019.11
19.82,0.16,1.27,-0.13,0.85,0.62,0.28,0.10,-0.09,-1.75,1019.11
19.839,0.17,1.33,-0.18,0.85,0.62,0.28,0.10,-0.09,-1.75,1019.11
19.839,0.25,1.44,-0.21,0.85,0.62,0.28,0.10,-0.09,-1.75,1019.11
19.839,0.25,1.44,-0.21,2.34,1.87,-0.41,0.10,-0.09,-1.75,1019.11
19.865,0.39,1.44,-0.05,2.34,1.87,-0.41,0.10,-0.09,-1.75,1019.11
19.865,0.39,1.44,-0.05,2.34,1.87,-0.41,0.10,-0.09,-1.75,1019.28
19.888,0.48,1.46,0.03,2.34,1.87,-0.41,0.10,-0.09,-1.75,1019.28
19.889,0.48,1.46,0.03,2.34,1.87,-0.41,0.02,0.17,-3.34,1019.28
19.906,0.41,1.45,0.00,2.34,1.87,-0.41,0.02,0.17,-3.34,1019.28
19.906,0.41,1.45,0.00,2.34,1.87,-0.41,0.02,0.17,-3.34,1018.72
19.909,0.41,1.45,0.00,4.51,3.91,-0.82,0.02,0.17,-3.34,1018.72
19.941,0.24,1.36,0.03,4.51,3.91,-0.82,0.02,0.17,-3.34,1018.72
19.942,-0.21,1.36,0.12,4.51,3.91,-0.82,0.02,0.17,-3.34,1018.72
19.959,-0.21,1.36,0.12,4.51,3.91,-0.82,0.13,0.33,-5.16,1018.72
19.98,-0.21,1.36,0.12,9.06,6.09,0.80,0.13,0.33,-5.16,1018.72
19.98,-0.33,1.22,0.34,9.06,6.09,0.80,0.13,0.33,-5.16,1018.72
19.981,-0.15,1.00,0.16,9.06,6.09,0.80,0.13,0.33,-5.16,1018.72
19.984,-0.15,1.00,0.16,9.06,6.09,0.80,0.13,0.33,-5.16,1018.24
20.029,-0.15,1.00,0.16,9.06,6.09,0.80,0.69,-0.61,-2.07,1018.24
20.03,-0.90,0.04,-0.12,9.06,6.09,0.80,0.69,-0.61,-2.07,1018.24
20.03,-1.58,0.45,0.05,9.06,6.09,0.80,0.69,-0.61,-2.07,1018.24
20.049,0.52,0.49,0.03,9.06,6.09,0.80,0.69,-0.61,-2.07,1018.24
20.049,0.52,0.49,0.03,5.79,6.09,2.81,0.69,-0.61,-2.07,1018.24
20.066,0.49,0.46,-0.05,5.79,6.09,2.81,0.69,-0.61,-2.07,1018.24
20.066,0.49,0.46,-0.05,5.79,6.09,2.81,0.69,-0.61,-2.07,1018.47
20.099,0.49,0.46,-0.05,5.79,6.09,2.81,0.42,-0.98,1.95,1018.47
20.1,0.11,0.31,0.11,5.79,6.09,2.81,0.42,-0.98,1.95,1018.47
20.105,-0.25,0.21,0.20,5.79,6.09,2.81,0.42,-0.98,1.95,1018.47
20.105,-0.25,0.21,0.20,5.79,6.09,2.81,0.42,-0.98,1.95,1018.73
20.12,-0.25,0.21,0.20,2.47,-2.62,0.55,0.42,-0.98,1.95,1018.73
20.12,-0.00,0.31,0.08,2.47,-2.62,0.55,0.42,-0.98,1.95,1018.73
20.141,0.15,0.42,0.04,2.47,-2.62,0.55,0.42,-0.98,1.95,1018.73
20.169,0.15,0.42,0.04,2.47,-2.62,0.55,0.77,-0.80,4.54,1018.73
20.17,0.08,0.50,0.07,2.47,-2.62,0.55,0.77,-0.80,4.54,1018.73
20.184,0.08,0.59,0.12,2.47,-2.62,0.55,0.77,-0.80,4.54,1018.73
20.184,0.08,0.59,0.12,2.47,-2.62,0.55,0.77,-0.80,4.54,1018.82
20.188,0.08,0.59,0.12,5.96,-4.44,1.53,0.77,-0.80,4.54,1018.82
20.239,0.21,0.74,0.09,5.96,-4.44,1.53,0.77,-0.80,4.54,1018.82
20.24,0.52,1.11,0.03,5.96,-4.44,1.53,0.77,-0.80,4.54,1018.82
20.241,0.52,1.11,0.03,5.96,-4.44,1.53,0.89,-0.20,5.28,1018.82
20.25,0.35,1.48,0.07,5.96,-4.44,1.53,0.89,-0.20,5.28,1018.82
20.26,-0.05,1.62,0.18,5.96,-4.44,1.53,0.89,-0.20,5.28,1018.82
20.261,-0.05,1.62,0.18,3.74,-3.64,1.63,0.89,-0.20,5.28,1018.82
20.265,-0.05,1.62,0.18,3.74,-3.64,1.63,0.89,-0.20,5.28,1019.00
20.304,-0.05,1.62,0.18,3.74,-3.64,1.63,0.89,-0.20,5.28,1019.03
20.305,-0.31,1.73,0.19,3.74,-3.64,1.63,0.89,-0.20,5.28,1019.03
20.306,-0.33,1.75,0.15,3.74,-3.64,1.63,0.89,-0.20,5.28,1019.03
