time,gFx,gFy,gFz,ax,ay,az,wx,wy,wz,P
0.003,0.00,0.98,0.04,-0.01,0.02,-0.12,0.00,-0.01,0.00,1019.03
0.023,0.00,0.98,0.04,-0.01,0.02,-0.12,-0.03,-0.01,-0.00,1019.03
0.024,-0.02,0.99,0.01,-0.01,0.02,-0.12,-0.03,-0.01,-0.00,1019.03
0.031,-0.02,0.99,0.01,-0.01,0.02,-0.12,-0.03,-0.01,-0.00,1019.03
0.044,-0.03,0.98,0.07,-0.01,0.02,-0.12,-0.03,-0.01,-0.00,1019.03
0.044,-0.03,0.98,0.07,-0.05,-0.02,0.13,-0.03,-0.01,-0.00,1019.03
0.063,-0.01,0.98,0.05,-0.05,-0.02,0.13,-0.03,-0.01,-0.00,1019.03
0.071,-0.01,0.98,0.05,-0.05,-0.02,0.13,-0.03,-0.01,-0.00,1019.05
0.084,-0.01,0.98,0.07,-0.05,-0.02,0.13,-0.03,-0.01,-0.00,1019.05
0.093,-0.01,0.98,0.07,-0.05,-0.02,0.13,-0.05,0.01,0.02,1019.05
0.104,-0.02,0.99,0.04,-0.05,-0.02,0.13,-0.05,0.01,0.02,1019.05
0.113,-0.02,0.99,0.04,-0.05,0.01,-0.10,-0.05,0.01,0.02,1019.05
0.123,-0.04,0.99,0.02,-0.05,0.01,-0.10,-0.05,0.01,0.02,1019.05
0.151,-0.02,0.99,0.07,-0.05,0.01,-0.10,-0.05,0.01,0.02,1019.05
0.151,-0.02,0.99,0.07,-0.05,0.01,-0.10,-0.05,0.01,0.02,1019.04
0.163,-0.02,0.99,0.07,-0.05,0.01,-0.10,-0.06,0.02,0.06,1019.04
0.164,-0.01,0.98,0.06,-0.05,0.01,-0.10,-0.06,0.02,0.06,1019.04
0.183,-0.00,0.98,0.08,-0.05,0.01,-0.10,-0.06,0.02,0.06,1019.04
0.184,-0.00,0.98,0.08,-0.11,0.00,-0.06,-0.06,0.02,0.06,1019.04
0.204,-0.00,0.98,0.05,-0.11,0.00,-0.06,-0.06,0.02,0.06,1019.04
0.223,-0.01,0.98,0.08,-0.11,0.00,-0.06,-0.06,0.02,0.06,1019.04
0.23,-0.01,0.98,0.08,-0.11,0.00,-0.06,-0.06,0.02,0.06,1019.02
0.232,-0.01,0.98,0.08,-0.11,0.00,-0.06,-0.01,0.01,0.07,1019.02
0.242,-0.00,0.98,0.08,-0.11,0.00,-0.06,-0.01,0.01,0.07,1019.02
0.253,-0.00,0.98,0.08,-0.13,0.02,0.06,-0.01,0.01,0.07,1019.02
0.263,0.02,0.97,0.07,-0.13,0.02,0.06,-0.01,0.01,0.07,1019.02
0.271,0.02,0.97,0.07,-0.13,0.02,0.06,-0.01,0.01,0.07,1018.97
0.283,0.03,0.99,0.02,-0.13,0.02,0.06,-0.01,0.01,0.07,1018.97
0.304,0.03,0.99,0.02,-0.13,0.02,0.06,0.02,-0.02,0.03,1018.97
0.304,0.01,0.98,0.07,-0.13,0.02,0.06,0.02,-0.02,0.03,1018.97
0.324,-0.01,0.98,0.09,-0.13,0.02,0.06,0.02,-0.02,0.03,1018.97
0.325,-0.01,0.98,0.09,0.01,-0.00,0.12,0.02,-0.02,0.03,1018.97
0.343,0.01,0.97,0.09,0.01,-0.00,0.12,0.02,-0.02,0.03,1018.97
0.351,0.01,0.97,0.09,0.01,-0.00,0.12,0.02,-0.02,0.03,1018.97
0.363,0.01,0.97,0.09,0.01,-0.00,0.12,0.02,-0.02,0.03,1018.97
0.372,0.01,0.97,0.09,0.01,-0.00,0.12,0.12,0.01,-0.00,1018.97
0.384,-0.01,0.98,0.06,0.01,-0.00,0.12,0.12,0.01,-0.00,1018.97
0.393,-0.01,0.98,0.06,0.10,-0.01,0.10,0.12,0.01,-0.00,1018.97
0.404,0.00,0.98,0.09,0.10,-0.01,0.10,0.12,0.01,-0.00,1018.97
0.424,-0.01,0.99,0.03,0.10,-0.01,0.10,0.12,0.01,-0.00,1018.97
0.432,-0.01,0.99,0.03,0.10,-0.01,0.10,0.12,0.01,-0.00,1018.98
0.446,-0.01,0.99,0.03,0.10,-0.01,0.10,0.26,0.02,-0.03,1018.98
0.447,0.00,1.00,0.02,0.10,-0.01,0.10,0.26,0.02,-0.03,1018.98
0.463,-0.01,0.98,0.08,0.10,-0.01,0.10,0.26,0.02,-0.03,1018.98
0.463,-0.01,0.98,0.08,0.07,-0.07,0.48,0.26,0.02,-0.03,1018.98
0.471,-0.01,0.98,0.08,0.07,-0.07,0.48,0.26,0.02,-0.03,1018.99
0.483,-0.01,0.99,0.03,0.07,-0.07,0.48,0.26,0.02,-0.03,1018.99
0.503,-0.03,1.00,0.02,0.07,-0.07,0.48,0.26,0.02,-0.03,1018.99
0.513,-0.03,1.00,0.02,0.07,-0.07,0.48,0.38,-0.00,-0.01,1018.99
0.524,-0.04,1.01,-0.01,0.07,-0.07,0.48,0.38,-0.00,-0.01,1018.99
0.533,-0.04,1.01,-0.01,-0.02,0.06,0.41,0.38,-0.00,-0.01,1018.99
0.548,-0.03,1.00,-0.01,-0.02,0.06,0.41,0.38,-0.00,-0.01,1018.99
0.551,-0.03,1.00,-0.01,-0.02,0.06,0.41,0.38,-0.00,-0.01,1018.91
0.563,-0.01,0.99,-0.04,-0.02,0.06,0.41,0.38,-0.00,-0.01,1018.91
0.584,-0.01,0.99,-0.04,-0.02,0.06,0.41,0.43,-0.05,0.07,1018.91
0.585,0.00,1.00,-0.06,-0.02,0.06,0.41,0.43,-0.05,0.07,1018.91
0.603,-0.01,0.99,-0.05,-0.02,0.06,0.41,0.43,-0.05,0.07,1018.91
0.604,-0.01,0.99,-0.05,-0.25,0.12,0.26,0.43,-0.05,0.07,1018.91
0.623,-0.01,1.00,-0.08,-0.25,0.12,0.26,0.43,-0.05,0.07,1018.91
0.63,-0.01,1.00,-0.08,-0.25,0.12,0.26,0.43,-0.05,0.07,1018.77
0.644,0.00,1.00,-0.09,-0.25,0.12,0.26,0.43,-0.05,0.07,1018.77
0.652,0.00,1.00,-0.09,-0.25,0.12,0.26,0.32,-0.19,0.08,1018.77
0.664,-0.05,1.02,-0.08,-0.25,0.12,0.26,0.32,-0.19,0.08,1018.77
0.67,-0.05,1.02,-0.08,-0.25,0.12,0.26,0.32,-0.19,0.08,1018.62
0.672,-0.05,1.02,-0.08,-0.12,0.08,-0.10,0.32,-0.19,0.08,1018.62
0.683,-0.13,1.03,-0.02,-0.12,0.08,-0.10,0.32,-0.19,0.08,1018.62
0.703,-0.20,1.06,0.00,-0.12,0.08,-0.10,0.32,-0.19,0.08,1018.62
0.723,-0.20,1.06,0.00,-0.12,0.08,-0.10,0.25,-0.26,0.42,1018.62
0.724,-0.25,1.10,-0.01,-0.12,0.08,-0.10,0.25,-0.26,0.42,1018.62
0.744,-0.08,0.99,0.18,-0.12,0.08,-0.10,0.25,-0.26,0.42,1018.62
0.745,-0.08,0.99,0.18,-0.77,0.24,-0.19,0.25,-0.26,0.42,1018.62
0.75,-0.08,0.99,0.18,-0.77,0.24,-0.19,0.25,-0.26,0.42,1018.63
0.763,0.15,0.94,0.15,-0.77,0.24,-0.19,0.25,-0.26,0.42,1018.63
0.784,0.01,0.99,-0.03,-0.77,0.24,-0.19,0.25,-0.26,0.42,1018.63
0.793,0.01,0.99,-0.03,-0.77,0.24,-0.19,0.72,0.35,0.76,1018.63
0.803,-0.28,1.13,-0.21,-0.77,0.24,-0.19,0.72,0.35,0.76,1018.63
0.813,-0.28,1.13,-0.21,-2.42,0.66,1.43,0.72,0.35,0.76,1018.63
0.823,-0.33,1.07,-0.11,-2.42,0.66,1.43,0.72,0.35,0.76,1018.63
0.83,-0.33,1.07,-0.11,-2.42,0.66,1.43,0.72,0.35,0.76,1018.88
0.849,-0.37,0.89,0.06,-2.42,0.66,1.43,0.72,0.35,0.76,1018.88
0.863,-0.37,0.89,0.06,-2.42,0.66,1.43,0.19,0.96,-0.08,1018.88
0.864,-0.42,0.90,-0.05,-2.42,0.66,1.43,0.19,0.96,-0.08,1018.88
0.87,-0.42,0.90,-0.05,-2.42,0.66,1.43,0.19,0.96,-0.08,1018.96
0.883,-0.42,0.90,-0.05,-1.33,0.53,0.47,0.19,0.96,-0.08,1018.96
0.884,-0.44,0.95,-0.12,-1.33,0.53,0.47,0.19,0.96,-0.08,1018.96
0.903,-0.41,0.92,-0.12,-1.33,0.53,0.47,0.19,0.96,-0.08,1018.96
0.923,-0.37,0.92,-0.12,-1.33,0.53,0.47,0.19,0.96,-0.08,1018.96
0.934,-0.37,0.92,-0.12,-1.33,0.53,0.47,0.07,0.13,-0.78,1018.96
0.944,-0.34,0.94,-0.15,-1.33,0.53,0.47,0.07,0.13,-0.78,1018.96
0.95,-0.34,0.94,-0.15,-1.33,0.53,0.47,0.07,0.13,-0.78,1018.93
0.952,-0.34,0.94,-0.15,-3.59,-0.57,0.55,0.07,0.13,-0.78,1018.93
0.964,-0.36,0.97,-0.18,-3.59,-0.57,0.55,0.07,0.13,-0.78,1018.93
0.983,-0.31,0.99,-0.19,-3.59,-0.57,0.55,0.07,0.13,-0.78,1018.93
1.003,-0.31,0.99,-0.19,-3.59,-0.57,0.55,0.03,-0.48,-1.06,1018.93
1.004,-0.22,0.99,-0.22,-3.59,-0.57,0.55,0.03,-0.48,-1.06,1018.93
1.023,-0.22,0.99,-0.22,-2.52,-0.44,-0.36,0.03,-0.48,-1.06,1018.93
1.025,-0.08,0.97,-0.20,-2.52,-0.44,-0.36,0.03,-0.48,-1.06,1018.93
1.033,-0.08,0.97,-0.20,-2.52,-0.44,-0.36,0.03,-0.48,-1.06,1018.90
1.043,0.04,0.98,-0.24,-2.52,-0.44,-0.36,0.03,-0.48,-1.06,1018.90
1.063,0.11,0.96,-0.23,-2.52,-0.44,-0.36,0.03,-0.48,-1.06,1018.90
1.07,0.11,0.96,-0.23,-2.52,-0.44,-0.36,0.03,-0.48,-1.06,1018.91
1.072,0.11,0.96,-0.23,-2.52,-0.44,-0.36,0.02,-0.28,-1.12,1018.91
1.083,0.16,0.93,-0.27,-2.52,-0.44,-0.36,0.02,-0.28,-1.12,1018.91
1.093,0.16,0.93,-0.27,-0.27,0.20,-0.99,0.02,-0.28,-1.12,1018.91
1.103,0.19,0.87,-0.23,-0.27,0.20,-0.99,0.02,-0.28,-1.12,1018.91
1.123,0.29,0.84,-0.15,-0.27,0.20,-0.99,0.02,-0.28,-1.12,1018.91
1.143,0.29,0.84,-0.15,-0.27,0.20,-0.99,0.02,-0.28,-0.87,1018.91
1.145,0.42,0.85,-0.12,-0.27,0.20,-0.99,0.02,-0.28,-0.87,1018.91
1.15,0.42,0.85,-0.12,-0.27,0.20,-0.99,0.02,-0.28,-0.87,1018.98
1.163,0.41,0.90,-0.04,-0.27,0.20,-0.99,0.02,-0.28,-0.87,1018.98
1.164,0.41,0.90,-0.04,3.30,-0.08,-1.42,0.02,-0.28,-0.87,1018.98
1.183,0.40,0.91,0.09,3.30,-0.08,-1.42,0.02,-0.28,-0.87,1018.98
1.203,0.49,0.93,0.13,3.30,-0.08,-1.42,0.02,-0.28,-0.87,1018.98
1.213,0.49,0.93,0.13,3.30,-0.08,-1.42,-0.37,0.20,0.58,1018.98
1.223,0.52,0.88,0.17,3.30,-0.08,-1.42,-0.37,0.20,0.58,1018.98
1.23,0.52,0.88,0.17,3.30,-0.08,-1.42,-0.37,0.20,0.58,1019.05
1.233,0.52,0.88,0.17,4.69,-1.05,-0.42,-0.37,0.20,0.58,1019.05
1.243,0.52,1.54,0.18,4.69,-1.05,-0.42,-0.37,0.20,0.58,1019.05
1.263,0.20,0.65,-0.46,4.69,-1.05,-0.42,-0.37,0.20,0.58,1019.05
1.27,0.20,0.65,-0.46,4.69,-1.05,-0.42,-0.37,0.20,0.58,1018.96
1.283,0.20,0.65,-0.46,4.69,-1.05,-0.42,-0.56,1.22,1.14,1018.96
1.285,-0.11,1.04,-2.03,4.69,-1.05,-0.42,-0.56,1.22,1.14,1018.96
1.303,0.21,1.16,1.10,4.69,-1.05,-0.42,-0.56,1.22,1.14,1018.96
1.305,0.21,1.16,1.10,5.25,-0.75,1.68,-0.56,1.22,1.14,1018.96
1.323,-0.26,1.02,-0.51,5.25,-0.75,1.68,-0.56,1.22,1.14,1018.96
1.343,0.18,1.01,-0.25,5.25,-0.75,1.68,-0.56,1.22,1.14,1018.96
1.35,0.18,1.01,-0.25,5.25,-0.75,1.68,-0.56,1.22,1.14,1020.07
1.352,0.18,1.01,-0.25,5.25,-0.75,1.68,-0.51,0.26,0.20,1020.07
1.363,-0.05,0.93,0.18,5.25,-0.75,1.68,-0.51,0.26,0.20,1020.07
1.373,-0.05,0.93,0.18,1.88,1.49,-3.38,-0.51,0.26,0.20,1020.07
1.383,-0.13,0.95,0.17,1.88,1.49,-3.38,-0.51,0.26,0.20,1020.07
1.403,-0.02,1.00,-0.05,1.88,1.49,-3.38,-0.51,0.26,0.20,1020.07
1.423,-0.02,1.00,-0.05,1.88,1.49,-3.38,-0.25,0.11,0.14,1020.07
1.424,0.03,1.00,-0.01,1.88,1.49,-3.38,-0.25,0.11,0.14,1020.07
1.435,0.03,1.00,-0.01,1.88,1.49,-3.38,-0.25,0.11,0.14,1019.43
1.443,0.01,1.01,-0.06,1.88,1.49,-3.38,-0.25,0.11,0.14,1019.43
1.444,0.01,1.01,-0.06,-0.40,-0.04,-1.25,-0.25,0.11,0.14,1019.43
1.463,-0.03,1.01,-0.04,-0.40,-0.04,-1.25,-0.25,0.11,0.14,1019.43
1.47,-0.03,1.01,-0.04,-0.40,-0.04,-1.25,-0.25,0.11,0.14,1019.36
1.483,-0.03,0.99,-0.00,-0.40,-0.04,-1.25,-0.25,0.11,0.14,1019.36
1.492,-0.03,0.99,-0.00,-0.40,-0.04,-1.25,-0.15,0.08,0.06,1019.36
1.504,-0.02,0.98,0.02,-0.40,-0.04,-1.25,-0.15,0.08,0.06,1019.36
1.514,-0.02,0.98,0.02,0.21,0.17,-0.04,-0.15,0.08,0.06,1019.36
1.523,-0.01,0.99,-0.01,0.21,0.17,-0.04,-0.15,0.08,0.06,1019.36
1.543,-0.01,0.99,-0.03,0.21,0.17,-0.04,-0.15,0.08,0.06,1019.36
1.551,-0.01,0.99,-0.03,0.21,0.17,-0.04,-0.15,0.08,0.06,1019.18
1.563,-0.01,0.99,-0.03,0.21,0.17,-0.04,-0.06,0.00,0.04,1019.18
1.564,-0.02,0.99,-0.02,0.21,0.17,-0.04,-0.06,0.00,0.04,1019.18
1.584,-0.04,0.98,-0.01,0.21,0.17,-0.04,-0.06,0.00,0.04,1019.18
1.585,-0.04,0.98,-0.01,-0.05,0.11,-0.04,-0.06,0.00,0.04,1019.18
1.603,-0.04,0.98,0.02,-0.05,0.11,-0.04,-0.06,0.00,0.04,1019.18
1.623,-0.03,0.98,0.01,-0.05,0.11,-0.04,-0.06,0.00,0.04,1019.18
1.637,-0.03,0.98,0.01,-0.05,0.11,-0.04,-0.06,0.00,0.04,1019.12
1.638,-0.03,0.98,0.01,-0.05,0.11,-0.04,-0.02,-0.03,0.08,1019.12
1.643,-0.03,0.98,-0.00,-0.05,0.11,-0.04,-0.02,-0.03,0.08,1019.12
1.653,-0.03,0.98,-0.00,-0.07,0.06,-0.15,-0.02,-0.03,0.08,1019.12
1.663,-0.03,0.99,-0.02,-0.07,0.06,-0.15,-0.02,-0.03,0.08,1019.12
1.67,-0.03,0.99,-0.02,-0.07,0.06,-0.15,-0.02,-0.03,0.08,1019.07
1.683,-0.03,0.98,-0.00,-0.07,0.06,-0.15,-0.02,-0.03,0.08,1019.07
1.703,-0.03,0.98,-0.00,-0.07,0.06,-0.15,0.03,-0.01,0.16,1019.07
1.705,-0.02,0.98,-0.01,-0.07,0.06,-0.15,0.03,-0.01,0.16,1019.07
1.723,-0.01,0.98,0.00,-0.07,0.06,-0.15,0.03,-0.01,0.16,1019.07
1.724,-0.01,0.98,0.00,-0.28,0.00,0.09,0.03,-0.01,0.16,1019.07
1.743,0.00,0.98,-0.00,-0.28,0.00,0.09,0.03,-0.01,0.16,1019.07
1.75,0.00,0.98,-0.00,-0.28,0.00,0.09,0.03,-0.01,0.16,1019.00
1.763,0.01,0.99,-0.03,-0.28,0.00,0.09,0.03,-0.01,0.16,1019.00
1.773,0.01,0.99,-0.03,-0.28,0.00,0.09,0.06,0.01,0.21,1019.00
1.793,0.00,0.99,-0.02,-0.28,0.00,0.09,0.06,0.01,0.21,1019.00
1.794,0.00,0.99,-0.02,-0.29,0.02,0.02,0.06,0.01,0.21,1019.00
1.835,0.00,0.99,-0.04,-0.29,0.02,0.02,0.06,0.01,0.21,1019.00
1.836,-0.01,0.99,0.01,-0.29,0.02,0.02,0.06,0.01,0.21,1019.00
1.836,-0.01,0.99,0.01,-0.29,0.02,0.02,0.06,0.01,0.21,1019.00
1.843,-0.01,0.99,0.01,-0.29,0.02,0.02,0.05,-0.00,0.26,1019.00
1.864,-0.01,0.99,0.01,-0.25,0.05,-0.11,0.05,-0.00,0.26,1019.00
1.865,-0.02,0.99,0.01,-0.25,0.05,-0.11,0.05,-0.00,0.26,1019.00
1.865,-0.02,1.00,-0.02,-0.25,0.05,-0.11,0.05,-0.00,0.26,1019.00
1.87,-0.02,1.00,-0.02,-0.25,0.05,-0.11,0.05,-0.00,0.26,1019.01
1.904,-0.01,1.00,-0.00,-0.25,0.05,-0.11,0.05,-0.00,0.26,1019.01
1.915,-0.05,1.01,0.03,-0.25,0.05,-0.11,0.05,-0.00,0.26,1019.01
1.916,-0.05,1.01,0.03,-0.25,0.05,-0.11,0.15,-0.09,0.46,1019.01
1.934,-0.01,1.05,-0.08,-0.25,0.05,-0.11,0.15,-0.09,0.46,1019.01
1.935,-0.01,1.05,-0.08,-0.77,0.14,0.18,0.15,-0.09,0.46,1019.01
1.953,-0.02,1.06,-0.13,-0.77,0.14,0.18,0.15,-0.09,0.46,1019.01
1.954,-0.02,1.06,-0.13,-0.77,0.14,0.18,0.15,-0.09,0.46,1019.04
1.97,-0.09,1.10,-0.07,-0.77,0.14,0.18,0.15,-0.09,0.46,1019.04
1.983,-0.09,1.10,-0.07,-0.77,0.14,0.18,0.06,-0.13,0.92,1019.04
1.986,-0.11,1.17,-0.18,-0.77,0.14,0.18,0.06,-0.13,0.92,1019.04
2.003,-0.13,1.24,-0.21,-0.77,0.14,0.18,0.06,-0.13,0.92,1019.04
2.005,-0.13,1.24,-0.21,-1.48,0.44,-0.12,0.06,-0.13,0.92,1019.04
2.038,-0.17,1.33,-0.22,-1.48,0.44,-0.12,0.06,-0.13,0.92,1019.04
2.04,-0.17,1.33,-0.22,-1.48,0.44,-0.12,0.06,-0.13,0.92,1019.08
2.053,-0.17,1.33,-0.22,-1.48,0.44,-0.12,-0.45,-0.18,2.05,1019.08
2.054,-0.31,1.43,-0.18,-1.48,0.44,-0.12,-0.45,-0.18,2.05,1019.08
2.07,-0.55,1.49,-0.14,-1.48,0.44,-0.12,-0.45,-0.18,2.05,1019.08
2.071,-0.55,1.49,-0.14,-1.48,0.44,-0.12,-0.45,-0.18,2.05,1018.97
2.073,-0.55,1.49,-0.14,-3.83,2.09,-1.57,-0.45,-0.18,2.05,1018.97
2.104,-0.50,1.51,0.14,-3.83,2.09,-1.57,-0.45,-0.18,2.05,1018.97
2.124,-0.35,1.56,0.03,-3.83,2.09,-1.57,-0.45,-0.18,2.05,1018.97
2.125,-0.35,1.56,0.03,-3.83,2.09,-1.57,-0.99,-0.88,4.32,1018.97
2.145,-0.35,1.56,0.03,-9.20,6.06,-1.70,-0.99,-0.88,4.32,1018.97
2.146,-0.00,1.52,0.19,-9.20,6.06,-1.70,-0.99,-0.88,4.32,1018.97
2.146,-0.03,1.36,0.13,-9.20,6.06,-1.70,-0.99,-0.88,4.32,1018.97
2.151,-0.03,1.36,0.13,-9.20,6.06,-1.70,-0.99,-0.88,4.32,1018.55
2.17,-0.02,1.06,0.12,-9.20,6.06,-1.70,-0.99,-0.88,4.32,1018.55
2.194,-0.02,1.06,0.12,-9.20,6.06,-1.70,-0.82,-1.80,3.99,1018.55
2.195,0.40,0.60,0.16,-9.20,6.06,-1.70,-0.82,-1.80,3.99,1018.55
2.214,0.48,0.84,0.32,-9.20,6.06,-1.70,-0.82,-1.80,3.99,1018.55
2.215,0.48,0.84,0.32,-8.33,7.61,1.45,-0.82,-1.80,3.99,1018.55
2.231,-0.44,0.64,-0.05,-8.33,7.61,1.45,-0.82,-1.80,3.99,1018.55
2.231,-0.44,0.64,-0.05,-8.33,7.61,1.45,-0.82,-1.80,3.99,1018.43
2.259,-0.26,0.62,-0.23,-8.33,7.61,1.45,-0.82,-1.80,3.99,1018.43
2.263,-0.26,0.62,-0.23,-8.33,7.61,1.45,-0.12,-0.98,-0.23,1018.43
2.271,-0.10,0.53,-0.08,-8.33,7.61,1.45,-0.12,-0.98,-0.23,1018.43
2.271,-0.10,0.53,-0.08,-8.33,7.61,1.45,-0.12,-0.98,-0.23,1018.75
2.285,-0.10,0.53,-0.08,-4.29,0.47,1.96,-0.12,-0.98,-0.23,1018.75
2.286,-0.11,0.52,-0.09,-4.29,0.47,1.96,-0.12,-0.98,-0.23,1018.75
2.339,-0.11,0.52,-0.09,-4.29,0.47,1.96,-0.40,0.38,-2.80,1018.75
2.339,-0.17,0.57,-0.14,-4.29,0.47,1.96,-0.40,0.38,-2.80,1018.75
2.34,-0.14,0.63,-0.09,-4.29,0.47,1.96,-0.40,0.38,-2.80,1018.75
2.35,-0.13,0.70,-0.11,-4.29,0.47,1.96,-0.40,0.38,-2.80,1018.75
2.351,-0.13,0.70,-0.11,-4.29,0.47,1.96,-0.40,0.38,-2.80,1018.82
2.354,-0.13,0.70,-0.11,-5.99,-2.92,-1.37,-0.40,0.38,-2.80,1018.82
2.369,-0.15,0.80,-0.16,-5.99,-2.92,-1.37,-0.40,0.38,-2.80,1018.82
2.404,-0.10,0.96,-0.17,-5.99,-2.92,-1.37,-0.40,0.38,-2.80,1018.82
2.405,-0.10,0.96,-0.17,-5.99,-2.92,-1.37,0.13,0.16,-4.60,1018.82
2.424,-0.01,1.14,-0.19,-5.99,-2.92,-1.37,0.13,0.16,-4.60,1018.82
2.425,0.02,1.31,-0.17,-5.99,-2.92,-1.37,0.13,0.16,-4.60,1018.82
2.426,0.02,1.31,-0.17,-2.30,-2.95,-1.03,0.13,0.16,-4.60,1018.82
2.43,0.02,1.31,-0.17,-2.30,-2.95,-1.03,0.13,0.16,-4.60,1018.90
2.471,0.02,1.48,-0.13,-2.30,-2.95,-1.03,0.13,0.16,-4.60,1018.90
2.472,-0.03,1.66,-0.12,-2.30,-2.95,-1.03,0.13,0.16,-4.60,1018.90
2.472,-0.03,1.66,-0.12,-2.30,-2.95,-1.03,0.13,0.16,-4.60,1018.95
2.473,-0.03,1.66,-0.12,-2.30,-2.95,-1.03,0.41,0.11,-5.16,1018.95
2.486,-0.12,1.79,-0.11,-2.30,-2.95,-1.03,0.41,0.11,-5.16,1018.95
2.494,-0.12,1.79,-0.11,1.86,1.58,-1.29,0.41,0.11,-5.16,1018.95
2.544,-0.12,1.79,-0.11,1.86,1.58,-1.29,0.06,-0.50,-4.17,1018.95
2.545,-0.03,1.92,-0.12,1.86,1.58,-1.29,0.06,-0.50,-4.17,1018.95
2.545,0.55,1.95,-0.12,1.86,1.58,-1.29,0.06,-0.50,-4.17,1018.95
2.55,1.33,1.69,-0.09,1.86,1.58,-1.29,0.06,-0.50,-4.17,1018.95
2.551,1.33,1.69,-0.09,1.86,1.58,-1.29,0.06,-0.50,-4.17,1018.90
2.564,1.90,1.31,0.00,1.86,1.58,-1.29,0.06,-0.50,-4.17,1018.90
2.565,1.90,1.31,0.00,4.07,8.10,-0.85,0.06,-0.50,-4.17,1018.90
2.614,1.90,1.31,0.00,4.07,8.10,-0.85,0.05,0.06,-1.13,1018.90
2.615,2.46,0.94,0.33,4.07,8.10,-0.85,0.05,0.06,-1.13,1018.90
2.616,1.42,1.05,-0.19,4.07,8.10,-0.85,0.05,0.06,-1.13,1018.90
2.63,0.53,0.93,0.13,4.07,8.10,-0.85,0.05,0.06,-1.13,1018.90
2.631,0.53,0.93,0.13,4.07,8.10,-0.85,0.05,0.06,-1.13,1019.12
2.636,0.53,0.93,0.13,14.29,7.75,-0.37,0.05,0.06,-1.13,1019.12
2.671,0.53,0.93,0.13,14.29,7.75,-0.37,0.05,0.06,-1.13,1019.31
2.672,-0.32,1.22,-0.81,14.29,7.75,-0.37,0.05,0.06,-1.13,1019.31
2.673,-0.64,0.81,-0.37,14.29,7.75,-0.37,0.05,0.06,-1.13,1019.31
2.684,-0.64,0.81,-0.37,14.29,7.75,-0.37,-0.97,1.15,4.36,1019.31
2.705,1.53,1.56,0.11,14.29,7.75,-0.37,-0.97,1.15,4.36,1019.31
2.706,1.53,1.56,0.11,13.90,0.26,-0.30,-0.97,1.15,4.36,1019.31
2.707,1.86,1.54,1.35,13.90,0.26,-0.30,-0.97,1.15,4.36,1019.31
2.753,1.86,1.54,1.35,13.90,0.26,-0.30,-0.97,1.15,4.36,1019.65
2.754,-0.64,1.01,-1.22,13.90,0.26,-0.30,-0.97,1.15,4.36,1019.65
2.755,0.52,1.09,0.16,13.90,0.26,-0.30,-0.97,1.15,4.36,1019.65
2.755,0.52,1.09,0.16,13.90,0.26,-0.30,-0.14,0.60,0.83,1019.65
2.77,-0.16,0.92,0.28,13.90,0.26,-0.30,-0.14,0.60,0.83,1019.65
2.773,-0.16,0.92,0.28,6.85,3.19,1.78,-0.14,0.60,0.83,1019.65
2.824,-0.01,1.03,-0.13,6.85,3.19,1.78,-0.14,0.60,0.83,1019.65
2.824,0.02,1.02,-0.01,6.85,3.19,1.78,-0.14,0.60,0.83,1019.65
2.825,0.02,1.02,-0.01,6.85,3.19,1.78,0.02,0.14,0.40,1019.65
2.831,-0.02,0.97,0.12,6.85,3.19,1.78,0.02,0.14,0.40,1019.65
2.831,-0.02,0.97,0.12,6.85,3.19,1.78,0.02,0.14,0.40,1019.42
2.843,-0.02,0.97,0.12,-0.25,0.37,-2.26,0.02,0.14,0.40,1019.42
2.844,0.01,1.01,-0.03,-0.25,0.37,-2.26,0.02,0.14,0.40,1019.42
2.87,0.01,1.01,-0.09,-0.25,0.37,-2.26,0.02,0.14,0.40,1019.42
2.871,0.01,1.01,-0.09,-0.25,0.37,-2.26,0.02,0.14,0.40,1019.17
2.894,0.01,1.00,-0.01,-0.25,0.37,-2.26,0.02,0.14,0.40,1019.17
2.895,0.01,1.00,-0.01,-0.25,0.37,-2.26,0.07,0.05,0.25,1019.17
2.914,0.00,0.99,-0.02,-0.25,0.37,-2.26,0.07,0.05,0.25,1019.17
2.914,0.00,0.99,-0.02,-0.10,0.18,-0.01,0.07,0.05,0.25,1019.17
2.958,0.00,0.99,-0.02,-0.10,0.18,-0.01,0.07,0.05,0.25,1018.98
2.958,0.00,0.98,0.02,-0.10,0.18,-0.01,0.07,0.05,0.25,1018.98
2.959,0.01,0.97,0.02,-0.10,0.18,-0.01,0.07,0.05,0.25,1018.98
2.964,0.01,0.97,0.02,-0.10,0.18,-0.01,0.05,-0.00,0.17,1018.98
2.969,0.02,0.98,-0.01,-0.10,0.18,-0.01,0.05,-0.00,0.17,1018.98
2.984,0.03,0.98,-0.03,-0.10,0.18,-0.01,0.05,-0.00,0.17,1018.98
2.985,0.03,0.98,-0.03,0.10,0.14,-0.23,0.05,-0.00,0.17,1018.98
3.032,0.03,0.98,-0.03,0.10,0.14,-0.23,0.05,-0.00,0.17,1018.93
3.032,0.03,0.98,-0.02,0.10,0.14,-0.23,0.05,-0.00,0.17,1018.93
3.033,0.02,0.98,-0.04,0.10,0.14,-0.23,0.05,-0.00,0.17,1018.93
3.033,0.02,0.98,-0.04,0.10,0.14,-0.23,0.05,-0.03,0.10,1018.93
3.055,0.02,0.98,-0.01,0.10,0.14,-0.23,0.05,-0.03,0.10,1018.93
3.055,0.02,0.98,-0.01,0.16,-0.03,0.08,0.05,-0.03,0.10,1018.93
3.07,0.00,0.97,-0.00,0.16,-0.03,0.08,0.05,-0.03,0.10,1018.93
3.071,0.00,0.97,-0.00,0.16,-0.03,0.08,0.05,-0.03,0.10,1018.96
3.104,-0.01,0.98,0.01,0.16,-0.03,0.08,0.05,-0.03,0.10,1018.96
3.105,-0.01,0.98,-0.01,0.16,-0.03,0.08,0.05,-0.03,0.10,1018.96
3.105,-0.01,0.98,-0.01,0.16,-0.03,0.08,0.06,-0.03,0.10,1018.96
3.125,-0.02,0.99,-0.02,0.16,-0.03,0.08,0.06,-0.03,0.10,1018.96
3.126,-0.02,0.99,-0.02,0.09,-0.00,-0.06,0.06,-0.03,0.10,1018.96
3.156,-0.05,1.01,-0.02,0.09,-0.00,-0.06,0.06,-0.03,0.10,1018.96
3.159,-0.05,1.01,-0.02,0.09,-0.00,-0.06,0.06,-0.03,0.10,1019.04
3.17,-0.06,1.02,-0.03,0.09,-0.00,-0.06,0.06,-0.03,0.10,1019.04
3.173,-0.06,1.02,-0.03,0.09,-0.00,-0.06,0.12,-0.04,0.30,1019.04
3.194,-0.05,1.02,-0.03,0.09,-0.00,-0.06,0.12,-0.04,0.30,1019.04
3.195,-0.05,1.02,-0.03,-0.49,0.02,0.23,0.12,-0.04,0.30,1019.04
3.231,-0.05,1.02,-0.03,-0.49,0.02,0.23,0.12,-0.04,0.30,1019.07
3.232,-0.05,1.04,-0.03,-0.49,0.02,0.23,0.12,-0.04,0.30,1019.07
3.233,-0.03,1.06,-0.11,-0.49,0.02,0.23,0.12,-0.04,0.30,1019.07
3.244,-0.03,1.06,-0.11,-0.49,0.02,0.23,0.12,-0.09,0.72,1019.07
3.259,-0.09,1.10,-0.12,-0.49,0.02,0.23,0.12,-0.09,0.72,1019.07
3.263,-0.13,1.14,-0.05,-0.49,0.02,0.23,0.12,-0.09,0.72,1019.07
3.264,-0.13,1.14,-0.05,-1.48,0.42,0.07,0.12,-0.09,0.72,1019.07
3.271,-0.13,1.14,-0.05,-1.48,0.42,0.07,0.12,-0.09,0.72,1019.07
3.304,-0.16,1.21,-0.17,-1.48,0.42,0.07,0.12,-0.09,0.72,1019.07
3.314,-0.22,1.30,-0.28,-1.48,0.42,0.07,0.12,-0.09,0.72,1019.07
3.315,-0.22,1.30,-0.28,-1.48,0.42,0.07,-0.13,-0.04,1.67,1019.07
3.334,-0.29,1.38,-0.11,-1.48,0.42,0.07,-0.13,-0.04,1.67,1019.07
3.335,-0.29,1.38,-0.11,-3.05,1.34,-0.67,-0.13,-0.04,1.67,1019.07
3.351,-0.50,1.52,-0.27,-3.05,1.34,-0.67,-0.13,-0.04,1.67,1019.07
3.352,-0.50,1.52,-0.27,-3.05,1.34,-0.67,-0.13,-0.04,1.67,1019.08
3.373,-0.70,1.54,0.01,-3.05,1.34,-0.67,-0.13,-0.04,1.67,1019.08
3.385,-0.70,1.54,0.01,-3.05,1.34,-0.67,-0.50,-0.42,3.85,1019.08
3.404,-0.70,1.54,0.01,-7.59,4.84,-1.88,-0.50,-0.42,3.85,1019.08
3.406,-0.71,1.48,0.15,-7.59,4.84,-1.88,-0.50,-0.42,3.85,1019.08
3.406,-0.23,1.52,0.14,-7.59,4.84,-1.88,-0.50,-0.42,3.85,1019.08
3.43,-0.23,1.52,0.14,-7.59,4.84,-1.88,-0.50,-0.42,3.85,1018.81
3.431,0.25,1.56,0.27,-7.59,4.84,-1.88,-0.50,-0.42,3.85,1018.81
3.457,0.08,1.34,0.37,-7.59,4.84,-1.88,-0.50,-0.42,3.85,1018.81
3.46,0.08,1.34,0.37,-7.59,4.84,-1.88,-0.18,-0.87,5.89,1018.81
3.471,-0.08,0.90,0.26,-7.59,4.84,-1.88,-0.18,-0.87,5.89,1018.81
3.472,-0.08,0.90,0.26,-7.59,4.84,-1.88,-0.18,-0.87,5.89,1018.19
3.475,-0.08,0.90,0.26,-12.93,9.08,0.86,-0.18,-0.87,5.89,1018.19
3.49,1.57,0.87,-0.07,-12.93,9.08,0.86,-0.18,-0.87,5.89,1018.19
3.525,1.57,0.87,-0.07,-12.93,9.08,0.86,0.22,-0.25,0.90,1018.19
3.526,0.51,0.73,0.59,-12.93,9.08,0.86,0.22,-0.25,0.90,1018.19
3.544,0.51,0.73,0.59,-5.37,4.72,2.70,0.22,-0.25,0.90,1018.19
3.546,-0.73,0.49,0.02,-5.37,4.72,2.70,0.22,-0.25,0.90,1018.19
3.547,-0.49,0.44,-0.16,-5.37,4.72,2.70,0.22,-0.25,0.90,1018.19
3.55,-0.49,0.44,-0.16,-5.37,4.72,2.70,0.22,-0.25,0.90,1018.61
3.569,-0.08,0.39,0.18,-5.37,4.72,2.70,0.22,-0.25,0.90,1018.61
3.593,-0.01,0.42,0.16,-5.37,4.72,2.70,0.22,-0.25,0.90,1018.61
3.594,-0.01,0.42,0.16,-5.37,4.72,2.70,-0.06,0.75,-2.35,1018.61
3.614,-0.12,0.52,0.06,-5.37,4.72,2.70,-0.06,0.75,-2.35,1018.61
3.614,-0.12,0.52,0.06,-4.19,-0.98,1.24,-0.06,0.75,-2.35,1018.61
3.631,-0.17,0.58,0.08,-4.19,-0.98,1.24,-0.06,0.75,-2.35,1018.61
3.632,-0.17,0.58,0.08,-4.19,-0.98,1.24,-0.06,0.75,-2.35,1018.83
3.665,-0.17,0.58,0.08,-4.19,-0.98,1.24,0.17,0.43,-4.72,1018.83
3.666,-0.16,0.71,0.06,-4.19,-0.98,1.24,0.17,0.43,-4.72,1018.83
3.671,-0.10,0.91,-0.01,-4.19,-0.98,1.24,0.17,0.43,-4.72,1018.83
3.672,-0.10,0.91,-0.01,-4.19,-0.98,1.24,0.17,0.43,-4.72,1018.93
3.684,0.00,1.12,-0.04,-4.19,-0.98,1.24,0.17,0.43,-4.72,1018.93
3.685,0.00,1.12,-0.04,-3.29,-4.55,1.24,0.17,0.43,-4.72,1018.93
3.735,0.00,1.12,-0.04,-3.29,-4.55,1.24,0.17,-0.28,-5.42,1018.93
3.736,0.10,1.30,-0.10,-3.29,-4.55,1.24,0.17,-0.28,-5.42,1018.93
3.736,0.08,1.48,-0.15,-3.29,-4.55,1.24,0.17,-0.28,-5.42,1018.93
3.751,0.07,1.67,-0.20,-3.29,-4.55,1.24,0.17,-0.28,-5.42,1018.93
3.752,0.07,1.67,-0.20,-3.29,-4.55,1.24,0.17,-0.28,-5.42,1018.88
3.758,0.07,1.67,-0.20,0.10,-0.80,0.28,0.17,-0.28,-5.42,1018.88
3.769,0.10,1.82,-0.21,0.10,-0.80,0.28,0.17,-0.28,-5.42,1018.88
3.804,0.23,1.98,-0.23,0.10,-0.80,0.28,0.17,-0.28,-5.42,1018.88
3.805,0.23,1.98,-0.23,0.10,-0.80,0.28,0.07,-0.22,-4.96,1018.88
3.824,0.64,1.97,-0.13,0.10,-0.80,0.28,0.07,-0.22,-4.96,1018.88
3.825,1.02,1.77,-0.17,0.10,-0.80,0.28,0.07,-0.22,-4.96,1018.88
3.826,1.02,1.77,-0.17,4.76,6.40,-1.45,0.07,-0.22,-4.96,1018.88
3.831,1.02,1.77,-0.17,4.76,6.40,-1.45,0.07,-0.22,-4.96,1018.91
3.871,1.02,1.77,-0.17,4.76,6.40,-1.45,0.07,-0.22,-4.96,1019.17
3.871,1.54,1.45,-0.21,4.76,6.40,-1.45,0.07,-0.22,-4.96,1019.17
3.872,2.47,0.93,0.32,4.76,6.40,-1.45,0.07,-0.22,-4.96,1019.17
3.874,2.47,0.93,0.32,4.76,6.40,-1.45,0.06,0.17,-3.24,1019.17
3.894,1.57,1.06,-0.20,4.76,6.40,-1.45,0.06,0.17,-3.24,1019.17
3.895,1.57,1.06,-0.20,10.17,10.35,-1.58,0.06,0.17,-3.24,1019.17
3.945,1.57,1.06,-0.20,10.17,10.35,-1.58,-0.61,0.36,2.27,1019.17
3.949,0.97,1.06,-0.21,10.17,10.35,-1.58,-0.61,0.36,2.27,1019.17
3.949,1.15,0.96,0.14,10.17,10.35,-1.58,-0.61,0.36,2.27,1019.17
3.95,-1.45,1.32,0.12,10.17,10.35,-1.58,-0.61,0.36,2.27,1019.17
3.95,-1.45,1.32,0.12,10.17,10.35,-1.58,-0.61,0.36,2.27,1018.98
3.965,-2.34,0.40,-0.58,10.17,10.35,-1.58,-0.61,0.36,2.27,1018.98
3.966,-2.34,0.40,-0.58,19.16,2.02,-0.79,-0.61,0.36,2.27,1018.98
3.986,1.95,1.91,-0.31,19.16,2.02,-0.79,-0.61,0.36,2.27,1018.98
4.015,1.95,1.91,-0.31,19.16,2.02,-0.79,-0.03,0.93,3.53,1018.98
4.016,1.76,1.54,2.06,19.16,2.02,-0.79,-0.03,0.93,3.53,1018.98
4.03,-0.11,1.20,-1.39,19.16,2.02,-0.79,-0.03,0.93,3.53,1018.98
4.031,-0.11,1.20,-1.39,19.16,2.02,-0.79,-0.03,0.93,3.53,1019.40
4.033,-0.11,1.20,-1.39,-5.00,-0.47,-0.79,-0.03,0.93,3.53,1019.40
4.07,-0.11,1.20,-1.39,-5.00,-0.47,-0.79,-0.03,0.93,3.53,1019.61
4.071,0.35,1.14,-0.79,-5.00,-0.47,-0.79,-0.03,0.93,3.53,1019.61
4.071,0.04,0.95,0.58,-5.00,-0.47,-0.79,-0.03,0.93,3.53,1019.61
4.084,0.04,0.95,0.58,-5.00,-0.47,-0.79,-0.20,0.23,0.46,1019.61
4.103,-0.09,1.00,-0.18,-5.00,-0.47,-0.79,-0.20,0.23,0.46,1019.61
4.104,-0.01,1.00,0.04,-5.00,-0.47,-0.79,-0.20,0.23,0.46,1019.61
4.104,-0.01,1.00,0.04,11.37,5.28,-1.05,-0.20,0.23,0.46,1019.61
4.151,-0.01,1.00,0.04,11.37,5.28,-1.05,-0.20,0.23,0.46,1019.19
4.152,-0.06,0.95,0.13,11.37,5.28,-1.05,-0.20,0.23,0.46,1019.19
4.152,-0.01,1.00,0.04,11.37,5.28,-1.05,-0.20,0.23,0.46,1019.19
4.153,-0.01,1.00,0.04,11.37,5.28,-1.05,0.00,0.05,0.22,1019.19
4.169,-0.03,1.02,-0.12,11.37,5.28,-1.05,0.00,0.05,0.22,1019.19
4.174,-0.03,1.02,-0.12,0.38,0.16,1.13,0.00,0.05,0.22,1019.19
4.224,-0.03,1.02,-0.12,0.38,0.16,1.13,-0.02,-0.01,0.15,1019.19
4.225,-0.04,1.00,-0.05,0.38,0.16,1.13,-0.02,-0.01,0.15,1019.19
4.225,-0.03,0.98,0.01,0.38,0.16,1.13,-0.02,-0.01,0.15,1019.19
4.23,-0.02,0.97,0.04,0.38,0.16,1.13,-0.02,-0.01,0.15,1019.19
4.231,-0.02,0.97,0.04,0.38,0.16,1.13,-0.02,-0.01,0.15,1019.05
4.246,-0.02,0.97,0.02,0.38,0.16,1.13,-0.02,-0.01,0.15,1019.05
4.246,-0.02,0.97,0.02,-0.08,0.20,0.12,-0.02,-0.01,0.15,1019.05
4.27,-0.01,0.98,-0.00,-0.08,0.20,0.12,-0.02,-0.01,0.15,1019.05
4.272,-0.01,0.98,-0.00,-0.08,0.20,0.12,-0.02,-0.01,0.15,1018.97
4.295,-0.01,0.98,-0.00,-0.08,0.20,0.12,0.06,-0.03,0.10,1018.97
4.295,-0.03,0.98,0.00,-0.08,0.20,0.12,0.06,-0.03,0.10,1018.97
4.315,-0.02,0.99,-0.04,-0.08,0.20,0.12,0.06,-0.03,0.10,1018.97
4.317,-0.02,0.99,-0.04,-0.04,0.05,0.17,0.06,-0.03,0.10,1018.97
4.35,-0.02,0.99,-0.04,-0.04,0.05,0.17,0.06,-0.03,0.10,1019.00
4.351,-0.03,0.98,-0.03,-0.04,0.05,0.17,0.06,-0.03,0.10,1019.00
4.351,-0.03,0.98,-0.01,-0.04,0.05,0.17,0.06,-0.03,0.10,1019.00
4.364,-0.03,0.98,-0.01,-0.04,0.05,0.17,0.03,-0.04,0.10,1019.00
4.37,-0.04,0.97,0.01,-0.04,0.05,0.17,0.03,-0.04,0.10,1019.00
4.384,-0.04,0.97,0.03,-0.04,0.05,0.17,0.03,-0.04,0.10,1019.00
4.385,-0.04,0.97,0.03,-0.07,0.11,-0.07,0.03,-0.04,0.10,1019.00
4.431,-0.04,0.97,0.03,-0.07,0.11,-0.07,0.03,-0.04,0.10,1019.00
4.433,-0.05,0.98,-0.01,-0.07,0.11,-0.07,0.03,-0.04,0.10,1019.00
4.433,-0.06,1.00,-0.04,-0.07,0.11,-0.07,0.03,-0.04,0.10,1019.00
4.434,-0.06,1.00,-0.04,-0.07,0.11,-0.07,0.09,-0.02,0.20,1019.00
4.46,-0.06,1.01,-0.07,-0.07,0.11,-0.07,0.09,-0.02,0.20,1019.00
4.461,-0.06,1.01,-0.07,-0.34,0.05,0.17,0.09,-0.02,0.20,1019.00
4.47,-0.06,1.01,-0.03,-0.34,0.05,0.17,0.09,-0.02,0.20,1019.00
4.471,-0.06,1.01,-0.03,-0.34,0.05,0.17,0.09,-0.02,0.20,1019.02
4.487,-0.06,1.01,0.01,-0.34,0.05,0.17,0.09,-0.02,0.20,1019.02
4.504,-0.06,1.01,0.01,-0.34,0.05,0.17,0.07,-0.05,0.43,1019.02
4.526,-0.06,1.01,0.01,-0.90,0.28,-0.20,0.07,-0.05,0.43,1019.02
4.527,-0.05,1.02,-0.04,-0.90,0.28,-0.20,0.07,-0.05,0.43,1019.02
4.527,-0.02,1.03,-0.07,-0.90,0.28,-0.20,0.07,-0.05,0.43,1019.02
4.551,-0.07,1.06,-0.00,-0.90,0.28,-0.20,0.07,-0.05,0.43,1019.02
4.552,-0.07,1.06,-0.00,-0.90,0.28,-0.20,0.07,-0.05,0.43,1018.97
4.569,-0.21,1.12,-0.00,-0.90,0.28,-0.20,0.07,-0.05,0.43,1018.97
4.576,-0.21,1.12,-0.00,-0.90,0.28,-0.20,0.11,-0.12,0.84,1018.97
4.594,-0.23,1.21,-0.17,-0.90,0.28,-0.20,0.11,-0.12,0.84,1018.97
4.595,-0.23,1.21,-0.17,-1.51,0.53,-0.02,0.11,-0.12,0.84,1018.97
4.631,-0.23,1.21,-0.17,-1.51,0.53,-0.02,0.11,-0.12,0.84,1019.06
4.632,-0.26,1.29,-0.24,-1.51,0.53,-0.02,0.11,-0.12,0.84,1019.06
4.632,-0.31,1.40,-0.33,-1.51,0.53,-0.02,0.11,-0.12,0.84,1019.06
4.645,-0.31,1.40,-0.33,-1.51,0.53,-0.02,-0.32,-0.13,2.20,1019.06
4.665,-0.31,1.40,-0.33,-4.60,2.16,-0.88,-0.32,-0.13,2.20,1019.06
4.667,-0.45,1.50,-0.35,-4.60,2.16,-0.88,-0.32,-0.13,2.20,1019.06
4.667,-0.72,1.50,-0.08,-4.60,2.16,-0.88,-0.32,-0.13,2.20,1019.06
4.671,-0.72,1.50,-0.08,-4.60,2.16,-0.88,-0.32,-0.13,2.20,1019.01
4.703,-0.77,1.46,0.09,-4.60,2.16,-0.88,-0.32,-0.13,2.20,1019.01
4.715,-0.77,1.46,0.09,-4.60,2.16,-0.88,-0.74,-0.59,4.88,1019.01
4.716,-0.45,1.48,0.13,-4.60,2.16,-0.88,-0.74,-0.59,4.88,1019.01
4.735,0.17,1.49,0.29,-4.60,2.16,-0.88,-0.74,-0.59,4.88,1019.01
4.736,0.17,1.49,0.29,-10.39,6.62,-2.63,-0.74,-0.59,4.88,1019.01
4.75,0.25,1.41,0.43,-10.39,6.62,-2.63,-0.74,-0.59,4.88,1019.01
4.751,0.25,1.41,0.43,-10.39,6.62,-2.63,-0.74,-0.59,4.88,1018.49
4.769,-0.10,1.17,0.35,-10.39,6.62,-2.63,-0.74,-0.59,4.88,1018.49
4.784,-0.10,1.17,0.35,-10.39,6.62,-2.63,-0.09,-0.89,5.24,1018.49
4.805,0.46,0.33,-0.04,-10.39,6.62,-2.63,-0.09,-0.89,5.24,1018.49
4.805,1.34,1.07,0.50,-10.39,6.62,-2.63,-0.09,-0.89,5.24,1018.49
4.806,1.34,1.07,0.50,-9.81,8.46,2.11,-0.09,-0.89,5.24,1018.49
4.83,-0.63,0.37,0.20,-9.81,8.46,2.11,-0.09,-0.89,5.24,1018.49
4.831,-0.63,0.37,0.20,-9.81,8.46,2.11,-0.09,-0.89,5.24,1018.36
4.855,-0.63,0.37,0.20,-9.81,8.46,2.11,-0.02,-0.07,-1.11,1018.36
4.856,-0.66,0.41,-0.10,-9.81,8.46,2.11,-0.02,-0.07,-1.11,1018.36
4.871,-0.24,0.39,0.04,-9.81,8.46,2.11,-0.02,-0.07,-1.11,1018.36
4.872,-0.24,0.39,0.04,-9.81,8.46,2.11,-0.02,-0.07,-1.11,1018.78
4.876,-0.24,0.39,0.04,-1.58,2.26,3.01,-0.02,-0.07,-1.11,1018.78
4.904,0.01,0.39,0.11,-1.58,2.26,3.01,-0.02,-0.07,-1.11,1018.78
4.924,0.01,0.39,0.11,-1.58,2.26,3.01,-0.08,0.44,-3.41,1018.78
4.925,-0.03,0.48,0.03,-1.58,2.26,3.01,-0.08,0.44,-3.41,1018.78
4.945,-0.03,0.48,0.03,-8.47,-4.59,0.45,-0.08,0.44,-3.41,1018.78
4.946,-0.12,0.58,-0.02,-8.47,-4.59,0.45,-0.08,0.44,-3.41,1018.78
4.946,-0.12,0.70,-0.05,-8.47,-4.59,0.45,-0.08,0.44,-3.41,1018.78
4.95,-0.12,0.70,-0.05,-8.47,-4.59,0.45,-0.08,0.44,-3.41,1018.90
4.97,-0.09,0.87,-0.09,-8.47,-4.59,0.45,-0.08,0.44,-3.41,1018.90
4.988,0.01,1.07,-0.13,-8.47,-4.59,0.45,-0.08,0.44,-3.41,1018.90
4.994,0.01,1.07,-0.13,-8.47,-4.59,0.45,0.27,-0.09,-4.97,1018.90
5.024,0.12,1.23,-0.17,-8.47,-4.59,0.45,0.27,-0.09,-4.97,1018.90
5.025,0.12,1.23,-0.17,-1.69,-3.71,0.16,0.27,-0.09,-4.97,1018.90
5.03,0.11,1.41,-0.21,-1.69,-3.71,0.16,0.27,-0.09,-4.97,1018.90
5.031,0.11,1.41,-0.21,-1.69,-3.71,0.16,0.27,-0.09,-4.97,1018.94
5.064,0.11,1.41,-0.21,-1.69,-3.71,0.16,0.35,0.06,-5.07,1018.94
5.065,0.09,1.58,-0.25,-1.69,-3.71,0.16,0.35,0.06,-5.07,1018.94
5.07,0.09,1.75,-0.27,-1.69,-3.71,0.16,0.35,0.06,-5.07,1018.94
5.071,0.09,1.75,-0.27,-1.69,-3.71,0.16,0.35,0.06,-5.07,1018.89
5.084,0.26,1.89,-0.24,-1.69,-3.71,0.16,0.35,0.06,-5.07,1018.89
5.085,0.26,1.89,-0.24,2.41,1.73,-1.05,0.35,0.06,-5.07,1018.89
5.135,0.26,1.89,-0.24,2.41,1.73,-1.05,0.18,0.27,-4.33,1018.89
5.136,0.65,1.88,-0.17,2.41,1.73,-1.05,0.18,0.27,-4.33,1018.89
5.136,0.96,1.70,-0.05,2.41,1.73,-1.05,0.18,0.27,-4.33,1018.89
5.15,1.28,1.47,-0.04,2.41,1.73,-1.05,0.18,0.27,-4.33,1018.89
5.151,1.28,1.47,-0.04,2.41,1.73,-1.05,0.18,0.27,-4.33,1019.01
5.154,1.28,1.47,-0.04,5.73,8.36,-1.90,0.18,0.27,-4.33,1019.01
5.169,1.95,1.17,0.28,5.73,8.36,-1.90,0.18,0.27,-4.33,1019.01
5.205,1.95,1.17,0.28,5.73,8.36,-1.90,-0.08,0.18,-0.78,1019.01
5.205,1.59,1.07,0.06,5.73,8.36,-1.90,-0.08,0.18,-0.78,1019.01
5.225,0.91,1.06,-0.10,5.73,8.36,-1.90,-0.08,0.18,-0.78,1019.01
5.225,0.74,1.13,0.12,5.73,8.36,-1.90,-0.08,0.18,-0.78,1019.01
5.226,0.74,1.13,0.12,14.32,7.28,-0.02,-0.08,0.18,-0.78,1019.01
5.231,0.74,1.13,0.12,14.32,7.28,-0.02,-0.08,0.18,-0.78,1019.19
5.26,-0.90,1.16,-0.30,14.32,7.28,-0.02,-0.08,0.18,-0.78,1019.19
5.271,-0.99,0.68,-0.38,14.32,7.28,-0.02,-0.08,0.18,-0.78,1019.19
5.272,-0.99,0.68,-0.38,14.32,7.28,-0.02,-0.08,0.18,-0.78,1019.24
5.274,-0.99,0.68,-0.38,14.32,7.28,-0.02,-0.84,0.84,3.21,1019.24
5.295,0.19,1.21,-0.01,14.32,7.28,-0.02,-0.84,0.84,3.21,1019.24
5.296,0.19,1.21,-0.01,13.27,1.33,0.68,-0.84,0.84,3.21,1019.24
5.345,0.19,1.21,-0.01,13.27,1.33,0.68,-0.28,0.75,1.79,1019.24
5.346,1.52,1.32,0.73,13.27,1.33,0.68,-0.28,0.75,1.79,1019.24
5.346,0.17,1.27,0.07,13.27,1.33,0.68,-0.28,0.75,1.79,1019.24
5.351,0.28,1.18,-0.51,13.27,1.33,0.68,-0.28,0.75,1.79,1019.24
5.353,0.28,1.18,-0.51,13.27,1.33,0.68,-0.28,0.75,1.79,1019.61
5.364,0.07,1.01,-0.06,13.27,1.33,0.68,-0.28,0.75,1.79,1019.61
5.365,0.07,1.01,-0.06,-1.30,1.14,-1.33,-0.28,0.75,1.79,1019.61
5.415,-0.01,0.99,0.06,-1.30,1.14,-1.33,-0.28,0.75,1.79,1019.61
5.416,-0.04,1.01,0.05,-1.30,1.14,-1.33,-0.28,0.75,1.79,1019.61
5.416,-0.04,1.01,0.05,-1.30,1.14,-1.33,-0.18,0.15,0.43,1019.61
5.431,-0.03,0.99,-0.02,-1.30,1.14,-1.33,-0.18,0.15,0.43,1019.61
5.431,-0.03,0.99,-0.02,-1.30,1.14,-1.33,-0.18,0.15,0.43,1019.41
5.435,-0.03,0.99,-0.02,3.26,1.95,-0.04,-0.18,0.15,0.43,1019.41
5.47,-0.03,0.99,-0.02,3.26,1.95,-0.04,-0.18,0.15,0.43,1019.18
5.471,-0.01,0.97,0.17,3.26,1.95,-0.04,-0.18,0.15,0.43,1019.18
5.471,-0.00,0.99,-0.00,3.26,1.95,-0.04,-0.18,0.15,0.43,1019.18
5.486,-0.00,0.99,-0.00,3.26,1.95,-0.04,0.07,0.09,0.30,1019.18
5.487,0.00,1.01,-0.04,3.26,1.95,-0.04,0.07,0.09,0.30,1019.18
5.506,-0.00,1.00,-0.06,3.26,1.95,-0.04,0.07,0.09,0.30,1019.18
5.507,-0.00,1.00,-0.06,-0.09,0.28,0.49,0.07,0.09,0.30,1019.18
5.551,-0.00,1.00,-0.06,-0.09,0.28,0.49,0.07,0.09,0.30,1019.07
5.553,-0.01,1.00,-0.01,-0.09,0.28,0.49,0.07,0.09,0.30,1019.07
5.554,-0.00,0.99,-0.01,-0.09,0.28,0.49,0.07,0.09,0.30,1019.07
5.554,-0.00,0.99,-0.01,-0.09,0.28,0.49,0.03,0.02,0.18,1019.07
5.569,0.00,0.98,-0.00,-0.09,0.28,0.49,0.03,0.02,0.18,1019.07
5.574,0.00,0.98,-0.00,0.05,0.32,-0.09,0.03,0.02,0.18,1019.07
5.625,0.00,0.98,-0.00,0.05,0.32,-0.09,0.03,-0.01,0.14,1019.07
5.626,-0.00,0.98,-0.01,0.05,0.32,-0.09,0.03,-0.01,0.14,1019.07
5.626,-0.01,0.98,-0.00,0.05,0.32,-0.09,0.03,-0.01,0.14,1019.07
5.63,-0.01,0.98,0.01,0.05,0.32,-0.09,0.03,-0.01,0.14,1019.07
5.631,-0.01,0.98,0.01,0.05,0.32,-0.09,0.03,-0.01,0.14,1018.97
5.645,-0.00,0.98,0.00,0.05,0.32,-0.09,0.03,-0.01,0.14,1018.97
5.646,-0.00,0.98,0.00,-0.08,0.22,-0.05,0.03,-0.01,0.14,1018.97
5.67,0.01,0.98,-0.00,-0.08,0.22,-0.05,0.03,-0.01,0.14,1018.97
5.671,0.01,0.98,-0.00,-0.08,0.22,-0.05,0.03,-0.01,0.14,1018.97
5.694,0.00,0.98,-0.02,-0.08,0.22,-0.05,0.03,-0.01,0.14,1018.97
5.695,0.00,0.98,-0.02,-0.08,0.22,-0.05,0.07,-0.04,0.14,1018.97
5.714,-0.00,0.98,0.01,-0.08,0.22,-0.05,0.07,-0.04,0.14,1018.97
5.715,-0.00,0.98,0.01,-0.20,0.14,0.09,0.07,-0.04,0.14,1018.97
5.75,-0.00,0.98,0.01,-0.20,0.14,0.09,0.07,-0.04,0.14,1019.02
5.75,-0.00,0.98,-0.01,-0.20,0.14,0.09,0.07,-0.04,0.14,1019.02
5.751,0.00,0.99,-0.03,-0.20,0.14,0.09,0.07,-0.04,0.14,1019.02
5.765,0.00,0.99,-0.03,-0.20,0.14,0.09,0.10,-0.04,0.18,1019.02
5.769,-0.01,1.00,-0.03,-0.20,0.14,0.09,0.10,-0.04,0.18,1019.02
5.785,-0.05,1.01,-0.00,-0.20,0.14,0.09,0.10,-0.04,0.18,1019.02
5.786,-0.05,1.01,-0.00,-0.25,0.13,0.11,0.10,-0.04,0.18,1019.02
5.83,-0.05,1.01,-0.00,-0.25,0.13,0.11,0.10,-0.04,0.18,1019.06
5.831,-0.06,1.02,-0.00,-0.25,0.13,0.11,0.10,-0.04,0.18,1019.06
5.831,-0.04,1.04,-0.10,-0.25,0.13,0.11,0.10,-0.04,0.18,1019.06
5.834,-0.04,1.04,-0.10,-0.25,0.13,0.11,0.14,-0.11,0.40,1019.06
5.855,-0.03,1.06,-0.12,-0.25,0.13,0.11,0.14,-0.11,0.40,1019.06
5.855,-0.03,1.06,-0.12,-0.76,0.33,0.04,0.14,-0.11,0.40,1019.06
5.87,-0.12,1.07,-0.05,-0.76,0.33,0.04,0.14,-0.11,0.40,1019.06
5.871,-0.12,1.07,-0.05,-0.76,0.33,0.04,0.14,-0.11,0.40,1019.06
5.903,-0.20,1.14,-0.01,-0.76,0.33,0.04,0.14,-0.11,0.40,1019.06
5.904,-0.20,1.14,-0.01,-0.76,0.33,0.04,0.01,-0.10,1.02,1019.06
5.925,-0.20,1.14,-0.01,-1.99,0.87,-0.54,0.01,-0.10,1.02,1019.06
5.926,-0.22,1.23,-0.11,-1.99,0.87,-0.54,0.01,-0.10,1.02,1019.06
5.926,-0.24,1.30,-0.26,-1.99,0.87,-0.54,0.01,-0.10,1.02,1019.06
5.95,-0.30,1.41,-0.27,-1.99,0.87,-0.54,0.01,-0.10,1.02,1019.06
5.951,-0.30,1.41,-0.27,-1.99,0.87,-0.54,0.01,-0.10,1.02,1019.09
5.97,-0.51,1.48,-0.14,-1.99,0.87,-0.54,0.01,-0.10,1.02,1019.09
5.975,-0.51,1.48,-0.14,-1.99,0.87,-0.54,-0.43,-0.24,2.56,1019.09
5.986,-0.73,1.48,0.14,-1.99,0.87,-0.54,-0.43,-0.24,2.56,1019.09
5.994,-0.73,1.48,0.14,-5.46,2.93,-1.12,-0.43,-0.24,2.56,1019.09
6.031,-0.73,1.48,0.14,-5.46,2.93,-1.12,-0.43,-0.24,2.56,1018.91
6.031,-0.75,1.44,0.06,-5.46,2.93,-1.12,-0.43,-0.24,2.56,1018.91
6.032,-0.22,1.51,0.05,-5.46,2.93,-1.12,-0.43,-0.24,2.56,1018.91
6.045,-0.22,1.51,0.05,-5.46,2.93,-1.12,-0.62,-1.08,5.21,1018.91
6.065,-0.22,1.51,0.05,-11.86,7.18,-0.52,-0.62,-1.08,5.21,1018.91
6.066,0.25,1.49,0.30,-11.86,7.18,-0.52,-0.62,-1.08,5.21,1018.91
6.067,0.12,1.30,0.34,-11.86,7.18,-0.52,-0.62,-1.08,5.21,1018.91
6.07,0.12,1.30,0.34,-11.86,7.18,-0.52,-0.62,-1.08,5.21,1018.39
6.103,0.15,0.75,0.22,-11.86,7.18,-0.52,-0.62,-1.08,5.21,1018.39
6.114,1.26,0.88,0.07,-11.86,7.18,-0.52,-0.62,-1.08,5.21,1018.39
6.115,1.26,0.88,0.07,-11.86,7.18,-0.52,-0.36,-1.47,3.50,1018.39
6.136,0.05,0.47,0.41,-11.86,7.18,-0.52,-0.36,-1.47,3.50,1018.39
6.137,0.05,0.47,0.41,-7.45,7.75,2.55,-0.36,-1.47,3.50,1018.39
6.152,-0.56,0.43,-0.09,-7.45,7.75,2.55,-0.36,-1.47,3.50,1018.39
6.152,-0.56,0.43,-0.09,-7.45,7.75,2.55,-0.36,-1.47,3.50,1018.56
6.17,-0.14,0.34,-0.11,-7.45,7.75,2.55,-0.36,-1.47,3.50,1018.56
6.188,-0.14,0.34,-0.11,-7.45,7.75,2.55,-0.58,-0.15,-1.21,1018.56
6.205,-0.14,0.34,-0.11,-2.94,-0.70,1.98,-0.58,-0.15,-1.21,1018.56
6.206,0.05,0.29,0.04,-2.94,-0.70,1.98,-0.58,-0.15,-1.21,1018.56
6.206,0.07,0.41,-0.08,-2.94,-0.70,1.98,-0.58,-0.15,-1.21,1018.56
6.23,-0.07,0.48,-0.06,-2.94,-0.70,1.98,-0.58,-0.15,-1.21,1018.56
6.232,-0.07,0.48,-0.06,-2.94,-0.70,1.98,-0.58,-0.15,-1.21,1018.78
6.254,-0.07,0.48,-0.06,-2.94,-0.70,1.98,-0.66,-0.07,-3.69,1018.78
6.255,-0.15,0.59,-0.08,-2.94,-0.70,1.98,-0.66,-0.07,-3.69,1018.78
6.27,-0.05,0.80,-0.21,-2.94,-0.70,1.98,-0.66,-0.07,-3.69,1018.78
6.271,-0.05,0.80,-0.21,-2.94,-0.70,1.98,-0.66,-0.07,-3.69,1018.86
6.274,-0.05,0.80,-0.21,-4.34,-4.98,-0.67,-0.66,-0.07,-3.69,1018.86
6.303,0.11,0.96,-0.24,-4.34,-4.98,-0.67,-0.66,-0.07,-3.69,1018.86
6.326,0.11,0.96,-0.24,-4.34,-4.98,-0.67,-0.40,-1.17,-4.62,1018.86
6.326,0.27,1.09,-0.25,-4.34,-4.98,-0.67,-0.40,-1.17,-4.62,1018.86
6.345,0.27,1.09,-0.25,-1.40,-2.69,-1.48,-0.40,-1.17,-4.62,1018.86
6.346,0.33,1.21,-0.35,-1.40,-2.69,-1.48,-0.40,-1.17,-4.62,1018.86
6.346,0.16,1.35,-0.45,-1.40,-2.69,-1.48,-0.40,-1.17,-4.62,1018.86
6.351,0.16,1.35,-0.45,-1.40,-2.69,-1.48,-0.40,-1.17,-4.62,1018.97
6.37,-0.04,1.48,-0.46,-1.40,-2.69,-1.48,-0.40,-1.17,-4.62,1018.97
6.395,-0.03,1.56,-0.32,-1.40,-2.69,-1.48,-0.40,-1.17,-4.62,1018.97
6.396,-0.03,1.56,-0.32,-1.40,-2.69,-1.48,-0.73,-0.93,-4.01,1018.97
6.415,0.13,1.62,-0.40,-1.40,-2.69,-1.48,-0.73,-0.93,-4.01,1018.97
6.416,0.13,1.62,-0.40,3.69,2.48,-3.87,-0.73,-0.93,-4.01,1018.97
6.43,0.39,1.59,-0.60,3.69,2.48,-3.87,-0.73,-0.93,-4.01,1018.97
6.43,0.39,1.59,-0.60,3.69,2.48,-3.87,-0.73,-0.93,-4.01,1019.01
6.464,0.73,1.47,-0.69,3.69,2.48,-3.87,-0.73,-0.93,-4.01,1019.01
6.465,0.73,1.47,-0.69,3.69,2.48,-3.87,-0.39,-2.86,-1.85,1019.01
6.47,0.86,1.25,-0.44,3.69,2.48,-3.87,-0.39,-2.86,-1.85,1019.01
6.471,0.86,1.25,-0.44,3.69,2.48,-3.87,-0.39,-2.86,-1.85,1018.96
6.487,1.11,1.10,-0.43,3.69,2.48,-3.87,-0.39,-2.86,-1.85,1018.96
6.488,1.11,1.10,-0.43,2.54,6.20,-5.15,-0.39,-2.86,-1.85,1018.96
6.535,1.11,1.10,-0.43,2.54,6.20,-5.15,-0.03,-2.50,0.23,1018.96
6.536,1.63,0.80,-0.17,2.54,6.20,-5.15,-0.03,-2.50,0.23,1018.96
6.537,1.41,0.64,0.07,2.54,6.20,-5.15,-0.03,-2.50,0.23,1018.96
6.55,0.88,0.72,-0.11,2.54,6.20,-5.15,-0.03,-2.50,0.23,1018.96
6.551,0.88,0.72,-0.11,2.54,6.20,-5.15,-0.03,-2.50,0.23,1019.18
6.554,0.88,0.72,-0.11,9.25,3.64,-6.41,-0.03,-2.50,0.23,1019.18
6.569,0.87,0.20,0.30,9.25,3.64,-6.41,-0.03,-2.50,0.23,1019.18
6.605,0.87,0.20,0.30,9.25,3.64,-6.41,2.21,-0.04,0.63,1019.18
6.606,2.11,1.71,1.78,9.25,3.64,-6.41,2.21,-0.04,0.63,1019.18
6.626,2.11,1.71,1.78,12.77,-2.07,-0.47,2.21,-0.04,0.63,1019.18
6.627,0.81,1.30,-0.50,12.77,-2.07,-0.47,2.21,-0.04,0.63,1019.18
6.627,-2.62,1.03,-3.38,12.77,-2.07,-0.47,2.21,-0.04,0.63,1019.18
6.63,-2.62,1.03,-3.38,12.77,-2.07,-0.47,2.21,-0.04,0.63,1019.34
6.67,-2.62,1.03,-3.38,12.77,-2.07,-0.47,2.21,-0.04,0.63,1019.64
6.671,1.21,1.41,-0.31,12.77,-2.07,-0.47,2.21,-0.04,0.63,1019.64
6.671,-0.61,0.89,0.41,12.77,-2.07,-0.47,2.21,-0.04,0.63,1019.64
6.674,-0.61,0.89,0.41,12.77,-2.07,-0.47,-0.14,0.57,0.40,1019.64
6.695,-0.61,0.89,0.41,2.49,1.38,-4.45,-0.14,0.57,0.40,1019.64
6.696,0.15,1.00,-0.14,2.49,1.38,-4.45,-0.14,0.57,0.40,1019.64
6.746,0.15,1.00,-0.14,2.49,1.38,-4.45,-0.05,0.19,0.18,1019.64
6.747,-0.03,0.96,0.23,2.49,1.38,-4.45,-0.05,0.19,0.18,1019.64
6.747,-0.04,1.00,0.09,2.49,1.38,-4.45,-0.05,0.19,0.18,1019.64
6.75,-0.01,1.00,-0.23,2.49,1.38,-4.45,-0.05,0.19,0.18,1019.64
6.75,-0.01,1.00,-0.23,2.49,1.38,-4.45,-0.05,0.19,0.18,1019.29
6.766,-0.03,0.99,0.04,2.49,1.38,-4.45,-0.05,0.19,0.18,1019.29
6.766,-0.03,0.99,0.04,2.32,1.18,0.30,-0.05,0.19,0.18,1019.29
6.815,-0.05,1.00,-0.03,2.32,1.18,0.30,-0.05,0.19,0.18,1019.29
6.816,-0.04,1.00,-0.08,2.32,1.18,0.30,-0.05,0.19,0.18,1019.29
6.817,-0.04,1.00,-0.08,2.32,1.18,0.30,-0.06,0.11,0.07,1019.29
6.83,-0.04,1.00,-0.08,2.32,1.18,0.30,-0.06,0.11,0.07,1019.19
6.831,-0.05,1.00,-0.03,2.32,1.18,0.30,-0.06,0.11,0.07,1019.19
6.836,-0.05,1.00,-0.03,-0.06,0.38,0.36,-0.06,0.11,0.07,1019.19
6.871,-0.05,1.00,-0.03,-0.06,0.38,0.36,-0.06,0.11,0.07,1019.08
6.872,-0.06,0.99,-0.00,-0.06,0.38,0.36,-0.06,0.11,0.07,1019.08
6.872,-0.05,0.99,0.03,-0.06,0.38,0.36,-0.06,0.11,0.07,1019.08
6.885,-0.05,0.99,0.03,-0.06,0.38,0.36,-0.05,0.03,0.06,1019.08
6.904,-0.04,0.99,-0.03,-0.06,0.38,0.36,-0.05,0.03,0.06,1019.08
6.905,-0.05,0.99,-0.02,-0.06,0.38,0.36,-0.05,0.03,0.06,1019.08
6.906,-0.05,0.99,-0.02,-0.29,0.41,-0.21,-0.05,0.03,0.06,1019.08
6.951,-0.05,0.99,-0.02,-0.29,0.41,-0.21,-0.05,0.03,0.06,1019.02
6.952,-0.05,0.98,-0.00,-0.29,0.41,-0.21,-0.05,0.03,0.06,1019.02
6.952,-0.06,0.98,0.01,-0.29,0.41,-0.21,-0.05,0.03,0.06,1019.02
6.955,-0.06,0.98,0.01,-0.29,0.41,-0.21,-0.01,-0.01,0.07,1019.02
6.97,-0.05,0.98,0.01,-0.29,0.41,-0.21,-0.01,-0.01,0.07,1019.02
6.975,-0.05,0.98,0.01,-0.36,0.28,0.14,-0.01,-0.01,0.07,1019.02
6.987,-0.06,0.98,0.02,-0.36,0.28,0.14,-0.01,-0.01,0.07,1019.02
7.026,-0.06,0.98,0.02,-0.36,0.28,0.14,0.09,-0.06,0.13,1019.02
7.027,-0.04,0.98,-0.01,-0.36,0.28,0.14,0.09,-0.06,0.13,1019.02
7.03,-0.04,0.98,-0.01,-0.36,0.28,0.14,0.09,-0.06,0.13,1019.03
7.031,-0.01,0.98,-0.05,-0.36,0.28,0.14,0.09,-0.06,0.13,1019.03
7.046,-0.01,0.98,-0.05,-0.51,0.20,0.32,0.09,-0.06,0.13,1019.03
7.046,-0.01,0.98,-0.04,-0.51,0.20,0.32,0.09,-0.06,0.13,1019.03
7.074,-0.03,0.98,-0.01,-0.51,0.20,0.32,0.09,-0.06,0.13,1019.03
7.075,-0.03,0.98,-0.01,-0.51,0.20,0.32,0.09,-0.06,0.13,1019.02
7.095,-0.03,0.98,-0.01,-0.51,0.20,0.32,0.06,-0.07,0.12,1019.02
7.095,-0.05,0.98,-0.02,-0.51,0.20,0.32,0.06,-0.07,0.12,1019.02
7.115,-0.05,0.98,-0.02,-0.33,0.22,0.05,0.06,-0.07,0.12,1019.02
7.116,-0.04,0.98,-0.01,-0.33,0.22,0.05,0.06,-0.07,0.12,1019.02
7.15,-0.04,0.98,-0.01,-0.33,0.22,0.05,0.06,-0.07,0.12,1019.07
7.151,0.00,0.98,-0.00,-0.33,0.22,0.05,0.06,-0.07,0.12,1019.07
7.151,-0.09,0.99,-0.02,-0.33,0.22,0.05,0.06,-0.07,0.12,1019.07
7.165,-0.09,0.99,-0.02,-0.33,0.22,0.05,0.12,-0.10,0.19,1019.07
7.169,-0.05,1.01,-0.07,-0.33,0.22,0.05,0.12,-0.10,0.19,1019.07
7.186,-0.05,1.01,-0.13,-0.33,0.22,0.05,0.12,-0.10,0.19,1019.07
7.186,-0.05,1.01,-0.13,-0.50,0.21,0.27,0.12,-0.10,0.19,1019.07
7.23,-0.06,1.02,-0.01,-0.50,0.21,0.27,0.12,-0.10,0.19,1019.07
7.233,-0.11,1.03,-0.00,-0.50,0.21,0.27,0.12,-0.10,0.19,1019.07
7.233,-0.11,1.03,-0.00,-0.50,0.21,0.27,0.12,-0.10,0.19,1019.06
7.235,-0.11,1.03,-0.00,-0.50,0.21,0.27,0.05,-0.17,0.41,1019.06
7.256,-0.08,1.04,-0.04,-0.50,0.21,0.27,0.05,-0.17,0.41,1019.06
7.257,-0.08,1.04,-0.04,-1.00,0.45,-0.23,0.05,-0.17,0.41,1019.06
7.27,-0.09,1.07,-0.08,-1.00,0.45,-0.23,0.05,-0.17,0.41,1019.06
7.271,-0.09,1.07,-0.08,-1.00,0.45,-0.23,0.05,-0.17,0.41,1019.05
7.304,-0.12,1.09,-0.09,-1.00,0.45,-0.23,0.05,-0.17,0.41,1019.05
7.304,-0.12,1.09,-0.09,-1.00,0.45,-0.23,0.02,-0.28,0.91,1019.05
7.326,-0.14,1.13,-0.14,-1.00,0.45,-0.23,0.02,-0.28,0.91,1019.05
7.327,-0.20,1.21,-0.22,-1.00,0.45,-0.23,0.02,-0.28,0.91,1019.05
7.327,-0.20,1.21,-0.22,-1.82,0.74,0.10,0.02,-0.28,0.91,1019.05
7.35,-0.29,1.34,-0.32,-1.82,0.74,0.10,0.02,-0.28,0.91,1019.05
7.35,-0.29,1.34,-0.32,-1.82,0.74,0.10,0.02,-0.28,0.91,1019.08
7.369,-0.43,1.51,-0.48,-1.82,0.74,0.10,0.02,-0.28,0.91,1019.08
7.375,-0.43,1.51,-0.48,-1.82,0.74,0.10,-0.76,-0.46,2.04,1019.08
7.396,-0.58,1.61,-0.66,-1.82,0.74,0.10,-0.76,-0.46,2.04,1019.08
7.397,-0.58,1.61,-0.66,-4.04,2.05,-1.79,-0.76,-0.46,2.04,1019.08
7.43,-0.58,1.61,-0.66,-4.04,2.05,-1.79,-0.76,-0.46,2.04,1018.82
7.431,-0.79,1.48,-0.49,-4.04,2.05,-1.79,-0.76,-0.46,2.04,1018.82
7.431,-0.37,1.50,-0.03,-4.04,2.05,-1.79,-0.76,-0.46,2.04,1018.82
7.445,-0.37,1.50,-0.03,-4.04,2.05,-1.79,-3.13,-1.98,4.38,1018.82
7.468,-0.37,1.50,-0.03,-10.23,7.08,-6.57,-3.13,-1.98,4.38,1018.82
7.469,-0.24,1.34,0.13,-10.23,7.08,-6.57,-3.13,-1.98,4.38,1018.82
7.469,0.13,1.30,0.46,-10.23,7.08,-6.57,-3.13,-1.98,4.38,1018.82
7.47,0.13,1.30,0.46,-10.23,7.08,-6.57,-3.13,-1.98,4.38,1018.25
7.487,-0.13,1.05,-0.01,-10.23,7.08,-6.57,-3.13,-1.98,4.38,1018.25
7.515,0.01,0.49,-0.02,-10.23,7.08,-6.57,-3.13,-1.98,4.38,1018.25
7.516,0.01,0.49,-0.02,-10.23,7.08,-6.57,-2.81,-3.61,4.35,1018.25
7.54,1.21,0.31,0.24,-10.23,7.08,-6.57,-2.81,-3.61,4.35,1018.25
7.541,1.21,0.31,0.24,-9.47,7.44,0.33,-2.81,-3.61,4.35,1018.25
7.552,0.71,0.47,0.14,-9.47,7.44,0.33,-2.81,-3.61,4.35,1018.25
7.552,0.71,0.47,0.14,-9.47,7.44,0.33,-2.81,-3.61,4.35,1018.45
7.57,-0.42,0.40,-0.28,-9.47,7.44,0.33,-2.81,-3.61,4.35,1018.45
7.585,-0.42,0.40,-0.28,-9.47,7.44,0.33,-0.94,-2.83,-1.03,1018.45
7.606,-0.42,0.40,-0.28,-1.63,-0.92,0.58,-0.94,-2.83,-1.03,1018.45
7.607,-0.22,0.43,-0.68,-1.63,-0.92,0.58,-0.94,-2.83,-1.03,1018.45
7.607,0.12,0.41,-0.53,-1.63,-0.92,0.58,-0.94,-2.83,-1.03,1018.45
7.63,0.21,0.40,-0.21,-1.63,-0.92,0.58,-0.94,-2.83,-1.03,1018.45
7.631,0.21,0.40,-0.21,-1.63,-0.92,0.58,-0.94,-2.83,-1.03,1018.85
7.655,0.09,0.55,-0.28,-1.63,-0.92,0.58,-0.94,-2.83,-1.03,1018.85
7.656,0.09,0.55,-0.28,-1.63,-0.92,0.58,-1.16,-0.68,-2.98,1018.85
7.671,-0.03,0.68,-0.36,-1.63,-0.92,0.58,-1.16,-0.68,-2.98,1018.85
7.672,-0.03,0.68,-0.36,-1.63,-0.92,0.58,-1.16,-0.68,-2.98,1018.92
7.675,-0.03,0.68,-0.36,-5.52,-4.15,-4.52,-1.16,-0.68,-2.98,1018.92
7.704,-0.11,0.77,-0.32,-5.52,-4.15,-4.52,-1.16,-0.68,-2.98,1018.92
7.725,-0.11,0.77,-0.32,-5.52,-4.15,-4.52,-0.30,-1.00,-4.64,1018.92
7.726,-0.06,0.91,-0.40,-5.52,-4.15,-4.52,-0.30,-1.00,-4.64,1018.92
7.746,-0.06,0.91,-0.40,-0.85,-3.50,-3.08,-0.30,-1.00,-4.64,1018.92
7.747,0.04,1.06,-0.41,-0.85,-3.50,-3.08,-0.30,-1.00,-4.64,1018.92
7.747,0.07,1.16,-0.40,-0.85,-3.50,-3.08,-0.30,-1.00,-4.64,1018.92
7.75,0.07,1.16,-0.40,-0.85,-3.50,-3.08,-0.30,-1.00,-4.64,1018.98
7.77,-0.01,1.30,-0.41,-0.85,-3.50,-3.08,-0.30,-1.00,-4.64,1018.98
7.795,-0.01,1.30,-0.41,-0.85,-3.50,-3.08,0.26,-1.36,-4.74,1018.98
7.796,-0.05,1.49,-0.43,-0.85,-3.50,-3.08,0.26,-1.36,-4.74,1018.98
7.816,-0.10,1.64,-0.40,-0.85,-3.50,-3.08,0.26,-1.36,-4.74,1018.98
7.818,-0.10,1.64,-0.40,1.40,0.77,-3.84,0.26,-1.36,-4.74,1018.98
7.832,-0.13,1.79,-0.50,1.40,0.77,-3.84,0.26,-1.36,-4.74,1018.98
7.832,-0.13,1.79,-0.50,1.40,0.77,-3.84,0.26,-1.36,-4.74,1018.99
7.855,0.20,1.87,-0.68,1.40,0.77,-3.84,0.26,-1.36,-4.74,1018.99
7.871,0.20,1.87,-0.68,1.40,0.77,-3.84,0.03,-2.59,-3.33,1018.99
7.872,0.77,1.67,-0.64,1.40,0.77,-3.84,0.03,-2.59,-3.33,1018.99
7.872,0.77,1.67,-0.64,1.40,0.77,-3.84,0.03,-2.59,-3.33,1018.92
7.885,1.20,1.25,-0.34,1.40,0.77,-3.84,0.03,-2.59,-3.33,1018.92
7.886,1.20,1.25,-0.34,2.47,6.07,-4.43,0.03,-2.59,-3.33,1018.92
7.935,1.20,1.25,-0.34,2.47,6.07,-4.43,0.87,-1.99,-1.51,1018.92
7.937,1.81,0.83,0.31,2.47,6.07,-4.43,0.87,-1.99,-1.51,1018.92
7.937,1.49,0.99,0.05,2.47,6.07,-4.43,0.87,-1.99,-1.51,1018.92
7.951,0.30,0.96,-0.53,2.47,6.07,-4.43,0.87,-1.99,-1.51,1018.92
7.952,0.30,0.96,-0.53,2.47,6.07,-4.43,0.87,-1.99,-1.51,1019.23
7.955,0.30,0.96,-0.53,8.96,7.13,-5.61,0.87,-1.99,-1.51,1019.23
7.97,0.31,0.85,-0.20,8.96,7.13,-5.61,0.87,-1.99,-1.51,1019.23
7.987,0.56,1.12,0.42,8.96,7.13,-5.61,0.87,-1.99,-1.51,1019.23
8.006,0.56,1.12,0.42,8.96,7.13,-5.61,0.15,-0.46,3.10,1019.23
8.025,0.56,1.12,0.42,11.74,-0.23,-1.17,0.15,-0.46,3.10,1019.23
8.026,0.71,1.34,0.37,11.74,-0.23,-1.17,0.15,-0.46,3.10,1019.23
8.027,1.13,1.43,0.01,11.74,-0.23,-1.17,0.15,-0.46,3.10,1019.23
8.031,1.13,1.43,0.01,11.74,-0.23,-1.17,0.15,-0.46,3.10,1019.23
8.07,1.13,1.43,0.01,11.74,-0.23,-1.17,0.15,-0.46,3.10,1019.57
8.071,0.23,1.29,-0.98,11.74,-0.23,-1.17,0.15,-0.46,3.10,1019.57
8.071,-0.25,0.90,-0.65,11.74,-0.23,-1.17,0.15,-0.46,3.10,1019.57
8.075,-0.25,0.90,-0.65,11.74,-0.23,-1.17,0.19,0.52,0.57,1019.57
8.096,0.05,0.94,0.59,11.74,-0.23,-1.17,0.19,0.52,0.57,1019.57
8.097,0.05,0.94,0.59,7.71,2.70,2.56,0.19,0.52,0.57,1019.57
8.145,0.05,0.94,0.59,7.71,2.70,2.56,0.04,0.20,0.28,1019.57
8.146,-0.11,0.94,0.13,7.71,2.70,2.56,0.04,0.20,0.28,1019.57
8.147,-0.13,1.00,0.06,7.71,2.70,2.56,0.04,0.20,0.28,1019.57
8.151,0.00,1.03,-0.09,7.71,2.70,2.56,0.04,0.20,0.28,1019.57
8.151,0.00,1.03,-0.09,7.71,2.70,2.56,0.04,0.20,0.28,1019.30
8.166,0.00,1.03,-0.09,0.15,0.61,-2.52,0.04,0.20,0.28,1019.30
8.167,-0.04,1.00,-0.04,0.15,0.61,-2.52,0.04,0.20,0.28,1019.30
8.215,-0.04,1.00,-0.04,0.15,0.61,-2.52,-0.05,0.08,0.17,1019.30
8.216,-0.08,1.01,-0.02,0.15,0.61,-2.52,-0.05,0.08,0.17,1019.30
8.216,-0.06,1.01,-0.08,0.15,0.61,-2.52,-0.05,0.08,0.17,1019.30
8.231,-0.05,0.98,0.04,0.15,0.61,-2.52,-0.05,0.08,0.17,1019.30
8.232,-0.05,0.98,0.04,0.15,0.61,-2.52,-0.05,0.08,0.17,1019.22
8.235,-0.05,0.98,0.04,0.12,0.55,-0.03,-0.05,0.08,0.17,1019.22
8.259,-0.05,0.98,0.07,0.12,0.55,-0.03,-0.05,0.08,0.17,1019.22
8.27,-0.04,0.98,0.01,0.12,0.55,-0.03,-0.05,0.08,0.17,1019.22
8.271,-0.04,0.98,0.01,0.12,0.55,-0.03,-0.05,0.08,0.17,1019.07
8.286,-0.04,0.98,0.01,0.12,0.55,-0.03,-0.02,0.00,0.12,1019.07
8.303,-0.05,0.98,0.02,0.12,0.55,-0.03,-0.02,0.00,0.12,1019.07
8.305,-0.05,0.99,-0.01,0.12,0.55,-0.03,-0.02,0.00,0.12,1019.07
8.306,-0.05,0.99,-0.01,-0.25,0.39,0.01,-0.02,0.00,0.12,1019.07
8.351,-0.05,0.99,-0.01,-0.25,0.39,0.01,-0.02,0.00,0.12,1019.02
8.352,-0.05,0.99,0.00,-0.25,0.39,0.01,-0.02,0.00,0.12,1019.02
8.353,-0.05,0.98,0.01,-0.25,0.39,0.01,-0.02,0.00,0.12,1019.02
8.355,-0.05,0.98,0.01,-0.25,0.39,0.01,-0.01,-0.02,0.09,1019.02
8.37,-0.04,0.98,0.01,-0.25,0.39,0.01,-0.01,-0.02,0.09,1019.02
8.376,-0.04,0.98,0.01,-0.15,0.25,0.22,-0.01,-0.02,0.09,1019.02
8.426,-0.04,0.98,0.01,-0.15,0.25,0.22,0.04,-0.04,0.09,1019.02
8.427,-0.06,0.97,0.07,-0.15,0.25,0.22,0.04,-0.04,0.09,1019.02
8.428,-0.04,0.97,0.00,-0.15,0.25,0.22,0.04,-0.04,0.09,1019.02
8.43,-0.04,0.98,0.02,-0.15,0.25,0.22,0.04,-0.04,0.09,1019.02
8.43,-0.04,0.98,0.02,-0.15,0.25,0.22,0.04,-0.04,0.09,1019.02
8.447,-0.06,0.98,0.02,-0.15,0.25,0.22,0.04,-0.04,0.09,1019.02
8.447,-0.06,0.98,0.02,-0.24,0.21,0.25,0.04,-0.04,0.09,1019.02
8.471,-0.07,0.98,0.02,-0.24,0.21,0.25,0.04,-0.04,0.09,1019.02
8.474,-0.07,0.98,0.02,-0.24,0.21,0.25,0.04,-0.04,0.09,1019.05
8.488,-0.03,0.99,-0.03,-0.24,0.21,0.25,0.04,-0.04,0.09,1019.05
8.495,-0.03,0.99,-0.03,-0.24,0.21,0.25,0.08,-0.02,0.16,1019.05
8.516,-0.04,0.99,-0.02,-0.24,0.21,0.25,0.08,-0.02,0.16,1019.05
8.517,-0.04,0.99,-0.02,-0.35,0.17,0.37,0.08,-0.02,0.16,1019.05
8.55,-0.04,0.99,-0.02,-0.35,0.17,0.37,0.08,-0.02,0.16,1019.06
8.551,-0.07,1.00,0.00,-0.35,0.17,0.37,0.08,-0.02,0.16,1019.06
8.552,-0.08,1.01,0.01,-0.35,0.17,0.37,0.08,-0.02,0.16,1019.06
8.566,-0.08,1.01,0.01,-0.35,0.17,0.37,0.05,-0.04,0.27,1019.06
8.569,-0.08,1.01,-0.01,-0.35,0.17,0.37,0.05,-0.04,0.27,1019.06
8.588,-0.09,1.02,0.01,-0.35,0.17,0.37,0.05,-0.04,0.27,1019.06
8.589,-0.09,1.02,0.01,-0.55,0.28,0.07,0.05,-0.04,0.27,1019.06
8.631,-0.09,1.02,0.01,-0.55,0.28,0.07,0.05,-0.04,0.27,1019.02
8.632,-0.09,1.05,-0.05,-0.55,0.28,0.07,0.05,-0.04,0.27,1019.02
8.632,-0.11,1.07,-0.04,-0.55,0.28,0.07,0.05,-0.04,0.27,1019.02
8.635,-0.11,1.07,-0.04,-0.55,0.28,0.07,0.08,-0.12,0.61,1019.02
8.655,-0.11,1.07,-0.04,-1.39,0.54,0.27,0.08,-0.12,0.61,1019.02
8.657,-0.24,1.13,0.03,-1.39,0.54,0.27,0.08,-0.12,0.61,1019.02
8.68,-0.24,1.18,-0.14,-1.39,0.54,0.27,0.08,-0.12,0.61,1019.02
8.68,-0.24,1.18,-0.14,-1.39,0.54,0.27,0.08,-0.12,0.61,1019.04
8.695,-0.27,1.27,-0.21,-1.39,0.54,0.27,0.08,-0.12,0.61,1019.04
8.706,-0.27,1.27,-0.21,-1.39,0.54,0.27,-0.13,-0.21,1.63,1019.04
8.727,-0.27,1.27,-0.21,-3.46,1.52,-0.25,-0.13,-0.21,1.63,1019.04
8.729,-0.36,1.37,-0.25,-3.46,1.52,-0.25,-0.13,-0.21,1.63,1019.04
8.729,-0.52,1.49,-0.32,-3.46,1.52,-0.25,-0.13,-0.21,1.63,1019.04
8.75,-0.75,1.54,-0.21,-3.46,1.52,-0.25,-0.13,-0.21,1.63,1019.04
8.751,-0.75,1.54,-0.21,-3.46,1.52,-0.25,-0.13,-0.21,1.63,1019.08
8.77,-0.90,1.47,0.00,-3.46,1.52,-0.25,-0.13,-0.21,1.63,1019.08
8.775,-0.90,1.47,0.00,-3.46,1.52,-0.25,-1.12,-0.78,3.91,1019.08
8.795,-0.58,1.43,0.08,-3.46,1.52,-0.25,-1.12,-0.78,3.91,1019.08
8.796,-0.58,1.43,0.08,-8.23,5.07,-2.94,-1.12,-0.78,3.91,1019.08
8.83,-0.58,1.43,0.08,-8.23,5.07,-2.94,-1.12,-0.78,3.91,1018.61
8.831,0.04,1.47,0.22,-8.23,5.07,-2.94,-1.12,-0.78,3.91,1018.61
8.831,0.28,1.42,0.34,-8.23,5.07,-2.94,-1.12,-0.78,3.91,1018.61
8.846,0.28,1.42,0.34,-8.23,5.07,-2.94,-1.23,-1.85,5.69,1018.61
8.867,-0.11,1.20,0.02,-8.23,5.07,-2.94,-1.23,-1.85,5.69,1018.61
8.867,0.13,0.32,0.09,-8.23,5.07,-2.94,-1.23,-1.85,5.69,1018.61
8.868,0.13,0.32,0.09,-13.59,8.39,-0.47,-1.23,-1.85,5.69,1018.61
8.875,0.13,0.32,0.09,-13.59,8.39,-0.47,-1.23,-1.85,5.69,1018.28
8.903,1.58,0.94,0.55,-13.59,8.39,-0.47,-1.23,-1.85,5.69,1018.28
8.916,1.58,0.94,0.55,-13.59,8.39,-0.47,-0.87,-2.28,0.64,1018.28
8.917,-0.43,0.28,0.32,-13.59,8.39,-0.47,-0.87,-2.28,0.64,1018.28
8.935,-0.81,0.45,-0.39,-13.59,8.39,-0.47,-0.87,-2.28,0.64,1018.28
8.937,-0.81,0.45,-0.39,-5.45,3.80,2.27,-0.87,-2.28,0.64,1018.28
8.95,-0.27,0.43,-0.51,-5.45,3.80,2.27,-0.87,-2.28,0.64,1018.28
8.951,-0.27,0.43,-0.51,-5.45,3.80,2.27,-0.87,-2.28,0.64,1018.73
8.97,0.11,0.36,-0.14,-5.45,3.80,2.27,-0.87,-2.28,0.64,1018.73
8.988,0.11,0.36,-0.14,-5.45,3.80,2.27,-1.38,-0.99,-2.21,1018.73
9.006,0.11,0.36,-0.14,-4.51,-2.51,0.55,-1.38,-0.99,-2.21,1018.73
9.007,0.18,0.42,-0.15,-4.51,-2.51,0.55,-1.38,-0.99,-2.21,1018.73
9.008,-0.02,0.56,-0.31,-4.51,-2.51,0.55,-1.38,-0.99,-2.21,1018.73
9.031,-0.17,0.69,-0.41,-4.51,-2.51,0.55,-1.38,-0.99,-2.21,1018.73
9.032,-0.17,0.69,-0.41,-4.51,-2.51,0.55,-1.38,-0.99,-2.21,1018.87
9.055,-0.14,0.86,-0.42,-4.51,-2.51,0.55,-1.38,-0.99,-2.21,1018.87
9.057,-0.14,0.86,-0.42,-4.51,-2.51,0.55,-0.89,-0.75,-4.62,1018.87
9.071,0.02,1.07,-0.52,-4.51,-2.51,0.55,-0.89,-0.75,-4.62,1018.87
9.071,0.02,1.07,-0.52,-4.51,-2.51,0.55,-0.89,-0.75,-4.62,1018.93
9.076,0.02,1.07,-0.52,-1.56,-4.56,-2.31,-0.89,-0.75,-4.62,1018.93
9.103,0.13,1.20,-0.55,-1.56,-4.56,-2.31,-0.89,-0.75,-4.62,1018.93
9.127,0.13,1.20,-0.55,-1.56,-4.56,-2.31,-0.11,-1.04,-5.08,1018.93
9.128,0.13,1.29,-0.62,-1.56,-4.56,-2.31,-0.11,-1.04,-5.08,1018.93
9.147,0.13,1.29,-0.62,0.51,-0.10,-4.41,-0.11,-1.04,-5.08,1018.93
9.148,0.07,1.40,-0.62,0.51,-0.10,-4.41,-0.11,-1.04,-5.08,1018.93
9.148,0.02,1.53,-0.59,0.51,-0.10,-4.41,-0.11,-1.04,-5.08,1018.93
9.15,0.02,1.53,-0.59,0.51,-0.10,-4.41,-0.11,-1.04,-5.08,1018.99
9.175,0.01,1.74,-0.63,0.51,-0.10,-4.41,-0.11,-1.04,-5.08,1018.99
9.195,0.01,1.74,-0.63,0.51,-0.10,-4.41,0.47,-1.09,-4.32,1018.99
9.196,0.40,1.92,-0.69,0.51,-0.10,-4.41,0.47,-1.09,-4.32,1018.99
9.217,0.89,1.83,-0.46,0.51,-0.10,-4.41,0.47,-1.09,-4.32,1018.99
9.218,0.89,1.83,-0.46,4.32,5.03,-5.61,0.47,-1.09,-4.32,1018.99
9.23,1.42,1.48,-0.24,4.32,5.03,-5.61,0.47,-1.09,-4.32,1018.99
9.231,1.42,1.48,-0.24,4.32,5.03,-5.61,0.47,-1.09,-4.32,1019.05
9.259,1.75,1.16,0.13,4.32,5.03,-5.61,0.47,-1.09,-4.32,1019.05
9.266,1.75,1.16,0.13,4.32,5.03,-5.61,0.45,-1.04,-1.54,1019.05
9.272,1.75,1.16,0.13,4.32,5.03,-5.61,0.45,-1.04,-1.54,1019.22
9.277,1.26,0.95,-0.14,4.32,5.03,-5.61,0.45,-1.04,-1.54,1019.22
9.288,0.93,0.96,-0.09,4.32,5.03,-5.61,0.45,-1.04,-1.54,1019.22
9.289,0.93,0.96,-0.09,8.47,8.78,-5.10,0.45,-1.04,-1.54,1019.22
9.336,0.93,0.96,-0.09,8.47,8.78,-5.10,-0.85,-0.05,3.50,1019.22
9.337,0.05,1.41,-1.26,8.47,8.78,-5.10,-0.85,-0.05,3.50,1019.22
9.338,0.47,1.28,1.13,8.47,8.78,-5.10,-0.85,-0.05,3.50,1019.22
9.35,1.33,1.44,1.33,8.47,8.78,-5.10,-0.85,-0.05,3.50,1019.22
9.351,1.33,1.44,1.33,8.47,8.78,-5.10,-0.85,-0.05,3.50,1019.49
9.356,1.33,1.44,1.33,14.33,1.29,-0.41,-0.85,-0.05,3.50,1019.49
9.37,0.08,1.19,-0.85,14.33,1.29,-0.41,-0.85,-0.05,3.50,1019.49
9.407,0.08,1.19,-0.85,14.33,1.29,-0.41,0.08,0.44,0.66,1019.49
9.408,-0.04,0.97,-0.74,14.33,1.29,-0.41,0.08,0.44,0.66,1019.49
9.427,-0.04,0.97,-0.74,6.69,4.18,3.03,0.08,0.44,0.66,1019.49
9.428,0.05,0.96,0.82,6.69,4.18,3.03,0.08,0.44,0.66,1019.49
9.429,-0.06,0.99,-0.04,6.69,4.18,3.03,0.08,0.44,0.66,1019.49
9.43,-0.06,0.99,-0.04,6.69,4.18,3.03,0.08,0.44,0.66,1019.33
9.473,-0.06,0.99,-0.04,6.69,4.18,3.03,0.08,0.44,0.66,1019.17
9.473,-0.06,1.02,-0.06,6.69,4.18,3.03,0.08,0.44,0.66,1019.17
9.474,-0.05,1.01,0.02,6.69,4.18,3.03,0.08,0.44,0.66,1019.17
9.476,-0.05,1.01,0.02,6.69,4.18,3.03,0.05,0.11,0.34,1019.17
9.496,-0.02,1.00,-0.00,6.69,4.18,3.03,0.05,0.11,0.34,1019.17
9.496,-0.02,1.00,-0.00,-0.27,0.24,-2.07,0.05,0.11,0.34,1019.17
9.547,-0.02,1.00,-0.00,-0.27,0.24,-2.07,-0.08,0.01,0.16,1019.17
9.547,-0.02,1.00,-0.00,-0.27,0.24,-2.07,-0.08,0.01,0.16,1019.17
9.548,-0.05,0.99,0.02,-0.27,0.24,-2.07,-0.08,0.01,0.16,1019.17
9.55,-0.05,0.99,0.02,-0.27,0.24,-2.07,-0.08,0.01,0.16,1019.03
9.551,-0.05,0.97,0.12,-0.27,0.24,-2.07,-0.08,0.01,0.16,1019.03
9.567,-0.04,0.98,0.07,-0.27,0.24,-2.07,-0.08,0.01,0.16,1019.03
9.568,-0.04,0.98,0.07,0.04,0.53,-0.21,-0.08,0.01,0.16,1019.03
9.617,-0.04,0.98,0.07,0.04,0.53,-0.21,0.03,-0.04,0.08,1019.03
9.617,-0.05,0.98,0.03,0.04,0.53,-0.21,0.03,-0.04,0.08,1019.03
9.618,-0.04,0.99,0.03,0.04,0.53,-0.21,0.03,-0.04,0.08,1019.03
9.631,-0.04,0.99,-0.00,0.04,0.53,-0.21,0.03,-0.04,0.08,1019.03
9.632,-0.04,0.99,-0.00,0.04,0.53,-0.21,0.03,-0.04,0.08,1018.99
9.637,-0.04,0.99,-0.00,-0.05,0.25,0.50,0.03,-0.04,0.08,1018.99
9.676,-0.05,0.98,0.04,-0.05,0.25,0.50,0.03,-0.04,0.08,1018.99
9.681,-0.07,0.98,0.05,-0.05,0.25,0.50,0.03,-0.04,0.08,1018.99
9.681,-0.07,0.98,0.05,-0.05,0.25,0.50,0.03,-0.04,0.08,1018.99
9.686,-0.07,0.98,0.05,-0.05,0.25,0.50,0.01,-0.06,0.07,1018.99
9.703,-0.09,0.97,0.08,-0.05,0.25,0.50,0.01,-0.06,0.07,1018.99
9.706,-0.08,0.97,0.08,-0.05,0.25,0.50,0.01,-0.06,0.07,1018.99
9.706,-0.08,0.97,0.08,-0.13,0.27,0.15,0.01,-0.06,0.07,1018.99
9.751,-0.08,0.97,0.08,-0.13,0.27,0.15,0.01,-0.06,0.07,1019.04
9.752,-0.06,0.98,0.03,-0.13,0.27,0.15,0.01,-0.06,0.07,1019.04
9.752,-0.05,0.99,0.00,-0.13,0.27,0.15,0.01,-0.06,0.07,1019.04
9.755,-0.05,0.99,0.00,-0.13,0.27,0.15,0.13,-0.07,0.19,1019.04
9.77,-0.04,0.99,0.00,-0.13,0.27,0.15,0.13,-0.07,0.19,1019.04
9.776,-0.04,0.99,0.00,-0.57,0.18,0.69,0.13,-0.07,0.19,1019.04
9.826,-0.04,0.99,0.00,-0.57,0.18,0.69,0.10,-0.09,0.26,1019.04
9.827,-0.04,0.99,0.01,-0.57,0.18,0.69,0.10,-0.09,0.26,1019.04
9.827,-0.05,0.99,0.03,-0.57,0.18,0.69,0.10,-0.09,0.26,1019.04
9.83,-0.06,1.00,0.02,-0.57,0.18,0.69,0.10,-0.09,0.26,1019.04
9.83,-0.06,1.00,0.02,-0.57,0.18,0.69,0.10,-0.09,0.26,1019.02
9.847,-0.06,1.00,0.02,-0.49,0.31,0.21,0.10,-0.09,0.26,1019.02
9.848,-0.08,1.02,0.02,-0.49,0.31,0.21,0.10,-0.09,0.26,1019.02
9.879,-0.08,1.02,0.02,-0.49,0.31,0.21,0.10,-0.09,0.26,1019.05
9.88,-0.10,1.03,-0.02,-0.49,0.31,0.21,0.10,-0.09,0.26,1019.05
9.896,-0.10,1.03,-0.02,-0.49,0.31,0.21,0.12,-0.20,0.51,1019.05
9.898,-0.11,1.05,0.02,-0.49,0.31,0.21,0.12,-0.20,0.51,1019.05
9.917,-0.12,1.07,-0.08,-0.49,0.31,0.21,0.12,-0.20,0.51,1019.05
9.918,-0.12,1.07,-0.08,-1.02,0.43,0.33,0.12,-0.20,0.51,1019.05
9.95,-0.12,1.07,-0.08,-1.02,0.43,0.33,0.12,-0.20,0.51,1019.07
9.951,-0.16,1.12,-0.08,-1.02,0.43,0.33,0.12,-0.20,0.51,1019.07
9.951,-0.21,1.16,-0.03,-1.02,0.43,0.33,0.12,-0.20,0.51,1019.07
9.967,-0.21,1.16,-0.03,-1.02,0.43,0.33,-0.08,-0.21,1.23,1019.07
9.97,-0.21,1.21,-0.14,-1.02,0.43,0.33,-0.08,-0.21,1.23,1019.07
9.988,-0.28,1.29,-0.27,-1.02,0.43,0.33,-0.08,-0.21,1.23,1019.07
9.989,-0.28,1.29,-0.27,-2.51,1.10,-0.28,-0.08,-0.21,1.23,1019.07
10.031,-0.28,1.29,-0.27,-2.51,1.10,-0.28,-0.08,-0.21,1.23,1019.08
10.032,-0.38,1.37,-0.17,-2.51,1.10,-0.28,-0.08,-0.21,1.23,1019.08
10.032,-0.58,1.47,-0.33,-2.51,1.10,-0.28,-0.08,-0.21,1.23,1019.08
10.037,-0.58,1.47,-0.33,-2.51,1.10,-0.28,-0.78,-0.43,2.75,1019.08
10.056,-0.81,1.49,-0.22,-2.51,1.10,-0.28,-0.78,-0.43,2.75,1019.08
10.056,-0.81,1.49,-0.22,-5.72,3.10,-1.89,-0.78,-0.43,2.75,1019.08
10.071,-0.71,1.48,0.19,-5.72,3.10,-1.89,-0.78,-0.43,2.75,1019.08
10.071,-0.71,1.48,0.19,-5.72,3.10,-1.89,-0.78,-0.43,2.75,1018.84
10.103,-0.18,1.56,0.16,-5.72,3.10,-1.89,-0.78,-0.43,2.75,1018.84
10.105,-0.18,1.56,0.16,-5.72,3.10,-1.89,-1.32,-1.05,5.42,1018.84
10.127,-0.18,1.56,0.16,-12.45,7.49,-2.35,-1.32,-1.05,5.42,1018.84
10.128,0.12,1.50,0.50,-12.45,7.49,-2.35,-1.32,-1.05,5.42,1018.84
10.129,0.02,1.39,0.28,-12.45,7.49,-2.35,-1.32,-1.05,5.42,1018.84
10.151,-0.40,0.80,0.23,-12.45,7.49,-2.35,-1.32,-1.05,5.42,1018.84
10.151,-0.40,0.80,0.23,-12.45,7.49,-2.35,-1.32,-1.05,5.42,1018.43
10.171,1.06,0.26,0.45,-12.45,7.49,-2.35,-1.32,-1.05,5.42,1018.43
10.176,1.06,0.26,0.45,-12.45,7.49,-2.35,-0.80,-1.88,4.15,1018.43
10.196,1.29,0.93,0.44,-12.45,7.49,-2.35,-0.80,-1.88,4.15,1018.43
10.196,1.29,0.93,0.44,-8.31,8.61,2.91,-0.80,-1.88,4.15,1018.43
10.231,-0.61,0.39,0.04,-8.31,8.61,2.91,-0.80,-1.88,4.15,1018.43
10.231,-0.34,0.34,-0.06,-8.31,8.61,2.91,-0.80,-1.88,4.15,1018.43
10.232,-0.34,0.34,-0.06,-8.31,8.61,2.91,-0.80,-1.88,4.15,1018.67
10.246,-0.34,0.34,-0.06,-8.31,8.61,2.91,-0.30,-1.12,-2.17,1018.67
10.258,-0.05,0.33,0.03,-8.31,8.61,2.91,-0.30,-1.12,-2.17,1018.67
10.267,-0.05,0.39,-0.01,-8.31,8.61,2.91,-0.30,-1.12,-2.17,1018.67
10.267,-0.05,0.39,-0.01,-1.37,-0.97,3.34,-0.30,-1.12,-2.17,1018.67
10.272,-0.05,0.39,-0.01,-1.37,-0.97,3.34,-0.30,-1.12,-2.17,1018.88
10.304,-0.03,0.54,-0.13,-1.37,-0.97,3.34,-0.30,-1.12,-2.17,1018.88
10.316,-0.05,0.58,-0.08,-1.37,-0.97,3.34,-0.30,-1.12,-2.17,1018.88
10.317,-0.05,0.58,-0.08,-1.37,-0.97,3.34,-0.53,0.34,-4.07,1018.88
10.336,-0.17,0.65,-0.06,-1.37,-0.97,3.34,-0.53,0.34,-4.07,1018.88
10.336,-0.17,0.65,-0.06,-5.56,-5.00,-0.39,-0.53,0.34,-4.07,1018.88
10.351,-0.18,0.87,-0.20,-5.56,-5.00,-0.39,-0.53,0.34,-4.07,1018.88
10.351,-0.18,0.87,-0.20,-5.56,-5.00,-0.39,-0.53,0.34,-4.07,1018.83
10.369,-0.08,1.11,-0.26,-5.56,-5.00,-0.39,-0.53,0.34,-4.07,1018.83
10.386,-0.08,1.11,-0.26,-5.56,-5.00,-0.39,-0.08,-0.27,-5.20,1018.83
10.407,-0.08,1.11,-0.26,-1.09,-3.08,-1.20,-0.08,-0.27,-5.20,1018.83
10.409,0.03,1.28,-0.31,-1.09,-3.08,-1.20,-0.08,-0.27,-5.20,1018.83
10.409,0.05,1.47,-0.40,-1.09,-3.08,-1.20,-0.08,-0.27,-5.20,1018.83
10.43,0.12,1.67,-0.45,-1.09,-3.08,-1.20,-0.08,-0.27,-5.20,1018.83
10.431,0.12,1.67,-0.45,-1.09,-3.08,-1.20,-0.08,-0.27,-5.20,1018.86
10.457,0.12,1.67,-0.45,-1.09,-3.08,-1.20,0.26,0.03,-5.04,1018.86
10.458,0.17,1.79,-0.35,-1.09,-3.08,-1.20,0.26,0.03,-5.04,1018.86
10.471,0.38,1.92,-0.26,-1.09,-3.08,-1.20,0.26,0.03,-5.04,1018.86
10.471,0.38,1.92,-0.26,-1.09,-3.08,-1.20,0.26,0.03,-5.04,1018.92
10.477,0.38,1.92,-0.26,2.65,3.41,-2.96,0.26,0.03,-5.04,1018.92
10.501,0.76,1.92,-0.13,2.65,3.41,-2.96,0.26,0.03,-5.04,1018.92
10.527,1.31,1.69,0.07,2.65,3.41,-2.96,0.26,0.03,-5.04,1018.92
10.528,1.31,1.69,0.07,2.65,3.41,-2.96,0.51,-0.09,-3.94,1018.92
10.547,1.31,1.69,0.07,7.38,9.77,-2.75,0.51,-0.09,-3.94,1018.92
10.548,1.98,1.38,0.12,7.38,9.77,-2.75,0.51,-0.09,-3.94,1018.92
10.548,2.16,1.07,0.31,7.38,9.77,-2.75,0.51,-0.09,-3.94,1018.92
10.55,2.16,1.07,0.31,7.38,9.77,-2.75,0.51,-0.09,-3.94,1019.21
10.57,0.80,1.09,-0.24,7.38,9.77,-2.75,0.51,-0.09,-3.94,1019.21
10.596,0.80,1.09,-0.24,7.38,9.77,-2.75,-0.21,0.52,0.97,1019.21
10.597,0.37,1.33,-0.05,7.38,9.77,-2.75,-0.21,0.52,0.97,1019.21
10.617,-0.63,1.10,-0.20,7.38,9.77,-2.75,-0.21,0.52,0.97,1019.21
10.618,-0.63,1.10,-0.20,19.34,5.43,1.53,-0.21,0.52,0.97,1019.21
10.63,-0.96,0.70,-0.56,19.34,5.43,1.53,-0.21,0.52,0.97,1019.21
10.631,-0.96,0.70,-0.56,19.34,5.43,1.53,-0.21,0.52,0.97,1019.07
10.666,-0.96,0.70,-0.56,19.34,5.43,1.53,-0.86,0.57,2.95,1019.07
10.667,0.75,1.31,0.10,19.34,5.43,1.53,-0.86,0.57,2.95,1019.07
10.67,0.75,1.31,0.10,19.34,5.43,1.53,-0.86,0.57,2.95,1019.66
10.671,0.96,1.36,0.91,19.34,5.43,1.53,-0.86,0.57,2.95,1019.66
10.687,0.01,1.15,-0.32,19.34,5.43,1.53,-0.86,0.57,2.95,1019.66
10.688,0.01,1.15,-0.32,1.08,1.72,-2.10,-0.86,0.57,2.95,1019.66
10.736,0.01,1.15,-0.32,1.08,1.72,-2.10,-0.28,0.40,0.86,1019.66
10.737,0.22,1.12,-0.09,1.08,1.72,-2.10,-0.28,0.40,0.86,1019.66
10.737,-0.05,0.97,0.03,1.08,1.72,-2.10,-0.28,0.40,0.86,1019.66
10.75,0.01,1.00,0.23,1.08,1.72,-2.10,-0.28,0.40,0.86,1019.66
10.751,0.01,1.00,0.23,1.08,1.72,-2.10,-0.28,0.40,0.86,1019.47
10.756,0.01,1.00,0.23,4.72,2.38,0.87,-0.28,0.40,0.86,1019.47
10.771,-0.03,1.02,0.02,4.72,2.38,0.87,-0.28,0.40,0.86,1019.47
10.806,-0.07,0.99,0.11,4.72,2.38,0.87,-0.28,0.40,0.86,1019.47
10.807,-0.07,0.99,0.11,4.72,2.38,0.87,-0.05,0.11,0.36,1019.47
10.827,-0.05,1.00,0.07,4.72,2.38,0.87,-0.05,0.11,0.36,1019.47
10.83,-0.06,1.01,0.01,4.72,2.38,0.87,-0.05,0.11,0.36,1019.47
10.83,-0.06,1.01,0.01,1.07,0.79,0.27,-0.05,0.11,0.36,1019.47
10.831,-0.06,1.01,0.01,1.07,0.79,0.27,-0.05,0.11,0.36,1019.19
10.87,-0.06,1.01,0.01,1.07,0.79,0.27,-0.05,0.11,0.36,1019.03
10.871,-0.06,1.00,0.04,1.07,0.79,0.27,-0.05,0.11,0.36,1019.03
10.871,-0.05,0.99,0.07,1.07,0.79,0.27,-0.05,0.11,0.36,1019.03
10.89,-0.05,0.99,0.07,1.07,0.79,0.27,0.02,0.04,0.23,1019.03
10.896,-0.04,0.99,0.06,1.07,0.79,0.27,0.02,0.04,0.23,1019.03
10.897,-0.04,0.99,0.06,-0.07,0.49,0.34,0.02,0.04,0.23,1019.03
10.946,-0.04,0.99,0.06,-0.07,0.49,0.34,0.04,-0.01,0.13,1019.03
10.948,-0.04,0.99,0.04,-0.07,0.49,0.34,0.04,-0.01,0.13,1019.03
10.949,-0.04,0.99,0.03,-0.07,0.49,0.34,0.04,-0.01,0.13,1019.03
10.951,-0.05,0.98,0.05,-0.07,0.49,0.34,0.04,-0.01,0.13,1019.03
10.952,-0.05,0.98,0.05,-0.07,0.49,0.34,0.04,-0.01,0.13,1018.99
10.968,-0.05,0.98,0.05,-0.07,0.38,0.34,0.04,-0.01,0.13,1018.99
10.969,-0.06,0.98,0.06,-0.07,0.38,0.34,0.04,-0.01,0.13,1018.99
11.017,-0.06,0.98,0.06,-0.07,0.38,0.34,0.06,-0.06,0.14,1018.99
11.018,-0.07,0.98,0.05,-0.07,0.38,0.34,0.06,-0.06,0.14,1018.99
11.018,-0.09,0.98,0.07,-0.07,0.38,0.34,0.06,-0.06,0.14,1018.99
11.031,-0.08,0.98,0.06,-0.07,0.38,0.34,0.06,-0.06,0.14,1018.99
11.031,-0.08,0.98,0.06,-0.07,0.38,0.34,0.06,-0.06,0.14,1019.00
11.036,-0.08,0.98,0.06,-0.18,0.32,0.27,0.06,-0.06,0.14,1019.00
11.071,-0.08,0.98,0.06,-0.18,0.32,0.27,0.06,-0.06,0.14,1019.01
11.072,-0.06,0.98,0.05,-0.18,0.32,0.27,0.06,-0.06,0.14,1019.01
11.072,-0.06,0.98,0.05,-0.18,0.32,0.27,0.06,-0.06,0.14,1019.01
11.087,-0.06,0.98,0.05,-0.18,0.32,0.27,0.14,-0.06,0.26,1019.01
11.104,-0.05,0.99,0.04,-0.18,0.32,0.27,0.14,-0.06,0.26,1019.01
11.107,-0.04,0.99,0.03,-0.18,0.32,0.27,0.14,-0.06,0.26,1019.01
11.108,-0.04,0.99,0.03,-0.62,0.27,0.49,0.14,-0.06,0.26,1019.01
11.151,-0.04,0.99,0.03,-0.62,0.27,0.49,0.14,-0.06,0.26,1019.08
11.152,-0.05,1.00,0.02,-0.62,0.27,0.49,0.14,-0.06,0.26,1019.08
11.152,-0.08,1.02,0.01,-0.62,0.27,0.49,0.14,-0.06,0.26,1019.08
11.157,-0.08,1.02,0.01,-0.62,0.27,0.49,0.18,-0.10,0.39,1019.08
11.17,-0.06,1.04,-0.04,-0.62,0.27,0.49,0.18,-0.10,0.39,1019.08
11.177,-0.06,1.04,-0.04,-0.65,0.32,0.47,0.18,-0.10,0.39,1019.08
11.226,-0.06,1.04,-0.04,-0.65,0.32,0.47,0.02,-0.11,0.80,1019.08
11.227,-0.11,1.07,-0.06,-0.65,0.32,0.47,0.02,-0.11,0.80,1019.08
11.228,-0.12,1.10,-0.09,-0.65,0.32,0.47,0.02,-0.11,0.80,1019.08
11.23,-0.18,1.12,-0.06,-0.65,0.32,0.47,0.02,-0.11,0.80,1019.08
11.23,-0.18,1.12,-0.06,-0.65,0.32,0.47,0.02,-0.11,0.80,1019.06
11.246,-0.18,1.12,-0.06,-1.47,0.74,-0.04,0.02,-0.11,0.80,1019.06
11.247,-0.20,1.16,-0.02,-1.47,0.74,-0.04,0.02,-0.11,0.80,1019.06
11.271,-0.23,1.23,-0.11,-1.47,0.74,-0.04,0.02,-0.11,0.80,1019.06
11.272,-0.23,1.23,-0.11,-1.47,0.74,-0.04,0.02,-0.11,0.80,1019.10
11.296,-0.23,1.23,-0.11,-1.47,0.74,-0.04,-0.25,-0.17,1.84,1019.10
11.297,-0.27,1.28,-0.11,-1.47,0.74,-0.04,-0.25,-0.17,1.84,1019.10
11.318,-0.39,1.39,-0.12,-1.47,0.74,-0.04,-0.25,-0.17,1.84,1019.10
11.318,-0.39,1.39,-0.12,-3.81,1.89,-0.74,-0.25,-0.17,1.84,1019.10
11.351,-0.39,1.39,-0.12,-3.81,1.89,-0.74,-0.25,-0.17,1.84,1019.03
11.351,-0.64,1.46,-0.17,-3.81,1.89,-0.74,-0.25,-0.17,1.84,1019.03
11.351,-0.82,1.50,0.03,-3.81,1.89,-0.74,-0.25,-0.17,1.84,1019.03
11.366,-0.82,1.50,0.03,-3.81,1.89,-0.74,-0.64,-0.69,4.11,1019.03
11.37,-0.76,1.43,0.16,-3.81,1.89,-0.74,-0.64,-0.69,4.11,1019.03
11.386,-0.02,1.52,0.25,-3.81,1.89,-0.74,-0.64,-0.69,4.11,1019.03
11.387,-0.02,1.52,0.25,-8.37,5.11,-1.56,-0.64,-0.69,4.11,1019.03
11.43,-0.02,1.52,0.25,-8.37,5.11,-1.56,-0.64,-0.69,4.11,1018.48
11.431,0.39,1.52,0.40,-8.37,5.11,-1.56,-0.64,-0.69,4.11,1018.48
11.431,0.08,1.37,0.31,-8.37,5.11,-1.56,-0.64,-0.69,4.11,1018.48
11.437,0.08,1.37,0.31,-8.37,5.11,-1.56,-0.46,-1.16,5.72,1018.48
11.457,-0.10,0.59,0.31,-8.37,5.11,-1.56,-0.46,-1.16,5.72,1018.48
11.458,-0.10,0.59,0.31,-12.75,8.71,1.13,-0.46,-1.16,5.72,1018.48
11.471,1.73,1.03,0.39,-12.75,8.71,1.13,-0.46,-1.16,5.72,1018.48
11.472,1.73,1.03,0.39,-12.75,8.71,1.13,-0.46,-1.16,5.72,1018.39
11.503,-0.42,0.38,0.44,-12.75,8.71,1.13,-0.46,-1.16,5.72,1018.39
11.507,-0.42,0.38,0.44,-12.75,8.71,1.13,0.23,-1.11,0.37,1018.39
11.527,-0.42,0.38,0.44,-3.69,4.36,3.63,0.23,-1.11,0.37,1018.39
11.528,-0.63,0.48,-0.13,-3.69,4.36,3.63,0.23,-1.11,0.37,1018.39
11.529,-0.21,0.43,-0.26,-3.69,4.36,3.63,0.23,-1.11,0.37,1018.39
11.554,0.03,0.35,0.09,-3.69,4.36,3.63,0.23,-1.11,0.37,1018.39
11.555,0.03,0.35,0.09,-3.69,4.36,3.63,0.23,-1.11,0.37,1018.82
11.57,0.06,0.43,0.02,-3.69,4.36,3.63,0.23,-1.11,0.37,1018.82
11.579,0.06,0.43,0.02,-3.69,4.36,3.63,-0.17,0.20,-2.60,1018.82
11.596,-0.04,0.49,-0.03,-3.69,4.36,3.63,-0.17,0.20,-2.60,1018.82
11.597,-0.04,0.49,-0.03,-5.63,-2.24,1.23,-0.17,0.20,-2.60,1018.82
11.631,-0.04,0.49,-0.03,-5.63,-2.24,1.23,-0.17,0.20,-2.60,1018.95
11.632,-0.21,0.56,-0.07,-5.63,-2.24,1.23,-0.17,0.20,-2.60,1018.95
11.632,-0.20,0.73,-0.16,-5.63,-2.24,1.23,-0.17,0.20,-2.60,1018.95
11.647,-0.20,0.73,-0.16,-5.63,-2.24,1.23,0.12,0.14,-4.83,1018.95
11.667,-0.20,0.73,-0.16,-2.00,-4.61,0.54,0.12,0.14,-4.83,1018.95
11.668,-0.06,0.92,-0.17,-2.00,-4.61,0.54,0.12,0.14,-4.83,1018.95
11.668,0.09,1.09,-0.15,-2.00,-4.61,0.54,0.12,0.14,-4.83,1018.95
11.67,0.09,1.09,-0.15,-2.00,-4.61,0.54,0.12,0.14,-4.83,1019.00
11.703,0.11,1.25,-0.23,-2.00,-4.61,0.54,0.12,0.14,-4.83,1019.00
11.717,0.11,1.25,-0.23,-2.00,-4.61,0.54,0.11,-0.39,-5.33,1019.00
11.718,-0.19,1.46,-0.45,-2.00,-4.61,0.54,0.11,-0.39,-5.33,1019.00
11.738,-0.41,1.83,-0.50,-2.00,-4.61,0.54,0.11,-0.39,-5.33,1019.00
11.738,-0.41,1.83,-0.50,0.44,-0.53,-1.15,0.11,-0.39,-5.33,1019.00
11.751,0.45,2.04,-0.12,0.44,-0.53,-1.15,0.11,-0.39,-5.33,1019.00
11.758,0.45,2.04,-0.12,0.44,-0.53,-1.15,0.11,-0.39,-5.33,1019.06
11.77,1.00,1.89,0.13,0.44,-0.53,-1.15,0.11,-0.39,-5.33,1019.06
11.787,1.00,1.89,0.13,0.44,-0.53,-1.15,-0.48,-0.40,-4.23,1019.06
11.796,1.09,1.66,0.04,0.44,-0.53,-1.15,-0.48,-0.40,-4.23,1019.06
11.807,0.68,1.59,-0.28,0.44,-0.53,-1.15,-0.48,-0.40,-4.23,1019.06
11.808,0.68,1.59,-0.28,2.67,7.19,-3.58,-0.48,-0.40,-4.23,1019.06
11.83,1.65,1.36,0.04,2.67,7.19,-3.58,-0.48,-0.40,-4.23,1019.06
11.831,1.65,1.36,0.04,2.67,7.19,-3.58,-0.48,-0.40,-4.23,1019.05
11.857,2.41,0.91,0.29,2.67,7.19,-3.58,-0.48,-0.40,-4.23,1019.05
11.857,2.41,0.91,0.29,2.67,7.19,-3.58,-0.13,0.27,-1.54,1019.05
11.87,1.40,0.98,0.01,2.67,7.19,-3.58,-0.13,0.27,-1.54,1019.05
11.871,1.40,0.98,0.01,2.67,7.19,-3.58,-0.13,0.27,-1.54,1019.05
11.884,1.40,0.98,0.01,12.21,8.67,-0.15,-0.13,0.27,-1.54,1019.05
11.904,1.08,0.98,0.13,12.21,8.67,-0.15,-0.13,0.27,-1.54,1019.05
11.927,-1.16,1.47,0.12,12.21,8.67,-0.15,-0.13,0.27,-1.54,1019.05
11.928,-1.16,1.47,0.12,12.21,8.67,-0.15,-0.27,0.33,2.89,1019.05
11.947,-1.16,1.47,0.12,18.10,1.33,0.89,-0.27,0.33,2.89,1019.05
11.948,-1.23,1.15,-1.35,18.10,1.33,0.89,-0.27,0.33,2.89,1019.05
11.949,2.14,1.63,0.54,18.10,1.33,0.89,-0.27,0.33,2.89,1019.05
11.95,2.14,1.63,0.54,18.10,1.33,0.89,-0.27,0.33,2.89,1019.33
11.97,0.58,1.43,0.82,18.10,1.33,0.89,-0.27,0.33,2.89,1019.33
11.997,0.58,1.43,0.82,18.10,1.33,0.89,-0.45,0.68,1.46,1019.33
11.998,-0.12,0.99,-1.15,18.10,1.33,0.89,-0.45,0.68,1.46,1019.33
12.016,0.13,1.00,0.43,18.10,1.33,0.89,-0.45,0.68,1.46,1019.33
12.017,0.13,1.00,0.43,1.42,4.00,-1.85,-0.45,0.68,1.46,1019.33
12.03,-0.02,0.98,0.27,1.42,4.00,-1.85,-0.45,0.68,1.46,1019.33
12.031,-0.02,0.98,0.27,1.42,4.00,-1.85,-0.45,0.68,1.46,1019.34
12.067,-0.02,0.98,0.27,1.42,4.00,-1.85,-0.04,0.15,0.44,1019.34
12.068,-0.05,1.03,-0.01,1.42,4.00,-1.85,-0.04,0.15,0.44,1019.34
12.07,-0.05,1.01,-0.06,1.42,4.00,-1.85,-0.04,0.15,0.44,1019.34
12.071,-0.05,1.01,-0.06,1.42,4.00,-1.85,-0.04,0.15,0.44,1019.20
12.087,-0.05,1.01,-0.06,1.96,1.60,0.69,-0.04,0.15,0.44,1019.20
12.087,-0.02,0.99,0.17,1.96,1.60,0.69,-0.04,0.15,0.44,1019.20
12.138,-0.02,0.99,0.17,1.96,1.60,0.69,-0.01,0.04,0.28,1019.20
12.138,-0.03,1.02,-0.03,1.96,1.60,0.69,-0.01,0.04,0.28,1019.20
12.139,-0.03,1.02,-0.07,1.96,1.60,0.69,-0.01,0.04,0.28,1019.20
12.15,-0.03,1.00,0.06,1.96,1.60,0.69,-0.01,0.04,0.28,1019.20
12.151,-0.03,1.00,0.06,1.96,1.60,0.69,-0.01,0.04,0.28,1019.02
12.157,-0.03,1.00,0.06,-0.01,0.58,0.23,-0.01,0.04,0.28,1019.02
12.17,-0.04,0.98,0.07,-0.01,0.58,0.23,-0.01,0.04,0.28,1019.02
12.207,-0.03,0.98,0.08,-0.01,0.58,0.23,-0.01,0.04,0.28,1019.02
12.207,-0.03,0.98,0.08,-0.01,0.58,0.23,-0.04,-0.02,0.21,1019.02
12.226,-0.03,0.98,0.08,-0.16,0.55,-0.23,-0.04,-0.02,0.21,1019.02
12.227,-0.00,0.97,0.07,-0.16,0.55,-0.23,-0.04,-0.02,0.21,1019.02
12.228,-0.01,0.97,0.06,-0.16,0.55,-0.23,-0.04,-0.02,0.21,1019.02
12.23,-0.01,0.97,0.06,-0.16,0.55,-0.23,-0.04,-0.02,0.21,1018.91
12.259,-0.03,0.98,0.05,-0.16,0.55,-0.23,-0.04,-0.02,0.21,1018.91
12.271,-0.02,0.98,0.05,-0.16,0.55,-0.23,-0.04,-0.02,0.21,1018.91
12.271,-0.02,0.98,0.05,-0.16,0.55,-0.23,-0.04,-0.02,0.21,1018.95
12.279,-0.02,0.98,0.05,-0.16,0.55,-0.23,0.04,-0.05,0.17,1018.95
12.297,-0.02,0.99,0.03,-0.16,0.55,-0.23,0.04,-0.05,0.17,1018.95
12.298,-0.02,0.99,0.03,-0.15,0.20,0.50,0.04,-0.05,0.17,1018.95
12.347,-0.02,0.99,0.03,-0.15,0.20,0.50,0.08,-0.09,0.18,1018.95
12.348,0.00,0.97,0.07,-0.15,0.20,0.50,0.08,-0.09,0.18,1018.95
12.348,-0.03,0.98,0.07,-0.15,0.20,0.50,0.08,-0.09,0.18,1018.95
12.35,-0.02,0.99,0.06,-0.15,0.20,0.50,0.08,-0.09,0.18,1018.95
12.35,-0.02,0.99,0.06,-0.15,0.20,0.50,0.08,-0.09,0.18,1018.98
12.367,-0.00,0.99,0.02,-0.15,0.20,0.50,0.08,-0.09,0.18,1018.98
12.368,-0.00,0.99,0.02,-0.29,0.28,0.33,0.08,-0.09,0.18,1018.98
12.418,-0.00,0.99,0.02,-0.29,0.28,0.33,0.12,-0.13,0.25,1018.98
12.418,-0.02,1.00,0.01,-0.29,0.28,0.33,0.12,-0.13,0.25,1018.98
12.419,-0.03,0.99,0.04,-0.29,0.28,0.33,0.12,-0.13,0.25,1018.98
12.431,-0.05,1.02,0.01,-0.29,0.28,0.33,0.12,-0.13,0.25,1018.98
12.431,-0.05,1.02,0.01,-0.29,0.28,0.33,0.12,-0.13,0.25,1019.06
12.438,-0.05,1.02,0.01,-0.44,0.30,0.47,0.12,-0.13,0.25,1019.06
12.471,-0.07,1.04,-0.01,-0.44,0.30,0.47,0.12,-0.13,0.25,1019.06
12.472,-0.05,1.05,-0.03,-0.44,0.30,0.47,0.12,-0.13,0.25,1019.06
12.473,-0.05,1.05,-0.03,-0.44,0.30,0.47,0.12,-0.13,0.25,1019.10
12.488,-0.05,1.05,-0.03,-0.44,0.30,0.47,0.05,-0.18,0.51,1019.10
12.504,-0.05,1.04,-0.04,-0.44,0.30,0.47,0.05,-0.18,0.51,1019.10
12.507,-0.06,1.05,0.04,-0.44,0.30,0.47,0.05,-0.18,0.51,1019.10
12.508,-0.06,1.05,0.04,-1.03,0.55,0.12,0.05,-0.18,0.51,1019.10
12.551,-0.06,1.05,0.04,-1.03,0.55,0.12,0.05,-0.18,0.51,1019.09
12.552,-0.07,1.06,0.03,-1.03,0.55,0.12,0.05,-0.18,0.51,1019.09
12.553,-0.03,1.08,-0.05,-1.03,0.55,0.12,0.05,-0.18,0.51,1019.09
12.557,-0.03,1.08,-0.05,-1.03,0.55,0.12,-0.07,-0.27,0.97,1019.09
12.57,-0.05,1.11,-0.08,-1.03,0.55,0.12,-0.07,-0.27,0.97,1019.09
12.577,-0.05,1.11,-0.08,-1.95,0.96,-0.23,-0.07,-0.27,0.97,1019.09
12.617,-0.04,1.16,-0.06,-1.95,0.96,-0.23,-0.07,-0.27,0.97,1019.09
12.618,-0.11,1.25,-0.15,-1.95,0.96,-0.23,-0.07,-0.27,0.97,1019.09
12.628,-0.11,1.25,-0.15,-1.95,0.96,-0.23,-0.44,-0.64,1.64,1019.09
12.631,-0.42,1.39,-0.12,-1.95,0.96,-0.23,-0.44,-0.64,1.64,1019.09
12.632,-0.42,1.39,-0.12,-1.95,0.96,-0.23,-0.44,-0.64,1.64,1019.06
12.647,-0.42,1.39,-0.12,-3.15,1.70,-0.78,-0.44,-0.64,1.64,1019.06
12.648,-0.64,1.55,-0.51,-3.15,1.70,-0.78,-0.44,-0.64,1.64,1019.06
12.67,-0.76,1.50,-0.23,-3.15,1.70,-0.78,-0.44,-0.64,1.64,1019.06
12.671,-0.76,1.50,-0.23,-3.15,1.70,-0.78,-0.44,-0.64,1.64,1018.52
12.698,-0.76,1.50,-0.23,-3.15,1.70,-0.78,-1.71,-1.54,4.02,1018.52
12.698,-0.36,1.41,0.61,-3.15,1.70,-0.78,-1.71,-1.54,4.02,1018.52
12.716,0.08,1.26,0.65,-3.15,1.70,-0.78,-1.71,-1.54,4.02,1018.52
12.717,0.08,1.26,0.65,-8.66,5.72,-3.09,-1.71,-1.54,4.02,1018.52
12.75,0.08,1.26,0.65,-8.66,5.72,-3.09,-1.71,-1.54,4.02,1018.50
12.751,0.34,1.15,0.33,-8.66,5.72,-3.09,-1.71,-1.54,4.02,1018.50
12.751,0.35,0.78,0.25,-8.66,5.72,-3.09,-1.71,-1.54,4.02,1018.50
12.767,0.35,0.78,0.25,-8.66,5.72,-3.09,-1.43,-2.93,3.79,1018.50
12.77,0.86,0.06,0.33,-8.66,5.72,-3.09,-1.43,-2.93,3.79,1018.50
12.788,0.66,0.41,0.34,-8.66,5.72,-3.09,-1.43,-2.93,3.79,1018.50
12.788,0.66,0.41,0.34,-8.93,6.54,3.31,-1.43,-2.93,3.79,1018.50
12.831,0.66,0.41,0.34,-8.93,6.54,3.31,-1.43,-2.93,3.79,1018.65
12.832,-0.16,0.15,-0.02,-8.93,6.54,3.31,-1.43,-2.93,3.79,1018.65
12.833,0.08,0.47,-0.60,-8.93,6.54,3.31,-1.43,-2.93,3.79,1018.65
12.837,0.08,0.47,-0.60,-8.93,6.54,3.31,-0.35,-2.82,-1.07,1018.65
12.858,0.36,0.58,-0.84,-8.93,6.54,3.31,-0.35,-2.82,-1.07,1018.65
12.859,0.36,0.58,-0.84,0.14,-2.35,3.31,-0.35,-2.82,-1.07,1018.65
12.871,0.31,0.57,-0.22,0.14,-2.35,3.31,-0.35,-2.82,-1.07,1018.65
12.872,0.31,0.57,-0.22,0.14,-2.35,3.31,-0.35,-2.82,-1.07,1018.90
12.903,0.22,0.59,-0.17,0.14,-2.35,3.31,-0.35,-2.82,-1.07,1018.90
12.906,0.22,0.59,-0.17,0.14,-2.35,3.31,-1.55,0.06,-2.72,1018.90
12.928,0.22,0.59,-0.17,-2.71,-4.21,-4.94,-1.55,0.06,-2.72,1018.90
12.929,0.08,0.69,-0.21,-2.71,-4.21,-4.94,-1.55,0.06,-2.72,1018.90
12.929,-0.07,0.74,-0.20,-2.71,-4.21,-4.94,-1.55,0.06,-2.72,1018.90
12.951,0.10,0.84,-0.25,-2.71,-4.21,-4.94,-1.55,0.06,-2.72,1018.90
12.951,0.10,0.84,-0.25,-2.71,-4.21,-4.94,-1.55,0.06,-2.72,1018.91
12.971,0.21,0.94,-0.35,-2.71,-4.21,-4.94,-1.55,0.06,-2.72,1018.91
12.977,0.21,0.94,-0.35,-2.71,-4.21,-4.94,-0.43,-1.29,-3.16,1018.91
13.0,0.18,0.96,-0.36,-2.71,-4.21,-4.94,-0.43,-1.29,-3.16,1018.91
13.006,0.18,0.96,-0.36,-0.87,-2.47,-1.74,-0.43,-1.29,-3.16,1018.91
13.03,0.18,0.96,-0.36,-0.87,-2.47,-1.74,-0.43,-1.29,-3.16,1018.98
13.031,0.10,1.01,-0.30,-0.87,-2.47,-1.74,-0.43,-1.29,-3.16,1018.98
13.033,0.06,1.08,-0.22,-0.87,-2.47,-1.74,-0.43,-1.29,-3.16,1018.98
13.048,0.06,1.08,-0.22,-0.87,-2.47,-1.74,-0.20,-1.31,-3.15,1018.98
13.067,0.06,1.08,-0.22,1.48,-0.14,-3.21,-0.20,-1.31,-3.15,1018.98
13.068,0.08,1.16,-0.17,1.48,-0.14,-3.21,-0.20,-1.31,-3.15,1018.98
13.068,0.08,1.22,-0.11,1.48,-0.14,-3.21,-0.20,-1.31,-3.15,1018.98
13.071,0.08,1.22,-0.11,1.48,-0.14,-3.21,-0.20,-1.31,-3.15,1018.96
13.104,0.04,1.26,-0.13,1.48,-0.14,-3.21,-0.20,-1.31,-3.15,1018.96
13.117,0.04,1.26,-0.13,1.48,-0.14,-3.21,-0.16,-1.32,-2.72,1018.96
13.118,0.02,1.29,-0.20,1.48,-0.14,-3.21,-0.16,-1.32,-2.72,1018.96
13.137,0.04,1.31,-0.20,1.48,-0.14,-3.21,-0.16,-1.32,-2.72,1018.96
13.138,0.04,1.31,-0.20,2.17,2.04,-2.02,-0.16,-1.32,-2.72,1018.96
13.151,0.04,1.30,-0.17,2.17,2.04,-2.02,-0.16,-1.32,-2.72,1018.96
13.152,0.04,1.30,-0.17,2.17,2.04,-2.02,-0.16,-1.32,-2.72,1018.92
13.17,0.11,1.28,-0.11,2.17,2.04,-2.02,-0.16,-1.32,-2.72,1018.92
13.187,0.11,1.28,-0.11,2.17,2.04,-2.02,-0.13,-1.08,-1.23,1018.92
13.207,0.11,1.28,-0.11,2.22,3.58,-2.10,-0.13,-1.08,-1.23,1018.92
13.208,0.27,1.22,-0.03,2.22,3.58,-2.10,-0.13,-1.08,-1.23,1018.92
13.208,0.44,1.15,0.07,2.22,3.58,-2.10,-0.13,-1.08,-1.23,1018.92
13.23,0.61,1.07,0.13,2.22,3.58,-2.10,-0.13,-1.08,-1.23,1018.92
13.231,0.61,1.07,0.13,2.22,3.58,-2.10,-0.13,-1.08,-1.23,1018.95
13.257,0.61,1.07,0.13,2.22,3.58,-2.10,0.07,-0.56,-0.36,1018.95
13.258,0.68,1.01,0.13,2.22,3.58,-2.10,0.07,-0.56,-0.36,1018.95
13.27,0.67,0.95,0.09,2.22,3.58,-2.10,0.07,-0.56,-0.36,1018.95
13.271,0.67,0.95,0.09,2.22,3.58,-2.10,0.07,-0.56,-0.36,1019.07
13.277,0.67,0.95,0.09,4.41,2.98,-0.77,0.07,-0.56,-0.36,1019.07
13.303,0.55,0.86,0.04,4.41,2.98,-0.77,0.07,-0.56,-0.36,1019.07
13.327,0.37,0.81,0.01,4.41,2.98,-0.77,0.07,-0.56,-0.36,1019.07
13.328,0.37,0.81,0.01,4.41,2.98,-0.77,-0.28,0.09,0.20,1019.07
13.347,0.25,0.75,-0.02,4.41,2.98,-0.77,-0.28,0.09,0.20,1019.07
13.348,0.36,0.69,-0.20,4.41,2.98,-0.77,-0.28,0.09,0.20,1019.07
13.348,0.36,0.69,-0.20,7.77,0.55,0.45,-0.28,0.09,0.20,1019.07
13.35,0.36,0.69,-0.20,7.77,0.55,0.45,-0.28,0.09,0.20,1019.03
13.37,0.64,0.60,-0.41,7.77,0.55,0.45,-0.28,0.09,0.20,1019.03
13.4,0.64,0.60,-0.41,7.77,0.55,0.45,-0.16,0.70,0.82,1019.03
13.401,1.44,1.98,0.57,7.77,0.55,0.45,-0.16,0.70,0.82,1019.03
13.417,-0.34,1.20,0.12,7.77,0.55,0.45,-0.16,0.70,0.82,1019.03
13.418,-0.34,1.20,0.12,4.68,-1.65,-0.95,-0.16,0.70,0.82,1019.03
13.431,-2.19,1.04,-0.19,4.68,-1.65,-0.95,-0.16,0.70,0.82,1019.03
13.432,-2.19,1.04,-0.19,4.68,-1.65,-0.95,-0.16,0.70,0.82,1019.23
13.467,-2.19,1.04,-0.19,4.68,-1.65,-0.95,0.35,0.53,0.40,1019.23
13.468,0.81,1.38,-0.43,4.68,-1.65,-0.95,0.35,0.53,0.40,1019.23
13.471,0.06,1.04,-0.91,4.68,-1.65,-0.95,0.35,0.53,0.40,1019.23
13.471,0.06,1.04,-0.91,4.68,-1.65,-0.95,0.35,0.53,0.40,1019.57
13.488,0.06,1.04,-0.91,0.03,2.27,-0.11,0.35,0.53,0.40,1019.57
13.489,-0.27,0.93,0.49,0.03,2.27,-0.11,0.35,0.53,0.40,1019.57
13.537,-0.27,0.93,0.49,0.03,2.27,-0.11,-0.22,-0.00,0.35,1019.57
13.538,-0.07,0.98,0.30,0.03,2.27,-0.11,-0.22,-0.00,0.35,1019.57
13.539,0.01,1.00,-0.10,0.03,2.27,-0.11,-0.22,-0.00,0.35,1019.57
13.55,0.01,1.00,-0.10,0.03,2.27,-0.11,-0.22,-0.00,0.35,1019.16
13.551,0.01,0.98,0.07,0.03,2.27,-0.11,-0.22,-0.00,0.35,1019.16
13.557,0.01,0.98,0.07,1.81,2.12,-2.79,-0.22,-0.00,0.35,1019.16
13.57,-0.04,0.99,0.11,1.81,2.12,-2.79,-0.22,-0.00,0.35,1019.16
13.609,-0.04,0.99,0.11,1.81,2.12,-2.79,-0.10,-0.04,0.17,1019.16
13.61,-0.06,0.99,0.08,1.81,2.12,-2.79,-0.10,-0.04,0.17,1019.16
13.628,-0.06,0.99,0.08,0.32,0.39,0.48,-0.10,-0.04,0.17,1019.16
13.629,-0.05,0.99,0.08,0.32,0.39,0.48,-0.10,-0.04,0.17,1019.16
13.63,-0.03,0.97,0.07,0.32,0.39,0.48,-0.10,-0.04,0.17,1019.16
13.63,-0.03,0.97,0.07,0.32,0.39,0.48,-0.10,-0.04,0.17,1019.03
13.671,-0.03,0.97,0.07,0.32,0.39,0.48,-0.10,-0.04,0.17,1018.94
13.672,-0.08,0.98,0.16,0.32,0.39,0.48,-0.10,-0.04,0.17,1018.94
13.672,-0.07,0.99,0.06,0.32,0.39,0.48,-0.10,-0.04,0.17,1018.94
13.677,-0.07,0.99,0.06,0.32,0.39,0.48,-0.02,-0.09,0.14,1018.94
13.702,-0.01,0.97,0.06,0.32,0.39,0.48,-0.02,-0.09,0.14,1018.94
13.707,-0.01,0.97,0.06,-0.07,0.35,0.30,-0.02,-0.09,0.14,1018.94
13.747,-0.00,0.96,0.08,-0.07,0.35,0.30,-0.02,-0.09,0.14,1018.94
13.748,0.00,0.96,0.09,-0.07,0.35,0.30,-0.02,-0.09,0.14,1018.94
13.749,0.00,0.96,0.09,-0.07,0.35,0.30,-0.02,-0.07,0.06,1018.94
13.751,0.02,0.95,0.08,-0.07,0.35,0.30,-0.02,-0.07,0.06,1018.94
13.751,0.02,0.95,0.08,-0.07,0.35,0.30,-0.02,-0.07,0.06,1018.99
13.767,-0.03,0.94,0.12,-0.07,0.35,0.30,-0.02,-0.07,0.06,1018.99
13.768,-0.03,0.94,0.12,-0.07,0.30,0.36,-0.02,-0.07,0.06,1018.99
13.817,-0.03,0.94,0.12,-0.07,0.30,0.36,0.02,-0.00,-0.07,1018.99
13.818,-0.02,0.96,0.17,-0.07,0.30,0.36,0.02,-0.00,-0.07,1018.99
13.818,-0.04,0.98,-0.02,-0.07,0.30,0.36,0.02,-0.00,-0.07,1018.99
13.831,-0.05,1.01,0.08,-0.07,0.30,0.36,0.02,-0.00,-0.07,1018.99
13.831,-0.05,1.01,0.08,-0.07,0.30,0.36,0.02,-0.00,-0.07,1019.06
13.838,-0.05,1.01,0.08,0.42,0.03,0.46,0.02,-0.00,-0.07,1019.06
13.871,-0.05,1.01,0.08,0.42,0.03,0.46,0.02,-0.00,-0.07,1019.04
13.872,-0.06,1.00,-0.02,0.42,0.03,0.46,0.02,-0.00,-0.07,1019.04
13.873,-0.08,0.99,0.11,0.42,0.03,0.46,0.02,-0.00,-0.07,1019.04
13.887,-0.08,0.99,0.11,0.42,0.03,0.46,-0.05,0.01,-0.04,1019.04
13.909,-0.11,0.99,0.08,0.42,0.03,0.46,-0.05,0.01,-0.04,1019.04
13.91,-0.09,1.00,0.08,0.42,0.03,0.46,-0.05,0.01,-0.04,1019.04
13.91,-0.09,1.00,0.08,0.05,0.35,0.13,-0.05,0.01,-0.04,1019.04
13.951,-0.09,1.00,0.08,0.05,0.35,0.13,-0.05,0.01,-0.04,1019.00
13.952,-0.07,0.99,0.07,0.05,0.35,0.13,-0.05,0.01,-0.04,1019.00
13.952,-0.05,0.98,0.06,0.05,0.35,0.13,-0.05,0.01,-0.04,1019.00
13.958,-0.05,0.98,0.06,0.05,0.35,0.13,-0.05,0.01,0.11,1019.00
13.971,-0.05,0.97,0.14,0.05,0.35,0.13,-0.05,0.01,0.11,1019.00
13.978,-0.05,0.97,0.14,-0.51,0.41,0.18,-0.05,0.01,0.11,1019.00
14.028,-0.05,0.97,0.14,-0.51,0.41,0.18,0.05,-0.02,0.15,1019.00
14.029,-0.04,0.97,0.13,-0.51,0.41,0.18,0.05,-0.02,0.15,1019.00
14.029,-0.06,0.98,0.09,-0.51,0.41,0.18,0.05,-0.02,0.15,1019.00
14.03,-0.05,0.98,0.04,-0.51,0.41,0.18,0.05,-0.02,0.15,1019.00
14.031,-0.05,0.98,0.04,-0.51,0.41,0.18,0.05,-0.02,0.15,1019.01
14.048,-0.09,0.99,0.16,-0.51,0.41,0.18,0.05,-0.02,0.15,1019.01
14.049,-0.09,0.99,0.16,-0.28,0.25,0.46,0.05,-0.02,0.15,1019.01
14.07,-0.06,1.01,0.05,-0.28,0.25,0.46,0.05,-0.02,0.15,1019.01
14.071,-0.06,1.01,0.05,-0.28,0.25,0.46,0.05,-0.02,0.15,1019.05
14.098,-0.06,1.01,0.05,-0.28,0.25,0.46,0.09,-0.05,0.28,1019.05
14.099,-0.04,1.00,-0.00,-0.28,0.25,0.46,0.09,-0.05,0.28,1019.05
14.118,0.01,0.98,0.07,-0.28,0.25,0.46,0.09,-0.05,0.28,1019.05
14.119,0.01,0.98,0.07,-0.47,0.27,0.48,0.09,-0.05,0.28,1019.05
14.15,0.01,0.98,0.07,-0.47,0.27,0.48,0.09,-0.05,0.28,1019.06
14.151,-0.00,0.97,0.11,-0.47,0.27,0.48,0.09,-0.05,0.28,1019.06
14.151,-0.01,0.98,0.09,-0.47,0.27,0.48,0.09,-0.05,0.28,1019.06
14.167,-0.01,0.98,0.09,-0.47,0.27,0.48,0.07,-0.10,0.30,1019.06
14.17,-0.01,0.99,0.07,-0.47,0.27,0.48,0.07,-0.10,0.30,1019.06
14.187,-0.02,1.05,0.02,-0.47,0.27,0.48,0.07,-0.10,0.30,1019.06
14.188,-0.02,1.05,0.02,-0.33,0.35,-0.00,0.07,-0.10,0.30,1019.06
14.231,-0.02,1.05,0.02,-0.33,0.35,-0.00,0.07,-0.10,0.30,1019.06
14.232,0.04,1.07,-0.13,-0.33,0.35,-0.00,0.07,-0.10,0.30,1019.06
14.233,-0.01,1.11,-0.09,-0.33,0.35,-0.00,0.07,-0.10,0.30,1019.06
14.238,-0.01,1.11,-0.09,-0.33,0.35,-0.00,-0.12,-0.26,0.33,1019.06
14.259,-0.01,1.11,-0.09,-0.43,0.36,0.06,-0.12,-0.26,0.33,1019.06
14.26,-0.35,1.25,0.01,-0.43,0.36,0.06,-0.12,-0.26,0.33,1019.06
14.271,-0.65,1.40,-0.09,-0.43,0.36,0.06,-0.12,-0.26,0.33,1019.06
14.271,-0.65,1.40,-0.09,-0.43,0.36,0.06,-0.12,-0.26,0.33,1018.81
14.304,-0.45,1.40,-0.44,-0.43,0.36,0.06,-0.12,-0.26,0.33,1018.81
14.308,-0.45,1.40,-0.44,-0.43,0.36,0.06,-0.77,-0.79,1.64,1018.81
14.328,-0.44,1.27,-0.41,-0.43,0.36,0.06,-0.77,-0.79,1.64,1018.81
14.329,-0.14,1.24,-0.27,-0.43,0.36,0.06,-0.77,-0.79,1.64,1018.81
14.33,-0.14,1.24,-0.27,-3.61,2.35,-1.89,-0.77,-0.79,1.64,1018.81
14.351,0.23,1.27,0.41,-3.61,2.35,-1.89,-0.77,-0.79,1.64,1018.81
14.352,0.23,1.27,0.41,-3.61,2.35,-1.89,-0.77,-0.79,1.64,1018.58
14.37,0.23,1.11,0.33,-3.61,2.35,-1.89,-0.77,-0.79,1.64,1018.58
14.377,0.23,1.11,0.33,-3.61,2.35,-1.89,-1.44,-0.50,2.84,1018.58
14.403,0.40,1.07,0.23,-3.61,2.35,-1.89,-1.44,-0.50,2.84,1018.58
14.403,0.40,1.07,0.23,-7.13,4.20,-5.27,-1.44,-0.50,2.84,1018.58
14.431,0.40,1.07,0.23,-7.13,4.20,-5.27,-1.44,-0.50,2.84,1018.88
14.431,0.12,0.57,0.35,-7.13,4.20,-5.27,-1.44,-0.50,2.84,1018.88
14.432,-0.22,0.38,0.27,-7.13,4.20,-5.27,-1.44,-0.50,2.84,1018.88
14.448,-0.22,0.38,0.27,-7.13,4.20,-5.27,0.73,-1.20,1.31,1018.88
14.468,-0.22,0.38,0.27,-1.02,1.97,2.56,0.73,-1.20,1.31,1018.88
14.469,0.22,0.54,-0.06,-1.02,1.97,2.56,0.73,-1.20,1.31,1018.88
14.47,0.16,0.65,-0.34,-1.02,1.97,2.56,0.73,-1.20,1.31,1018.88
14.47,0.16,0.65,-0.34,-1.02,1.97,2.56,0.73,-1.20,1.31,1018.95
14.504,0.22,0.83,-0.54,-1.02,1.97,2.56,0.73,-1.20,1.31,1018.95
14.517,0.22,0.83,-0.54,-1.02,1.97,2.56,1.54,0.24,-0.03,1018.95
14.518,0.05,0.76,-0.29,-1.02,1.97,2.56,1.54,0.24,-0.03,1018.95
14.539,-0.02,0.69,-0.08,-1.02,1.97,2.56,1.54,0.24,-0.03,1018.95
14.54,-0.02,0.69,-0.08,-3.43,-3.63,0.06,1.54,0.24,-0.03,1018.95
14.55,-0.08,0.73,-0.03,-3.43,-3.63,0.06,1.54,0.24,-0.03,1018.95
14.551,-0.08,0.73,-0.03,-3.43,-3.63,0.06,1.54,0.24,-0.03,1018.97
14.57,-0.14,0.73,0.05,-3.43,-3.63,0.06,1.54,0.24,-0.03,1018.97
14.588,-0.14,0.73,0.05,-3.43,-3.63,0.06,1.15,2.14,-1.01,1018.97
14.611,-0.14,0.73,0.05,-2.22,-1.55,-2.47,1.15,2.14,-1.01,1018.97
14.611,-0.20,0.81,0.01,-2.22,-1.55,-2.47,1.15,2.14,-1.01,1018.97
14.612,-0.22,0.88,0.02,-2.22,-1.55,-2.47,1.15,2.14,-1.01,1018.97
14.631,-0.25,0.92,0.05,-2.22,-1.55,-2.47,1.15,2.14,-1.01,1018.97
14.632,-0.25,0.92,0.05,-2.22,-1.55,-2.47,1.15,2.14,-1.01,1018.94
14.657,-0.25,0.92,0.05,-2.22,-1.55,-2.47,1.51,2.02,-2.01,1018.94
14.658,-0.28,0.98,0.08,-2.22,-1.55,-2.47,1.51,2.02,-2.01,1018.94
14.67,-0.32,1.04,0.11,-2.22,-1.55,-2.47,1.51,2.02,-2.01,1018.94
14.671,-0.32,1.04,0.11,-2.22,-1.55,-2.47,1.51,2.02,-2.01,1018.99
14.678,-0.32,1.04,0.11,-3.09,-1.42,1.11,1.51,2.02,-2.01,1018.99
14.705,-0.33,1.12,0.14,-3.09,-1.42,1.11,1.51,2.02,-2.01,1018.99
14.729,-0.33,1.12,0.14,-3.09,-1.42,1.11,1.42,1.56,-2.60,1018.99
14.729,-0.31,1.18,0.16,-3.09,-1.42,1.11,1.42,1.56,-2.60,1018.99
14.749,-0.29,1.22,0.18,-3.09,-1.42,1.11,1.42,1.56,-2.60,1018.99
14.75,-0.27,1.24,0.19,-3.09,-1.42,1.11,1.42,1.56,-2.60,1018.99
14.75,-0.27,1.24,0.19,-2.62,0.55,2.44,1.42,1.56,-2.60,1018.99
14.751,-0.27,1.24,0.19,-2.62,0.55,2.44,1.42,1.56,-2.60,1018.98
14.77,-0.27,1.25,0.19,-2.62,0.55,2.44,1.42,1.56,-2.60,1018.98
14.797,-0.30,1.26,0.18,-2.62,0.55,2.44,1.42,1.56,-2.60,1018.98
14.798,-0.30,1.26,0.18,-2.62,0.55,2.44,0.78,1.45,-2.50,1018.98
14.819,-0.28,1.30,0.15,-2.62,0.55,2.44,0.78,1.45,-2.50,1018.98
14.819,-0.28,1.30,0.15,-1.34,2.72,3.62,0.78,1.45,-2.50,1018.98
14.83,-0.28,1.30,0.15,-1.34,2.72,3.62,0.78,1.45,-2.50,1018.90
14.831,-0.19,1.34,0.19,-1.34,2.72,3.62,0.78,1.45,-2.50,1018.90
14.867,-0.19,1.34,0.19,-1.34,2.72,3.62,0.21,0.44,-1.52,1018.90
14.868,-0.18,1.29,0.31,-1.34,2.72,3.62,0.21,0.44,-1.52,1018.90
14.87,0.09,1.23,0.34,-1.34,2.72,3.62,0.21,0.44,-1.52,1018.90
14.87,0.09,1.23,0.34,-1.34,2.72,3.62,0.21,0.44,-1.52,1018.96
14.888,0.09,1.23,0.34,-0.40,3.59,3.71,0.21,0.44,-1.52,1018.96
14.889,0.52,1.18,0.27,-0.40,3.59,3.71,0.21,0.44,-1.52,1018.96
14.938,0.93,1.12,0.21,-0.40,3.59,3.71,0.21,0.44,-1.52,1018.96
14.939,1.25,0.99,0.31,-0.40,3.59,3.71,0.21,0.44,-1.52,1018.96
14.939,1.25,0.99,0.31,-0.40,3.59,3.71,-0.01,-0.76,-0.01,1018.96
14.951,1.25,0.99,0.31,-0.40,3.59,3.71,-0.01,-0.76,-0.01,1018.91
14.952,1.23,0.91,0.30,-0.40,3.59,3.71,-0.01,-0.76,-0.01,1018.91
14.959,1.23,0.91,0.30,2.97,3.08,4.55,-0.01,-0.76,-0.01,1018.91
14.97,0.88,0.90,0.22,2.97,3.08,4.55,-0.01,-0.76,-0.01,1018.91
15.018,0.88,0.90,0.22,2.97,3.08,4.55,-0.92,-0.13,1.41,1018.91
15.018,0.30,1.50,-0.44,2.97,3.08,4.55,-0.92,-0.13,1.41,1018.91
15.028,0.30,1.50,-0.44,12.12,0.38,3.47,-0.92,-0.13,1.41,1018.91
15.029,1.92,1.35,-0.73,12.12,0.38,3.47,-0.92,-0.13,1.41,1018.91
15.029,-0.41,1.02,0.29,12.12,0.38,3.47,-0.92,-0.13,1.41,1018.91
15.03,-0.41,1.02,0.29,12.12,0.38,3.47,-0.92,-0.13,1.41,1019.27
15.071,-0.79,1.12,0.07,12.12,0.38,3.47,-0.92,-0.13,1.41,1019.27
15.071,-0.12,1.09,0.10,12.12,0.38,3.47,-0.92,-0.13,1.41,1019.27
15.071,-0.12,1.09,0.10,12.12,0.38,3.47,-0.92,-0.13,1.41,1020.07
15.077,-0.12,1.09,0.10,12.12,0.38,3.47,-0.99,0.37,0.30,1020.07
15.098,0.00,1.00,-0.26,12.12,0.38,3.47,-0.99,0.37,0.30,1020.07
15.098,0.00,1.00,-0.26,6.86,2.64,-1.79,-0.99,0.37,0.30,1020.07
15.147,0.00,1.00,-0.26,6.86,2.64,-1.79,-0.59,0.09,0.31,1020.07
15.148,0.08,0.93,0.08,6.86,2.64,-1.79,-0.59,0.09,0.31,1020.07
15.148,0.04,0.95,0.11,6.86,2.64,-1.79,-0.59,0.09,0.31,1020.07
15.153,-0.02,0.97,0.07,6.86,2.64,-1.79,-0.59,0.09,0.31,1020.07
15.153,-0.02,0.97,0.07,6.86,2.64,-1.79,-0.59,0.09,0.31,1019.44
15.17,-0.04,0.99,0.05,6.86,2.64,-1.79,-0.59,0.09,0.31,1019.44
15.171,-0.04,0.99,0.05,-1.78,0.84,-0.13,-0.59,0.09,0.31,1019.44
15.219,-0.04,0.99,0.05,-1.78,0.84,-0.13,-0.29,0.03,0.10,1019.44
15.219,-0.04,1.01,-0.02,-1.78,0.84,-0.13,-0.29,0.03,0.10,1019.44
15.22,-0.06,1.01,-0.00,-1.78,0.84,-0.13,-0.29,0.03,0.10,1019.44
15.23,-0.08,1.00,0.05,-1.78,0.84,-0.13,-0.29,0.03,0.10,1019.44
15.23,-0.08,1.00,0.05,-1.78,0.84,-0.13,-0.29,0.03,0.10,1019.30
15.25,-0.08,1.00,0.05,0.48,-0.05,0.71,-0.29,0.03,0.10,1019.30
15.259,-0.05,0.99,0.05,0.48,-0.05,0.71,-0.29,0.03,0.10,1019.30
15.27,-0.05,0.99,0.04,0.48,-0.05,0.71,-0.29,0.03,0.10,1019.30
15.271,-0.05,0.99,0.04,0.48,-0.05,0.71,-0.29,0.03,0.10,1019.14
15.287,-0.05,0.99,0.04,0.48,-0.05,0.71,-0.11,-0.06,0.10,1019.14
15.305,-0.04,0.98,0.05,0.48,-0.05,0.71,-0.11,-0.06,0.10,1019.14
15.308,-0.02,0.97,0.04,0.48,-0.05,0.71,-0.11,-0.06,0.10,1019.14
15.308,-0.02,0.97,0.04,-0.14,0.34,0.01,-0.11,-0.06,0.10,1019.14
15.351,-0.02,0.97,0.04,-0.14,0.34,0.01,-0.11,-0.06,0.10,1019.05
15.352,-0.04,0.98,0.03,-0.14,0.34,0.01,-0.11,-0.06,0.10,1019.05
15.352,-0.03,0.98,0.02,-0.14,0.34,0.01,-0.11,-0.06,0.10,1019.05
15.358,-0.03,0.98,0.02,-0.14,0.34,0.01,0.02,-0.08,0.08,1019.05
15.371,-0.05,0.96,0.05,-0.14,0.34,0.01,0.02,-0.08,0.08,1019.05
15.378,-0.05,0.96,0.05,0.03,0.12,0.30,0.02,-0.08,0.08,1019.05
15.428,-0.05,0.96,0.05,0.03,0.12,0.30,0.11,-0.06,0.11,1019.05
15.428,-0.05,0.96,0.05,0.03,0.12,0.30,0.11,-0.06,0.11,1019.05
15.428,-0.04,0.97,0.03,0.03,0.12,0.30,0.11,-0.06,0.11,1019.05
15.43,-0.04,0.98,0.03,0.03,0.12,0.30,0.11,-0.06,0.11,1019.05
15.431,-0.04,0.98,0.03,0.03,0.12,0.30,0.11,-0.06,0.11,1019.02
15.448,-0.03,0.98,0.01,0.03,0.12,0.30,0.11,-0.06,0.11,1019.02
15.448,-0.03,0.98,0.01,-0.10,0.02,0.31,0.11,-0.06,0.11,1019.02
15.472,-0.03,0.98,0.02,-0.10,0.02,0.31,0.11,-0.06,0.11,1019.02
15.473,-0.03,0.98,0.02,-0.10,0.02,0.31,0.11,-0.06,0.11,1019.09
15.499,-0.03,0.98,0.02,-0.10,0.02,0.31,0.17,-0.05,0.14,1019.09
15.5,-0.05,0.99,0.03,-0.10,0.02,0.31,0.17,-0.05,0.14,1019.09
15.52,-0.07,1.00,0.01,-0.10,0.02,0.31,0.17,-0.05,0.14,1019.09
15.521,-0.07,1.00,0.01,-0.17,0.02,0.36,0.17,-0.05,0.14,1019.09
15.55,-0.07,1.00,0.01,-0.17,0.02,0.36,0.17,-0.05,0.14,1019.18
15.551,-0.08,1.01,-0.01,-0.17,0.02,0.36,0.17,-0.05,0.14,1019.18
15.551,-0.08,1.01,-0.02,-0.17,0.02,0.36,0.17,-0.05,0.14,1019.18
15.568,-0.08,1.01,-0.02,-0.17,0.02,0.36,0.24,-0.07,0.31,1019.18
15.572,-0.08,1.02,-0.04,-0.17,0.02,0.36,0.24,-0.07,0.31,1019.18
15.588,-0.07,1.02,-0.03,-0.17,0.02,0.36,0.24,-0.07,0.31,1019.18
15.589,-0.07,1.02,-0.03,-0.55,0.19,0.37,0.24,-0.07,0.31,1019.18
15.63,-0.07,1.02,-0.03,-0.55,0.19,0.37,0.24,-0.07,0.31,1019.14
15.631,-0.10,1.05,-0.06,-0.55,0.19,0.37,0.24,-0.07,0.31,1019.14
15.631,-0.13,1.08,-0.10,-0.55,0.19,0.37,0.24,-0.07,0.31,1019.14
15.639,-0.13,1.08,-0.10,-0.55,0.19,0.37,0.20,-0.10,0.69,1019.14
15.659,-0.15,1.12,-0.13,-0.55,0.19,0.37,0.20,-0.10,0.69,1019.14
15.659,-0.15,1.12,-0.13,-1.35,0.46,0.08,0.20,-0.10,0.69,1019.14
15.673,-0.18,1.17,-0.13,-1.35,0.46,0.08,0.20,-0.10,0.69,1019.14
15.674,-0.18,1.17,-0.13,-1.35,0.46,0.08,0.20,-0.10,0.69,1019.11
15.698,-0.20,1.22,-0.13,-1.35,0.46,0.08,0.20,-0.10,0.69,1019.11
15.708,-0.20,1.22,-0.13,-1.35,0.46,0.08,0.04,0.02,1.57,1019.11
15.728,-0.20,1.22,-0.13,-3.12,1.38,-0.60,0.04,0.02,1.57,1019.11
15.729,-0.23,1.26,-0.14,-3.12,1.38,-0.60,0.04,0.02,1.57,1019.11
15.729,-0.30,1.33,-0.17,-3.12,1.38,-0.60,0.04,0.02,1.57,1019.11
15.75,-0.43,1.32,-0.10,-3.12,1.38,-0.60,0.04,0.02,1.57,1019.11
15.751,-0.43,1.32,-0.10,-3.12,1.38,-0.60,0.04,0.02,1.57,1019.11
15.771,-0.52,1.26,0.04,-3.12,1.38,-0.60,0.04,0.02,1.57,1019.11
15.778,-0.52,1.26,0.04,-3.12,1.38,-0.60,-0.07,-0.14,3.13,1019.11
15.799,-0.46,1.24,0.15,-3.12,1.38,-0.60,-0.07,-0.14,3.13,1019.11
15.799,-0.46,1.24,0.15,-6.36,3.69,-1.07,-0.07,-0.14,3.13,1019.11
15.831,-0.46,1.24,0.15,-6.36,3.69,-1.07,-0.07,-0.14,3.13,1018.95
15.831,-0.15,1.28,0.21,-6.36,3.69,-1.07,-0.07,-0.14,3.13,1018.95
15.831,0.26,1.35,0.26,-6.36,3.69,-1.07,-0.07,-0.14,3.13,1018.95
15.848,0.26,1.35,0.26,-6.36,3.69,-1.07,0.07,-0.50,4.90,1018.95
15.869,0.26,1.20,0.37,-6.36,3.69,-1.07,0.07,-0.50,4.90,1018.95
15.87,0.18,1.07,0.29,-6.36,3.69,-1.07,0.07,-0.50,4.90,1018.95
15.87,0.18,1.07,0.29,-10.77,5.70,1.20,0.07,-0.50,4.90,1018.95
15.871,0.18,1.07,0.29,-10.77,5.70,1.20,0.07,-0.50,4.90,1018.34
15.908,0.24,0.48,0.26,-10.77,5.70,1.20,0.07,-0.50,4.90,1018.34
15.919,0.24,0.48,0.26,-10.77,5.70,1.20,0.57,-0.06,2.80,1018.34
15.92,1.90,1.19,0.06,-10.77,5.70,1.20,0.57,-0.06,2.80,1018.34
15.939,0.15,0.62,0.25,-10.77,5.70,1.20,0.57,-0.06,2.80,1018.34
15.94,0.15,0.62,0.25,-5.16,5.46,3.60,0.57,-0.06,2.80,1018.34
15.95,-0.62,0.55,-0.04,-5.16,5.46,3.60,0.57,-0.06,2.80,1018.34
15.951,-0.62,0.55,-0.04,-5.16,5.46,3.60,0.57,-0.06,2.80,1018.36
15.971,-0.39,0.51,-0.04,-5.16,5.46,3.60,0.57,-0.06,2.80,1018.36
15.989,-0.39,0.51,-0.04,-5.16,5.46,3.60,0.16,1.13,-1.55,1018.36
16.009,-0.39,0.51,-0.04,-0.47,-0.12,1.74,0.16,1.13,-1.55,1018.36
16.009,0.02,0.48,0.16,-0.47,-0.12,1.74,0.16,1.13,-1.55,1018.36
16.01,0.11,0.50,0.15,-0.47,-0.12,1.74,0.16,1.13,-1.55,1018.36
16.03,-0.11,0.52,0.06,-0.47,-0.12,1.74,0.16,1.13,-1.55,1018.36
16.031,-0.11,0.52,0.06,-0.47,-0.12,1.74,0.16,1.13,-1.55,1018.69
16.059,-0.11,0.52,0.06,-0.47,-0.12,1.74,0.38,0.67,-3.73,1018.69
16.06,-0.19,0.58,0.03,-0.47,-0.12,1.74,0.38,0.67,-3.73,1018.69
16.07,-0.16,0.68,0.02,-0.47,-0.12,1.74,0.38,0.67,-3.73,1018.69
16.071,-0.16,0.68,0.02,-0.47,-0.12,1.74,0.38,0.67,-3.73,1018.87
16.08,-0.16,0.68,0.02,-5.19,-3.72,0.95,0.38,0.67,-3.73,1018.87
16.103,-0.02,0.85,-0.02,-5.19,-3.72,0.95,0.38,0.67,-3.73,1018.87
16.128,-0.02,0.85,-0.02,-5.19,-3.72,0.95,0.53,0.09,-4.95,1018.87
16.129,0.07,1.00,-0.00,-5.19,-3.72,0.95,0.53,0.09,-4.95,1018.87
16.148,0.08,1.18,-0.10,-5.19,-3.72,0.95,0.53,0.09,-4.95,1018.87
16.149,0.03,1.39,-0.22,-5.19,-3.72,0.95,0.53,0.09,-4.95,1018.87
16.149,0.03,1.39,-0.22,-1.68,-3.18,0.83,0.53,0.09,-4.95,1018.87
16.15,0.03,1.39,-0.22,-1.68,-3.18,0.83,0.53,0.09,-4.95,1018.94
16.17,-0.03,1.51,-0.18,-1.68,-3.18,0.83,0.53,0.09,-4.95,1018.94
16.199,-0.03,1.51,-0.18,-1.68,-3.18,0.83,0.20,0.85,-4.84,1018.94
16.2,-0.09,1.65,-0.23,-1.68,-3.18,0.83,0.20,0.85,-4.84,1018.94
16.22,-0.27,1.73,-0.27,-1.68,-3.18,0.83,0.20,0.85,-4.84,1018.94
16.22,-0.27,1.73,-0.27,2.94,2.22,-0.27,0.20,0.85,-4.84,1018.94
16.231,-0.20,1.74,-0.21,2.94,2.22,-0.27,0.20,0.85,-4.84,1018.94
16.231,-0.20,1.74,-0.21,2.94,2.22,-0.27,0.20,0.85,-4.84,1019.03
16.259,0.61,1.68,-0.05,2.94,2.22,-0.27,0.20,0.85,-4.84,1019.03
16.268,0.61,1.68,-0.05,2.94,2.22,-0.27,-0.20,0.30,-1.98,1019.03
16.27,1.79,1.55,0.02,2.94,2.22,-0.27,-0.20,0.30,-1.98,1019.03
16.27,1.79,1.55,0.02,2.94,2.22,-0.27,-0.20,0.30,-1.98,1018.96
16.294,2.64,1.09,0.19,2.94,2.22,-0.27,-0.20,0.30,-1.98,1018.96
16.295,2.64,1.09,0.19,1.79,7.30,-1.63,-0.20,0.30,-1.98,1018.96
16.341,2.64,1.09,0.19,1.79,7.30,-1.63,-0.23,0.35,-0.49,1018.96
16.341,2.11,0.78,0.23,1.79,7.30,-1.63,-0.23,0.35,-0.49,1018.96
16.342,0.57,0.96,-0.18,1.79,7.30,-1.63,-0.23,0.35,-0.49,1018.96
16.351,0.64,0.94,-0.17,1.79,7.30,-1.63,-0.23,0.35,-0.49,1018.96
16.352,0.64,0.94,-0.17,1.79,7.30,-1.63,-0.23,0.35,-0.49,1019.05
16.359,0.64,0.94,-0.17,16.42,5.37,0.57,-0.23,0.35,-0.49,1019.05
16.37,-0.12,1.35,-0.02,16.42,5.37,0.57,-0.23,0.35,-0.49,1019.05
16.409,-0.12,1.35,-0.02,16.42,5.37,0.57,-0.89,0.65,2.38,1019.05
16.409,1.00,1.28,0.24,16.42,5.37,0.57,-0.89,0.65,2.38,1019.05
16.428,0.54,1.45,0.53,16.42,5.37,0.57,-0.89,0.65,2.38,1019.05
16.429,-0.34,1.06,-0.99,16.42,5.37,0.57,-0.89,0.65,2.38,1019.05
16.429,-0.34,1.06,-0.99,10.32,0.80,-1.39,-0.89,0.65,2.38,1019.05
16.43,-0.34,1.06,-0.99,10.32,0.80,-1.39,-0.89,0.65,2.38,1019.16
16.471,0.51,1.06,0.16,10.32,0.80,-1.39,-0.89,0.65,2.38,1019.16
16.472,-0.23,0.92,0.20,10.32,0.80,-1.39,-0.89,0.65,2.38,1019.16
16.472,-0.23,0.92,0.20,10.32,0.80,-1.39,-0.89,0.65,2.38,1019.54
16.48,-0.23,0.92,0.20,10.32,0.80,-1.39,-0.57,0.11,0.46,1019.54
16.499,-0.06,1.01,0.08,10.32,0.80,-1.39,-0.57,0.11,0.46,1019.54
16.5,-0.06,1.01,0.08,4.02,2.27,0.08,-0.57,0.11,0.46,1019.54
16.549,-0.06,1.01,0.08,4.02,2.27,0.08,-0.21,0.03,0.19,1019.54
16.549,-0.03,0.97,0.17,4.02,2.27,0.08,-0.21,0.03,0.19,1019.54
16.55,-0.05,0.98,0.09,4.02,2.27,0.08,-0.21,0.03,0.19,1019.54
16.55,-0.06,1.00,0.03,4.02,2.27,0.08,-0.21,0.03,0.19,1019.54
16.55,-0.06,1.00,0.03,4.02,2.27,0.08,-0.21,0.03,0.19,1019.22
16.568,-0.07,0.99,0.04,4.02,2.27,0.08,-0.21,0.03,0.19,1019.22
16.569,-0.07,0.99,0.04,1.33,0.29,0.99,-0.21,0.03,0.19,1019.22
16.619,-0.07,0.99,0.04,1.33,0.29,0.99,-0.08,-0.01,0.09,1019.22
16.62,-0.06,0.97,0.07,1.33,0.29,0.99,-0.08,-0.01,0.09,1019.22
16.62,-0.07,0.98,0.07,1.33,0.29,0.99,-0.08,-0.01,0.09,1019.22
16.63,-0.07,0.98,0.07,1.33,0.29,0.99,-0.08,-0.01,0.09,1019.22
16.631,-0.07,0.98,0.07,1.33,0.29,0.99,-0.08,-0.01,0.09,1019.03
16.641,-0.07,0.98,0.07,0.16,0.21,0.25,-0.08,-0.01,0.09,1019.03
16.67,-0.07,0.98,0.07,0.16,0.21,0.25,-0.08,-0.01,0.09,1018.98
16.671,-0.06,0.98,0.07,0.16,0.21,0.25,-0.08,-0.01,0.09,1018.98
16.671,-0.07,0.98,0.05,0.16,0.21,0.25,-0.08,-0.01,0.09,1018.98
16.689,-0.07,0.98,0.05,0.16,0.21,0.25,-0.00,-0.04,0.04,1018.98
16.703,-0.09,0.98,0.05,0.16,0.21,0.25,-0.00,-0.04,0.04,1018.98
16.71,-0.09,0.98,0.05,0.04,0.11,0.22,-0.00,-0.04,0.04,1018.98
16.71,-0.10,0.98,0.06,0.04,0.11,0.22,-0.00,-0.04,0.04,1018.98
16.75,-0.10,0.98,0.06,0.04,0.11,0.22,-0.00,-0.04,0.04,1018.98
16.751,-0.10,0.97,0.07,0.04,0.11,0.22,-0.00,-0.04,0.04,1018.98
16.751,-0.09,0.97,0.06,0.04,0.11,0.22,-0.00,-0.04,0.04,1018.98
16.76,-0.09,0.97,0.06,0.04,0.11,0.22,0.03,-0.08,0.10,1018.98
16.771,-0.09,0.97,0.07,0.04,0.11,0.22,0.03,-0.08,0.10,1018.98
16.779,-0.09,0.97,0.07,-0.21,0.15,0.06,0.03,-0.08,0.10,1018.98
16.828,-0.10,0.97,0.07,-0.21,0.15,0.06,0.03,-0.08,0.10,1018.98
16.829,-0.08,0.99,0.06,-0.21,0.15,0.06,0.03,-0.08,0.10,1018.98
16.829,-0.08,0.99,0.06,-0.21,0.15,0.06,0.07,-0.05,0.23,1018.98
16.83,-0.05,0.99,0.05,-0.21,0.15,0.06,0.07,-0.05,0.23,1018.98
16.83,-0.05,0.99,0.05,-0.21,0.15,0.06,0.07,-0.05,0.23,1019.01
16.849,-0.04,0.98,0.06,-0.21,0.15,0.06,0.07,-0.05,0.23,1019.01
16.849,-0.04,0.98,0.06,-0.54,0.02,0.24,0.07,-0.05,0.23,1019.01
16.87,-0.05,0.98,0.05,-0.54,0.02,0.24,0.07,-0.05,0.23,1019.01
16.871,-0.05,0.98,0.05,-0.54,0.02,0.24,0.07,-0.05,0.23,1019.09
16.899,-0.05,0.99,0.03,-0.54,0.02,0.24,0.07,-0.05,0.23,1019.09
16.899,-0.05,0.99,0.03,-0.54,0.02,0.24,0.13,-0.06,0.26,1019.09
16.92,-0.08,1.00,0.05,-0.54,0.02,0.24,0.13,-0.06,0.26,1019.09
16.921,-0.08,1.00,0.05,-0.38,0.15,0.26,0.13,-0.06,0.26,1019.09
16.951,-0.08,1.00,0.05,-0.38,0.15,0.26,0.13,-0.06,0.26,1019.16
16.952,-0.08,1.00,0.04,-0.38,0.15,0.26,0.13,-0.06,0.26,1019.16
16.953,-0.10,1.02,0.02,-0.38,0.15,0.26,0.13,-0.06,0.26,1019.16
16.969,-0.10,1.02,0.02,-0.38,0.15,0.26,0.17,-0.08,0.44,1019.16
16.97,-0.09,1.04,-0.00,-0.38,0.15,0.26,0.17,-0.08,0.44,1019.16
16.989,-0.11,1.07,-0.06,-0.38,0.15,0.26,0.17,-0.08,0.44,1019.16
16.99,-0.11,1.07,-0.06,-0.72,0.21,0.23,0.17,-0.08,0.44,1019.16
17.03,-0.11,1.07,-0.06,-0.72,0.21,0.23,0.17,-0.08,0.44,1019.17
17.031,-0.13,1.08,-0.05,-0.72,0.21,0.23,0.17,-0.08,0.44,1019.17
17.031,-0.16,1.11,-0.02,-0.72,0.21,0.23,0.17,-0.08,0.44,1019.17
17.039,-0.16,1.11,-0.02,-0.72,0.21,0.23,0.02,-0.10,0.93,1019.17
17.06,-0.16,1.11,-0.02,-1.80,0.67,-0.31,0.02,-0.10,0.93,1019.17
17.061,-0.21,1.17,-0.07,-1.80,0.67,-0.31,0.02,-0.10,0.93,1019.17
17.07,-0.26,1.23,-0.07,-1.80,0.67,-0.31,0.02,-0.10,0.93,1019.17
17.071,-0.26,1.23,-0.07,-1.80,0.67,-0.31,0.02,-0.10,0.93,1019.14
17.104,-0.32,1.34,-0.14,-1.80,0.67,-0.31,0.02,-0.10,0.93,1019.14
17.112,-0.32,1.34,-0.14,-1.80,0.67,-0.31,-0.18,-0.17,2.07,1019.14
17.128,-0.49,1.42,-0.13,-1.80,0.67,-0.31,-0.18,-0.17,2.07,1019.14
17.129,-0.73,1.42,-0.09,-1.80,0.67,-0.31,-0.18,-0.17,2.07,1019.14
17.129,-0.73,1.42,-0.09,-4.23,1.91,-0.81,-0.18,-0.17,2.07,1019.14
17.15,-0.74,1.45,-0.06,-4.23,1.91,-0.81,-0.18,-0.17,2.07,1019.14
17.15,-0.74,1.45,-0.06,-4.23,1.91,-0.81,-0.18,-0.17,2.07,1019.12
17.17,-0.49,1.43,0.14,-4.23,1.91,-0.81,-0.18,-0.17,2.07,1019.12
17.179,-0.49,1.43,0.14,-4.23,1.91,-0.81,-0.55,-0.62,4.55,1019.12
17.2,0.08,1.44,0.35,-4.23,1.91,-0.81,-0.55,-0.62,4.55,1019.12
17.2,0.08,1.44,0.35,-10.12,5.69,-1.60,-0.55,-0.62,4.55,1019.12
17.231,0.08,1.44,0.35,-10.12,5.69,-1.60,-0.55,-0.62,4.55,1018.69
17.231,0.21,1.31,0.37,-10.12,5.69,-1.60,-0.55,-0.62,4.55,1018.69
17.232,-0.03,1.11,0.32,-10.12,5.69,-1.60,-0.55,-0.62,4.55,1018.69
17.249,-0.03,1.11,0.32,-10.12,5.69,-1.60,-0.12,-0.87,5.23,1018.69
17.261,-0.06,0.41,0.24,-10.12,5.69,-1.60,-0.12,-0.87,5.23,1018.69
17.269,1.86,0.83,0.30,-10.12,5.69,-1.60,-0.12,-0.87,5.23,1018.69
17.27,1.86,0.83,0.30,-10.16,8.00,1.58,-0.12,-0.87,5.23,1018.69
17.271,1.86,0.83,0.30,-10.16,8.00,1.58,-0.12,-0.87,5.23,1018.32
17.303,0.29,0.48,0.29,-10.16,8.00,1.58,-0.12,-0.87,5.23,1018.32
17.32,0.29,0.48,0.29,-10.16,8.00,1.58,0.39,0.23,-0.60,1018.32
17.32,-0.64,0.32,0.10,-10.16,8.00,1.58,0.39,0.23,-0.60,1018.32
17.342,-0.44,0.34,-0.02,-10.16,8.00,1.58,0.39,0.23,-0.60,1018.32
17.342,-0.44,0.34,-0.02,-1.35,1.47,2.68,0.39,0.23,-0.60,1018.32
17.356,-0.08,0.36,0.11,-1.35,1.47,2.68,0.39,0.23,-0.60,1018.32
17.357,-0.08,0.36,0.11,-1.35,1.47,2.68,0.39,0.23,-0.60,1018.62
17.37,0.12,0.41,0.18,-1.35,1.47,2.68,0.39,0.23,-0.60,1018.62
17.389,0.12,0.41,0.18,-1.35,1.47,2.68,0.40,0.75,-2.84,1018.62
17.413,0.07,0.52,0.18,-1.35,1.47,2.68,0.40,0.75,-2.84,1018.62
17.413,0.00,0.63,0.16,-1.35,1.47,2.68,0.40,0.75,-2.84,1018.62
17.414,0.00,0.63,0.16,-6.91,-4.49,0.89,0.40,0.75,-2.84,1018.62
17.43,-0.01,0.78,0.17,-6.91,-4.49,0.89,0.40,0.75,-2.84,1018.62
17.431,-0.01,0.78,0.17,-6.91,-4.49,0.89,0.40,0.75,-2.84,1018.81
17.461,-0.01,0.78,0.17,-6.91,-4.49,0.89,0.59,0.18,-4.65,1018.81
17.461,0.11,0.92,0.23,-6.91,-4.49,0.89,0.59,0.18,-4.65,1018.81
17.471,0.22,1.06,0.20,-6.91,-4.49,0.89,0.59,0.18,-4.65,1018.81
17.471,0.22,1.06,0.20,-6.91,-4.49,0.89,0.59,0.18,-4.65,1018.91
17.479,0.22,1.06,0.20,-0.99,-4.25,1.71,0.59,0.18,-4.65,1018.91
17.503,0.22,1.23,0.06,-0.99,-4.25,1.71,0.59,0.18,-4.65,1018.91
17.529,0.22,1.23,0.06,-0.99,-4.25,1.71,0.44,0.62,-4.73,1018.91
17.53,0.08,1.40,-0.01,-0.99,-4.25,1.71,0.44,0.62,-4.73,1018.91
17.55,0.08,1.40,-0.01,2.60,0.22,2.01,0.44,0.62,-4.73,1018.91
17.55,0.05,1.53,0.02,2.60,0.22,2.01,0.44,0.62,-4.73,1018.91
17.551,0.09,1.62,0.01,2.60,0.22,2.01,0.44,0.62,-4.73,1018.91
17.551,0.09,1.62,0.01,2.60,0.22,2.01,0.44,0.62,-4.73,1018.94
17.571,0.17,1.73,-0.05,2.60,0.22,2.01,0.44,0.62,-4.73,1018.94
17.599,0.17,1.73,-0.05,2.60,0.22,2.01,-0.03,1.11,-4.05,1018.94
17.6,0.33,1.72,-0.04,2.60,0.22,2.01,-0.03,1.11,-4.05,1018.94
17.619,0.43,1.60,-0.02,2.60,0.22,2.01,-0.03,1.11,-4.05,1018.94
17.62,0.43,1.60,-0.02,4.56,5.96,0.39,-0.03,1.11,-4.05,1018.94
17.63,0.58,1.43,-0.01,4.56,5.96,0.39,-0.03,1.11,-4.05,1018.94
17.631,0.58,1.43,-0.01,4.56,5.96,0.39,-0.03,1.11,-4.05,1018.96
17.668,1.12,1.20,0.20,4.56,5.96,0.39,-0.03,1.11,-4.05,1018.96
17.669,1.12,1.20,0.20,4.56,5.96,0.39,0.03,-0.10,-2.60,1018.96
17.67,1.35,1.02,0.13,4.56,5.96,0.39,0.03,-0.10,-2.60,1018.96
17.671,1.35,1.02,0.13,4.56,5.96,0.39,0.03,-0.10,-2.60,1019.06
17.69,0.82,1.01,-0.27,4.56,5.96,0.39,0.03,-0.10,-2.60,1019.06
17.69,0.82,1.01,-0.27,7.57,7.83,-0.22,0.03,-0.10,-2.60,1019.06
17.739,0.82,1.01,-0.27,7.57,7.83,-0.22,-0.61,-0.63,1.98,1019.06
17.74,1.33,0.98,-0.02,7.57,7.83,-0.22,-0.61,-0.63,1.98,1019.06
17.74,1.19,0.98,0.24,7.57,7.83,-0.22,-0.61,-0.63,1.98,1019.06
17.751,0.44,1.11,0.06,7.57,7.83,-0.22,-0.61,-0.63,1.98,1019.06
17.751,0.44,1.11,0.06,7.57,7.83,-0.22,-0.61,-0.63,1.98,1019.11
17.761,0.44,1.11,0.06,12.69,2.05,-0.16,-0.61,-0.63,1.98,1019.11
17.77,-1.47,1.64,0.53,12.69,2.05,-0.16,-0.61,-0.63,1.98,1019.11
17.809,-1.47,1.64,0.53,12.69,2.05,-0.16,-0.46,0.78,2.46,1019.11
17.81,-0.94,0.96,-1.62,12.69,2.05,-0.16,-0.46,0.78,2.46,1019.11
17.83,-0.94,0.96,-1.62,7.92,0.25,1.76,-0.46,0.78,2.46,1019.11
17.831,1.07,1.29,0.81,7.92,0.25,1.76,-0.46,0.78,2.46,1019.11
17.831,0.31,1.42,-0.22,7.92,0.25,1.76,-0.46,0.78,2.46,1019.11
17.831,0.31,1.42,-0.22,7.92,0.25,1.76,-0.46,0.78,2.46,1019.11
17.871,0.31,1.42,-0.22,7.92,0.25,1.76,-0.46,0.78,2.46,1019.51
17.871,0.05,1.06,-0.25,7.92,0.25,1.76,-0.46,0.78,2.46,1019.51
17.872,-0.11,0.96,-0.03,7.92,0.25,1.76,-0.46,0.78,2.46,1019.51
17.879,-0.11,0.96,-0.03,7.92,0.25,1.76,-0.17,0.34,0.62,1019.51
17.9,-0.02,0.97,0.21,7.92,0.25,1.76,-0.17,0.34,0.62,1019.51
17.9,-0.02,0.97,0.21,-0.35,4.60,-3.30,-0.17,0.34,0.62,1019.51
17.949,-0.02,0.97,0.21,-0.35,4.60,-3.30,-0.14,0.09,0.28,1019.51
17.95,-0.08,1.01,0.05,-0.35,4.60,-3.30,-0.14,0.09,0.28,1019.51
17.95,-0.04,0.97,0.05,-0.35,4.60,-3.30,-0.14,0.09,0.28,1019.51
17.951,-0.06,0.94,0.23,-0.35,4.60,-3.30,-0.14,0.09,0.28,1019.51
17.951,-0.06,0.94,0.23,-0.35,4.60,-3.30,-0.14,0.09,0.28,1019.19
17.969,-0.06,0.98,0.09,-0.35,4.60,-3.30,-0.14,0.09,0.28,1019.19
17.97,-0.06,0.98,0.09,0.41,0.39,-0.61,-0.14,0.09,0.28,1019.19
18.019,-0.06,0.98,0.09,0.41,0.39,-0.61,0.00,0.06,0.13,1019.19
18.02,-0.07,1.01,-0.01,0.41,0.39,-0.61,0.00,0.06,0.13,1019.19
18.02,-0.06,1.01,-0.02,0.41,0.39,-0.61,0.00,0.06,0.13,1019.19
18.032,-0.08,0.99,0.07,0.41,0.39,-0.61,0.00,0.06,0.13,1019.19
18.033,-0.08,0.99,0.07,0.41,0.39,-0.61,0.00,0.06,0.13,1019.10
18.04,-0.08,0.99,0.07,0.19,0.18,0.39,0.00,0.06,0.13,1019.10
18.071,-0.08,0.99,0.07,0.19,0.18,0.39,0.00,0.06,0.13,1019.03
18.072,-0.09,0.98,0.09,0.19,0.18,0.39,0.00,0.06,0.13,1019.03
18.072,-0.09,0.98,0.08,0.19,0.18,0.39,0.00,0.06,0.13,1019.03
18.089,-0.09,0.98,0.08,0.19,0.18,0.39,-0.02,0.00,0.06,1019.03
18.107,-0.09,0.98,0.05,0.19,0.18,0.39,-0.02,0.00,0.06,1019.03
18.108,-0.09,0.98,0.06,0.19,0.18,0.39,-0.02,0.00,0.06,1019.03
18.109,-0.09,0.98,0.06,-0.02,0.41,-0.36,-0.02,0.00,0.06,1019.03
18.15,-0.09,0.98,0.06,-0.02,0.41,-0.36,-0.02,0.00,0.06,1019.00
18.151,-0.09,0.98,0.07,-0.02,0.41,-0.36,-0.02,0.00,0.06,1019.00
18.151,-0.09,0.98,0.08,-0.02,0.41,-0.36,-0.02,0.00,0.06,1019.00
18.16,-0.09,0.98,0.08,-0.02,0.41,-0.36,0.02,-0.01,0.11,1019.00
18.17,-0.08,0.97,0.06,-0.02,0.41,-0.36,0.02,-0.01,0.11,1019.00
18.18,-0.08,0.97,0.06,-0.26,0.20,0.08,0.02,-0.01,0.11,1019.00
18.232,-0.07,0.98,0.06,-0.26,0.20,0.08,0.02,-0.01,0.11,1019.00
18.232,-0.07,0.98,0.06,-0.26,0.20,0.08,0.02,-0.01,0.11,1019.00
18.232,-0.07,0.98,0.06,-0.26,0.20,0.08,0.04,-0.03,0.14,1019.00
18.233,-0.07,0.99,0.03,-0.26,0.20,0.08,0.04,-0.03,0.14,1019.00
18.233,-0.07,0.99,0.03,-0.26,0.20,0.08,0.04,-0.03,0.14,1019.00
18.249,-0.05,0.99,0.03,-0.26,0.20,0.08,0.04,-0.03,0.14,1019.00
18.249,-0.05,0.99,0.03,-0.32,0.17,0.12,0.04,-0.03,0.14,1019.00
18.271,-0.06,0.99,0.06,-0.32,0.17,0.12,0.04,-0.03,0.14,1019.00
18.271,-0.06,0.99,0.06,-0.32,0.17,0.12,0.04,-0.03,0.14,1019.02
18.299,-0.06,0.99,0.06,-0.32,0.17,0.12,0.01,-0.07,0.15,1019.02
18.3,-0.09,1.00,0.06,-0.32,0.17,0.12,0.01,-0.07,0.15,1019.02
18.32,-0.09,1.00,0.04,-0.32,0.17,0.12,0.01,-0.07,0.15,1019.02
18.321,-0.09,1.00,0.04,-0.24,0.24,-0.12,0.01,-0.07,0.15,1019.02
18.35,-0.09,1.00,0.04,-0.24,0.24,-0.12,0.01,-0.07,0.15,1019.06
18.351,-0.10,1.01,0.03,-0.24,0.24,-0.12,0.01,-0.07,0.15,1019.06
18.351,-0.09,1.00,0.08,-0.24,0.24,-0.12,0.01,-0.07,0.15,1019.06
18.369,-0.09,1.00,0.08,-0.24,0.24,-0.12,0.03,-0.13,0.30,1019.06
18.37,-0.09,1.01,0.07,-0.24,0.24,-0.12,0.03,-0.13,0.30,1019.06
18.389,-0.09,1.02,0.05,-0.24,0.24,-0.12,0.03,-0.13,0.30,1019.06
18.391,-0.09,1.02,0.05,-0.66,0.35,-0.04,0.03,-0.13,0.30,1019.06
18.435,-0.11,1.04,0.05,-0.66,0.35,-0.04,0.03,-0.13,0.30,1019.06
18.435,-0.16,1.06,0.06,-0.66,0.35,-0.04,0.03,-0.13,0.30,1019.06
18.436,-0.16,1.06,0.06,-0.66,0.35,-0.04,0.03,-0.13,0.30,1019.09
18.439,-0.16,1.06,0.06,-0.66,0.35,-0.04,0.09,-0.27,0.61,1019.09
18.461,-0.17,1.10,0.01,-0.66,0.35,-0.04,0.09,-0.27,0.61,1019.09
18.461,-0.17,1.10,0.01,-1.13,0.40,0.11,0.09,-0.27,0.61,1019.09
18.47,-0.16,1.15,-0.07,-1.13,0.40,0.11,0.09,-0.27,0.61,1019.09
18.471,-0.16,1.15,-0.07,-1.13,0.40,0.11,0.09,-0.27,0.61,1019.08
18.504,-0.06,1.12,0.07,-1.13,0.40,0.11,0.09,-0.27,0.61,1019.08
18.511,-0.06,1.12,0.07,-1.13,0.40,0.11,0.02,-0.46,1.22,1019.08
18.519,-0.31,1.14,0.12,-1.13,0.40,0.11,0.02,-0.46,1.22,1019.08
18.529,-0.53,1.34,-0.12,-1.13,0.40,0.11,0.02,-0.46,1.22,1019.08
18.53,-0.53,1.34,-0.12,-2.69,1.14,-0.24,0.02,-0.46,1.22,1019.08
18.55,-0.58,1.44,-0.24,-2.69,1.14,-0.24,0.02,-0.46,1.22,1019.08
18.551,-0.58,1.44,-0.24,-2.69,1.14,-0.24,0.02,-0.46,1.22,1018.97
18.57,-0.63,1.39,-0.02,-2.69,1.14,-0.24,0.02,-0.46,1.22,1018.97
18.581,-0.63,1.39,-0.02,-2.69,1.14,-0.24,-0.61,-1.10,2.96,1018.97
18.599,-0.37,1.37,0.27,-2.69,1.14,-0.24,-0.61,-1.10,2.96,1018.97
18.599,-0.37,1.37,0.27,-6.18,2.89,-0.71,-0.61,-1.10,2.96,1018.97
18.636,-0.37,1.37,0.27,-6.18,2.89,-0.71,-0.61,-1.10,2.96,1018.83
18.637,-0.06,1.27,0.52,-6.18,2.89,-0.71,-0.61,-1.10,2.96,1018.83
18.637,0.21,1.11,0.52,-6.18,2.89,-0.71,-0.61,-1.10,2.96,1018.83
18.652,0.21,1.11,0.52,-6.18,2.89,-0.71,-1.24,-3.24,3.90,1018.83
18.669,0.21,1.11,0.52,-10.18,5.80,0.49,-1.24,-3.24,3.90,1018.83
18.669,0.23,0.88,0.35,-10.18,5.80,0.49,-1.24,-3.24,3.90,1018.83
18.67,0.25,0.44,0.19,-10.18,5.80,0.49,-1.24,-3.24,3.90,1018.83
18.67,0.25,0.44,0.19,-10.18,5.80,0.49,-1.24,-3.24,3.90,1018.65
18.703,0.57,0.43,0.12,-10.18,5.80,0.49,-1.24,-3.24,3.90,1018.65
18.72,0.57,0.43,0.12,-10.18,5.80,0.49,-1.19,-4.34,0.85,1018.65
18.721,0.41,0.40,0.09,-10.18,5.80,0.49,-1.19,-4.34,0.85,1018.65
18.739,-0.01,0.36,-0.30,-10.18,5.80,0.49,-1.19,-4.34,0.85,1018.65
18.74,-0.01,0.36,-0.30,-3.25,0.75,4.21,-1.19,-4.34,0.85,1018.65
18.753,0.20,0.50,-0.84,-3.25,0.75,4.21,-1.19,-4.34,0.85,1018.65
18.754,0.20,0.50,-0.84,-3.25,0.75,4.21,-1.19,-4.34,0.85,1018.62
18.77,0.20,0.38,-0.84,-3.25,0.75,4.21,-1.19,-4.34,0.85,1018.62
18.789,0.20,0.38,-0.84,-3.25,0.75,4.21,-1.78,-0.91,-1.59,1018.62
18.809,0.20,0.38,-0.84,-1.05,-4.45,-1.64,-1.78,-0.91,-1.59,1018.62
18.81,0.24,0.32,-0.31,-1.05,-4.45,-1.64,-1.78,-0.91,-1.59,1018.62
18.81,0.13,0.42,-0.31,-1.05,-4.45,-1.64,-1.78,-0.91,-1.59,1018.62
18.834,0.01,0.75,-0.49,-1.05,-4.45,-1.64,-1.78,-0.91,-1.59,1018.62
18.834,0.01,0.75,-0.49,-1.05,-4.45,-1.64,-1.78,-0.91,-1.59,1018.73
18.859,0.01,0.75,-0.49,-1.05,-4.45,-1.64,-0.99,-2.08,-3.26,1018.73
18.86,0.03,0.92,-0.50,-1.05,-4.45,-1.64,-0.99,-2.08,-3.26,1018.73
18.871,0.19,1.01,-0.61,-1.05,-4.45,-1.64,-0.99,-2.08,-3.26,1018.73
18.871,0.19,1.01,-0.61,-1.05,-4.45,-1.64,-0.99,-2.08,-3.26,1018.91
18.883,0.19,1.01,-0.61,-0.03,-5.28,-5.54,-0.99,-2.08,-3.26,1018.91
18.903,0.27,1.13,-0.81,-0.03,-5.28,-5.54,-0.99,-2.08,-3.26,1018.91
18.929,0.27,1.13,-0.81,-0.03,-5.28,-5.54,-0.39,-3.15,-3.07,1018.91
18.93,0.29,1.18,-0.74,-0.03,-5.28,-5.54,-0.39,-3.15,-3.07,1018.91
18.952,0.29,1.18,-0.74,0.90,-0.27,-5.48,-0.39,-3.15,-3.07,1018.91
18.953,0.19,1.18,-0.56,0.90,-0.27,-5.48,-0.39,-3.15,-3.07,1018.91
18.953,0.05,1.21,-0.52,0.90,-0.27,-5.48,-0.39,-3.15,-3.07,1018.91
18.954,0.05,1.21,-0.52,0.90,-0.27,-5.48,-0.39,-3.15,-3.07,1018.95
18.969,-0.02,1.23,-0.50,0.90,-0.27,-5.48,-0.39,-3.15,-3.07,1018.95
19.0,-0.02,1.23,-0.50,0.90,-0.27,-5.48,0.42,-3.61,-2.41,1018.95
19.001,-0.00,1.23,-0.49,0.90,-0.27,-5.48,0.42,-3.61,-2.41,1018.95
19.02,-0.00,1.23,-0.49,3.11,2.41,-5.96,0.42,-3.61,-2.41,1018.95
19.02,0.05,1.23,-0.49,3.11,2.41,-5.96,0.42,-3.61,-2.41,1018.95
19.033,0.02,1.23,-0.46,3.11,2.41,-5.96,0.42,-3.61,-2.41,1018.95
19.033,0.02,1.23,-0.46,3.11,2.41,-5.96,0.42,-3.61,-2.41,1019.06
19.069,0.02,1.23,-0.46,3.11,2.41,-5.96,0.47,-4.27,-1.15,1019.06
19.069,0.03,1.21,-0.37,3.11,2.41,-5.96,0.47,-4.27,-1.15,1019.06
19.07,0.09,1.13,-0.19,3.11,2.41,-5.96,0.47,-4.27,-1.15,1019.06
19.07,0.09,1.13,-0.19,3.11,2.41,-5.96,0.47,-4.27,-1.15,1019.11
19.089,0.12,1.08,-0.19,3.11,2.41,-5.96,0.47,-4.27,-1.15,1019.11
19.089,0.12,1.08,-0.19,1.92,2.84,-4.64,0.47,-4.27,-1.15,1019.11
19.14,0.12,1.08,-0.19,1.92,2.84,-4.64,0.42,-4.24,0.33,1019.11
19.14,0.20,1.02,-0.18,1.92,2.84,-4.64,0.42,-4.24,0.33,1019.11
19.141,0.28,0.95,-0.11,1.92,2.84,-4.64,0.42,-4.24,0.33,1019.11
19.15,0.31,0.95,-0.14,1.92,2.84,-4.64,0.42,-4.24,0.33,1019.11
19.151,0.31,0.95,-0.14,1.92,2.84,-4.64,0.42,-4.24,0.33,1019.10
19.161,0.31,0.95,-0.14,1.98,2.00,-2.69,0.42,-4.24,0.33,1019.10
19.17,0.34,0.94,-0.15,1.98,2.00,-2.69,0.42,-4.24,0.33,1019.10
19.209,0.34,0.94,-0.15,1.98,2.00,-2.69,-0.04,-1.59,1.04,1019.10
19.21,0.41,1.31,-0.14,1.98,2.00,-2.69,-0.04,-1.59,1.04,1019.10
19.229,0.41,1.31,-0.14,3.58,0.15,-1.43,-0.04,-1.59,1.04,1019.10
19.23,1.14,0.77,0.39,3.58,0.15,-1.43,-0.04,-1.59,1.04,1019.10
19.23,0.57,0.99,0.11,3.58,0.15,-1.43,-0.04,-1.59,1.04,1019.10
19.231,0.57,0.99,0.11,3.58,0.15,-1.43,-0.04,-1.59,1.04,1019.04
19.259,-0.45,1.03,-0.34,3.58,0.15,-1.43,-0.04,-1.59,1.04,1019.04
19.271,-0.53,1.00,-0.37,3.58,0.15,-1.43,-0.04,-1.59,1.04,1019.04
19.271,-0.53,1.00,-0.37,3.58,0.15,-1.43,-0.04,-1.59,1.04,1019.09
19.279,-0.53,1.00,-0.37,3.58,0.15,-1.43,0.06,0.24,-0.32,1019.09
19.3,0.08,1.06,0.11,3.58,0.15,-1.43,0.06,0.24,-0.32,1019.09
19.3,0.08,1.06,0.11,7.29,0.57,0.72,0.06,0.24,-0.32,1019.09
19.35,-0.20,1.00,0.07,7.29,0.57,0.72,0.06,0.24,-0.32,1019.09
19.35,-0.28,0.98,0.04,7.29,0.57,0.72,0.06,0.24,-0.32,1019.09
19.351,-0.28,0.98,0.04,7.29,0.57,0.72,-0.18,0.37,0.07,1019.09
19.351,-0.06,1.01,-0.07,7.29,0.57,0.72,-0.18,0.37,0.07,1019.09
19.351,-0.06,1.01,-0.07,7.29,0.57,0.72,-0.18,0.37,0.07,1019.41
19.369,-0.11,0.97,0.04,7.29,0.57,0.72,-0.18,0.37,0.07,1019.41
19.37,-0.11,0.97,0.04,-1.83,0.74,-1.67,-0.18,0.37,0.07,1019.41
19.42,-0.11,0.97,0.04,-1.83,0.74,-1.67,-0.20,0.18,0.10,1019.41
19.42,-0.06,0.98,0.09,-1.83,0.74,-1.67,-0.20,0.18,0.10,1019.41
19.421,-0.14,0.98,0.05,-1.83,0.74,-1.67,-0.20,0.18,0.10,1019.41
19.43,-0.14,0.98,0.05,-1.83,0.74,-1.67,-0.20,0.18,0.10,1019.29
19.431,-0.12,1.01,0.08,-1.83,0.74,-1.67,-0.20,0.18,0.10,1019.29
19.44,-0.12,1.01,0.08,-0.95,0.24,-0.17,-0.20,0.18,0.10,1019.29
19.471,-0.12,1.01,0.08,-0.95,0.24,-0.17,-0.20,0.18,0.10,1019.28
19.472,-0.11,1.01,0.03,-0.95,0.24,-0.17,-0.20,0.18,0.10,1019.28
19.472,-0.10,1.00,0.05,-0.95,0.24,-0.17,-0.20,0.18,0.10,1019.28
19.489,-0.10,1.00,0.05,-0.95,0.24,-0.17,-0.09,0.06,0.07,1019.28
19.504,-0.10,0.99,0.07,-0.95,0.24,-0.17,-0.09,0.06,0.07,1019.28
19.509,-0.09,0.99,0.06,-0.95,0.24,-0.17,-0.09,0.06,0.07,1019.28
19.51,-0.09,0.99,0.06,-0.31,0.32,0.37,-0.09,0.06,0.07,1019.28
19.552,-0.09,0.99,0.04,-0.31,0.32,0.37,-0.09,0.06,0.07,1019.28
19.552,-0.09,0.99,0.04,-0.31,0.32,0.37,-0.09,0.06,0.07,1019.28
19.552,-0.09,0.99,0.04,-0.31,0.32,0.37,-0.09,0.06,0.07,1019.16
19.559,-0.09,0.99,0.04,-0.31,0.32,0.37,-0.07,-0.01,0.02,1019.16
19.57,-0.10,0.99,0.07,-0.31,0.32,0.37,-0.07,-0.01,0.02,1019.16
19.58,-0.10,0.99,0.07,-0.23,0.34,0.20,-0.07,-0.01,0.02,1019.16
19.629,-0.12,0.98,0.08,-0.23,0.34,0.20,-0.07,-0.01,0.02,1019.16
19.63,-0.11,0.98,0.09,-0.23,0.34,0.20,-0.07,-0.01,0.02,1019.16
19.63,-0.11,0.98,0.09,-0.23,0.34,0.20,-0.06,-0.04,0.01,1019.16
19.631,-0.10,0.98,0.06,-0.23,0.34,0.20,-0.06,-0.04,0.01,1019.16
19.631,-0.10,0.98,0.06,-0.23,0.34,0.20,-0.06,-0.04,0.01,1019.07
19.649,-0.10,0.98,0.06,-0.23,0.34,0.20,-0.06,-0.04,0.01,1019.07
19.65,-0.10,0.98,0.06,-0.24,0.28,0.11,-0.06,-0.04,0.01,1019.07
19.67,-0.09,0.97,0.07,-0.24,0.28,0.11,-0.06,-0.04,0.01,1019.07
19.671,-0.09,0.97,0.07,-0.24,0.28,0.11,-0.06,-0.04,0.01,1019.00
19.701,-0.10,0.97,0.08,-0.24,0.28,0.11,-0.06,-0.04,0.01,1019.00
19.702,-0.10,0.97,0.08,-0.24,0.28,0.11,-0.05,-0.06,0.01,1019.00
19.721,-0.11,0.97,0.10,-0.24,0.28,0.11,-0.05,-0.06,0.01,1019.00
19.721,-0.11,0.97,0.10,-0.33,0.17,0.26,-0.05,-0.06,0.01,1019.00
19.75,-0.11,0.97,0.10,-0.33,0.17,0.26,-0.05,-0.06,0.01,1018.99
19.751,-0.11,0.97,0.10,-0.33,0.17,0.26,-0.05,-0.06,0.01,1018.99
19.751,-0.10,0.98,0.07,-0.33,0.17,0.26,-0.05,-0.06,0.01,1018.99
19.769,-0.10,0.98,0.07,-0.33,0.17,0.26,0.02,-0.06,0.03,1018.99
19.77,-0.10,0.98,0.07,-0.33,0.17,0.26,0.02,-0.06,0.03,1018.99
19.789,-0.10,0.98,0.05,-0.33,0.17,0.26,0.02,-0.06,0.03,1018.99
19.79,-0.10,0.98,0.05,-0.29,0.11,0.42,0.02,-0.06,0.03,1018.99
19.831,-0.10,0.98,0.05,-0.29,0.11,0.42,0.02,-0.06,0.03,1018.98
19.831,-0.10,0.97,0.07,-0.29,0.11,0.42,0.02,-0.06,0.03,1018.98
19.832,-0.11,0.98,0.09,-0.29,0.11,0.42,0.02,-0.06,0.03,1018.98
19.84,-0.11,0.98,0.09,-0.29,0.11,0.42,0.01,-0.06,0.03,1018.98
19.86,-0.11,0.98,0.07,-0.29,0.11,0.42,0.01,-0.06,0.03,1018.98
19.86,-0.11,0.98,0.07,-0.30,0.17,0.23,0.01,-0.06,0.03,1018.98
19.87,-0.09,0.98,0.06,-0.30,0.17,0.23,0.01,-0.06,0.03,1018.98
19.871,-0.09,0.98,0.06,-0.30,0.17,0.23,0.01,-0.06,0.03,1019.00
19.903,-0.09,0.98,0.06,-0.30,0.17,0.23,0.01,-0.06,0.03,1019.00
19.91,-0.09,0.98,0.06,-0.30,0.17,0.23,0.02,-0.09,0.04,1019.00
19.93,-0.10,0.98,0.08,-0.30,0.17,0.23,0.02,-0.09,0.04,1019.00
19.93,-0.11,0.98,0.07,-0.30,0.17,0.23,0.02,-0.09,0.04,1019.00
19.931,-0.11,0.98,0.07,-0.30,0.14,0.28,0.02,-0.09,0.04,1019.00
19.95,-0.11,0.98,0.06,-0.30,0.14,0.28,0.02,-0.09,0.04,1019.00
19.951,-0.11,0.98,0.06,-0.30,0.14,0.28,0.02,-0.09,0.04,1018.99
19.971,-0.09,0.98,0.05,-0.30,0.14,0.28,0.02,-0.09,0.04,1018.99
19.979,-0.09,0.98,0.05,-0.30,0.14,0.28,0.02,-0.10,0.07,1018.99
20.001,-0.11,0.98,0.07,-0.30,0.14,0.28,0.02,-0.10,0.07,1018.99
20.003,-0.11,0.98,0.07,-0.30,0.14,0.21,0.02,-0.10,0.07,1018.99
20.03,-0.11,0.98,0.07,-0.30,0.14,0.21,0.02,-0.10,0.07,1018.99
20.031,-0.11,0.99,0.09,-0.30,0.14,0.21,0.02,-0.10,0.07,1018.99
20.031,-0.11,0.99,0.06,-0.30,0.14,0.21,0.02,-0.10,0.07,1018.99
20.049,-0.11,0.99,0.06,-0.30,0.14,0.21,0.03,-0.18,0.14,1018.99
20.069,-0.10,0.98,0.04,-0.30,0.14,0.21,0.03,-0.18,0.14,1018.99
20.07,-0.12,0.98,0.11,-0.30,0.14,0.21,0.03,-0.18,0.14,1018.99
20.071,-0.12,0.98,0.11,-0.43,0.16,0.15,0.03,-0.18,0.14,1018.99
20.072,-0.12,0.98,0.11,-0.43,0.16,0.15,0.03,-0.18,0.14,1018.96
20.106,-0.12,0.97,0.13,-0.43,0.16,0.15,0.03,-0.18,0.14,1018.96
20.12,-0.11,0.99,0.09,-0.43,0.16,0.15,0.03,-0.18,0.14,1018.96
20.12,-0.11,0.99,0.09,-0.43,0.16,0.15,0.11,-0.26,0.27,1018.96
20.14,-0.09,0.99,0.07,-0.43,0.16,0.15,0.11,-0.26,0.27,1018.96
20.14,-0.09,0.99,0.07,-0.61,0.12,0.27,0.11,-0.26,0.27,1018.96
20.151,-0.12,0.99,0.09,-0.61,0.12,0.27,0.11,-0.26,0.27,1018.96
20.151,-0.12,0.99,0.09,-0.61,0.12,0.27,0.11,-0.26,0.27,1019.02
20.172,-0.13,1.01,0.12,-0.61,0.12,0.27,0.11,-0.26,0.27,1019.02
20.189,-0.13,1.01,0.12,-0.61,0.12,0.27,0.26,-0.29,0.51,1019.02
20.21,-0.13,1.01,0.12,-0.90,0.11,0.61,0.26,-0.29,0.51,1019.02
20.21,-0.12,1.05,0.03,-0.90,0.11,0.61,0.26,-0.29,0.51,1019.02
20.211,-0.16,1.11,-0.12,-0.90,0.11,0.61,0.26,-0.29,0.51,1019.02
20.231,-0.25,1.18,-0.19,-0.90,0.11,0.61,0.26,-0.29,0.51,1019.02
