
time,gFx,gFy,gFz,ax,ay,az,wx,wy,wz,
0.039282,-0.1554,1.0017,0.0686,0.0000,0.0000,0.0000,0.0000,0.0000,0.0000,
0.040749,-0.1554,1.0017,0.0686,0.0000,0.0000,0.0000,-0.0291,0.0578,0.0001,
0.041355,-0.1554,1.0017,0.0686,0.5329,-0.3323,-0.7961,-0.0291,0.0578,0.0001,
0.052058,-0.1554,1.0017,0.0686,0.5329,-0.3323,-0.7961,-0.0291,0.0578,0.0001,
0.074757,-0.1554,1.0017,0.0686,0.0000,-0.0005,0.0000,-0.0291,0.0578,0.0001,
0.095479,-0.1554,1.0017,0.0686,-0.4942,0.2549,0.1561,-0.0291,0.0578,0.0001,
0.098624,-0.1834,1.0021,0.0054,-0.4942,0.2549,0.1561,-0.0291,0.0578,0.0001,
0.099438,-0.1834,1.0021,0.0054,-0.4942,0.2549,0.1561,-0.0893,0.0253,-0.0153,
0.114196,-0.1834,1.0021,0.0054,0.1861,0.0402,0.8394,-0.0893,0.0253,-0.0153,
0.134330,-0.1834,1.0021,0.0054,-0.2250,-0.0559,0.7696,-0.0893,0.0253,-0.0153,
0.153795,-0.1834,1.0021,0.0054,-0.4988,-0.1760,0.1688,-0.0893,0.0253,-0.0153,
0.164765,-0.1600,0.9805,0.0408,-0.4988,-0.1760,0.1688,-0.0893,0.0253,-0.0153,
0.166538,-0.1600,0.9805,0.0408,-0.4988,-0.1760,0.1688,-0.0462,0.0200,0.0171,
0.173941,-0.1600,0.9805,0.0408,-0.2540,-0.0889,0.1691,-0.0462,0.0200,0.0171,
0.196419,-0.1600,0.9805,0.0408,0.2315,0.0813,0.4201,-0.0462,0.0200,0.0171,
0.214063,-0.1600,0.9805,0.0408,0.0931,-0.0140,0.0427,-0.0462,0.0200,0.0171,
0.230539,-0.1433,0.9536,-0.0032,0.0931,-0.0140,0.0427,-0.0462,0.0200,0.0171,
0.233173,-0.1433,0.9536,-0.0032,0.0931,-0.0140,0.0427,-0.0611,0.0903,-0.0446,
0.234786,-0.1433,0.9536,-0.0032,-0.3653,-0.3719,-0.3923,-0.0611,0.0903,-0.0446,
0.254492,-0.1433,0.9536,-0.0032,0.1260,-0.2244,-0.0376,-0.0611,0.0903,-0.0446,
0.273866,-0.1433,0.9536,-0.0032,-0.2326,-0.0341,0.4483,-0.0611,0.0903,-0.0446,
0.293904,-0.1433,0.9536,-0.0032,-0.0535,-0.2063,0.5934,-0.0611,0.0903,-0.0446,
0.296902,-0.1329,0.9707,0.1236,-0.0535,-0.2063,0.5934,-0.0611,0.0903,-0.0446,
0.298047,-0.1329,0.9707,0.1236,-0.0535,-0.2063,0.5934,0.0044,0.0344,-0.0052,
0.313708,-0.1329,0.9707,0.1236,-0.1076,0.1198,0.9229,0.0044,0.0344,-0.0052,
0.336812,-0.1329,0.9707,0.1236,-0.3703,0.2472,-1.1917,0.0044,0.0344,-0.0052,
0.354434,-0.1329,0.9707,0.1236,0.9983,0.2567,-0.4243,0.0044,0.0344,-0.0052,
0.366238,0.0035,0.9775,0.1131,0.9983,0.2567,-0.4243,0.0044,0.0344,-0.0052,
0.368554,0.0035,0.9775,0.1131,0.9983,0.2567,-0.4243,0.0305,0.0259,-0.0452,
0.373962,0.0035,0.9775,0.1131,0.0656,-0.0050,-0.0686,0.0305,0.0259,-0.0452,
0.394141,0.0035,0.9775,0.1131,-0.7061,-0.0534,-0.8915,0.0305,0.0259,-0.0452,
0.414670,0.0035,0.9775,0.1131,-0.0348,-0.0333,0.3763,0.0305,0.0259,-0.0452,
0.428224,-0.1100,0.9698,0.1646,-0.0348,-0.0333,0.3763,0.0305,0.0259,-0.0452,
0.429999,-0.1100,0.9698,0.1646,-0.0348,-0.0333,0.3763,0.0054,-0.0108,0.0363,
0.433930,-0.1100,0.9698,0.1646,0.3435,-0.1514,1.0096,0.0054,-0.0108,0.0363,
0.454247,-0.1100,0.9698,0.1646,0.2712,0.1203,-0.1930,0.0054,-0.0108,0.0363,
0.474111,-0.1100,0.9698,0.1646,0.4543,0.2831,-1.1337,0.0054,-0.0108,0.0363,
0.494460,-0.0963,0.9923,-0.0459,0.4543,0.2831,-1.1337,0.0054,-0.0108,0.0363,
0.497407,-0.0963,0.9923,-0.0459,0.4543,0.2831,-1.1337,-0.1297,0.0376,-0.0984,
0.498693,-0.0963,0.9923,-0.0459,0.3967,0.0329,-1.0219,-0.1297,0.0376,-0.0984,
0.514249,-0.0963,0.9923,-0.0459,-0.5152,-0.6210,0.4094,-0.1297,0.0376,-0.0984,
0.533895,-0.0963,0.9923,-0.0459,-0.3219,-0.0368,0.9863,-0.1297,0.0376,-0.0984,
0.554503,-0.0963,0.9923,-0.0459,-0.0280,-0.4265,0.3631,-0.1297,0.0376,-0.0984,
0.559275,-0.1552,0.9892,0.0826,-0.0280,-0.4265,0.3631,-0.1297,0.0376,-0.0984,
0.561004,-0.1552,0.9892,0.0826,-0.0280,-0.4265,0.3631,-0.0158,0.0674,-0.0484,
0.574157,-0.1552,0.9892,0.0826,-0.6946,0.1762,-0.1351,-0.0158,0.0674,-0.0484,
0.594271,-0.1552,0.9892,0.0826,0.2992,0.5294,-1.2022,-0.0158,0.0674,-0.0484,
0.614651,-0.1552,0.9892,0.0826,0.1745,-0.2652,0.3142,-0.0158,0.0674,-0.0484,
0.625781,-0.1591,0.9810,0.1184,0.1745,-0.2652,0.3142,-0.0158,0.0674,-0.0484,
0.628039,-0.1591,0.9810,0.1184,0.1745,-0.2652,0.3142,-0.0350,0.1174,-0.0760,
0.634263,-0.1591,0.9810,0.1184,-0.4900,0.2294,0.4180,-0.0350,0.1174,-0.0760,
0.655601,-0.1591,0.9810,0.1184,-0.2357,-0.1694,0.0284,-0.0350,0.1174,-0.0760,
0.673877,-0.1591,0.9810,0.1184,0.0794,0.0362,0.2665,-0.0350,0.1174,-0.0760,
0.692096,-0.1482,0.9804,0.0793,0.0794,0.0362,0.2665,-0.0350,0.1174,-0.0760,
0.694100,-0.1482,0.9804,0.0793,0.0794,0.0362,0.2665,-0.0201,0.0408,0.0613,
0.694942,-0.1482,0.9804,0.0793,-0.0619,-0.0912,0.1982,-0.0201,0.0408,0.0613,
0.714619,-0.1482,0.9804,0.0793,0.2102,0.0153,0.0242,-0.0201,0.0408,0.0613,
0.734363,-0.1482,0.9804,0.0793,0.6572,0.2272,-0.3305,-0.0201,0.0408,0.0613,
0.754458,-0.1482,0.9804,0.0793,0.7755,0.1359,-0.0881,-0.0201,0.0408,0.0613,
0.757296,-0.0826,0.9992,0.0512,0.7755,0.1359,-0.0881,-0.0201,0.0408,0.0613,
0.758340,-0.0826,0.9992,0.0512,0.7755,0.1359,-0.0881,-0.0217,0.0642,-0.0994,
0.774404,-0.0826,0.9992,0.0512,-0.0973,-0.1277,-0.3187,-0.0217,0.0642,-0.0994,
0.794315,-0.0826,0.9992,0.0512,-0.4098,-0.1639,-0.0458,-0.0217,0.0642,-0.0994,
0.815285,-0.0826,0.9992,0.0512,-0.5098,0.0460,0.2347,-0.0217,0.0642,-0.0994,
0.823923,-0.1561,0.9889,0.0281,-0.5098,0.0460,0.2347,-0.0217,0.0642,-0.0994,
0.825716,-0.1561,0.9889,0.0281,-0.5098,0.0460,0.2347,-0.0403,0.1052,-0.0148,
0.834253,-0.1561,0.9889,0.0281,0.0784,0.0863,-0.6033,-0.0403,0.1052,-0.0148,
0.854841,-0.1561,0.9889,0.0281,0.1020,-0.0303,-0.0115,-0.0403,0.1052,-0.0148,
0.874006,-0.1561,0.9889,0.0281,-0.6474,-0.2625,0.4339,-0.0403,0.1052,-0.0148,
0.889636,-0.1920,0.9726,0.1731,-0.6474,-0.2625,0.4339,-0.0403,0.1052,-0.0148,
0.891740,-0.1920,0.9726,0.1731,-0.6474,-0.2625,0.4339,0.0592,0.0945,0.0591,
0.894013,-0.1920,0.9726,0.1731,-0.4027,-0.1126,1.0084,0.0592,0.0945,0.0591,
0.915300,-0.1920,0.9726,0.1731,0.1974,0.1309,-0.0045,0.0592,0.0945,0.0591,
0.933896,-0.1920,0.9726,0.1731,-0.1767,0.0098,-0.6427,0.0592,0.0945,0.0591,
0.953877,-0.1920,0.9726,0.1731,-0.4885,-0.1001,-0.0466,0.0592,0.0945,0.0591,
0.956316,-0.1960,0.9818,0.0502,-0.4885,-0.1001,-0.0466,0.0592,0.0945,0.0591,
0.957636,-0.1960,0.9818,0.0502,-0.4885,-0.1001,-0.0466,0.0571,0.3032,0.1555,
0.974361,-0.1960,0.9818,0.0502,0.4761,0.0614,-0.5210,0.0571,0.3032,0.1555,
0.993909,-0.1960,0.9818,0.0502,0.1564,0.0180,0.3733,0.0571,0.3032,0.1555,
1.015669,-0.1960,0.9818,0.0502,0.0819,0.2503,-0.4338,0.0571,0.3032,0.1555,
1.021465,-0.1495,0.9955,0.0543,0.0819,0.2503,-0.4338,0.0571,0.3032,0.1555,
1.023351,-0.1495,0.9955,0.0543,0.0819,0.2503,-0.4338,0.0209,0.0514,0.0554,
1.033894,-0.1495,0.9955,0.0543,-0.4712,-0.1424,0.7527,0.0209,0.0514,0.0554,
1.054414,-0.1495,0.9955,0.0543,-0.5565,-0.0648,0.5360,0.0209,0.0514,0.0554,
1.075202,-0.1495,0.9955,0.0543,0.8818,0.0967,0.0010,0.0209,0.0514,0.0554,
1.087640,0.1371,1.0166,0.0192,0.8818,0.0967,0.0010,0.0209,0.0514,0.0554,
1.089891,0.1371,1.0166,0.0192,0.8818,0.0967,0.0010,0.0720,-0.0710,-0.0191,
1.093790,0.1371,1.0166,0.0192,2.4771,0.2194,-0.4588,0.0720,-0.0710,-0.0191,
1.114355,0.1371,1.0166,0.0192,-0.3763,-0.1919,-1.1093,0.0720,-0.0710,-0.0191,
1.134924,0.1371,1.0166,0.0192,-0.1731,0.1839,0.7975,0.0720,-0.0710,-0.0191,
1.153394,-0.1120,0.9760,0.1391,-0.1731,0.1839,0.7975,0.0720,-0.0710,-0.0191,
1.155781,-0.1120,0.9760,0.1391,-0.1731,0.1839,0.7975,0.1545,0.0530,-0.0941,
1.156847,-0.1120,0.9760,0.1391,0.1219,-0.1284,0.9851,0.1545,0.0530,-0.0941,
1.173958,-0.1120,0.9760,0.1391,-0.1096,0.4114,-0.1137,0.1545,0.0530,-0.0941,
1.194942,-0.1120,0.9760,0.1391,-0.0053,0.4019,-0.9625,0.1545,0.0530,-0.0941,
1.214110,-0.1120,0.9760,0.1391,0.6622,0.3029,-1.3850,0.1545,0.0530,-0.0941,
1.219798,-0.0977,1.0235,-0.0923,0.6622,0.3029,-1.3850,0.1545,0.0530,-0.0941,
1.221977,-0.0977,1.0235,-0.0923,0.6622,0.3029,-1.3850,0.0023,-0.2706,-0.1788,
1.234405,-0.0977,1.0235,-0.0923,-0.4058,0.4523,-1.3039,0.0023,-0.2706,-0.1788,
1.254307,-0.0977,1.0235,-0.0923,1.4021,3.8031,-3.2244,0.0023,-0.2706,-0.1788,
1.274170,-0.0977,1.0235,-0.0923,3.0566,1.9366,-0.2663,0.0023,-0.2706,-0.1788,
1.285819,0.3973,1.5111,-0.0751,3.0566,1.9366,-0.2663,0.0023,-0.2706,-0.1788,
1.288245,0.3973,1.5111,-0.0751,3.0566,1.9366,-0.2663,0.3366,-0.8365,-0.7904,
1.294241,0.3973,1.5111,-0.0751,6.0114,4.8822,-1.3626,0.3366,-0.8365,-0.7904,
1.313834,0.3973,1.5111,-0.0751,5.5212,2.6332,1.6697,0.3366,-0.8365,-0.7904,
1.334446,0.3973,1.5111,-0.0751,4.0759,1.1812,3.0785,0.3366,-0.8365,-0.7904,
1.352305,0.3204,1.0243,0.1697,4.0759,1.1812,3.0785,0.3366,-0.8365,-0.7904,
1.354374,0.3204,1.0243,0.1697,4.0759,1.1812,3.0785,0.1252,2.1137,-0.9549,
1.356172,0.3204,1.0243,0.1697,5.2639,0.4639,1.4053,0.1252,2.1137,-0.9549,
1.374565,0.3204,1.0243,0.1697,6.6382,-1.2689,0.2849,0.1252,2.1137,-0.9549,
1.393957,0.3204,1.0243,0.1697,4.1401,-2.6303,-0.9821,0.1252,2.1137,-0.9549,
1.414634,0.3204,1.0243,0.1697,3.4048,-2.3827,-1.2470,0.1252,2.1137,-0.9549,
1.417535,0.1127,0.7426,-0.1502,3.4048,-2.3827,-1.2470,0.1252,2.1137,-0.9549,
1.418889,0.1127,0.7426,-0.1502,3.4048,-2.3827,-1.2470,0.2114,1.5073,0.4004,
1.434586,0.1127,0.7426,-0.1502,3.9572,-2.0575,-0.6317,0.2114,1.5073,0.4004,
1.454306,0.1127,0.7426,-0.1502,4.6913,-1.8446,-0.3146,0.2114,1.5073,0.4004,
1.473967,0.1127,0.7426,-0.1502,4.2567,-1.0825,-0.4873,0.2114,1.5073,0.4004,
1.486032,0.2130,0.9334,-0.1139,4.2567,-1.0825,-0.4873,0.2114,1.5073,0.4004,
1.488403,0.2130,0.9334,-0.1139,4.2567,-1.0825,-0.4873,-0.1266,0.6386,1.3330,
1.493891,0.2130,0.9334,-0.1139,3.3172,-0.1246,-0.6869,-0.1266,0.6386,1.3330,
1.513827,0.2130,0.9334,-0.1139,2.6083,0.6803,-0.1328,-0.1266,0.6386,1.3330,
1.534720,0.2130,0.9334,-0.1139,0.2499,1.0319,-0.5270,-0.1266,0.6386,1.3330,
1.554339,-0.2373,1.0499,-0.0672,0.2499,1.0319,-0.5270,-0.1266,0.6386,1.3330,
1.556805,-0.2373,1.0499,-0.0672,0.2499,1.0319,-0.5270,-0.2453,1.4467,2.0186,
1.558027,-0.2373,1.0499,-0.0672,-1.5809,0.4409,-0.2228,-0.2453,1.4467,2.0186,
1.573998,-0.2373,1.0499,-0.0672,0.5360,0.4592,-0.4751,-0.2453,1.4467,2.0186,
1.593906,-0.2373,1.0499,-0.0672,1.3274,1.3711,-1.6914,-0.2453,1.4467,2.0186,
1.613919,-0.2373,1.0499,-0.0672,0.6506,1.3515,-2.2606,-0.2453,1.4467,2.0186,
1.616599,0.1377,1.1280,-0.2519,0.6506,1.3515,-2.2606,-0.2453,1.4467,2.0186,
1.618110,0.1377,1.1280,-0.2519,0.6506,1.3515,-2.2606,-0.1420,1.6085,1.7227,
1.634908,0.1377,1.1280,-0.2519,0.1341,0.9236,-2.1317,-0.1420,1.6085,1.7227,
1.654258,0.1377,1.1280,-0.2519,-0.5672,0.7180,-2.3467,-0.1420,1.6085,1.7227,
1.674227,0.1377,1.1280,-0.2519,-1.8644,0.9933,-2.0206,-0.1420,1.6085,1.7227,
1.681237,-0.0753,1.1130,-0.2149,-1.8644,0.9933,-2.0206,-0.1420,1.6085,1.7227,
1.683363,-0.0753,1.1130,-0.2149,-1.8644,0.9933,-2.0206,-0.0291,0.9372,0.8938,
1.694864,-0.0753,1.1130,-0.2149,-2.9535,1.2364,-1.9973,-0.0291,0.9372,0.8938,
1.713781,-0.0753,1.1130,-0.2149,-3.9400,0.5061,-1.6617,-0.0291,0.9372,0.8938,
1.735565,-0.0753,1.1130,-0.2149,-4.5750,-0.1758,-1.5082,-0.0291,0.9372,0.8938,
1.747439,-0.2754,0.9094,-0.1526,-4.5750,-0.1758,-1.5082,-0.0291,0.9372,0.8938,
1.749393,-0.2754,0.9094,-0.1526,-4.5750,-0.1758,-1.5082,0.0645,0.4757,0.7592,
1.755565,-0.2754,0.9094,-0.1526,-5.0949,-0.7784,-1.4581,0.0645,0.4757,0.7592,
1.774084,-0.2754,0.9094,-0.1526,-4.8289,-0.7023,-0.9979,0.0645,0.4757,0.7592,
1.793889,-0.2754,0.9094,-0.1526,-2.9864,-0.5349,-1.0503,0.0645,0.4757,0.7592,
1.813990,-0.0526,0.9737,-0.0913,-2.9864,-0.5349,-1.0503,0.0645,0.4757,0.7592,
1.817042,-0.0526,0.9737,-0.0913,-2.9864,-0.5349,-1.0503,0.2567,0.4459,0.4211,
1.818797,-0.0526,0.9737,-0.0913,-3.2068,0.0687,-0.8881,0.2567,0.4459,0.4211,
1.835902,-0.0526,0.9737,-0.0913,-3.7847,0.1017,-0.6611,0.2567,0.4459,0.4211,
1.854451,-0.0526,0.9737,-0.0913,-4.2442,-0.1416,-0.2935,0.2567,0.4459,0.4211,
1.873868,-0.0526,0.9737,-0.0913,-3.8345,-0.1900,-0.2861,0.2567,0.4459,0.4211,
1.879359,-0.0970,0.9468,-0.0469,-3.8345,-0.1900,-0.2861,0.2567,0.4459,0.4211,
1.881948,-0.0970,0.9468,-0.0469,-3.8345,-0.1900,-0.2861,0.2663,1.0847,-0.3433,
1.894074,-0.0970,0.9468,-0.0469,-3.9297,0.0393,-0.6449,0.2663,1.0847,-0.3433,
1.913577,-0.0970,0.9468,-0.0469,0.7057,8.9130,-1.1288,0.2663,1.0847,-0.3433,
1.935485,-0.0970,0.9468,-0.0469,-1.1163,-6.1230,-2.8534,0.2663,1.0847,-0.3433,
1.945427,0.3449,1.0254,-0.2742,-1.1163,-6.1230,-2.8534,0.2663,1.0847,-0.3433,
1.947388,0.3449,1.0254,-0.2742,-1.1163,-6.1230,-2.8534,0.5489,0.6817,-1.8050,
1.955761,0.3449,1.0254,-0.2742,1.7181,2.9796,-2.5295,0.5489,0.6817,-1.8050,
1.973868,0.3449,1.0254,-0.2742,1.0511,-0.5824,0.6940,0.5489,0.6817,-1.8050,
1.994024,0.3449,1.0254,-0.2742,1.4666,-0.9125,3.9123,0.5489,0.6817,-1.8050,
2.012233,-0.4461,0.9785,-0.0864,1.4666,-0.9125,3.9123,0.5489,0.6817,-1.8050,
2.014923,-0.4461,0.9785,-0.0864,1.4666,-0.9125,3.9123,0.1210,0.9202,-1.9695,
2.016691,-0.4461,0.9785,-0.0864,-5.5102,-0.1555,-0.5995,0.1210,0.9202,-1.9695,
2.036185,-0.4461,0.9785,-0.0864,-7.9721,0.0646,0.8811,0.1210,0.9202,-1.9695,
2.053836,-0.4461,0.9785,-0.0864,-5.1857,-0.0316,2.1511,0.1210,0.9202,-1.9695,
2.073886,-0.4461,0.9785,-0.0864,-6.6527,0.7734,1.2721,0.1210,0.9202,-1.9695,
2.077263,-0.5982,1.0463,-0.0638,-6.6527,0.7734,1.2721,0.1210,0.9202,-1.9695,
2.078730,-0.5982,1.0463,-0.0638,-6.6527,0.7734,1.2721,0.5761,-0.5565,-0.6547,
2.094897,-0.5982,1.0463,-0.0638,-1.3504,0.5090,-0.9342,0.5761,-0.5565,-0.6547,
2.113930,-0.5982,1.0463,-0.0638,1.1560,-0.0752,-2.2125,0.5761,-0.5565,-0.6547,
2.134036,-0.5982,1.0463,-0.0638,-1.9230,0.4195,-3.4464,0.5761,-0.5565,-0.6547,
2.143662,-0.5255,1.0276,-0.1470,-1.9230,0.4195,-3.4464,0.5761,-0.5565,-0.6547,
2.146490,-0.5255,1.0276,-0.1470,-1.9230,0.4195,-3.4464,0.1146,0.3596,-0.4316,
2.155220,-0.5255,1.0276,-0.1470,-5.2176,-0.2822,0.0948,0.1146,0.3596,-0.4316,
2.176041,-0.5255,1.0276,-0.1470,-0.1453,-0.2102,1.4541,0.1146,0.3596,-0.4316,
2.194289,-0.5255,1.0276,-0.1470,-0.4349,-0.0788,0.8485,0.1146,0.3596,-0.4316,
2.209445,-0.1612,1.0029,-0.1442,-0.4349,-0.0788,0.8485,0.1146,0.3596,-0.4316,
2.211602,-0.1612,1.0029,-0.1442,-0.4349,-0.0788,0.8485,0.3882,-0.0540,-0.0116,
2.213757,-0.1612,1.0029,-0.1442,-1.1324,0.0360,-0.7901,0.3882,-0.0540,-0.0116,
2.233855,-0.1612,1.0029,-0.1442,0.1175,0.0823,-1.3584,0.3882,-0.0540,-0.0116,
2.255589,-0.1612,1.0029,-0.1442,0.3194,-0.0585,0.2832,0.3882,-0.0540,-0.0116,
2.275831,-0.1612,1.0029,-0.1442,-0.7073,-0.0624,0.8610,0.3882,-0.0540,-0.0116,
2.277837,-0.1244,0.9897,-0.0227,-0.7073,-0.0624,0.8610,0.3882,-0.0540,-0.0116,
2.278702,-0.1244,0.9897,-0.0227,-0.7073,-0.0624,0.8610,0.2833,-0.0763,-0.0702,
2.293903,-0.1244,0.9897,-0.0227,-0.7360,0.0034,-0.1122,0.2833,-0.0763,-0.0702,
2.313720,-0.1244,0.9897,-0.0227,0.2435,-0.0187,-0.9348,0.2833,-0.0763,-0.0702,
2.334324,-0.1244,0.9897,-0.0227,0.1458,-0.0416,-0.0326,0.2833,-0.0763,-0.0702,
2.342323,-0.0412,0.9958,-0.0658,0.1458,-0.0416,-0.0326,0.2833,-0.0763,-0.0702,
2.344790,-0.0412,0.9958,-0.0658,0.1458,-0.0416,-0.0326,0.2173,-0.0891,-0.1005,
2.355508,-0.0412,0.9958,-0.0658,0.2168,-0.0451,0.6061,0.2173,-0.0891,-0.1005,
2.373826,-0.0412,0.9958,-0.0658,-0.0406,-0.0761,0.4020,0.2173,-0.0891,-0.1005,
2.394228,-0.0412,0.9958,-0.0658,-0.1447,-0.0852,-0.0061,0.2173,-0.0891,-0.1005,
2.407601,-0.1540,0.9928,-0.1634,-0.1447,-0.0852,-0.0061,0.2173,-0.0891,-0.1005,
2.409787,-0.1540,0.9928,-0.1634,-0.1447,-0.0852,-0.0061,0.3254,-0.1631,-0.1356,
2.414289,-0.1540,0.9928,-0.1634,-0.8605,0.0344,-0.3924,0.3254,-0.1631,-0.1356,
2.433903,-0.1540,0.9928,-0.1634,-0.2850,0.0161,-0.3016,0.3254,-0.1631,-0.1356,
2.454520,-0.1540,0.9928,-0.1634,0.5836,-0.0132,-0.8019,0.3254,-0.1631,-0.1356,
2.473696,-0.1629,0.9910,-0.2165,0.5836,-0.0132,-0.8019,0.3254,-0.1631,-0.1356,
2.475483,-0.1629,0.9910,-0.2165,0.5836,-0.0132,-0.8019,0.1683,-0.0481,-0.0553,
2.476823,-0.1629,0.9910,-0.2165,-0.9105,0.0462,-0.6913,0.1683,-0.0481,-0.0553,
2.495812,-0.1629,0.9910,-0.2165,0.0615,0.0043,-0.6170,0.1683,-0.0481,-0.0553,
2.514251,-0.1629,0.9910,-0.2165,0.1961,0.0000,-0.2584,0.1683,-0.0481,-0.0553,
2.533998,-0.1629,0.9910,-0.2165,0.1369,0.0150,0.3870,0.1683,-0.0481,-0.0553,
2.539848,-0.2287,0.9814,-0.1336,0.1369,0.0150,0.3870,0.1683,-0.0481,-0.0553,
2.542029,-0.2287,0.9814,-0.1336,0.1369,0.0150,0.3870,0.0858,0.0067,-0.1186,
2.556041,-0.2287,0.9814,-0.1336,-1.0600,0.0311,-0.0549,0.0858,0.0067,-0.1186,
2.574822,-0.2287,0.9814,-0.1336,1.0439,-0.0535,0.2179,0.0858,0.0067,-0.1186,
2.594151,-0.2287,0.9814,-0.1336,-0.0866,-0.0177,1.0165,0.0858,0.0067,-0.1186,
2.606645,-0.1643,0.9825,-0.1642,-0.0866,-0.0177,1.0165,0.0858,0.0067,-0.1186,
2.609268,-0.1643,0.9825,-0.1642,-0.0866,-0.0177,1.0165,0.1721,-0.0018,-0.1287,
2.613884,-0.1643,0.9825,-0.1642,-0.6076,0.0508,-0.1825,0.1721,-0.0018,-0.1287,
2.634068,-0.1643,0.9825,-0.1642,0.5164,0.1962,-0.7782,0.1721,-0.0018,-0.1287,
2.655721,-0.1643,0.9825,-0.1642,0.9947,0.2123,-0.9641,0.1721,-0.0018,-0.1287,
2.672904,-0.0695,1.0137,-0.2395,0.9947,0.2123,-0.9641,0.1721,-0.0018,-0.1287,
2.675562,-0.0695,1.0137,-0.2395,0.9947,0.2123,-0.9641,-0.0643,0.0418,-0.3204,
2.676954,-0.0695,1.0137,-0.2395,0.3217,0.3264,-0.5961,-0.0643,0.0418,-0.3204,
2.693882,-0.0695,1.0137,-0.2395,-0.1600,0.2036,0.0721,-0.0643,0.0418,-0.3204,
2.714091,-0.0695,1.0137,-0.2395,0.0775,0.2170,0.1225,-0.0643,0.0418,-0.3204,
2.734287,-0.0695,1.0137,-0.2395,-0.4262,0.2305,-0.2239,-0.0643,0.0418,-0.3204,
2.741171,-0.1549,1.0114,-0.2189,-0.4262,0.2305,-0.2239,-0.0643,0.0418,-0.3204,
2.743595,-0.1549,1.0114,-0.2189,-0.4262,0.2305,-0.2239,-0.1936,0.1462,-0.3134,
2.756509,-0.1549,1.0114,-0.2189,0.7914,0.8509,-0.2429,-0.1936,0.1462,-0.3134,
2.775251,-0.1549,1.0114,-0.2189,3.5654,2.9414,1.1445,-0.1936,0.1462,-0.3134,
2.795959,-0.1549,1.0114,-0.2189,8.7505,4.9905,1.3552,-0.1936,0.1462,-0.3134,
2.803985,0.5085,1.3473,0.0108,8.7505,4.9905,1.3552,-0.1936,0.1462,-0.3134,
2.806139,0.5085,1.3473,0.0108,8.7505,4.9905,1.3552,-0.0307,0.0461,-1.6831,
2.814512,0.5085,1.3473,0.0108,4.0282,3.6609,0.8970,-0.0307,0.0461,-1.6831,
2.833882,0.5085,1.3473,0.0108,5.0404,4.5673,-0.4874,-0.0307,0.0461,-1.6831,
2.856078,0.5085,1.3473,0.0108,6.5035,4.5360,-0.7847,-0.0307,0.0461,-1.6831,
2.869634,-0.0041,1.3182,-0.1742,6.5035,4.5360,-0.7847,-0.0307,0.0461,-1.6831,
2.873022,-0.0041,1.3182,-0.1742,6.5035,4.5360,-0.7847,0.0837,0.3288,-2.7547,
2.874758,-0.0041,1.3182,-0.1742,2.5438,3.9501,-0.1623,0.0837,0.3288,-2.7547,
2.894196,-0.0041,1.3182,-0.1742,2.0683,-0.0601,0.6678,0.0837,0.3288,-2.7547,
2.914435,-0.0041,1.3182,-0.1742,1.1282,-1.8301,1.2541,0.0837,0.3288,-2.7547,
2.934640,-0.0041,1.3182,-0.1742,5.8771,-2.9724,1.9100,0.0837,0.3288,-2.7547,
2.937441,0.1158,0.6323,-0.0404,5.8771,-2.9724,1.9100,0.0837,0.3288,-2.7547,
2.938883,0.1158,0.6323,-0.0404,5.8771,-2.9724,1.9100,0.1667,0.8850,-0.9533,
2.956428,0.1158,0.6323,-0.0404,4.4281,-1.9417,-1.1038,0.1667,0.8850,-0.9533,
2.974379,0.1158,0.6323,-0.0404,7.0274,-1.6324,0.2598,0.1667,0.8850,-0.9533,
2.993870,0.1158,0.6323,-0.0404,5.7828,-1.1877,-0.8033,0.1667,0.8850,-0.9533,
3.001699,0.1107,0.8374,-0.3036,5.7828,-1.1877,-0.8033,0.1667,0.8850,-0.9533,
3.004160,0.1107,0.8374,-0.3036,5.7828,-1.1877,-0.8033,-0.3528,0.2479,0.7794,
3.014193,0.1107,0.8374,-0.3036,4.2736,-0.0193,-1.1683,-0.3528,0.2479,0.7794,
3.033846,0.1107,0.8374,-0.3036,3.4196,-0.1521,-0.5188,-0.3528,0.2479,0.7794,
3.057379,0.1107,0.8374,-0.3036,3.6782,-0.6801,0.6871,-0.3528,0.2479,0.7794,
3.067505,0.0559,0.8495,-0.0709,3.6782,-0.6801,0.6871,-0.3528,0.2479,0.7794,
3.068947,0.0559,0.8495,-0.0709,3.6782,-0.6801,0.6871,-0.1495,-0.1934,1.9037,
3.074676,0.0559,0.8495,-0.0709,3.7463,-0.7876,1.0912,-0.1495,-0.1934,1.9037,
3.093857,0.0559,0.8495,-0.0709,3.5321,-0.6898,1.0179,-0.1495,-0.1934,1.9037,
3.114004,0.0559,0.8495,-0.0709,4.1454,-0.2830,0.5765,-0.1495,-0.1934,1.9037,
3.134315,0.0420,1.0255,-0.1282,4.1454,-0.2830,0.5765,-0.1495,-0.1934,1.9037,
3.137869,0.0420,1.0255,-0.1282,4.1454,-0.2830,0.5765,-0.2266,0.0578,2.3961,
3.139549,0.0420,1.0255,-0.1282,2.5758,0.4913,0.4047,-0.2266,0.0578,2.3961,
3.153985,0.0420,1.0255,-0.1282,-0.7571,0.7338,0.1975,-0.2266,0.0578,2.3961,
3.173973,0.0420,1.0255,-0.1282,-1.7704,0.7948,0.2171,-0.2266,0.0578,2.3961,
3.193860,0.0420,1.0255,-0.1282,0.4949,1.2035,-0.2041,-0.2266,0.0578,2.3961,
3.199607,0.0974,1.1560,-0.1953,0.4949,1.2035,-0.2041,-0.2266,0.0578,2.3961,
3.201261,0.0974,1.1560,-0.1953,0.4949,1.2035,-0.2041,-0.4694,-0.1226,3.0753,
3.215636,0.0974,1.1560,-0.1953,1.4585,2.1519,-0.6259,-0.4694,-0.1226,3.0753,
3.234036,0.0974,1.1560,-0.1953,1.3656,2.9776,-0.6937,-0.4694,-0.1226,3.0753,
3.254206,0.0974,1.1560,-0.1953,-1.7453,2.8150,0.0184,-0.4694,-0.1226,3.0753,
3.265366,-0.2872,1.2159,-0.0063,-1.7453,2.8150,0.0184,-0.4694,-0.1226,3.0753,
3.267518,-0.2872,1.2159,-0.0063,-1.7453,2.8150,0.0184,-0.2506,-1.1026,1.8105,
3.277350,-0.2872,1.2159,-0.0063,-5.3952,2.2647,1.2470,-0.2506,-1.1026,1.8105,
3.294081,-0.2872,1.2159,-0.0063,-7.0239,2.1635,0.8849,-0.2506,-1.1026,1.8105,
3.314903,-0.2872,1.2159,-0.0063,-9.2739,1.3470,0.8627,-0.2506,-1.1026,1.8105,
3.331929,-0.8553,0.9495,-0.0148,-9.2739,1.3470,0.8627,-0.2506,-1.1026,1.8105,
3.333647,-0.8553,0.9495,-0.0148,-9.2739,1.3470,0.8627,-0.0542,-0.2349,1.4129,
3.334259,-0.8553,0.9495,-0.0148,-10.9559,-0.0815,1.1105,-0.0542,-0.2349,1.4129,
3.354325,-0.8553,0.9495,-0.0148,-9.0171,0.2787,0.3568,-0.0542,-0.2349,1.4129,
3.377576,-0.8553,0.9495,-0.0148,-7.9626,-0.1333,0.1382,-0.0542,-0.2349,1.4129,
3.393666,-0.8553,0.9495,-0.0148,-7.0763,0.0552,0.1105,-0.0542,-0.2349,1.4129,
3.397381,-0.3949,0.9635,-0.1293,-7.0763,0.0552,0.1105,-0.0542,-0.2349,1.4129,
3.399270,-0.3949,0.9635,-0.1293,-7.0763,0.0552,0.1105,-0.0797,0.2622,-0.4838,
3.414127,-0.3949,0.9635,-0.1293,0.9821,14.2225,-0.0019,-0.0797,0.2622,-0.4838,
3.433826,-0.3949,0.9635,-0.1293,-2.1816,-9.5112,-6.4194,-0.0797,0.2622,-0.4838,
3.453888,-0.3949,0.9635,-0.1293,-1.7489,3.7434,-2.9200,-0.0797,0.2622,-0.4838,
3.463731,0.0086,1.0114,-0.3930,-1.7489,3.7434,-2.9200,-0.0797,0.2622,-0.4838,
3.465773,0.0086,1.0114,-0.3930,-1.7489,3.7434,-2.9200,0.0390,0.4911,-2.1404,
3.475534,0.0086,1.0114,-0.3930,-0.5543,1.3692,0.2697,0.0390,0.4911,-2.1404,
3.495861,0.0086,1.0114,-0.3930,-3.2521,-0.8971,5.3544,0.0390,0.4911,-2.1404,
3.513996,0.0086,1.0114,-0.3930,-7.6577,0.6273,1.9921,0.0390,0.4911,-2.1404,
3.529394,-0.6137,1.0402,0.2892,-7.6577,0.6273,1.9921,0.0390,0.4911,-2.1404,
3.532162,-0.6137,1.0402,0.2892,-7.6577,0.6273,1.9921,0.1545,0.2963,-1.3180,
3.534135,-0.6137,1.0402,0.2892,-6.3376,0.5897,3.8562,0.1545,0.2963,-1.3180,
3.553998,-0.6137,1.0402,0.2892,-6.6384,0.7148,1.1838,0.1545,0.2963,-1.3180,
3.573907,-0.6137,1.0402,0.2892,-1.0740,0.5617,-5.2609,0.1545,0.2963,-1.3180,
3.593683,-0.6137,1.0402,0.2892,0.6459,0.1586,-3.2002,0.1545,0.2963,-1.3180,
3.596629,-0.0127,1.0047,-0.3354,0.6459,0.1586,-3.2002,0.1545,0.2963,-1.3180,
3.597888,-0.0127,1.0047,-0.3354,0.6459,0.1586,-3.2002,-0.0536,0.1781,-0.8660,
3.614603,-0.0127,1.0047,-0.3354,-5.8800,-0.0290,2.0892,-0.0536,0.1781,-0.8660,
3.633828,-0.0127,1.0047,-0.3354,-2.0452,-0.1907,1.9937,-0.0536,0.1781,-0.8660,
3.653811,-0.0127,1.0047,-0.3354,-0.3245,0.0229,2.0290,-0.0536,0.1781,-0.8660,
3.661340,-0.1636,0.9973,-0.1379,-0.3245,0.0229,2.0290,-0.0536,0.1781,-0.8660,
3.664096,-0.1636,0.9973,-0.1379,-0.3245,0.0229,2.0290,0.4350,-0.2142,-0.1213,
3.676260,-0.1636,0.9973,-0.1379,-1.0189,0.1347,-1.3652,0.4350,-0.2142,-0.1213,
3.694684,-0.1636,0.9973,-0.1379,0.0366,-0.0289,-2.2546,0.4350,-0.2142,-0.1213,
3.713834,-0.1636,0.9973,-0.1379,-0.4458,0.0479,-1.0753,0.4350,-0.2142,-0.1213,
3.727683,-0.0868,0.9811,-0.1675,-0.4458,0.0479,-1.0753,0.4350,-0.2142,-0.1213,
3.730304,-0.0868,0.9811,-0.1675,-0.4458,0.0479,-1.0753,0.0640,-0.0188,-0.0691,
3.733631,-0.0868,0.9811,-0.1675,-0.3981,-0.0664,0.2612,0.0640,-0.0188,-0.0691,
3.753930,-0.0868,0.9811,-0.1675,-0.6010,0.0152,0.7454,0.0640,-0.0188,-0.0691,
3.774534,-0.0868,0.9811,-0.1675,-0.3823,0.0495,-0.0173,0.0640,-0.0188,-0.0691,
3.793671,0.0485,0.9809,-0.2144,-0.3823,0.0495,-0.0173,0.0640,-0.0188,-0.0691,
3.796416,0.0485,0.9809,-0.2144,-0.3823,0.0495,-0.0173,0.1215,-0.0699,-0.0909,
3.797467,0.0485,0.9809,-0.2144,0.8544,-0.0333,-0.2652,0.1215,-0.0699,-0.0909,
3.814171,0.0485,0.9809,-0.2144,0.0076,-0.0083,-0.2225,0.1215,-0.0699,-0.0909,
3.833835,0.0485,0.9809,-0.2144,-1.4317,0.0460,0.1970,0.1215,-0.0699,-0.0909,
3.854571,0.0485,0.9809,-0.2144,0.5655,-0.0567,0.1971,0.1215,-0.0699,-0.0909,
3.860913,-0.0171,0.9812,-0.1863,0.5655,-0.0567,0.1971,0.1215,-0.0699,-0.0909,
3.863708,-0.0171,0.9812,-0.1863,0.5655,-0.0567,0.1971,0.1204,-0.0811,-0.1341,
3.873695,-0.0171,0.9812,-0.1863,-0.7977,0.0082,-0.1517,0.1204,-0.0811,-0.1341,
3.894808,-0.0171,0.9812,-0.1863,-0.2565,0.0727,-0.3868,0.1204,-0.0811,-0.1341,
3.914328,-0.0171,0.9812,-0.1863,0.3020,0.0472,-0.2354,0.1204,-0.0811,-0.1341,
3.928520,-0.0788,0.9788,-0.1643,0.3020,0.0472,-0.2354,0.1204,-0.0811,-0.1341,
3.930480,-0.0788,0.9788,-0.1643,0.3020,0.0472,-0.2354,0.0501,-0.0907,-0.1303,
3.934234,-0.0788,0.9788,-0.1643,-1.2761,-0.1159,0.3117,0.0501,-0.0907,-0.1303,
3.954030,-0.0788,0.9788,-0.1643,0.2408,0.0052,-0.1987,0.0501,-0.0907,-0.1303,
3.973960,-0.0788,0.9788,-0.1643,0.1336,-0.0121,-0.4656,0.0501,-0.0907,-0.1303,
3.993768,-0.1162,0.9784,-0.1977,0.1336,-0.0121,-0.4656,0.0501,-0.0907,-0.1303,
3.996326,-0.1162,0.9784,-0.1977,0.1336,-0.0121,-0.4656,0.0129,-0.0076,-0.0808,
3.997096,-0.1162,0.9784,-0.1977,-0.4433,-0.0092,-0.0011,0.0129,-0.0076,-0.0808,
4.014105,-0.1162,0.9784,-0.1977,-0.5012,0.0417,0.0010,0.0129,-0.0076,-0.0808,
4.033956,-0.1162,0.9784,-0.1977,0.3304,0.0728,-0.2815,0.0129,-0.0076,-0.0808,
4.054922,-0.1162,0.9784,-0.1977,0.4326,0.1218,-0.1396,0.0129,-0.0076,-0.0808,
4.057570,-0.0561,0.9928,-0.2291,0.4326,0.1218,-0.1396,0.0129,-0.0076,-0.0808,
4.058542,-0.0561,0.9928,-0.2291,0.4326,0.1218,-0.1396,-0.0739,0.0291,-0.1367,
4.074295,-0.0561,0.9928,-0.2291,0.1185,0.0238,0.0158,-0.0739,0.0291,-0.1367,
4.094713,-0.0561,0.9928,-0.2291,-0.0155,0.0926,0.5034,-0.0739,0.0291,-0.1367,
4.113933,-0.0561,0.9928,-0.2291,-0.4057,0.0454,-0.4072,-0.0739,0.0291,-0.1367,
4.123261,-0.0581,0.9979,-0.2552,-0.4057,0.0454,-0.4072,-0.0739,0.0291,-0.1367,
4.124725,-0.0581,0.9979,-0.2552,-0.4057,0.0454,-0.4072,-0.0813,0.0003,-0.1479,
4.134278,-0.0581,0.9979,-0.2552,0.6655,0.2229,-0.8188,-0.0813,0.0003,-0.1479,
4.154508,-0.0581,0.9979,-0.2552,0.8607,0.5267,-0.4556,-0.0813,0.0003,-0.1479,
4.174710,-0.0581,0.9979,-0.2552,0.7780,0.8688,0.4326,-0.0813,0.0003,-0.1479,
4.189768,-0.0146,1.0468,-0.1008,0.7780,0.8688,0.4326,-0.0813,0.0003,-0.1479,
4.191881,-0.0146,1.0468,-0.1008,0.7780,0.8688,0.4326,-0.1894,0.0749,-0.4135,
4.195878,-0.0146,1.0468,-0.1008,0.8349,0.6920,0.8654,-0.1894,0.0749,-0.4135,
4.214030,-0.0146,1.0468,-0.1008,2.1808,2.4698,0.7140,-0.1894,0.0749,-0.4135,
4.234187,-0.0146,1.0468,-0.1008,5.0571,2.7907,0.2834,-0.1894,0.0749,-0.4135,
4.254881,-0.0146,1.0468,-0.1008,2.1176,1.7915,0.9399,-0.1894,0.0749,-0.4135,
4.257723,-0.0357,1.1275,-0.1087,2.1176,1.7915,0.9399,-0.1894,0.0749,-0.4135,
4.258738,-0.0357,1.1275,-0.1087,2.1176,1.7915,0.9399,-0.0957,0.1121,-1.2594,
4.273920,-0.0357,1.1275,-0.1087,1.9920,2.1500,-0.0365,-0.0957,0.1121,-1.2594,
4.294645,-0.0357,1.1275,-0.1087,5.9918,3.4677,-0.3423,-0.0957,0.1121,-1.2594,
4.314018,-0.0357,1.1275,-0.1087,5.3740,3.0964,0.4208,-0.0957,0.1121,-1.2594,
4.321278,0.1579,1.2718,-0.1083,5.3740,3.0964,0.4208,-0.0957,0.1121,-1.2594,
4.322930,0.1579,1.2718,-0.1083,5.3740,3.0964,0.4208,0.0784,0.1068,-2.3405,
4.334541,0.1579,1.2718,-0.1083,3.4483,3.4326,1.0057,0.0784,0.1068,-2.3405,
4.354399,0.1579,1.2718,-0.1083,3.0804,1.8647,1.3300,0.0784,0.1068,-2.3405,
4.375251,0.1579,1.2718,-0.1083,0.1280,1.2130,0.7994,0.0784,0.1068,-2.3405,
4.387565,-0.3358,0.8206,-0.1204,0.1280,1.2130,0.7994,0.0784,0.1068,-2.3405,
4.389022,-0.3358,0.8206,-0.1204,0.1280,1.2130,0.7994,-0.0270,0.4028,-1.9072,
4.395078,-0.3358,0.8206,-0.1204,1.3924,-0.9057,1.0580,-0.0270,0.4028,-1.9072,
4.414861,-0.3358,0.8206,-0.1204,5.2364,-1.3638,1.6646,-0.0270,0.4028,-1.9072,
4.434155,-0.3358,0.8206,-0.1204,1.1674,-0.7962,0.4639,-0.0270,0.4028,-1.9072,
4.453627,0.0151,0.7214,-0.0992,1.1674,-0.7962,0.4639,-0.0270,0.4028,-1.9072,
4.456212,0.0151,0.7214,-0.0992,1.1674,-0.7962,0.4639,-0.2746,0.8015,-0.1554,
4.457112,0.0151,0.7214,-0.0992,4.6025,-1.4097,0.9016,-0.2746,0.8015,-0.1554,
4.474046,0.0151,0.7214,-0.0992,4.7619,-1.6925,0.5630,-0.2746,0.8015,-0.1554,
4.495249,0.0151,0.7214,-0.0992,4.8038,-1.5962,0.6360,-0.2746,0.8015,-0.1554,
4.513866,0.0151,0.7214,-0.0992,4.2786,-1.4461,0.5026,-0.2746,0.8015,-0.1554,
4.519487,-0.0395,0.7483,-0.1367,4.2786,-1.4461,0.5026,-0.2746,0.8015,-0.1554,
4.521001,-0.0395,0.7483,-0.1367,4.2786,-1.4461,0.5026,-0.7180,0.6679,1.0078,
4.534124,-0.0395,0.7483,-0.1367,3.1700,-0.9318,0.6475,-0.7180,0.6679,1.0078,
4.553991,-0.0395,0.7483,-0.1367,2.4313,-0.3364,0.5598,-0.7180,0.6679,1.0078,
4.574123,-0.0395,0.7483,-0.1367,3.2746,-0.1559,0.4306,-0.7180,0.6679,1.0078,
4.585781,0.0366,0.9349,-0.0840,3.2746,-0.1559,0.4306,-0.7180,0.6679,1.0078,
4.588207,0.0366,0.9349,-0.0840,3.2746,-0.1559,0.4306,-0.9836,1.0724,1.9686,
4.595862,0.0366,0.9349,-0.0840,3.6679,0.1451,0.7112,-0.9836,1.0724,1.9686,
4.615119,0.0366,0.9349,-0.0840,3.7973,0.5216,0.1393,-0.9836,1.0724,1.9686,
4.634239,0.0366,0.9349,-0.0840,3.3730,1.1299,-0.3017,-0.9836,1.0724,1.9686,
4.651936,0.0694,1.1297,-0.1675,3.3730,1.1299,-0.3017,-0.9836,1.0724,1.9686,
4.654305,0.0694,1.1297,-0.1675,3.3730,1.1299,-0.3017,-1.1715,1.6468,1.8882,
4.655558,0.0694,1.1297,-0.1675,2.5607,1.4901,-0.5374,-1.1715,1.6468,1.8882,
4.673971,0.0694,1.1297,-0.1675,1.4499,1.8993,-0.9566,-1.1715,1.6468,1.8882,
4.694259,0.0694,1.1297,-0.1675,-1.0522,2.1043,-1.6286,-1.1715,1.6468,1.8882,
4.713867,0.0694,1.1297,-0.1675,-0.6444,1.8859,-1.4139,-1.1715,1.6468,1.8882,
4.717461,-0.1061,1.1810,-0.2108,-0.6444,1.8859,-1.4139,-1.1715,1.6468,1.8882,
4.718823,-0.1061,1.1810,-0.2108,-0.6444,1.8859,-1.4139,-1.1502,2.3894,1.9383,
4.734434,-0.1061,1.1810,-0.2108,-0.6569,1.7664,-1.6882,-1.1502,2.3894,1.9383,
4.754802,-0.1061,1.1810,-0.2108,-1.4356,1.5310,-2.3687,-1.1502,2.3894,1.9383,
4.773931,-0.1061,1.1810,-0.2108,-1.1361,1.1172,-3.1872,-1.1502,2.3894,1.9383,
4.783668,-0.0260,1.0882,-0.3196,-1.1361,1.1172,-3.1872,-1.1502,2.3894,1.9383,
4.786920,-0.0260,1.0882,-0.3196,-1.1361,1.1172,-3.1872,-1.1332,2.6960,1.2404,
4.794035,-0.0260,1.0882,-0.3196,-0.9188,0.9518,-3.3185,-1.1332,2.6960,1.2404,
4.814384,-0.0260,1.0882,-0.3196,-2.8108,0.7927,-3.9179,-1.1332,2.6960,1.2404,
4.834334,-0.0260,1.0882,-0.3196,-4.7614,0.4866,-5.1692,-1.1332,2.6960,1.2404,
4.849286,-0.4752,0.9577,-0.5274,-4.7614,0.4866,-5.1692,-1.1332,2.6960,1.2404,
4.852695,-0.4752,0.9577,-0.5274,-4.7614,0.4866,-5.1692,-0.5588,2.9489,0.6926,
4.854268,-0.4752,0.9577,-0.5274,-5.6473,-0.3896,-6.1657,-0.5588,2.9489,0.6926,
4.874095,-0.4752,0.9577,-0.5274,-4.2455,-0.7157,-4.7853,-0.5588,2.9489,0.6926,
4.894290,-0.4752,0.9577,-0.5274,-3.4519,-0.5535,-2.8512,-0.5588,2.9489,0.6926,
4.914289,-0.4752,0.9577,-0.5274,-2.7878,-0.2008,-4.3447,-0.5588,2.9489,0.6926,
4.917005,-0.1963,0.9666,-0.3508,-2.7878,-0.2008,-4.3447,-0.5588,2.9489,0.6926,
4.918138,-0.1963,0.9666,-0.3508,-2.7878,-0.2008,-4.3447,0.4579,3.5504,0.0118,
4.934287,-0.1963,0.9666,-0.3508,-3.5794,-0.5941,-6.3034,0.4579,3.5504,0.0118,
4.954011,-0.1963,0.9666,-0.3508,-3.6170,-0.2727,-7.1765,0.4579,3.5504,0.0118,
4.974707,-0.1963,0.9666,-0.3508,0.5776,4.3508,-5.4062,0.4579,3.5504,0.0118,
4.982137,0.3301,1.2560,-0.3079,0.5776,4.3508,-5.4062,0.4579,3.5504,0.0118,
4.985414,0.3301,1.2560,-0.3079,0.5776,4.3508,-5.4062,0.8438,2.2696,-0.8404,
4.993778,0.3301,1.2560,-0.3079,4.3868,-0.9313,-2.1074,0.8438,2.2696,-0.8404,
5.014183,0.3301,1.2560,-0.3079,-2.6162,-0.3957,-3.6849,0.8438,2.2696,-0.8404,
5.034894,0.3301,1.2560,-0.3079,-3.7828,0.0513,2.3469,0.8438,2.2696,-0.8404,
5.047994,-0.1617,1.6475,0.1576,-3.7828,0.0513,2.3469,0.8438,2.2696,-0.8404,
5.052086,-0.1617,1.6475,0.1576,-3.7828,0.0513,2.3469,1.1856,1.8145,-1.1923,
5.054404,-0.1617,1.6475,0.1576,-2.5696,4.8825,-0.9936,1.1856,1.8145,-1.1923,
5.073910,-0.1617,1.6475,0.1576,-9.2559,-1.2982,-8.7601,1.1856,1.8145,-1.1923,
5.093873,-0.1617,1.6475,0.1576,-5.8552,0.9025,-4.7995,1.1856,1.8145,-1.1923,
5.114317,0.4403,0.9663,0.7713,-5.8552,0.9025,-4.7995,1.1856,1.8145,-1.1923,
5.117301,0.4403,0.9663,0.7713,-5.8552,0.9025,-4.7995,0.4872,-0.0353,-0.2953,
5.118485,0.4403,0.9663,0.7713,5.4476,-0.4411,7.4626,0.4872,-0.0353,-0.2953,
5.134912,0.4403,0.9663,0.7713,-1.9183,-0.0590,-0.9063,0.4872,-0.0353,-0.2953,
5.154522,0.4403,0.9663,0.7713,-2.8494,0.4228,0.1659,0.4872,-0.0353,-0.2953,
5.174909,0.4403,0.9663,0.7713,-0.6251,-0.0977,-0.3195,0.4872,-0.0353,-0.2953,
5.181741,-0.0395,0.9872,-0.0112,-0.6251,-0.0977,-0.3195,0.4872,-0.0353,-0.2953,
5.184586,-0.0395,0.9872,-0.0112,-0.6251,-0.0977,-0.3195,0.5660,-0.2136,0.0964,
5.193626,-0.0395,0.9872,-0.0112,1.1772,0.0858,-0.7435,0.5660,-0.2136,0.0964,
5.214252,-0.0395,0.9872,-0.0112,0.9424,-0.0021,-1.2467,0.5660,-0.2136,0.0964,
5.235159,-0.0395,0.9872,-0.0112,-1.4281,-0.0377,-0.0132,0.5660,-0.2136,0.0964,
5.245227,-0.2443,0.9877,0.0605,-1.4281,-0.0377,-0.0132,0.5660,-0.2136,0.0964,
5.248121,-0.2443,0.9877,0.0605,-1.4281,-0.0377,-0.0132,0.4254,-0.0715,0.0081,
5.254049,-0.2443,0.9877,0.0605,-1.3648,-0.0634,0.7958,0.4254,-0.0715,0.0081,
5.273955,-0.2443,0.9877,0.0605,-0.8891,0.0370,-1.1241,0.4254,-0.0715,0.0081,
5.294349,-0.2443,0.9877,0.0605,-0.3492,0.0386,-1.3979,0.4254,-0.0715,0.0081,
5.312298,-0.0047,1.0040,-0.1331,-0.3492,0.0386,-1.3979,0.4254,-0.0715,0.0081,
5.314016,-0.0047,1.0040,-0.1331,-0.3492,0.0386,-1.3979,0.2178,0.0701,0.0661,
5.315168,-0.0047,1.0040,-0.1331,0.6985,0.0588,-0.8067,0.2178,0.0701,0.0661,
5.333978,-0.0047,1.0040,-0.1331,-0.7530,-0.0965,0.9435,0.2178,0.0701,0.0661,
5.354381,-0.0047,1.0040,-0.1331,-0.7066,-0.0455,0.5133,0.2178,0.0701,0.0661,
5.374379,-0.0047,1.0040,-0.1331,-1.1833,-0.0240,-0.5355,0.2178,0.0701,0.0661,
5.377517,-0.1729,0.9992,-0.1416,-1.1833,-0.0240,-0.5355,0.2178,0.0701,0.0661,
5.378208,-0.1729,0.9992,-0.1416,-1.1833,-0.0240,-0.5355,0.2088,0.0477,0.2417,
5.393889,-0.1729,0.9992,-0.1416,-0.2632,0.0157,-1.1630,0.2088,0.0477,0.2417,
5.413728,-0.1729,0.9992,-0.1416,0.2551,0.0053,-0.6082,0.2088,0.0477,0.2417,
5.433881,-0.1729,0.9992,-0.1416,0.2155,-0.1027,0.0854,0.2088,0.0477,0.2417,
5.443371,-0.0315,0.9949,-0.0993,0.2155,-0.1027,0.0854,0.2088,0.0477,0.2417,
5.444848,-0.0315,0.9949,-0.0993,0.2155,-0.1027,0.0854,0.1225,0.0520,0.1481,
5.454744,-0.0315,0.9949,-0.0993,-0.4177,-0.0335,-0.2267,0.1225,0.0520,0.1481,
5.473979,-0.0315,0.9949,-0.0993,0.3966,0.0259,-0.5137,0.1225,0.0520,0.1481,
5.493773,-0.0315,0.9949,-0.0993,0.6292,-0.0030,-0.1376,0.1225,0.0520,0.1481,
5.510279,-0.0512,0.9823,-0.0375,0.6292,-0.0030,-0.1376,0.1225,0.0520,0.1481,
5.515201,-0.0512,0.9823,-0.0375,0.6292,-0.0030,-0.1376,0.0704,-0.0124,0.0379,
5.516739,-0.0512,0.9823,-0.0375,-0.2141,-0.1299,0.5758,0.0704,-0.0124,0.0379,
5.534156,-0.0512,0.9823,-0.0375,1.2799,-0.0600,-0.1222,0.0704,-0.0124,0.0379,
5.554342,-0.0512,0.9823,-0.0375,0.3995,0.0602,-0.7070,0.0704,-0.0124,0.0379,
5.573832,-0.0512,0.9823,-0.0375,-0.3444,-0.0056,-0.9674,0.0704,-0.0124,0.0379,
5.576227,-0.1146,0.9977,-0.1707,-0.3444,-0.0056,-0.9674,0.0704,-0.0124,0.0379,
5.576903,-0.1146,0.9977,-0.1707,-0.3444,-0.0056,-0.9674,-0.0398,0.1356,-0.1718,
5.593780,-0.1146,0.9977,-0.1707,-1.3310,0.0056,0.3449,-0.0398,0.1356,-0.1718,
5.614140,-0.1146,0.9977,-0.1707,0.1355,-0.0625,0.2423,-0.0398,0.1356,-0.1718,
5.633650,-0.1146,0.9977,-0.1707,1.1569,-0.0616,-0.3524,-0.0398,0.1356,-0.1718,
5.641240,0.0517,0.9905,-0.1643,1.1569,-0.0616,-0.3524,-0.0398,0.1356,-0.1718,
5.642146,0.0517,0.9905,-0.1643,1.1569,-0.0616,-0.3524,-0.0590,0.1398,-0.2091,
5.653700,0.0517,0.9905,-0.1643,0.2926,-0.0209,-0.3337,-0.0590,0.1398,-0.2091,
5.673811,0.0517,0.9905,-0.1643,-1.1825,0.0686,-0.1129,-0.0590,0.1398,-0.2091,
5.693933,0.0517,0.9905,-0.1643,-1.0278,-0.0484,0.1422,-0.0590,0.1398,-0.2091,
5.707328,-0.0572,0.9972,-0.1492,-1.0278,-0.0484,0.1422,-0.0590,0.1398,-0.2091,
5.709384,-0.0572,0.9972,-0.1492,-1.0278,-0.0484,0.1422,-0.1441,0.0546,-0.0558,
5.713421,-0.0572,0.9972,-0.1492,0.2596,0.0487,-0.6318,-0.1441,0.0546,-0.0558,
5.733744,-0.0572,0.9972,-0.1492,0.1848,0.0472,-0.1794,-0.1441,0.0546,-0.0558,
5.753586,-0.0572,0.9972,-0.1492,-1.4185,-0.0029,-0.2832,-0.1441,0.0546,-0.0558,
5.773804,-0.0392,0.9949,-0.1198,-1.4185,-0.0029,-0.2832,-0.1441,0.0546,-0.0558,
5.776014,-0.0392,0.9949,-0.1198,-1.4185,-0.0029,-0.2832,-0.2639,0.0302,-0.0281,
5.776808,-0.0392,0.9949,-0.1198,0.1617,-0.0346,-0.4399,-0.2639,0.0302,-0.0281,
5.793875,-0.0392,0.9949,-0.1198,0.1070,-0.0476,-0.3507,-0.2639,0.0302,-0.0281,
5.813793,-0.0392,0.9949,-0.1198,-0.5009,-0.0501,-0.4165,-0.2639,0.0302,-0.0281,
5.833831,-0.0392,0.9949,-0.1198,-0.8035,-0.0042,-0.1278,-0.2639,0.0302,-0.0281,
5.839594,-0.1456,0.9867,-0.0866,-0.8035,-0.0042,-0.1278,-0.2639,0.0302,-0.0281,
5.841119,-0.1456,0.9867,-0.0866,-0.8035,-0.0042,-0.1278,-0.3778,-0.0289,0.0219,
5.854770,-0.1456,0.9867,-0.0866,-0.2431,-0.0570,-0.2068,-0.3778,-0.0289,0.0219,
5.873965,-0.1456,0.9867,-0.0866,0.2512,-0.1005,0.0264,-0.3778,-0.0289,0.0219,
5.893893,-0.1456,0.9867,-0.0866,-0.0803,-0.1724,-0.2258,-0.3778,-0.0289,0.0219,
5.905451,-0.0631,1.0144,-0.0593,-0.0803,-0.1724,-0.2258,-0.3778,-0.0289,0.0219,
5.908317,-0.0631,1.0144,-0.0593,-0.0803,-0.1724,-0.2258,-0.5024,-0.1508,-0.0590,
5.913645,-0.0631,1.0144,-0.0593,0.1971,0.0610,-0.6046,-0.5024,-0.1508,-0.0590,
5.935944,-0.0631,1.0144,-0.0593,0.1443,0.0797,-0.9159,-0.5024,-0.1508,-0.0590,
5.955452,-0.0631,1.0144,-0.0593,-0.6324,0.0906,-1.0936,-0.5024,-0.1508,-0.0590,
5.972253,-0.2466,1.0533,-0.0975,-0.6324,0.0906,-1.0936,-0.5024,-0.1508,-0.0590,
5.975255,-0.2466,1.0533,-0.0975,-0.6324,0.0906,-1.0936,-0.8191,0.2399,-0.0324,
5.976368,-0.2466,1.0533,-0.0975,-1.5936,0.5355,-1.0896,-0.8191,0.2399,-0.0324,
5.993861,-0.2466,1.0533,-0.0975,-2.9581,0.6863,-2.0220,-0.8191,0.2399,-0.0324,
6.014392,-0.2466,1.0533,-0.0975,-0.3446,3.1019,-2.8872,-0.8191,0.2399,-0.0324,
6.034370,-0.2466,1.0533,-0.0975,6.6160,4.3122,-5.3118,-0.8191,0.2399,-0.0324,
6.037735,0.5921,1.5208,-0.5923,6.6160,4.3122,-5.3118,-0.8191,0.2399,-0.0324,
6.039206,0.5921,1.5208,-0.5923,6.6160,4.3122,-5.3118,-1.1061,3.2374,0.1252,
6.053912,0.5921,1.5208,-0.5923,8.0779,6.5803,-6.4874,-1.1061,3.2374,0.1252,
6.074043,0.5921,1.5208,-0.5923,4.3210,-0.9033,3.6631,-1.1061,3.2374,0.1252,
6.094380,0.5921,1.5208,-0.5923,1.7203,-2.1431,-4.3992,-1.1061,3.2374,0.1252,
6.103719,0.5178,1.0234,-0.2490,1.7203,-2.1431,-4.3992,-1.1061,3.2374,0.1252,
6.106680,0.5178,1.0234,-0.2490,1.7203,-2.1431,-4.3992,0.3493,5.8746,-1.0124,
6.113679,0.5178,1.0234,-0.2490,8.3812,1.1839,-3.4705,0.3493,5.8746,-1.0124,
6.134383,0.5178,1.0234,-0.2490,7.4943,-0.3466,-6.5351,0.3493,5.8746,-1.0124,
6.154364,0.5178,1.0234,-0.2490,6.1009,-2.3311,-4.1818,0.3493,5.8746,-1.0124,
6.169447,0.1905,0.6776,-0.5688,6.1009,-2.3311,-4.1818,0.3493,5.8746,-1.0124,
6.172512,0.1905,0.6776,-0.5688,6.1009,-2.3311,-4.1818,0.6597,5.3742,-0.9698,
6.174189,0.1905,0.6776,-0.5688,3.8670,-2.9834,-5.3253,0.6597,5.3742,-0.9698,
6.193936,0.1905,0.6776,-0.5688,3.7743,-2.2399,-5.0844,0.6597,5.3742,-0.9698,
6.213862,0.1905,0.6776,-0.5688,4.5082,-0.5942,-5.2587,0.6597,5.3742,-0.9698,
6.235345,0.1905,0.6776,-0.5688,1.9634,-0.1209,-4.5261,0.6597,5.3742,-0.9698,
6.238517,-0.1394,0.9550,-0.5625,1.9634,-0.1209,-4.5261,0.6597,5.3742,-0.9698,
6.240803,-0.1394,0.9550,-0.5625,1.9634,-0.1209,-4.5261,-0.2522,2.4757,0.1087,
6.254193,-0.1394,0.9550,-0.5625,-2.6191,-0.5784,-2.9610,-0.2522,2.4757,0.1087,
6.274826,-0.1394,0.9550,-0.5625,0.1296,-0.9938,-1.1721,-0.2522,2.4757,0.1087,
6.293944,-0.1394,0.9550,-0.5625,2.7072,-0.2164,-0.6145,-0.2522,2.4757,0.1087,
6.301979,0.1528,0.9802,-0.2082,2.7072,-0.2164,-0.6145,-0.2522,2.4757,0.1087,
6.304571,0.1528,0.9802,-0.2082,2.7072,-0.2164,-0.6145,-0.3528,1.8406,1.6732,
6.313754,0.1528,0.9802,-0.2082,2.9157,-0.0214,-0.4084,-0.3528,1.8406,1.6732,
6.334776,0.1528,0.9802,-0.2082,4.4449,0.0577,0.1971,-0.3528,1.8406,1.6732,
6.354504,0.1528,0.9802,-0.2082,4.1693,1.1041,-0.3195,-0.3528,1.8406,1.6732,
6.369786,-0.0501,1.1959,-0.3156,4.1693,1.1041,-0.3195,-0.3528,1.8406,1.6732,
6.372569,-0.0501,1.1959,-0.3156,4.1693,1.1041,-0.3195,-0.2389,2.8174,1.1307,
6.373792,-0.0501,1.1959,-0.3156,-1.5342,2.0194,-2.2935,-0.2389,2.8174,1.1307,
6.393901,-0.0501,1.1959,-0.3156,-5.6871,1.4216,-2.9241,-0.2389,2.8174,1.1307,
6.414201,-0.0501,1.1959,-0.3156,-2.6010,0.3901,-1.9267,-0.2389,2.8174,1.1307,
6.434052,0.1847,1.1595,-0.3980,-2.6010,0.3901,-1.9267,-0.2389,2.8174,1.1307,
6.437570,0.1847,1.1595,-0.3980,-2.6010,0.3901,-1.9267,-0.4933,2.0988,1.4464,
6.438694,0.1847,1.1595,-0.3980,0.6833,1.4954,-2.8081,-0.4933,2.0988,1.4464,
6.453547,0.1847,1.1595,-0.3980,0.5172,2.3515,-4.3820,-0.4933,2.0988,1.4464,
6.474221,0.1847,1.1595,-0.3980,-4.7984,1.5890,-3.7736,-0.4933,2.0988,1.4464,
6.494209,0.1847,1.1595,-0.3980,-11.9846,-0.3101,-0.3867,-0.4933,2.0988,1.4464,
6.499246,-1.3165,0.8728,-0.1088,-11.9846,-0.3101,-0.3867,-0.4933,2.0988,1.4464,
6.501348,-1.3165,0.8728,-0.1088,-11.9846,-0.3101,-0.3867,-0.1564,0.5215,0.8236,
6.514654,-1.3165,0.8728,-0.1088,-16.0568,-2.2855,-0.9569,-0.1564,0.5215,0.8236,
6.533628,-1.3165,0.8728,-0.1088,-6.7260,-1.7287,-0.3215,-0.1564,0.5215,0.8236,
6.560596,-1.3165,0.8728,-0.1088,-4.2195,-0.9836,-1.0903,-0.1564,0.5215,0.8236,
6.565467,-0.1087,0.9356,-0.1634,-4.2195,-0.9836,-1.0903,-0.1564,0.5215,0.8236,
6.567298,-0.1087,0.9356,-0.1634,-4.2195,-0.9836,-1.0903,0.1992,0.3650,0.5010,
6.574353,-0.1087,0.9356,-0.1634,-3.6589,-0.0271,-1.1338,0.1992,0.3650,0.5010,
6.594950,-0.1087,0.9356,-0.1634,-5.5974,0.6934,-1.4009,0.1992,0.3650,0.5010,
6.613793,-0.1087,0.9356,-0.1634,0.4275,-0.9940,-3.7351,0.1992,0.3650,0.5010,
6.631997,-0.4946,0.8762,-0.4499,0.4275,-0.9940,-3.7351,0.1992,0.3650,0.5010,
6.635201,-0.4946,0.8762,-0.4499,0.4275,-0.9940,-3.7351,0.3078,0.0546,-2.5609,
6.636959,-0.4946,0.8762,-0.4499,-6.7544,-1.0212,-3.8344,0.3078,0.0546,-2.5609,
6.654249,-0.4946,0.8762,-0.4499,-5.4140,2.2577,-1.1415,0.3078,0.0546,-2.5609,
6.674029,-0.4946,0.8762,-0.4499,-0.6080,-1.1490,7.0799,0.3078,0.0546,-2.5609,
6.693658,-0.4946,0.8762,-0.4499,1.1514,-0.3242,0.9440,0.3078,0.0546,-2.5609,
6.697003,-0.0929,0.9301,-0.1246,1.1514,-0.3242,0.9440,0.3078,0.0546,-2.5609,
6.697851,-0.0929,0.9301,-0.1246,1.1514,-0.3242,0.9440,0.0400,0.6631,-1.9184,
6.713946,-0.0929,0.9301,-0.1246,-9.8721,0.3365,2.8266,0.0400,0.6631,-1.9184,
6.734121,-0.0929,0.9301,-0.1246,-9.5155,0.6980,1.2040,0.0400,0.6631,-1.9184,
6.754148,-0.0929,0.9301,-0.1246,-1.4506,0.4195,-2.0351,0.0400,0.6631,-1.9184,
6.763105,0.0229,1.0289,-0.4162,-1.4506,0.4195,-2.0351,0.0400,0.6631,-1.9184,
6.764534,0.0229,1.0289,-0.4162,-1.4506,0.4195,-2.0351,0.4292,-0.1561,-0.5828,
6.774154,0.0229,1.0289,-0.4162,-0.9680,0.2128,-3.3005,0.4292,-0.1561,-0.5828,
6.793739,0.0229,1.0289,-0.4162,0.3745,0.0539,-2.4016,0.4292,-0.1561,-0.5828,
6.814264,0.0229,1.0289,-0.4162,-3.7585,-0.3613,0.4110,0.4292,-0.1561,-0.5828,
6.829268,-0.2122,0.9949,0.0610,-3.7585,-0.3613,0.4110,0.4292,-0.1561,-0.5828,
6.831442,-0.2122,0.9949,0.0610,-3.7585,-0.3613,0.4110,0.3663,0.0174,-0.1080,
6.833325,-0.2122,0.9949,0.0610,-1.6352,-0.0407,1.3426,0.3663,0.0174,-0.1080,
6.854346,-0.2122,0.9949,0.0610,-1.0527,0.0759,-1.2987,0.3663,0.0174,-0.1080,
6.874130,-0.2122,0.9949,0.0610,0.6630,0.0151,-1.6605,0.3663,0.0174,-0.1080,
6.893977,-0.2122,0.9949,0.0610,0.0144,-0.0184,-0.6649,0.3663,0.0174,-0.1080,
6.896351,-0.0682,0.9913,-0.1690,0.0144,-0.0184,-0.6649,0.3663,0.0174,-0.1080,
6.897096,-0.0682,0.9913,-0.1690,0.0144,-0.0184,-0.6649,0.1454,0.0679,-0.1090,
6.913897,-0.0682,0.9913,-0.1690,-0.2945,-0.0430,0.2096,0.1454,0.0679,-0.1090,
6.933933,-0.0682,0.9913,-0.1690,0.3034,-0.1262,0.8797,0.1454,0.0679,-0.1090,
6.954201,-0.0682,0.9913,-0.1690,0.3137,-0.0309,0.0204,0.1454,0.0679,-0.1090,
6.961469,-0.0658,0.9935,-0.2176,0.3137,-0.0309,0.0204,0.1454,0.0679,-0.1090,
6.963101,-0.0658,0.9935,-0.2176,0.3137,-0.0309,0.0204,0.2247,-0.1274,-0.1873,
6.975517,-0.0658,0.9935,-0.2176,-0.4697,-0.0616,-1.2453,0.2247,-0.1274,-0.1873,
6.994065,-0.0658,0.9935,-0.2176,-0.4292,-0.0543,-0.5229,0.2247,-0.1274,-0.1873,
7.014017,-0.0658,0.9935,-0.2176,0.2058,-0.0776,0.0731,0.2247,-0.1274,-0.1873,
7.027792,-0.1408,0.9814,-0.1144,0.2058,-0.0776,0.0731,0.2247,-0.1274,-0.1873,
7.030215,-0.1408,0.9814,-0.1144,0.2058,-0.0776,0.0731,0.1380,-0.0997,-0.1665,
7.033502,-0.1408,0.9814,-0.1144,-0.6846,-0.0417,0.1391,0.1380,-0.0997,-0.1665,
7.054487,-0.1408,0.9814,-0.1144,-1.2846,0.0530,-0.2168,0.1380,-0.0997,-0.1665,
7.073859,-0.1408,0.9814,-0.1144,0.5318,-0.0399,-0.3699,0.1380,-0.0997,-0.1665,
7.093757,-0.1767,0.9884,-0.2055,0.5318,-0.0399,-0.3699,0.1380,-0.0997,-0.1665,
7.096385,-0.1767,0.9884,-0.2055,0.5318,-0.0399,-0.3699,0.0762,-0.1040,-0.0925,
7.097408,-0.1767,0.9884,-0.2055,-0.8849,0.0040,-0.4783,0.0762,-0.1040,-0.0925,
7.113967,-0.1767,0.9884,-0.2055,-0.4557,-0.0013,-0.7570,0.0762,-0.1040,-0.0925,
7.134520,-0.1767,0.9884,-0.2055,0.4195,0.0891,-0.4944,0.0762,-0.1040,-0.0925,
7.155294,-0.1767,0.9884,-0.2055,0.2428,0.0320,-0.0324,0.0762,-0.1040,-0.0925,
7.159402,-0.0715,0.9900,-0.1162,0.2428,0.0320,-0.0324,0.0762,-0.1040,-0.0925,
7.161601,-0.0715,0.9900,-0.1162,0.2428,0.0320,-0.0324,0.0107,-0.0188,-0.1506,
7.174027,-0.0715,0.9900,-0.1162,-0.5609,0.0150,0.0475,0.0107,-0.0188,-0.1506,
7.194113,-0.0715,0.9900,-0.1162,-0.3727,0.0474,-0.7257,0.0107,-0.0188,-0.1506,
7.214283,-0.0715,0.9900,-0.1162,0.8630,0.1558,-1.0860,0.0107,-0.0188,-0.1506,
7.225486,-0.0298,0.9987,-0.2054,0.8630,0.1558,-1.0860,0.0107,-0.0188,-0.1506,
7.227763,-0.0298,0.9987,-0.2054,0.8630,0.1558,-1.0860,-0.1308,-0.0502,-0.2352,
7.233398,-0.0298,0.9987,-0.2054,0.4469,0.1366,-0.1433,-0.1308,-0.0502,-0.2352,
7.253860,-0.0298,0.9987,-0.2054,0.0284,0.1573,0.5079,-0.1308,-0.0502,-0.2352,
7.275593,-0.0298,0.9987,-0.2054,0.1152,0.2966,-0.1940,-0.1308,-0.0502,-0.2352,
7.292184,0.0209,1.0892,-0.1952,0.1152,0.2966,-0.1940,-0.1308,-0.0502,-0.2352,
7.294814,0.0209,1.0892,-0.1952,0.1152,0.2966,-0.1940,-0.2330,0.0600,-0.3880,
7.296172,0.0209,1.0892,-0.1952,1.2642,1.0139,-0.4932,-0.2330,0.0600,-0.3880,
7.313929,0.0209,1.0892,-0.1952,0.6744,1.0063,-0.8745,-0.2330,0.0600,-0.3880,
7.336605,0.0209,1.0892,-0.1952,3.8015,3.4328,-0.7821,-0.2330,0.0600,-0.3880,
7.355902,0.0209,1.0892,-0.1952,5.0412,2.8244,-0.4322,-0.2330,0.0600,-0.3880,
7.358655,0.3326,1.2860,-0.0694,5.0412,2.8244,-0.4322,-0.2330,0.0600,-0.3880,
7.360218,0.3326,1.2860,-0.0694,5.0412,2.8244,-0.4322,-0.2543,-0.2594,-1.3408,
7.374051,0.3326,1.2860,-0.0694,2.0156,2.5098,0.8680,-0.2543,-0.2594,-1.3408,
7.393777,0.3326,1.2860,-0.0694,2.7044,2.6835,0.8401,-0.2543,-0.2594,-1.3408,
7.414852,0.3326,1.2860,-0.0694,4.3735,2.0107,-0.4064,-0.2543,-0.2594,-1.3408,
7.423570,0.1977,1.2432,-0.1918,4.3735,2.0107,-0.4064,-0.2543,-0.2594,-1.3408,
7.426122,0.1977,1.2432,-0.1918,4.3735,2.0107,-0.4064,-0.1809,0.2021,-2.0872,
7.433714,0.1977,1.2432,-0.1918,4.4532,3.7824,-0.6313,-0.1809,0.2021,-2.0872,
7.454223,0.1977,1.2432,-0.1918,5.2522,5.3499,-0.6078,-0.1809,0.2021,-2.0872,
7.473813,0.1977,1.2432,-0.1918,4.5856,2.1720,0.2568,-0.1809,0.2021,-2.0872,
7.489927,-0.3699,1.1992,-0.1814,4.5856,2.1720,0.2568,-0.1809,0.2021,-2.0872,
7.493428,-0.3699,1.1992,-0.1814,4.5856,2.1720,0.2568,0.2631,-0.1567,-3.1736,
7.494834,-0.3699,1.1992,-0.1814,-0.2749,2.8288,-1.0554,0.2631,-0.1567,-3.1736,
7.514006,-0.3699,1.1992,-0.1814,-1.0731,-1.5133,-0.3336,0.2631,-0.1567,-3.1736,
7.534548,-0.3699,1.1992,-0.1814,2.1481,-0.6798,1.3734,0.2631,-0.1567,-3.1736,
7.554651,-0.3699,1.1992,-0.1814,6.0981,-1.5718,-1.3074,0.2631,-0.1567,-3.1736,
7.558299,0.2343,0.6534,-0.2062,6.0981,-1.5718,-1.3074,0.2631,-0.1567,-3.1736,
7.559616,0.2343,0.6534,-0.2062,6.0981,-1.5718,-1.3074,-0.0249,0.5859,-1.0278,
7.574098,0.2343,0.6534,-0.2062,5.8683,-2.0438,0.3922,-0.0249,0.5859,-1.0278,
7.594318,0.2343,0.6534,-0.2062,5.3278,-2.3363,-1.0281,-0.0249,0.5859,-1.0278,
7.614505,0.2343,0.6534,-0.2062,2.6546,-1.5452,-1.0746,-0.0249,0.5859,-1.0278,
7.624053,-0.2393,0.6430,-0.2322,2.6546,-1.5452,-1.0746,-0.0249,0.5859,-1.0278,
7.626833,-0.2393,0.6430,-0.2322,2.6546,-1.5452,-1.0746,-0.1995,0.6359,0.5217,
7.634127,-0.2393,0.6430,-0.2322,4.0788,-1.9892,-0.4188,-0.1995,0.6359,0.5217,
7.654241,-0.2393,0.6430,-0.2322,3.2541,-2.4251,0.3260,-0.1995,0.6359,0.5217,
7.674694,-0.2393,0.6430,-0.2322,2.9166,-2.0555,0.1721,-0.1995,0.6359,0.5217,
7.687832,-0.1316,0.6968,-0.1247,2.9166,-2.0555,0.1721,-0.1995,0.6359,0.5217,
7.689879,-0.1316,0.6968,-0.1247,2.9166,-2.0555,0.1721,-0.1708,0.4842,2.1081,
7.695986,-0.1316,0.6968,-0.1247,3.8109,-1.5003,0.2737,-0.1708,0.4842,2.1081,
7.713980,-0.1316,0.6968,-0.1247,3.5664,-0.9971,0.5999,-0.1708,0.4842,2.1081,
7.734021,-0.1316,0.6968,-0.1247,2.9590,-0.6635,0.6068,-0.1708,0.4842,2.1081,
7.753502,-0.1068,0.9422,-0.1057,2.9590,-0.6635,0.6068,-0.1708,0.4842,2.1081,
7.756407,-0.1068,0.9422,-0.1057,2.9590,-0.6635,0.6068,-0.2064,0.3426,2.8406,
7.757814,-0.1068,0.9422,-0.1057,2.4274,0.0483,0.4313,-0.2064,0.3426,2.8406,
7.774160,-0.1068,0.9422,-0.1057,1.1973,0.6182,0.1905,-0.2064,0.3426,2.8406,
7.793948,-0.1068,0.9422,-0.1057,1.6491,1.5020,-0.1417,-0.2064,0.3426,2.8406,
7.814117,-0.1068,0.9422,-0.1057,1.0068,2.7402,-0.2495,-0.2064,0.3426,2.8406,
7.818966,-0.1196,1.2892,-0.1676,1.0068,2.7402,-0.2495,-0.2064,0.3426,2.8406,
7.820159,-0.1196,1.2892,-0.1676,1.0068,2.7402,-0.2495,-0.4561,-0.2317,2.9204,
7.833994,-0.1196,1.2892,-0.1676,-0.7386,3.1740,-0.3491,-0.4561,-0.2317,2.9204,
7.854837,-0.1196,1.2892,-0.1676,-1.5838,2.9269,0.3371,-0.4561,-0.2317,2.9204,
7.874078,-0.1196,1.2892,-0.1676,-1.1542,2.8997,0.5927,-0.4561,-0.2317,2.9204,
7.885348,-0.2079,1.3218,-0.0468,-1.1542,2.8997,0.5927,-0.4561,-0.2317,2.9204,
7.886960,-0.2079,1.3218,-0.0468,-1.1542,2.8997,0.5927,-0.2203,-0.8008,2.2502,
7.893809,-0.2079,1.3218,-0.0468,-3.2745,3.1380,0.6030,-0.2203,-0.8008,2.2502,
7.913959,-0.2079,1.3218,-0.0468,-6.7705,2.4264,0.4344,-0.2203,-0.8008,2.2502,
7.935259,-0.2079,1.3218,-0.0468,-8.6246,1.3997,0.2168,-0.2203,-0.8008,2.2502,
7.952132,-0.6155,1.0445,-0.0404,-8.6246,1.3997,0.2168,-0.2203,-0.8008,2.2502,
7.955141,-0.6155,1.0445,-0.0404,-8.6246,1.3997,0.2168,-0.0478,-0.2605,2.2130,
7.957039,-0.6155,1.0445,-0.0404,-7.7012,0.6068,0.5893,-0.0478,-0.2605,2.2130,
7.973887,-0.6155,1.0445,-0.0404,-5.7136,0.3860,0.4818,-0.0478,-0.2605,2.2130,
7.994217,-0.6155,1.0445,-0.0404,-4.4302,-0.1187,0.2497,-0.0478,-0.2605,2.2130,
8.014317,-0.6155,1.0445,-0.0404,-4.1382,0.0042,0.4795,-0.0478,-0.2605,2.2130,
8.017233,-0.2009,0.9710,-0.0613,-4.1382,0.0042,0.4795,-0.0478,-0.2605,2.2130,
8.018249,-0.2009,0.9710,-0.0613,-4.1382,0.0042,0.4795,-0.0265,-0.2876,0.3503,
8.033877,-0.2009,0.9710,-0.0613,-6.1020,0.3744,-0.0313,-0.0265,-0.2876,0.3503,
8.053954,-0.2009,0.9710,-0.0613,-6.8342,0.0056,-0.1035,-0.0265,-0.2876,0.3503,
8.074774,-0.2009,0.9710,-0.0613,-5.8915,0.0873,-0.2079,-0.0265,-0.2876,0.3503,
8.083716,-0.2875,0.9676,-0.1452,-5.8915,0.0873,-0.2079,-0.0265,-0.2876,0.3503,
8.085446,-0.2875,0.9676,-0.1452,-5.8915,0.0873,-0.2079,-0.0052,0.1026,-0.9703,
8.094236,-0.2875,0.9676,-0.1452,-1.4539,7.7433,-0.1881,-0.0052,0.1026,-0.9703,
8.113924,-0.2875,0.9676,-0.1452,1.9611,-4.8199,-6.0681,-0.0052,0.1026,-0.9703,
8.133926,-0.2875,0.9676,-0.1452,-2.6120,1.7111,-1.5351,-0.0052,0.1026,-0.9703,
8.149389,0.1486,0.9114,-0.2227,-2.6120,1.7111,-1.5351,-0.0052,0.1026,-0.9703,
8.151944,0.1486,0.9114,-0.2227,-2.6120,1.7111,-1.5351,0.1614,0.3618,-1.4803,
8.153393,0.1486,0.9114,-0.2227,0.0332,-0.5822,-0.5143,0.1614,0.3618,-1.4803,
8.174179,0.1486,0.9114,-0.2227,2.2257,0.6910,4.1387,0.1614,0.3618,-1.4803,
8.194204,0.1486,0.9114,-0.2227,-1.5495,-0.2540,2.0346,0.1614,0.3618,-1.4803,
8.214331,0.1486,0.9114,-0.2227,-11.3007,-0.1885,4.4721,0.1614,0.3618,-1.4803,
8.218161,-1.0503,1.0275,0.3920,-11.3007,-0.1885,4.4721,0.1614,0.3618,-1.4803,
8.219337,-1.0503,1.0275,0.3920,-11.3007,-0.1885,4.4721,0.2242,0.1957,-1.0028,
8.237324,-1.0503,1.0275,0.3920,-2.5968,0.2030,3.5737,0.2242,0.1957,-1.0028,
8.254945,-1.0503,1.0275,0.3920,-2.7086,0.3043,-4.3743,0.2242,0.1957,-1.0028,
8.274083,-1.0503,1.0275,0.3920,1.9224,0.3262,-7.1348,0.2242,0.1957,-1.0028,
8.281282,0.1336,0.9824,-0.5404,1.9224,0.3262,-7.1348,0.2242,0.1957,-1.0028,
8.282645,0.1336,0.9824,-0.5404,1.9224,0.3262,-7.1348,-0.1016,0.4113,-0.9608,
8.293836,0.1336,0.9824,-0.5404,-0.3433,-0.1922,-0.4829,-0.1016,0.4113,-0.9608,
8.314337,0.1336,0.9824,-0.5404,-8.2083,0.1014,3.9498,-0.1016,0.4113,-0.9608,
8.334149,0.1336,0.9824,-0.5404,-2.0847,0.0213,1.8149,-0.1016,0.4113,-0.9608,
8.347384,0.0642,0.9789,-0.1123,-2.0847,0.0213,1.8149,-0.1016,0.4113,-0.9608,
8.349412,0.0642,0.9789,-0.1123,-2.0847,0.0213,1.8149,0.3940,-0.1982,-0.1303,
8.353877,0.0642,0.9789,-0.1123,0.5881,-0.0173,-0.1675,0.3940,-0.1982,-0.1303,
8.373493,0.0642,0.9789,-0.1123,-1.1117,0.0544,-1.7015,0.3940,-0.1982,-0.1303,
8.393958,0.0642,0.9789,-0.1123,-0.1785,0.0544,-1.3434,0.3940,-0.1982,-0.1303,
8.414301,-0.0972,0.9848,-0.1502,-0.1785,0.0544,-1.3434,0.3940,-0.1982,-0.1303,
8.416269,-0.0972,0.9848,-0.1502,-0.1785,0.0544,-1.3434,0.1518,-0.0561,-0.0601,
8.417251,-0.0972,0.9848,-0.1502,-0.4585,-0.0082,0.0513,0.1518,-0.0561,-0.0601,
8.433817,-0.0972,0.9848,-0.1502,-0.4933,-0.0322,0.6676,0.1518,-0.0561,-0.0601,
8.453864,-0.0972,0.9848,-0.1502,0.4151,0.0236,-0.2070,0.1518,-0.0561,-0.0601,
8.473538,-0.0972,0.9848,-0.1502,0.3690,-0.0573,-0.7288,0.1518,-0.0561,-0.0601,
8.479368,-0.0337,0.9792,-0.2526,0.3690,-0.0573,-0.7288,0.1518,-0.0561,-0.0601,
8.480691,-0.0337,0.9792,-0.2526,0.3690,-0.0573,-0.7288,0.1289,-0.0768,-0.1442,
8.494298,-0.0337,0.9792,-0.2526,-0.1335,-0.0313,-0.4560,0.1289,-0.0768,-0.1442,
8.513785,-0.0337,0.9792,-0.2526,-0.1114,-0.0847,0.3004,0.1289,-0.0768,-0.1442,
8.533816,-0.0337,0.9792,-0.2526,-0.9505,-0.0289,0.3656,0.1289,-0.0768,-0.1442,
8.546811,-0.1212,0.9843,-0.2241,-0.9505,-0.0289,0.3656,0.1289,-0.0768,-0.1442,
8.549440,-0.1212,0.9843,-0.2241,-0.9505,-0.0289,0.3656,0.1726,-0.0795,-0.0712,
8.553629,-0.1212,0.9843,-0.2241,-0.1778,-0.0016,-0.7497,0.1726,-0.0795,-0.0712,
8.573948,-0.1212,0.9843,-0.2241,-0.1307,-0.0441,-0.3590,0.1726,-0.0795,-0.0712,
8.594069,-0.1212,0.9843,-0.2241,-0.9782,0.0008,0.1820,0.1726,-0.0795,-0.0712,
8.612067,-0.1371,0.9854,-0.2359,-0.9782,0.0008,0.1820,0.1726,-0.0795,-0.0712,
8.615507,-0.1371,0.9854,-0.2359,-0.9782,0.0008,0.1820,0.1071,-0.0561,-0.0036,
8.617154,-0.1371,0.9854,-0.2359,-0.7070,0.0561,-0.3705,0.1071,-0.0561,-0.0036,
8.634064,-0.1371,0.9854,-0.2359,0.2271,-0.0969,0.0199,0.1071,-0.0561,-0.0036,
8.654405,-0.1371,0.9854,-0.2359,-0.0776,0.0062,-0.0854,0.1071,-0.0561,-0.0036,
8.674367,-0.1371,0.9854,-0.2359,-0.2305,0.0311,-0.4956,0.1071,-0.0561,-0.0036,
8.677245,-0.0869,0.9755,-0.2571,-0.2305,0.0311,-0.4956,0.1071,-0.0561,-0.0036,
8.678930,-0.0869,0.9755,-0.2571,-0.2305,0.0311,-0.4956,0.0656,-0.0246,-0.0590,
8.694224,-0.0869,0.9755,-0.2571,0.0660,-0.0043,0.1653,0.0656,-0.0246,-0.0590,
8.713994,-0.0869,0.9755,-0.2571,0.0130,0.0777,0.0892,0.0656,-0.0246,-0.0590,
8.734360,-0.0869,0.9755,-0.2571,-0.0468,-0.0650,-0.1221,0.0656,-0.0246,-0.0590,
8.745360,-0.0922,0.9777,-0.2393,-0.0468,-0.0650,-0.1221,0.0656,-0.0246,-0.0590,
8.747898,-0.0922,0.9777,-0.2393,-0.0468,-0.0650,-0.1221,0.0736,-0.0385,-0.1261,
8.753884,-0.0922,0.9777,-0.2393,-0.1001,0.0183,-0.0980,0.0736,-0.0385,-0.1261,
8.773619,-0.0922,0.9777,-0.2393,-0.0340,0.1507,-0.2123,0.0736,-0.0385,-0.1261,
8.795282,-0.0922,0.9777,-0.2393,-0.5111,0.0368,-0.6287,0.0736,-0.0385,-0.1261,
8.811911,-0.0749,0.9764,-0.2539,-0.5111,0.0368,-0.6287,0.0736,-0.0385,-0.1261,
8.814937,-0.0749,0.9764,-0.2539,-0.5111,0.0368,-0.6287,-0.0036,-0.0342,-0.1378,
8.816234,-0.0749,0.9764,-0.2539,0.1312,0.0189,-0.4046,-0.0036,-0.0342,-0.1378,
8.833897,-0.0749,0.9764,-0.2539,0.2878,0.0898,0.2020,-0.0036,-0.0342,-0.1378,
8.854378,-0.0749,0.9764,-0.2539,-0.6603,0.2414,-0.5303,-0.0036,-0.0342,-0.1378,
8.873704,-0.0749,0.9764,-0.2539,0.3455,0.2343,-1.0329,-0.0036,-0.0342,-0.1378,
8.877035,-0.0456,0.9907,-0.2841,0.3455,0.2343,-1.0329,-0.0036,-0.0342,-0.1378,
8.878307,-0.0456,0.9907,-0.2841,0.3455,0.2343,-1.0329,-0.1186,0.0259,-0.2075,
8.894992,-0.0456,0.9907,-0.2841,0.2246,0.1941,0.0148,-0.1186,0.0259,-0.2075,
8.914252,-0.0456,0.9907,-0.2841,0.7066,0.8117,-0.1178,-0.1186,0.0259,-0.2075,
8.934133,-0.0456,0.9907,-0.2841,2.6615,2.1344,0.8788,-0.1186,0.0259,-0.2075,
8.941090,0.2239,1.2907,-0.1595,2.6615,2.1344,0.8788,-0.1186,0.0259,-0.2075,
8.942494,0.2239,1.2907,-0.1595,2.6615,2.1344,0.8788,-0.0755,0.1371,-0.6238,
8.954581,0.2239,1.2907,-0.1595,6.0101,4.4161,0.0450,-0.0755,0.1371,-0.6238,
8.973893,0.2239,1.2907,-0.1595,5.0238,3.4149,0.8325,-0.0755,0.1371,-0.6238,
8.995275,0.2239,1.2907,-0.1595,4.4678,3.7904,0.3203,-0.0755,0.1371,-0.6238,
9.007369,0.2742,1.3546,-0.1901,4.4678,3.7904,0.3203,-0.0755,0.1371,-0.6238,
9.009568,0.2742,1.3546,-0.1901,4.4678,3.7904,0.3203,0.1023,0.0749,-2.0627,
9.014470,0.2742,1.3546,-0.1901,4.3744,3.6511,0.1906,0.1023,0.0749,-2.0627,
9.034248,0.2742,1.3546,-0.1901,1.7188,2.0109,1.7560,0.1023,0.0749,-2.0627,
9.054710,0.2742,1.3546,-0.1901,-0.8143,-0.7506,1.6421,0.1023,0.0749,-2.0627,
9.073476,-0.2737,0.7696,-0.0415,-0.8143,-0.7506,1.6421,0.1023,0.0749,-2.0627,
9.076446,-0.2737,0.7696,-0.0415,-0.8143,-0.7506,1.6421,-0.1633,0.3368,-1.2764,
9.077708,-0.2737,0.7696,-0.0415,0.1387,-1.5945,1.6045,-0.1633,0.3368,-1.2764,
9.094083,-0.2737,0.7696,-0.0415,3.1475,-2.1440,2.7765,-0.1633,0.3368,-1.2764,
9.113905,-0.2737,0.7696,-0.0415,1.4015,-1.9293,0.0181,-0.1633,0.3368,-1.2764,
9.134280,-0.2737,0.7696,-0.0415,3.9309,-1.7470,1.1658,-0.1633,0.3368,-1.2764,
9.139435,0.1417,0.7698,-0.0980,3.9309,-1.7470,1.1658,-0.1633,0.3368,-1.2764,
9.140670,0.1417,0.7698,-0.0980,3.9309,-1.7470,1.1658,-0.6035,0.7062,0.4973,
9.154023,0.1417,0.7698,-0.0980,5.0034,-1.2293,0.2011,-0.6035,0.7062,0.4973,
9.173710,0.1417,0.7698,-0.0980,3.8971,-1.3156,0.2168,-0.6035,0.7062,0.4973,
9.194124,0.1417,0.7698,-0.0980,3.1978,-1.3471,0.6155,-0.6035,0.7062,0.4973,
9.205803,0.0880,0.8580,-0.1228,3.1978,-1.3471,0.6155,-0.6035,0.7062,0.4973,
9.207729,0.0880,0.8580,-0.1228,3.1978,-1.3471,0.6155,-0.8239,0.5912,1.1903,
9.216651,0.0880,0.8580,-0.1228,4.0196,-0.5462,0.4869,-0.8239,0.5912,1.1903,
9.233952,0.0880,0.8580,-0.1228,3.9177,0.2890,0.3028,-0.8239,0.5912,1.1903,
9.253886,0.0880,0.8580,-0.1228,2.7111,0.7409,-0.2817,-0.8239,0.5912,1.1903,
9.272208,-0.0057,1.0490,-0.2234,2.7111,0.7409,-0.2817,-0.8239,0.5912,1.1903,
9.274536,-0.0057,1.0490,-0.2234,2.7111,0.7409,-0.2817,-0.8005,1.3285,1.2457,
9.275804,-0.0057,1.0490,-0.2234,1.9796,0.7679,-0.8165,-0.8005,1.3285,1.2457,
9.294442,-0.0057,1.0490,-0.2234,1.7050,0.6181,-1.2811,-0.8005,1.3285,1.2457,
9.313911,-0.0057,1.0490,-0.2234,1.2614,0.6358,-1.6430,-0.8005,1.3285,1.2457,
9.333848,-0.0057,1.0490,-0.2234,1.1213,0.7800,-1.9716,-0.8005,1.3285,1.2457,
9.337160,-0.0200,1.0664,-0.3008,1.1213,0.7800,-1.9716,-0.8005,1.3285,1.2457,
9.338051,-0.0200,1.0664,-0.3008,1.1213,0.7800,-1.9716,-0.7963,1.5526,1.2271,
9.354211,-0.0200,1.0664,-0.3008,0.4099,0.6982,-1.8186,-0.7963,1.5526,1.2271,
9.374308,-0.0200,1.0664,-0.3008,-0.3890,0.4770,-1.7833,-0.7963,1.5526,1.2271,
9.395097,-0.0200,1.0664,-0.3008,-1.1023,0.8460,-2.1212,-0.7963,1.5526,1.2271,
9.403365,-0.1792,1.0990,-0.3589,-1.1023,0.8460,-2.1212,-0.7963,1.5526,1.2271,
9.404465,-0.1792,1.0990,-0.3589,-1.1023,0.8460,-2.1212,-0.7175,1.8677,1.2649,
9.414478,-0.1792,1.0990,-0.3589,-1.5692,1.2813,-2.8075,-0.7175,1.8677,1.2649,
9.433874,-0.1792,1.0990,-0.3589,-1.3531,0.7838,-2.8120,-0.7175,1.8677,1.2649,
9.456609,-0.1792,1.0990,-0.3589,-0.2108,0.4819,-2.4289,-0.7175,1.8677,1.2649,
9.469250,0.0094,1.0481,-0.2520,-0.2108,0.4819,-2.4289,-0.7175,1.8677,1.2649,
9.471915,0.0094,1.0481,-0.2520,-0.2108,0.4819,-2.4289,-0.5924,2.3713,0.8310,
9.474158,0.0094,1.0481,-0.2520,-0.5180,0.4217,-2.4271,-0.5924,2.3713,0.8310,
9.494487,0.0094,1.0481,-0.2520,0.2066,-0.3124,-2.9853,-0.5924,2.3713,0.8310,
9.513795,0.0094,1.0481,-0.2520,-0.0709,0.1677,-2.8175,-0.5924,2.3713,0.8310,
9.534886,0.0094,1.0481,-0.2520,-3.5296,0.5536,-2.8877,-0.5924,2.3713,0.8310,
9.537201,-0.3196,1.0307,-0.3184,-3.5296,0.5536,-2.8877,-0.5924,2.3713,0.8310,
9.537852,-0.3196,1.0307,-0.3184,-3.5296,0.5536,-2.8877,0.1481,3.0011,0.0224,
9.553870,-0.3196,1.0307,-0.3184,-3.7071,-0.7805,-6.1763,0.1481,3.0011,0.0224,
9.573815,-0.3196,1.0307,-0.3184,-1.4385,-1.0542,-5.9059,0.1481,3.0011,0.0224,
9.593825,-0.3196,1.0307,-0.3184,-0.9919,-0.6118,-3.8548,0.1481,3.0011,0.0224,
9.601510,-0.0518,0.9579,-0.2952,-0.9919,-0.6118,-3.8548,0.1481,3.0011,0.0224,
9.603194,-0.0518,0.9579,-0.2952,-0.9919,-0.6118,-3.8548,0.1039,3.0655,-0.3342,
9.614406,-0.0518,0.9579,-0.2952,-1.7632,-0.3504,-3.4428,0.1039,3.0655,-0.3342,
9.635643,-0.0518,0.9579,-0.2952,-3.1718,-0.0638,-4.1359,0.1039,3.0655,-0.3342,
9.654647,-0.0518,0.9579,-0.2952,-5.2528,-0.7084,-4.5235,0.1039,3.0655,-0.3342,
9.668222,-0.3302,0.8628,-0.3299,-5.2528,-0.7084,-4.5235,0.1039,3.0655,-0.3342,
9.670830,-0.3302,0.8628,-0.3299,-5.2528,-0.7084,-4.5235,0.0874,3.8049,-0.0031,
9.673569,-0.3302,0.8628,-0.3299,-3.0611,-1.3589,-3.3938,0.0874,3.8049,-0.0031,
9.693893,-0.3302,0.8628,-0.3299,-1.0721,-0.9087,-1.2605,0.0874,3.8049,-0.0031,
9.714736,-0.3302,0.8628,-0.3299,-1.6437,-0.3445,-1.7643,0.0874,3.8049,-0.0031,
9.733823,0.0150,1.5893,-0.4725,-1.6437,-0.3445,-1.7643,0.0874,3.8049,-0.0031,
9.736381,0.0150,1.5893,-0.4725,-1.6437,-0.3445,-1.7643,0.9647,2.6465,-0.3614,
9.737767,0.0150,1.5893,-0.4725,-1.4436,3.9221,-4.5042,0.9647,2.6465,-0.3614,
9.754023,0.0150,1.5893,-0.4725,4.4873,0.6896,-5.6319,0.9647,2.6465,-0.3614,
9.775224,0.0150,1.5893,-0.4725,-3.8282,-0.2548,-2.4313,0.9647,2.6465,-0.3614,
9.794004,0.0150,1.5893,-0.4725,-2.7259,1.2480,7.9274,0.9647,2.6465,-0.3614,
9.799645,-0.2728,1.1164,0.0369,-2.7259,1.2480,7.9274,0.9647,2.6465,-0.3614,
9.801455,-0.2728,1.1164,0.0369,-2.7259,1.2480,7.9274,0.9061,1.6649,-0.8389,
9.815096,-0.2728,1.1164,0.0369,-5.9506,0.4684,-4.3794,0.9061,1.6649,-0.8389,
9.834156,-0.2728,1.1164,0.0369,-7.4497,0.0670,-1.4144,0.9061,1.6649,-0.8389,
9.854932,-0.2728,1.1164,0.0369,-0.7099,-0.6050,1.7088,0.9061,1.6649,-0.8389,
9.866903,0.2043,1.0105,-0.3717,-0.7099,-0.6050,1.7088,0.9061,1.6649,-0.8389,
9.869797,0.2043,1.0105,-0.3717,-0.7099,-0.6050,1.7088,0.4462,-0.2424,-0.0217,
9.874027,0.2043,1.0105,-0.3717,2.7049,0.1036,-2.9243,0.4462,-0.2424,-0.0217,
9.893724,0.2043,1.0105,-0.3717,1.4765,0.0977,0.6601,0.4462,-0.2424,-0.0217,
9.914942,0.2043,1.0105,-0.3717,-2.3761,0.5961,-3.7104,0.4462,-0.2424,-0.0217,
9.932975,-0.2248,1.0126,-0.1837,-2.3761,0.5961,-3.7104,0.4462,-0.2424,-0.0217,
9.935923,-0.2248,1.0126,-0.1837,-2.3761,0.5961,-3.7104,0.1465,0.0445,0.0517,
9.936687,-0.2248,1.0126,-0.1837,-1.4589,0.1534,-1.1948,0.1465,0.0445,0.0517,
9.953969,-0.2248,1.0126,-0.1837,1.4440,-0.3359,0.0475,0.1465,0.0445,0.0517,
9.973962,-0.2248,1.0126,-0.1837,-1.2942,-0.0876,1.0464,0.1465,0.0445,0.0517,
9.994015,-0.2248,1.0126,-0.1837,-0.9888,0.0238,0.6162,0.1465,0.0445,0.0517,
9.997308,-0.1284,0.9932,-0.0605,-0.9888,0.0238,0.6162,0.1465,0.0445,0.0517,
9.998962,-0.1284,0.9932,-0.0605,-0.9888,0.0238,0.6162,0.2402,-0.0332,0.0964,
10.014415,-0.1284,0.9932,-0.0605,-0.1227,0.0259,-1.2988,0.2402,-0.0332,0.0964,
10.036572,-0.1284,0.9932,-0.0605,0.2733,0.0861,-1.0884,0.2402,-0.0332,0.0964,
10.054179,-0.1284,0.9932,-0.0605,0.7156,-0.0217,-0.7085,0.2402,-0.0332,0.0964,
10.066858,-0.1873,0.9895,-0.0698,0.7156,-0.0217,-0.7085,0.2402,-0.0332,0.0964,
10.069387,-0.1873,0.9895,-0.0698,0.7156,-0.0217,-0.7085,0.0113,0.0323,-0.0042,
10.073724,-0.1873,0.9895,-0.0698,-1.5361,0.1359,0.8471,0.0113,0.0323,-0.0042,
10.094139,-0.1873,0.9895,-0.0698,0.3702,0.0670,-0.0153,0.0113,0.0323,-0.0042,
10.113567,-0.1873,0.9895,-0.0698,0.8004,0.0080,-0.2549,0.0113,0.0323,-0.0042,
10.129353,-0.0332,0.9996,-0.1624,0.8004,0.0080,-0.2549,0.0113,0.0323,-0.0042,
10.130662,-0.0332,0.9996,-0.1624,0.8004,0.0080,-0.2549,0.0592,0.0914,-0.0350,
10.134737,-0.0332,0.9996,-0.1624,0.3150,0.0383,-0.7797,0.0592,0.0914,-0.0350,
10.153868,-0.0332,0.9996,-0.1624,-0.2866,-0.0582,-0.2771,0.0592,0.0914,-0.0350,
10.174613,-0.0332,0.9996,-0.1624,-0.3879,-0.0667,0.2330,0.0592,0.0914,-0.0350,
10.193913,-0.0332,0.9996,-0.1624,-0.0053,0.1405,0.0417,0.0592,0.0914,-0.0350,
10.196439,-0.0647,0.9894,-0.1114,-0.0053,0.1405,0.0417,0.0592,0.0914,-0.0350,
10.197637,-0.0647,0.9894,-0.1114,-0.0053,0.1405,0.0417,0.0916,0.0302,0.0107,
10.213833,-0.0647,0.9894,-0.1114,0.1290,0.0340,-0.5771,0.0916,0.0302,0.0107,
10.234724,-0.0647,0.9894,-0.1114,0.0223,0.0058,-0.6046,0.0916,0.0302,0.0107,
10.254474,-0.0647,0.9894,-0.1114,-0.1620,-0.0328,-0.4528,0.0916,0.0302,0.0107,
10.261285,-0.0741,0.9889,-0.1105,-0.1620,-0.0328,-0.4528,0.0916,0.0302,0.0107,
10.262430,-0.0741,0.9889,-0.1105,-0.1620,-0.0328,-0.4528,0.0086,0.0744,-0.0116,
10.274024,-0.0741,0.9889,-0.1105,0.1045,-0.0815,0.1767,0.0086,0.0744,-0.0116,
10.293783,-0.0741,0.9889,-0.1105,0.2546,-0.0024,0.1425,0.0086,0.0744,-0.0116,
10.313935,-0.0741,0.9889,-0.1105,-0.1491,0.0090,-0.5815,0.0086,0.0744,-0.0116,
10.327764,-0.0920,0.9905,-0.1703,-0.1491,0.0090,-0.5815,0.0086,0.0744,-0.0116,
10.329311,-0.0920,0.9905,-0.1703,-0.1491,0.0090,-0.5815,0.0113,0.0451,-0.0372,
10.334205,-0.0920,0.9905,-0.1703,-0.1889,-0.0189,-0.7002,0.0113,0.0451,-0.0372,
10.354533,-0.0920,0.9905,-0.1703,0.0126,0.0109,-0.5818,0.0113,0.0451,-0.0372,
10.373898,-0.0920,0.9905,-0.1703,0.0455,-0.0676,0.0119,0.0113,0.0451,-0.0372,
10.393572,-0.0017,0.9929,-0.1175,0.0455,-0.0676,0.0119,0.0113,0.0451,-0.0372,
10.396284,-0.0017,0.9929,-0.1175,0.0455,-0.0676,0.0119,-0.0356,0.0190,-0.1165,
10.397513,-0.0017,0.9929,-0.1175,0.7180,-0.0189,-0.1429,-0.0356,0.0190,-0.1165,
10.414480,-0.0017,0.9929,-0.1175,-0.0653,0.0604,-0.7375,-0.0356,0.0190,-0.1165,
10.434214,-0.0017,0.9929,-0.1175,-0.3518,0.0711,-0.6928,-0.0356,0.0190,-0.1165,
10.454477,-0.0017,0.9929,-0.1175,-0.8848,-0.1645,-0.1014,-0.0356,0.0190,-0.1165,
10.459283,-0.1771,0.9788,-0.0553,-0.8848,-0.1645,-0.1014,-0.0356,0.0190,-0.1165,
10.460167,-0.1771,0.9788,-0.0553,-0.8848,-0.1645,-0.1014,-0.1463,-0.0050,-0.0116,
10.474299,-0.1771,0.9788,-0.0553,-0.4827,-0.0290,0.2910,-0.1463,-0.0050,-0.0116,
10.494265,-0.1771,0.9788,-0.0553,0.0915,-0.0021,-0.5387,-0.1463,-0.0050,-0.0116,
10.513746,-0.1771,0.9788,-0.0553,-0.2051,0.0048,-0.9033,-0.1463,-0.0050,-0.0116,
10.525260,-0.0877,1.0008,-0.1791,-0.2051,0.0048,-0.9033,-0.1463,-0.0050,-0.0116,
10.526879,-0.0877,1.0008,-0.1791,-0.2051,0.0048,-0.9033,-0.2756,-0.0710,0.0347,
10.534207,-0.0877,1.0008,-0.1791,0.0457,0.0109,-0.8293,-0.2756,-0.0710,0.0347,
10.553959,-0.0877,1.0008,-0.1791,0.5408,-0.0330,-0.1343,-0.2756,-0.0710,0.0347,
10.574251,-0.0877,1.0008,-0.1791,0.9475,0.0805,-0.4264,-0.2756,-0.0710,0.0347,
10.591811,-0.1425,0.9882,-0.0947,0.9475,0.0805,-0.4264,-0.2756,-0.0710,0.0347,
10.593881,-0.1425,0.9882,-0.0947,0.9475,0.0805,-0.4264,-0.4300,-0.1396,-0.1463,
10.595854,-0.1425,0.9882,-0.0947,-0.5614,-0.0786,-0.3818,-0.4300,-0.1396,-0.1463,
10.613642,-0.1425,0.9882,-0.0947,-0.7894,-0.0214,-1.0870,-0.4300,-0.1396,-0.1463,
10.634416,-0.1425,0.9882,-0.0947,0.0042,-0.0738,-0.5713,-0.4300,-0.1396,-0.1463,
10.654284,-0.1425,0.9882,-0.0947,0.2464,0.0017,-0.4711,-0.4300,-0.1396,-0.1463,
10.657124,-0.0648,1.0006,-0.0781,0.2464,0.0017,-0.4711,-0.4300,-0.1396,-0.1463,
10.658568,-0.0648,1.0006,-0.0781,0.2464,0.0017,-0.4711,-0.6504,-0.0944,-0.0771,
10.673566,-0.0648,1.0006,-0.0781,0.0728,-0.0091,-0.6167,-0.6504,-0.0944,-0.0771,
10.693718,-0.0648,1.0006,-0.0781,0.0715,-0.0570,-0.9870,-0.6504,-0.0944,-0.0771,
10.713638,-0.0648,1.0006,-0.0781,0.3353,0.3392,-0.5122,-0.6504,-0.0944,-0.0771,
10.723383,-0.0686,1.0158,-0.0257,0.3353,0.3392,-0.5122,-0.6504,-0.0944,-0.0771,
10.725393,-0.0686,1.0158,-0.0257,0.3353,0.3392,-0.5122,-0.7414,0.0690,-0.1356,
10.734553,-0.0686,1.0158,-0.0257,0.2918,0.2863,-0.3509,-0.7414,0.0690,-0.1356,
10.753808,-0.0686,1.0158,-0.0257,0.0562,0.1966,-0.6771,-0.7414,0.0690,-0.1356,
10.773768,-0.0686,1.0158,-0.0257,-0.1620,1.0903,-1.2264,-0.7414,0.0690,-0.1356,
10.789248,0.0261,1.4852,-0.1109,-0.1620,1.0903,-1.2264,-0.7414,0.0690,-0.1356,
10.791414,0.0261,1.4852,-0.1109,-0.1620,1.0903,-1.2264,-0.7787,0.2617,-0.1585,
10.793390,0.0261,1.4852,-0.1109,1.4847,4.8311,-1.9393,-0.7787,0.2617,-0.1585,
10.814243,0.0261,1.4852,-0.1109,2.8965,5.0039,-6.2929,-0.7787,0.2617,-0.1585,
10.833602,0.0261,1.4852,-0.1109,3.6186,3.9220,-5.1499,-0.7787,0.2617,-0.1585,
10.856781,0.0261,1.4852,-0.1109,6.5314,0.8008,4.3097,-0.7787,0.2617,-0.1585,
10.859592,0.4797,1.0091,0.3092,6.5314,0.8008,4.3097,-0.7787,0.2617,-0.1585,
10.860615,0.4797,1.0091,0.3092,6.5314,0.8008,4.3097,-0.2602,2.0344,-1.1199,
10.874010,0.4797,1.0091,0.3092,2.7363,-1.7395,-1.0763,-0.2602,2.0344,-1.1199,
10.894391,0.4797,1.0091,0.3092,1.6279,0.2474,-2.3619,-0.2602,2.0344,-1.1199,
10.913906,0.4797,1.0091,0.3092,8.3158,-0.7580,-1.9595,-0.2602,2.0344,-1.1199,
10.921574,0.5816,0.8393,-0.1507,8.3158,-0.7580,-1.9595,-0.2602,2.0344,-1.1199,
10.924445,0.5816,0.8393,-0.1507,8.3158,-0.7580,-1.9595,0.4270,6.0625,-0.8820,
10.936119,0.5816,0.8393,-0.1507,7.3084,-1.6506,-3.9289,0.4270,6.0625,-0.8820,
10.954123,0.5816,0.8393,-0.1507,6.4678,-1.8438,-4.4404,0.4270,6.0625,-0.8820,
10.974704,0.5816,0.8393,-0.1507,3.7775,-1.9988,-5.1115,0.4270,6.0625,-0.8820,
10.987680,0.0657,0.7787,-0.5297,3.7775,-1.9988,-5.1115,0.4270,6.0625,-0.8820,
10.990487,0.0657,0.7787,-0.5297,3.7775,-1.9988,-5.1115,0.0986,5.4519,-0.4992,
10.993897,0.0657,0.7787,-0.5297,3.5576,-1.5933,-4.7365,0.0986,5.4519,-0.4992,
11.015381,0.0657,0.7787,-0.5297,3.6308,-0.6133,-4.7639,0.0986,5.4519,-0.4992,
11.036479,0.0657,0.7787,-0.5297,2.7914,-0.3395,-4.8470,0.0986,5.4519,-0.4992,
11.054873,-0.1364,0.9189,-0.5762,2.7914,-0.3395,-4.8470,0.0986,5.4519,-0.4992,
11.057913,-0.1364,0.9189,-0.5762,2.7914,-0.3395,-4.8470,-0.5812,3.7708,0.3216,
11.059226,-0.1364,0.9189,-0.5762,1.6226,-0.3184,-4.4795,-0.5812,3.7708,0.3216,
11.073870,-0.1364,0.9189,-0.5762,-0.0392,-0.2210,-3.9553,-0.5812,3.7708,0.3216,
11.093946,-0.1364,0.9189,-0.5762,1.4665,0.3521,-3.5385,-0.5812,3.7708,0.3216,
11.113930,-0.1364,0.9189,-0.5762,2.2596,0.4414,-2.8845,-0.5812,3.7708,0.3216,
11.119935,0.0792,0.9932,-0.3916,2.2596,0.4414,-2.8845,-0.5812,3.7708,0.3216,
11.122461,0.0792,0.9932,-0.3916,2.2596,0.4414,-2.8845,-0.7462,2.2712,1.1451,
11.136621,0.0792,0.9932,-0.3916,2.6947,-0.0860,-1.8089,-0.7462,2.2712,1.1451,
11.153842,0.0792,0.9932,-0.3916,2.7401,-0.4059,-1.2586,-0.7462,2.2712,1.1451,
11.173889,0.0792,0.9932,-0.3916,3.4166,0.5703,-1.0868,-0.7462,2.2712,1.1451,
11.189130,0.0244,1.1016,-0.2974,3.4166,0.5703,-1.0868,-0.7462,2.2712,1.1451,
11.191986,0.0244,1.1016,-0.2974,3.4166,0.5703,-1.0868,-0.1883,2.2548,0.8922,
11.193646,0.0244,1.1016,-0.2974,0.1222,1.1778,-2.1675,-0.1883,2.2548,0.8922,
11.214481,0.0244,1.1016,-0.2974,-2.7448,0.8315,-3.0477,-0.1883,2.2548,0.8922,
11.233941,0.0244,1.1016,-0.2974,-1.7208,0.2772,-1.8385,-0.1883,2.2548,0.8922,
11.253920,-0.1489,0.9877,-0.3170,-1.7208,0.2772,-1.8385,-0.1883,2.2548,0.8922,
11.257049,-0.1489,0.9877,-0.3170,-1.7208,0.2772,-1.8385,-0.3379,1.6362,1.4171,
11.258560,-0.1489,0.9877,-0.3170,-1.2791,-0.0657,-1.9290,-0.3379,1.6362,1.4171,
11.273930,-0.1489,0.9877,-0.3170,-0.5315,1.1033,-2.3502,-0.3379,1.6362,1.4171,
11.294596,-0.1489,0.9877,-0.3170,-1.0509,1.8352,-2.6618,-0.3379,1.6362,1.4171,
11.314204,-0.1489,0.9877,-0.3170,-5.2662,1.2731,-1.7812,-0.3379,1.6362,1.4171,
11.317532,-0.6060,1.0710,-0.2352,-5.2662,1.2731,-1.7812,-0.3379,1.6362,1.4171,
11.319114,-0.6060,1.0710,-0.2352,-5.2662,1.2731,-1.7812,-0.4641,0.0350,0.6932,
11.334029,-0.6060,1.0710,-0.2352,-8.5726,-0.5714,-0.1405,-0.4641,0.0350,0.6932,
11.354593,-0.6060,1.0710,-0.2352,-7.9011,-1.3281,-0.1466,-0.4641,0.0350,0.6932,
11.374090,-0.6060,1.0710,-0.2352,-5.4342,-0.8851,-0.7396,-0.4641,0.0350,0.6932,
11.383468,-0.3435,0.9316,-0.1948,-5.4342,-0.8851,-0.7396,-0.4641,0.0350,0.6932,
11.385409,-0.3435,0.9316,-0.1948,-5.4342,-0.8851,-0.7396,0.1225,-0.2972,1.0855,
11.393961,-0.3435,0.9316,-0.1948,-4.2947,-0.3748,-1.2606,0.1225,-0.2972,1.0855,
11.413921,-0.3435,0.9316,-0.1948,-4.6477,-0.2782,-0.9908,0.1225,-0.2972,1.0855,
11.433915,-0.3435,0.9316,-0.1948,-6.2842,-0.7497,-0.7802,0.1225,-0.2972,1.0855,
11.449506,0.3815,1.9009,-0.1246,-6.2842,-0.7497,-0.7802,0.1225,-0.2972,1.0855,
11.451294,0.3815,1.9009,-0.1246,-6.2842,-0.7497,-0.7802,0.3834,0.4512,-0.4742,
11.455396,0.3815,1.9009,-0.1246,2.8920,8.2437,-1.0899,0.3834,0.4512,-0.4742,
11.474287,0.3815,1.9009,-0.1246,-2.7050,-3.4398,-2.6997,0.3834,0.4512,-0.4742,
11.494219,0.3815,1.9009,-0.1246,-7.5575,-2.4274,-1.9742,0.3834,0.4512,-0.4742,
11.513990,0.3815,1.9009,-0.1246,1.5524,6.1133,-0.1061,0.3834,0.4512,-0.4742,
11.517089,0.3376,1.4576,0.0278,1.5524,6.1133,-0.1061,0.3834,0.4512,-0.4742,
11.518009,0.3376,1.4576,0.0278,1.5524,6.1133,-0.1061,-0.0611,1.7906,-1.2344,
11.534411,0.3376,1.4576,0.0278,1.4980,-2.5720,5.5394,-0.0611,1.7906,-1.2344,
11.554972,0.3376,1.4576,0.0278,-2.4236,-0.6621,1.0581,-0.0611,1.7906,-1.2344,
11.573882,0.3376,1.4576,0.0278,-17.0875,1.0067,1.7989,-0.0611,1.7906,-1.2344,
11.581484,-0.9225,1.0801,0.0652,-17.0875,1.0067,1.7989,-0.0611,1.7906,-1.2344,
11.583768,-0.9225,1.0801,0.0652,-17.0875,1.0067,1.7989,0.6224,-0.4239,-0.5152,
11.599786,-0.9225,1.0801,0.0652,-1.5510,0.1676,0.3053,0.6224,-0.4239,-0.5152,
11.616226,-0.9225,1.0801,0.0652,-0.0554,0.3319,-2.9394,0.6224,-0.4239,-0.5152,
11.634054,-0.9225,1.0801,0.0652,-2.9466,0.1601,-4.4572,0.6224,-0.4239,-0.5152,
11.647478,0.0081,0.9761,-0.0976,-2.9466,0.1601,-4.4572,0.6224,-0.4239,-0.5152,
11.649786,0.0081,0.9761,-0.0976,-2.9466,0.1601,-4.4572,0.1215,0.1707,-0.1703,
11.655807,0.0081,0.9761,-0.0976,0.9442,-0.2239,1.3082,0.1215,0.1707,-0.1703,
11.673902,0.0081,0.9761,-0.0976,-0.6190,0.0080,1.0185,0.1215,0.1707,-0.1703,
11.694423,0.0081,0.9761,-0.0976,-1.0332,-0.0216,0.9893,0.1215,0.1707,-0.1703,
11.713934,-0.0308,0.9915,-0.2198,-1.0332,-0.0216,0.9893,0.1215,0.1707,-0.1703,
11.716430,-0.0308,0.9915,-0.2198,-1.0332,-0.0216,0.9893,0.3264,-0.0678,-0.0675,
11.717349,-0.0308,0.9915,-0.2198,0.2505,0.0284,-0.5235,0.3264,-0.0678,-0.0675,
11.733898,-0.0308,0.9915,-0.2198,0.0587,0.0685,-1.2640,0.3264,-0.0678,-0.0675,
11.755094,-0.0308,0.9915,-0.2198,0.2939,0.0965,-1.2190,0.3264,-0.0678,-0.0675,
11.774328,-0.0308,0.9915,-0.2198,0.5969,0.0524,0.1962,0.3264,-0.0678,-0.0675,
11.779617,-0.0490,0.9884,-0.1004,0.5969,0.0524,0.1962,0.3264,-0.0678,-0.0675,
11.781039,-0.0490,0.9884,-0.1004,0.5969,0.0524,0.1962,0.1369,-0.0417,-0.1750,
11.794005,-0.0490,0.9884,-0.1004,-0.3411,-0.0005,0.7969,0.1369,-0.0417,-0.1750,
11.813969,-0.0490,0.9884,-0.1004,-0.3581,0.0465,-0.6314,0.1369,-0.0417,-0.1750,
11.833910,-0.0490,0.9884,-0.1004,0.3270,-0.0454,-0.7903,0.1369,-0.0417,-0.1750,
11.845661,-0.0898,0.9796,-0.1733,0.3270,-0.0454,-0.7903,0.1369,-0.0417,-0.1750,
11.849622,-0.0898,0.9796,-0.1733,0.3270,-0.0454,-0.7903,0.0943,-0.0220,-0.1319,
11.856279,-0.0898,0.9796,-0.1733,-0.3349,-0.0208,0.0809,0.0943,-0.0220,-0.1319,
11.874824,-0.0898,0.9796,-0.1733,-0.1243,0.0431,0.0208,0.0943,-0.0220,-0.1319,
11.893963,-0.0898,0.9796,-0.1733,0.2532,0.0077,-0.0522,0.0943,-0.0220,-0.1319,
11.912444,-0.1028,0.9829,-0.2121,0.2532,0.0077,-0.0522,0.0943,-0.0220,-0.1319,
11.915099,-0.1028,0.9829,-0.2121,0.2532,0.0077,-0.0522,0.0363,-0.0449,-0.0819,
11.916203,-0.1028,0.9829,-0.2121,-0.1951,0.0017,-0.3257,0.0363,-0.0449,-0.0819,
11.934051,-0.1028,0.9829,-0.2121,-0.0912,0.0237,-0.3397,0.0363,-0.0449,-0.0819,
11.954123,-0.1028,0.9829,-0.2121,-0.0563,0.0059,-0.5623,0.0363,-0.0449,-0.0819,
11.973785,-0.1028,0.9829,-0.2121,0.1631,-0.0131,-0.1246,0.0363,-0.0449,-0.0819,
11.977359,-0.0560,0.9907,-0.1864,0.1631,-0.0131,-0.1246,0.0363,-0.0449,-0.0819,
11.979222,-0.0560,0.9907,-0.1864,0.1631,-0.0131,-0.1246,-0.0244,-0.0284,-0.0755,
11.993903,-0.0560,0.9907,-0.1864,0.5208,0.1342,0.1050,-0.0244,-0.0284,-0.0755,
12.014654,-0.0560,0.9907,-0.1864,-0.3862,-0.1681,0.2190,-0.0244,-0.0284,-0.0755,
12.033974,-0.0560,0.9907,-0.1864,0.1157,0.0692,-0.4474,-0.0244,-0.0284,-0.0755,
12.043529,-0.0620,0.9880,-0.1807,0.1157,0.0692,-0.4474,-0.0244,-0.0284,-0.0755,
12.046194,-0.0620,0.9880,-0.1807,0.1157,0.0692,-0.4474,-0.0175,-0.0310,-0.1175,
12.053891,-0.0620,0.9880,-0.1807,0.1946,0.0604,-0.3445,-0.0175,-0.0310,-0.1175,
12.073973,-0.0620,0.9880,-0.1807,0.5343,0.1992,-0.2917,-0.0175,-0.0310,-0.1175,
12.094971,-0.0620,0.9880,-0.1807,0.5234,0.1707,-0.6262,-0.0175,-0.0310,-0.1175,
12.110167,-0.1269,0.9751,-0.1752,0.5234,0.1707,-0.6262,-0.0175,-0.0310,-0.1175,
12.112862,-0.1269,0.9751,-0.1752,0.5234,0.1707,-0.6262,-0.1223,-0.0236,-0.2203,
12.114716,-0.1269,0.9751,-0.1752,-0.2653,-0.0543,-0.0128,-0.1223,-0.0236,-0.2203,
12.133953,-0.1269,0.9751,-0.1752,0.8211,0.2793,0.3085,-0.1223,-0.0236,-0.2203,
12.154030,-0.1269,0.9751,-0.1752,0.9834,0.4078,-0.6759,-0.1223,-0.0236,-0.2203,
12.175477,-0.1269,0.9751,-0.1752,0.8609,0.5038,0.6736,-0.1223,-0.0236,-0.2203,
12.178164,-0.1363,1.0065,-0.1117,0.8609,0.5038,0.6736,-0.1223,-0.0236,-0.2203,
12.179693,-0.1363,1.0065,-0.1117,0.8609,0.5038,0.6736,-0.1543,0.1574,-0.4039,
12.193743,-0.1363,1.0065,-0.1117,-0.0986,0.6078,0.2764,-0.1543,0.1574,-0.4039,
12.214313,-0.1363,1.0065,-0.1117,0.6824,1.0222,-1.5063,-0.1543,0.1574,-0.4039,
12.233969,-0.1363,1.0065,-0.1117,4.8287,2.6237,-0.7909,-0.1543,0.1574,-0.4039,
12.243276,0.4486,1.3330,-0.1734,4.8287,2.6237,-0.7909,-0.1543,0.1574,-0.4039,
12.245651,0.4486,1.3330,-0.1734,4.8287,2.6237,-0.7909,-0.1585,-0.1843,-0.9081,
12.254492,0.4486,1.3330,-0.1734,5.8872,3.6750,-0.3375,-0.1585,-0.1843,-0.9081,
12.274190,0.4486,1.3330,-0.1734,3.1927,2.9757,1.1347,-0.1585,-0.1843,-0.9081,
12.293932,0.4486,1.3330,-0.1734,4.1090,3.8606,1.4863,-0.1585,-0.1843,-0.9081,
12.308085,0.5254,1.3530,-0.0386,4.1090,3.8606,1.4863,-0.1585,-0.1843,-0.9081,
12.311205,0.5254,1.3530,-0.0386,4.1090,3.8606,1.4863,0.0304,-0.1854,-2.0739,
12.313976,0.5254,1.3530,-0.0386,7.1478,3.7379,0.8011,0.0304,-0.1854,-2.0739,
12.334466,0.5254,1.3530,-0.0386,2.7941,3.4430,0.5037,0.0304,-0.1854,-2.0739,
12.354635,0.5254,1.3530,-0.0386,3.8230,3.8970,-0.0346,0.0304,-0.1854,-2.0739,
12.375096,-0.1236,1.1440,-0.1845,3.8230,3.8970,-0.0346,0.0304,-0.1854,-2.0739,
12.377940,-0.1236,1.1440,-0.1845,3.8230,3.8970,-0.0346,0.0959,0.2532,-2.8915,
12.379322,-0.1236,1.1440,-0.1845,3.1451,2.1348,-0.2657,0.0959,0.2532,-2.8915,
12.393791,-0.1236,1.1440,-0.1845,-0.5271,-1.7904,-1.4753,0.0959,0.2532,-2.8915,
12.414305,-0.1236,1.1440,-0.1845,2.0603,-4.0189,1.8147,0.0959,0.2532,-2.8915,
12.433882,-0.1236,1.1440,-0.1845,-0.3919,-2.5867,-0.9281,0.0959,0.2532,-2.8915,
12.441491,-0.1354,0.5920,-0.3418,-0.3919,-2.5867,-0.9281,0.0959,0.2532,-2.8915,
12.443943,-0.1354,0.5920,-0.3418,-0.3919,-2.5867,-0.9281,-0.0888,1.0033,-0.2198,
12.454446,-0.1354,0.5920,-0.3418,5.6919,-1.8776,-0.7164,-0.0888,1.0033,-0.2198,
12.474071,-0.1354,0.5920,-0.3418,5.6764,-2.0083,-0.9108,-0.0888,1.0033,-0.2198,
12.494489,-0.1354,0.5920,-0.3418,4.2337,-2.4264,-0.4536,-0.0888,1.0033,-0.2198,
12.505593,-0.1280,0.5884,-0.2017,4.2337,-2.4264,-0.4536,-0.0888,1.0033,-0.2198,
12.507113,-0.1280,0.5884,-0.2017,4.2337,-2.4264,-0.4536,-0.1346,0.1707,0.8497,
12.515527,-0.1280,0.5884,-0.2017,3.4519,-2.6122,-0.3009,-0.1346,0.1707,0.8497,
12.533759,-0.1280,0.5884,-0.2017,3.4251,-2.1213,0.0870,-0.1346,0.1707,0.8497,
12.554169,-0.1280,0.5884,-0.2017,3.2817,-1.3479,0.3553,-0.1346,0.1707,0.8497,
12.571971,-0.1051,0.8141,-0.1209,3.2817,-1.3479,0.3553,-0.1346,0.1707,0.8497,
12.573330,-0.1051,0.8141,-0.1209,3.2817,-1.3479,0.3553,-0.0941,-0.0640,2.1044,
12.578529,-0.1051,0.8141,-0.1209,2.9355,-0.8553,0.4322,-0.0941,-0.0640,2.1044,
12.594064,-0.1051,0.8141,-0.1209,3.3062,-0.3935,0.5109,-0.0941,-0.0640,2.1044,
12.614926,-0.1051,0.8141,-0.1209,3.2436,0.0021,0.5313,-0.0941,-0.0640,2.1044,
12.633749,-0.1051,0.8141,-0.1209,1.9158,0.8130,0.1472,-0.0941,-0.0640,2.1044,
12.637180,-0.1221,1.0523,-0.1428,1.9158,0.8130,0.1472,-0.0941,-0.0640,2.1044,
12.638118,-0.1221,1.0523,-0.1428,1.9158,0.8130,0.1472,-0.1601,-0.2072,2.6665,
12.654149,-0.1221,1.0523,-0.1428,0.9724,1.3159,0.3090,-0.1601,-0.2072,2.6665,
12.674494,-0.1221,1.0523,-0.1428,1.3328,1.8839,0.6763,-0.1601,-0.2072,2.6665,
12.693747,-0.1221,1.0523,-0.1428,0.5147,2.4095,0.4386,-0.1601,-0.2072,2.6665,
12.703279,-0.0751,1.2391,-0.0911,0.5147,2.4095,0.4386,-0.1601,-0.2072,2.6665,
12.704762,-0.0751,1.2391,-0.0911,0.5147,2.4095,0.4386,-0.4194,-0.3270,2.7352,
12.714035,-0.0751,1.2391,-0.0911,0.2134,2.4254,0.4449,-0.4194,-0.3270,2.7352,
12.734071,-0.0751,1.2391,-0.0911,0.4848,2.5294,0.4372,-0.4194,-0.3270,2.7352,
12.753794,-0.0751,1.2391,-0.0911,-0.0327,3.0232,0.2582,-0.4194,-0.3270,2.7352,
12.769085,-0.2240,1.2756,-0.0938,-0.0327,3.0232,0.2582,-0.4194,-0.3270,2.7352,
12.771448,-0.2240,1.2756,-0.0938,-0.0327,3.0232,0.2582,-0.3129,-0.8332,1.9351,
12.775973,-0.2240,1.2756,-0.0938,-3.1453,2.6832,0.1531,-0.3129,-0.8332,1.9351,
12.794232,-0.2240,1.2756,-0.0938,-4.6298,1.8772,0.2457,-0.3129,-0.8332,1.9351,
12.814194,-0.2240,1.2756,-0.0938,-5.5664,1.4190,0.2313,-0.3129,-0.8332,1.9351,
12.833556,-0.2240,1.2756,-0.0938,-5.8222,0.5917,0.3647,-0.3129,-0.8332,1.9351,
12.836346,-0.4017,1.0271,-0.0701,-5.8222,0.5917,0.3647,-0.3129,-0.8332,1.9351,
12.837746,-0.4017,1.0271,-0.0701,-5.8222,0.5917,0.3647,0.0081,-0.9056,1.7307,
12.857562,-0.4017,1.0271,-0.0701,-5.5125,0.1683,0.5950,0.0081,-0.9056,1.7307,
12.876261,-0.4017,1.0271,-0.0701,-4.2745,0.2084,0.6619,0.0081,-0.9056,1.7307,
12.894207,-0.4017,1.0271,-0.0701,-4.5043,-0.0161,0.6840,0.0081,-0.9056,1.7307,
12.901387,-0.2593,0.9232,-0.0320,-4.5043,-0.0161,0.6840,0.0081,-0.9056,1.7307,
12.902761,-0.2593,0.9232,-0.0320,-4.5043,-0.0161,0.6840,-0.0207,-0.0922,0.5265,
12.913803,-0.2593,0.9232,-0.0320,-5.0393,-0.6548,0.8859,-0.0207,-0.0922,0.5265,
12.934328,-0.2593,0.9232,-0.0320,-4.3540,-0.4803,0.4355,-0.0207,-0.0922,0.5265,
12.954223,-0.2593,0.9232,-0.0320,-3.6964,-0.1497,-0.0915,-0.0207,-0.0922,0.5265,
12.967343,-0.1466,0.9651,-0.1477,-3.6964,-0.1497,-0.0915,-0.0207,-0.0922,0.5265,
12.969240,-0.1466,0.9651,-0.1477,-3.6964,-0.1497,-0.0915,0.0453,0.0967,-0.6829,
12.974225,-0.1466,0.9651,-0.1477,-4.1249,0.1213,-0.3333,0.0453,0.0967,-0.6829,
12.993753,-0.1466,0.9651,-0.1477,-3.0688,1.5163,-0.3498,0.0453,0.0967,-0.6829,
13.013957,-0.1466,0.9651,-0.1477,6.3265,1.6714,-2.9978,0.0453,0.0967,-0.6829,
13.034246,0.3541,0.9579,-0.3165,6.3265,1.6714,-2.9978,0.0453,0.0967,-0.6829,
13.036641,0.3541,0.9579,-0.3165,6.3265,1.6714,-2.9978,0.2103,-0.0816,-1.4856,
13.037459,0.3541,0.9579,-0.3165,1.2290,-1.2626,-2.2805,0.2103,-0.0816,-1.4856,
13.054371,0.3541,0.9579,-0.3165,1.1020,-0.5120,-0.8348,0.2103,-0.0816,-1.4856,
13.073776,0.3541,0.9579,-0.3165,0.7686,2.0634,1.8609,0.2103,-0.0816,-1.4856,
13.093826,0.3541,0.9579,-0.3165,0.7140,-1.4759,4.6929,0.2103,-0.0816,-1.4856,
13.099776,0.0084,1.0587,0.1233,0.7140,-1.4759,4.6929,0.2103,-0.0816,-1.4856,
13.101068,0.0084,1.0587,0.1233,0.7140,-1.4759,4.6929,0.0485,0.5194,-1.7656,
13.113359,0.0084,1.0587,0.1233,-7.2126,0.0560,1.5721,0.0485,0.5194,-1.7656,
13.133989,0.0084,1.0587,0.1233,-7.9194,0.9359,3.2497,0.0485,0.5194,-1.7656,
13.154687,0.0084,1.0587,0.1233,-1.0677,-0.1841,-0.2059,0.0485,0.5194,-1.7656,
13.170208,0.2148,1.0372,-0.4033,-1.0677,-0.1841,-0.2059,0.0485,0.5194,-1.7656,
13.172917,0.2148,1.0372,-0.4033,-1.0677,-0.1841,-0.2059,0.2455,-0.8742,-0.5743,
13.178886,0.2148,1.0372,-0.4033,1.1083,-0.7901,-3.8000,0.2455,-0.8742,-0.5743,
13.194088,0.2148,1.0372,-0.4033,-1.5492,0.9575,-5.3137,0.2455,-0.8742,-0.5743,
13.213932,0.2148,1.0372,-0.4033,-0.7057,0.5053,2.3002,0.2455,-0.8742,-0.5743,
13.233895,-0.2034,0.9975,0.0614,-0.7057,0.5053,2.3002,0.2455,-0.8742,-0.5743,
13.236166,-0.2034,0.9975,0.0614,-0.7057,0.5053,2.3002,0.2125,-0.0944,-0.4369,
13.236670,-0.2034,0.9975,0.0614,-1.9263,0.0648,2.0119,0.2125,-0.0944,-0.4369,
13.253954,-0.2034,0.9975,0.0614,-1.1415,0.1398,0.5778,0.2125,-0.0944,-0.4369,
13.273926,-0.2034,0.9975,0.0614,-1.4559,0.1199,-0.4163,0.2125,-0.0944,-0.4369,
13.294297,-0.2034,0.9975,0.0614,-0.1113,0.0805,-1.0662,0.2125,-0.0944,-0.4369,
13.297277,0.0054,0.9919,-0.2876,-0.1113,0.0805,-1.0662,0.2125,-0.0944,-0.4369,
13.298430,0.0054,0.9919,-0.2876,-0.1113,0.0805,-1.0662,0.2114,-0.0230,-0.0643,
13.313699,0.0054,0.9919,-0.2876,0.3314,0.0293,-1.0605,0.2114,-0.0230,-0.0643,
13.333869,0.0054,0.9919,-0.2876,-0.4450,0.0146,0.0150,0.2114,-0.0230,-0.0643,
13.354459,0.0054,0.9919,-0.2876,0.4532,-0.0595,-0.1587,0.2114,-0.0230,-0.0643,
13.363654,0.1056,0.9739,-0.1894,0.4532,-0.0595,-0.1587,0.2114,-0.0230,-0.0643,
13.366041,0.1056,0.9739,-0.1894,0.4532,-0.0595,-0.1587,0.1108,-0.0278,-0.1085,
13.373921,0.1056,0.9739,-0.1894,1.5328,-0.1141,-0.1066,0.1108,-0.0278,-0.1085,
13.393689,0.1056,0.9739,-0.1894,-0.2045,-0.0603,0.1197,0.1108,-0.0278,-0.1085,
13.413846,0.1056,0.9739,-0.1894,-0.2747,-0.1133,0.1228,0.1108,-0.0278,-0.1085,
13.429409,-0.0370,0.9874,-0.2277,-0.2747,-0.1133,0.1228,0.1108,-0.0278,-0.1085,
13.431842,-0.0370,0.9874,-0.2277,-0.2747,-0.1133,0.1228,0.1300,-0.1284,-0.1878,
13.433744,-0.0370,0.9874,-0.2277,-0.0178,0.0398,-0.4999,0.1300,-0.1284,-0.1878,
13.454461,-0.0370,0.9874,-0.2277,-0.9476,0.0753,-0.3788,0.1300,-0.1284,-0.1878,
13.473826,-0.0370,0.9874,-0.2277,0.3772,-0.0176,0.1141,0.1300,-0.1284,-0.1878,
13.494643,-0.0370,0.9874,-0.2277,-0.3509,0.0460,-0.1783,0.1300,-0.1284,-0.1878,
13.496878,-0.0916,0.9859,-0.2054,-0.3509,0.0460,-0.1783,0.1300,-0.1284,-0.1878,
13.497720,-0.0916,0.9859,-0.2054,-0.3509,0.0460,-0.1783,0.1145,-0.0592,-0.0702,
13.514009,-0.0916,0.9859,-0.2054,0.5104,-0.0175,-0.4806,0.1145,-0.0592,-0.0702,
13.534577,-0.0916,0.9859,-0.2054,0.9252,-0.0719,0.0588,0.1145,-0.0592,-0.0702,
13.553904,-0.0916,0.9859,-0.2054,0.4875,-0.0074,0.1271,0.1145,-0.0592,-0.0702,
13.561499,-0.0562,0.9847,-0.1798,0.4875,-0.0074,0.1271,0.1145,-0.0592,-0.0702,
13.564180,-0.0562,0.9847,-0.1798,0.4875,-0.0074,0.1271,0.0996,-0.0901,-0.2123,
13.573778,-0.0562,0.9847,-0.1798,-0.3134,0.0867,0.0461,0.0996,-0.0901,-0.2123,
13.593717,-0.0562,0.9847,-0.1798,0.1169,0.0143,-0.1707,0.0996,-0.0901,-0.2123,
13.614123,-0.0562,0.9847,-0.1798,-0.2529,0.0006,-0.1129,0.0996,-0.0901,-0.2123,
13.629608,-0.0841,0.9820,-0.1863,-0.2529,0.0006,-0.1129,0.0996,-0.0901,-0.2123,
13.632461,-0.0841,0.9820,-0.1863,-0.2529,0.0006,-0.1129,0.1066,-0.0672,-0.1117,
13.633996,-0.0841,0.9820,-0.1863,0.0448,0.0360,0.1108,0.1066,-0.0672,-0.1117,
13.654024,-0.0841,0.9820,-0.1863,0.4216,0.0615,-0.3401,0.1066,-0.0672,-0.1117,
13.673918,-0.0841,0.9820,-0.1863,0.2344,-0.0111,-0.3521,0.1066,-0.0672,-0.1117,
13.693890,-0.0653,0.9770,-0.2180,0.2344,-0.0111,-0.3521,0.1066,-0.0672,-0.1117,
13.696730,-0.0653,0.9770,-0.2180,0.2344,-0.0111,-0.3521,0.0640,-0.0480,-0.1804,
13.697828,-0.0653,0.9770,-0.2180,0.2359,0.0040,-0.1913,0.0640,-0.0480,-0.1804,
13.714116,-0.0653,0.9770,-0.2180,-0.6889,-0.0690,0.2023,0.0640,-0.0480,-0.1804,
13.734168,-0.0653,0.9770,-0.2180,0.4157,0.0547,0.2694,0.0640,-0.0480,-0.1804,
13.754984,-0.0653,0.9770,-0.2180,0.4864,0.0908,-0.9439,0.0640,-0.0480,-0.1804,
13.759472,-0.0585,0.9810,-0.2970,0.4864,0.0908,-0.9439,0.0640,-0.0480,-0.1804,
13.761470,-0.0585,0.9810,-0.2970,0.4864,0.0908,-0.9439,0.0485,-0.0012,-0.1740,
13.774354,-0.0585,0.9810,-0.2970,0.1360,0.0672,-0.7740,0.0485,-0.0012,-0.1740,
13.793830,-0.0585,0.9810,-0.2970,0.1499,0.1007,-0.3678,0.0485,-0.0012,-0.1740,
13.813761,-0.0585,0.9810,-0.2970,0.2071,0.2799,-0.4809,0.0485,-0.0012,-0.1740,
13.825400,0.0091,1.0051,-0.2662,0.2071,0.2799,-0.4809,0.0485,-0.0012,-0.1740,
13.827523,0.0091,1.0051,-0.2662,0.2071,0.2799,-0.4809,-0.0776,-0.0795,-0.2048,
13.834088,0.0091,1.0051,-0.2662,1.2410,0.3403,-0.4405,-0.0776,-0.0795,-0.2048,
13.854631,0.0091,1.0051,-0.2662,0.9855,0.4690,-0.1554,-0.0776,-0.0795,-0.2048,
13.874343,0.0091,1.0051,-0.2662,0.3582,0.4615,-0.0735,-0.0776,-0.0795,-0.2048,
13.892209,-0.1171,0.9886,-0.2314,0.3582,0.4615,-0.0735,-0.0776,-0.0795,-0.2048,
13.896813,-0.1171,0.9886,-0.2314,0.3582,0.4615,-0.0735,-0.1431,0.0887,-0.4098,
13.898089,-0.1171,0.9886,-0.2314,0.0670,0.1518,-0.2682,-0.1431,0.0887,-0.4098,
13.913749,-0.1171,0.9886,-0.2314,2.1641,2.2839,-0.1044,-0.1431,0.0887,-0.4098,
13.934632,-0.1171,0.9886,-0.2314,7.6204,3.4208,0.1036,-0.1431,0.0887,-0.4098,
13.954049,-0.1171,0.9886,-0.2314,4.0089,3.2584,1.0264,-0.1431,0.0887,-0.4098,
13.956995,0.1513,1.3044,-0.1062,4.0089,3.2584,1.0264,-0.1431,0.0887,-0.4098,
13.958190,0.1513,1.3044,-0.1062,4.0089,3.2584,1.0264,-0.0302,-0.1795,-1.5506,
13.974225,0.1513,1.3044,-0.1062,2.7790,2.5526,0.7666,-0.0302,-0.1795,-1.5506,
13.993966,0.1513,1.3044,-0.1062,4.4688,3.0505,0.6237,-0.0302,-0.1795,-1.5506,
14.015661,0.1513,1.3044,-0.1062,3.1168,1.5723,0.9427,-0.0302,-0.1795,-1.5506,
14.023615,-0.0535,1.1596,-0.1368,3.1168,1.5723,0.9427,-0.0302,-0.1795,-1.5506,
14.025148,-0.0535,1.1596,-0.1368,3.1168,1.5723,0.9427,0.1459,0.0978,-2.2293,
14.033920,-0.0535,1.1596,-0.1368,2.1380,2.8101,0.4260,0.1459,0.0978,-2.2293,
14.054304,-0.0535,1.1596,-0.1368,2.9401,0.9544,0.7473,0.1459,0.0978,-2.2293,
14.073953,-0.0535,1.1596,-0.1368,0.7036,0.1288,-0.2044,0.1459,0.0978,-2.2293,
14.089314,-0.4695,0.7643,-0.1503,0.7036,0.1288,-0.2044,0.1459,0.0978,-2.2293,
14.092153,-0.4695,0.7643,-0.1503,0.7036,0.1288,-0.2044,-0.1064,0.2745,-1.6969,
14.093987,-0.4695,0.7643,-0.1503,-0.2775,-1.3825,0.8261,-0.1064,0.2745,-1.6969,
14.113940,-0.4695,0.7643,-0.1503,5.2540,-1.8580,1.4871,-0.1064,0.2745,-1.6969,
14.135244,-0.4695,0.7643,-0.1503,0.4878,-0.8145,-0.3299,-0.1064,0.2745,-1.6969,
14.154106,-0.4695,0.7643,-0.1503,4.0047,-1.8200,0.4012,-0.1064,0.2745,-1.6969,
14.157137,-0.0513,0.6692,-0.1187,4.0047,-1.8200,0.4012,-0.1064,0.2745,-1.6969,
14.157913,-0.0513,0.6692,-0.1187,4.0047,-1.8200,0.4012,-0.5232,1.0805,0.0342,
14.174418,-0.0513,0.6692,-0.1187,3.7170,-2.0452,1.4466,-0.5232,1.0805,0.0342,
14.194047,-0.0513,0.6692,-0.1187,3.9752,-1.6846,0.5948,-0.5232,1.0805,0.0342,
14.214109,-0.0513,0.6692,-0.1187,3.3474,-1.3070,0.7034,-0.5232,1.0805,0.0342,
14.221129,-0.1617,0.7407,-0.1811,3.3474,-1.3070,0.7034,-0.5232,1.0805,0.0342,
14.222687,-0.1617,0.7407,-0.1811,3.3474,-1.3070,0.7034,-1.0725,1.4355,1.2888,
14.234060,-0.1617,0.7407,-0.1811,2.2034,-1.3631,0.2364,-1.0725,1.4355,1.2888,
14.254664,-0.1617,0.7407,-0.1811,3.3931,-0.6922,0.7803,-1.0725,1.4355,1.2888,
14.273941,-0.1617,0.7407,-0.1811,4.0011,0.1696,0.4003,-1.0725,1.4355,1.2888,
14.287469,-0.0572,0.9616,-0.2128,4.0011,0.1696,0.4003,-1.0725,1.4355,1.2888,
14.289856,-0.0572,0.9616,-0.2128,4.0011,0.1696,0.4003,-1.3227,1.9077,1.6780,
14.293359,-0.0572,0.9616,-0.2128,2.2875,0.2458,-0.3199,-1.3227,1.9077,1.6780,
14.314777,-0.0572,0.9616,-0.2128,2.6021,0.5860,0.3749,-1.3227,1.9077,1.6780,
14.335788,-0.0572,0.9616,-0.2128,3.0934,1.3229,-0.7984,-1.3227,1.9077,1.6780,
14.354355,0.0460,1.1866,-0.3654,3.0934,1.3229,-0.7984,-1.3227,1.9077,1.6780,
14.357113,0.0460,1.1866,-0.3654,3.0934,1.3229,-0.7984,-1.3824,3.0277,1.3847,
14.358081,0.0460,1.1866,-0.3654,2.3854,2.0170,-2.1805,-1.3824,3.0277,1.3847,
14.373855,0.0460,1.1866,-0.3654,0.1513,1.9367,-2.9045,-1.3824,3.0277,1.3847,
14.393949,0.0460,1.1866,-0.3654,-1.0782,1.2250,-2.8277,-1.3824,3.0277,1.3847,
14.414738,0.0460,1.1866,-0.3654,0.4759,0.8891,-2.5644,-1.3824,3.0277,1.3847,
14.419739,0.0317,1.0973,-0.3423,0.4759,0.8891,-2.5644,-1.3824,3.0277,1.3847,
14.421702,0.0317,1.0973,-0.3423,0.4759,0.8891,-2.5644,-0.9969,3.4541,1.4113,
14.433894,0.0317,1.0973,-0.3423,1.5235,1.1785,-3.2702,-0.9969,3.4541,1.4113,
14.454605,0.0317,1.0973,-0.3423,0.9762,0.9547,-3.9244,-0.9969,3.4541,1.4113,
14.474206,0.0317,1.0973,-0.3423,0.0201,0.7703,-4.1250,-0.9969,3.4541,1.4113,
14.485366,0.0281,1.0476,-0.4010,0.0201,0.7703,-4.1250,-0.9969,3.4541,1.4113,
14.488318,0.0281,1.0476,-0.4010,0.0201,0.7703,-4.1250,-0.5727,3.7463,0.6852,
14.494085,0.0281,1.0476,-0.4010,-0.0121,0.2978,-3.6931,-0.5727,3.7463,0.6852,
14.513990,0.0281,1.0476,-0.4010,-0.8972,0.4075,-4.0630,-0.5727,3.7463,0.6852,
14.534380,0.0281,1.0476,-0.4010,-2.0191,-0.4919,-5.0782,-0.5727,3.7463,0.6852,
14.552173,-0.3252,0.9072,-0.5010,-2.0191,-0.4919,-5.0782,-0.5727,3.7463,0.6852,
14.555580,-0.3252,0.9072,-0.5010,-2.0191,-0.4919,-5.0782,0.0395,3.3530,0.1789,
14.556948,-0.3252,0.9072,-0.5010,-3.6323,-0.9112,-4.9289,0.0395,3.3530,0.1789,
14.574445,-0.3252,0.9072,-0.5010,-3.8579,-0.9979,-4.5581,0.0395,3.3530,0.1789,
14.593922,-0.3252,0.9072,-0.5010,-2.5514,-0.3885,-4.6281,0.0395,3.3530,0.1789,
14.614542,-0.3252,0.9072,-0.5010,-2.7622,-0.2614,-5.0272,0.0395,3.3530,0.1789,
14.618367,-0.2938,0.9668,-0.5222,-2.7622,-0.2614,-5.0272,0.0395,3.3530,0.1789,
14.619555,-0.2938,0.9668,-0.5222,-2.7622,-0.2614,-5.0272,0.4334,2.3820,-0.2453,
14.633854,-0.2938,0.9668,-0.5222,-4.5618,-0.7244,-5.1856,0.4334,2.3820,-0.2453,
14.654787,-0.2938,0.9668,-0.5222,-2.6256,-0.9118,-4.5780,0.4334,2.3820,-0.2453,
14.673875,-0.2938,0.9668,-0.5222,-0.3611,-0.7445,-2.5912,0.4334,2.3820,-0.2453,
14.683505,0.3822,1.5434,-0.2563,-0.3611,-0.7445,-2.5912,0.4334,2.3820,-0.2453,
14.686417,0.3822,1.5434,-0.2563,-0.3611,-0.7445,-2.5912,0.7256,1.7954,-0.2229,
14.693870,0.3822,1.5434,-0.2563,5.2798,2.8851,-1.7570,0.7256,1.7954,-0.2229,
14.713706,0.3822,1.5434,-0.2563,1.3194,-0.4973,1.5636,0.7256,1.7954,-0.2229,
14.736476,0.3822,1.5434,-0.2563,-2.0338,1.8361,2.0417,0.7256,1.7954,-0.2229,
14.749447,-0.6606,0.9518,-0.5212,-2.0338,1.8361,2.0417,0.7256,1.7954,-0.2229,
14.752403,-0.6606,0.9518,-0.5212,-2.0338,1.8361,2.0417,0.4132,0.5604,-1.2658,
14.753899,-0.6606,0.9518,-0.5212,-6.9323,-0.4226,-4.8341,0.4132,0.5604,-1.2658,
14.773892,-0.6606,0.9518,-0.5212,-9.2963,1.2820,3.5062,0.4132,0.5604,-1.2658,
14.793916,-0.6606,0.9518,-0.5212,-1.1735,-0.2169,-1.4462,0.4132,0.5604,-1.2658,
14.814627,-0.6606,0.9518,-0.5212,1.1200,0.3389,-2.2185,0.4132,0.5604,-1.2658,
14.817485,0.0715,1.0060,-0.1149,1.1200,0.3389,-2.2185,0.4132,0.5604,-1.2658,
14.818645,0.0715,1.0060,-0.1149,1.1200,0.3389,-2.2185,0.0906,-0.1417,0.1497,
14.833841,0.0715,1.0060,-0.1149,0.6684,0.2411,0.7869,0.0906,-0.1417,0.1497,
14.854727,0.0715,1.0060,-0.1149,-0.1136,-0.0774,-1.2178,0.0906,-0.1417,0.1497,
14.873901,0.0715,1.0060,-0.1149,0.5354,0.0034,0.7179,0.0906,-0.1417,0.1497,
14.884742,0.0405,0.9922,-0.0790,0.5354,0.0034,0.7179,0.0906,-0.1417,0.1497,
14.887335,0.0405,0.9922,-0.0790,0.5354,0.0034,0.7179,0.2056,0.0376,0.0326,
14.894308,0.0405,0.9922,-0.0790,0.2674,0.1246,-0.3889,0.2056,0.0376,0.0326,
14.913812,0.0405,0.9922,-0.0790,-1.9779,0.1087,0.0315,0.2056,0.0376,0.0326,
14.933634,0.0405,0.9922,-0.0790,-0.4267,-0.2703,0.6573,0.2056,0.0376,0.0326,
14.947575,0.1897,1.0000,-0.0976,-0.4267,-0.2703,0.6573,0.2056,0.0376,0.0326,
14.950781,0.1897,1.0000,-0.0976,-0.4267,-0.2703,0.6573,0.2998,-0.0539,0.1209,
14.953784,0.1897,1.0000,-0.0976,1.9488,-0.1389,-0.2677,0.2998,-0.0539,0.1209,
14.974753,0.1897,1.0000,-0.0976,0.3078,-0.0444,0.2808,0.2998,-0.0539,0.1209,
14.993776,0.1897,1.0000,-0.0976,-0.3544,-0.2152,0.0748,0.2998,-0.0539,0.1209,
15.013417,-0.0536,0.9903,-0.1277,-0.3544,-0.2152,0.0748,0.2998,-0.0539,0.1209,
15.015900,-0.0536,0.9903,-0.1277,-0.3544,-0.2152,0.0748,0.2167,0.0557,0.0336,
15.017102,-0.0536,0.9903,-0.1277,-0.3674,0.0160,-0.0258,0.2167,0.0557,0.0336,
15.034085,-0.0536,0.9903,-0.1277,1.2640,-0.0080,-0.2281,0.2167,0.0557,0.0336,
15.054511,-0.0536,0.9903,-0.1277,1.0534,0.2621,-0.4223,0.2167,0.0557,0.0336,
15.073756,-0.0536,0.9903,-0.1277,-1.3735,0.1300,-0.5351,0.2167,0.0557,0.0336,
15.078947,-0.0796,0.9972,-0.1521,-1.3735,0.1300,-0.5351,0.2167,0.0557,0.0336,
15.079896,-0.0796,0.9972,-0.1521,-1.3735,0.1300,-0.5351,0.1033,0.1590,-0.0696,
15.093802,-0.0796,0.9972,-0.1521,-0.2319,-0.0429,0.4204,0.1033,0.1590,-0.0696,
15.113902,-0.0796,0.9972,-0.1521,0.2853,-0.0695,0.6356,0.1033,0.1590,-0.0696,
15.134312,-0.0796,0.9972,-0.1521,0.7666,-0.0367,0.1384,0.1033,0.1590,-0.0696,
15.145462,0.0208,0.9875,-0.1462,0.7666,-0.0367,0.1384,0.1033,0.1590,-0.0696,
15.146857,0.0208,0.9875,-0.1462,0.7666,-0.0367,0.1384,0.0932,0.0126,-0.1937,
15.153977,0.0208,0.9875,-0.1462,0.1183,-0.0525,-0.0063,0.0932,0.0126,-0.1937,
15.174169,0.0208,0.9875,-0.1462,-0.4614,0.0490,-0.3232,0.0932,0.0126,-0.1937,
15.193975,0.0208,0.9875,-0.1462,-0.6726,0.1299,-0.1762,0.0932,0.0126,-0.1937,
15.212046,0.0830,0.9881,-0.0749,-0.6726,0.1299,-0.1762,0.0932,0.0126,-0.1937,
15.214449,0.0830,0.9881,-0.0749,-0.6726,0.1299,-0.1762,0.0373,-0.0294,-0.1883,
15.216721,0.0830,0.9881,-0.0749,1.1400,-0.0155,0.7129,0.0373,-0.0294,-0.1883,
15.233870,0.0830,0.9881,-0.0749,0.1341,0.1630,-0.4183,0.0373,-0.0294,-0.1883,
15.254836,0.0830,0.9881,-0.0749,0.2505,0.0080,-0.3897,0.0373,-0.0294,-0.1883,
15.274481,0.0830,0.9881,-0.0749,-0.7624,-0.0990,-0.0650,0.0373,-0.0294,-0.1883,
15.277689,-0.1580,0.9834,-0.1235,-0.7624,-0.0990,-0.0650,0.0373,-0.0294,-0.1883,
15.278668,-0.1580,0.9834,-0.1235,-0.7624,-0.0990,-0.0650,-0.0601,-0.0236,-0.1846,
15.294350,-0.1580,0.9834,-0.1235,-0.7206,-0.0496,0.9336,-0.0601,-0.0236,-0.1846,
15.313886,-0.1580,0.9834,-0.1235,-0.1627,0.1081,0.0659,-0.0601,-0.0236,-0.1846,
15.334114,-0.1580,0.9834,-0.1235,-0.1729,0.0708,-0.6184,-0.0601,-0.0236,-0.1846,
15.343189,-0.0618,0.9960,-0.2066,-0.1729,0.0708,-0.6184,-0.0601,-0.0236,-0.1846,
15.344759,-0.0618,0.9960,-0.2066,-0.1729,0.0708,-0.6184,-0.0931,-0.0550,-0.1133,
15.356113,-0.0618,0.9960,-0.2066,0.2143,0.0411,-0.4241,-0.0931,-0.0550,-0.1133,
15.374387,-0.0618,0.9960,-0.2066,0.8293,0.1866,-0.3192,-0.0931,-0.0550,-0.1133,
15.393943,-0.0618,0.9960,-0.2066,-0.8525,-0.0702,0.9996,-0.0931,-0.0550,-0.1133,
15.409311,-0.2142,0.9826,-0.1341,-0.8525,-0.0702,0.9996,-0.0931,-0.0550,-0.1133,
15.411495,-0.2142,0.9826,-0.1341,-0.8525,-0.0702,0.9996,-0.1410,0.0004,-0.0696,
15.413605,-0.2142,0.9826,-0.1341,-1.2226,-0.0514,-0.0861,-0.1410,0.0004,-0.0696,
15.433793,-0.2142,0.9826,-0.1341,0.2979,0.0630,-0.7426,-0.1410,0.0004,-0.0696,
15.455743,-0.2142,0.9826,-0.1341,-0.2951,0.0483,-0.5632,-0.1410,0.0004,-0.0696,
15.473903,-0.2142,0.9826,-0.1341,-0.2734,-0.0550,0.6627,-0.1410,0.0004,-0.0696,
15.476319,-0.1088,0.9853,-0.0332,-0.2734,-0.0550,0.6627,-0.1410,0.0004,-0.0696,
15.476961,-0.1088,0.9853,-0.0332,-0.2734,-0.0550,0.6627,-0.2820,-0.0209,-0.0457,
15.493677,-0.1088,0.9853,-0.0332,-0.7052,-0.0122,0.1739,-0.2820,-0.0209,-0.0457,
15.513797,-0.1088,0.9853,-0.0332,0.0697,0.0112,-0.9471,-0.2820,-0.0209,-0.0457,
15.537713,-0.1088,0.9853,-0.0332,0.1532,0.0328,-0.6920,-0.2820,-0.0209,-0.0457,
15.541325,-0.1165,0.9840,-0.1462,0.1532,0.0328,-0.6920,-0.2820,-0.0209,-0.0457,
15.542300,-0.1165,0.9840,-0.1462,0.1532,0.0328,-0.6920,-0.4694,-0.0613,-0.0137,
15.553954,-0.1165,0.9840,-0.1462,-0.3211,0.0049,-0.1507,-0.4694,-0.0613,-0.0137,
15.573792,-0.1165,0.9840,-0.1462,0.2475,-0.0823,0.0165,-0.4694,-0.0613,-0.0137,
15.593789,-0.1165,0.9840,-0.1462,0.5847,0.0173,0.1473,-0.4694,-0.0613,-0.0137,
15.607318,-0.0793,0.9951,-0.0684,0.5847,0.0173,0.1473,-0.4694,-0.0613,-0.0137,
15.609803,-0.0793,0.9951,-0.0684,0.5847,0.0173,0.1473,-0.6004,0.0302,-0.1085,
15.613887,-0.0793,0.9951,-0.0684,-0.1649,0.0107,-0.1104,-0.6004,0.0302,-0.1085,
15.634251,-0.0793,0.9951,-0.0684,-0.4387,0.1427,-0.4359,-0.6004,0.0302,-0.1085,
15.654735,-0.0793,0.9951,-0.0684,0.3348,0.3433,-0.4143,-0.6004,0.0302,-0.1085,
15.674123,-0.0802,1.0517,-0.0929,0.3348,0.3433,-0.4143,-0.6004,0.0302,-0.1085,
15.678330,-0.0802,1.0517,-0.0929,0.3348,0.3433,-0.4143,-0.7186,0.3661,-0.0867,
15.680769,-0.0802,1.0517,-0.0929,-0.0252,0.4087,-0.5926,-0.7186,0.3661,-0.0867,
15.694952,-0.0802,1.0517,-0.0929,0.4914,0.6824,-1.3843,-0.7186,0.3661,-0.0867,
15.714895,-0.0802,1.0517,-0.0929,0.8493,3.3516,-1.9783,-0.7186,0.3661,-0.0867,
15.734466,-0.0802,1.0517,-0.0929,3.4676,3.9755,-4.3584,-0.7186,0.3661,-0.0867,
15.739844,0.3762,1.6265,-0.5715,3.4676,3.9755,-4.3584,-0.7186,0.3661,-0.0867,
15.742339,0.3762,1.6265,-0.5715,3.4676,3.9755,-4.3584,-0.7579,0.6126,-0.6259,
15.755569,0.3762,1.6265,-0.5715,5.3365,5.9991,-5.8618,-0.7579,0.6126,-0.6259,
15.775305,0.3762,1.6265,-0.5715,6.7196,1.2894,0.9618,-0.7579,0.6126,-0.6259,
15.794319,0.3762,1.6265,-0.5715,3.1269,-2.0433,1.4715,-0.7579,0.6126,-0.6259,
15.807590,-0.1525,0.9460,0.1333,3.1269,-2.0433,1.4715,-0.7579,0.6126,-0.6259,
15.811874,-0.1525,0.9460,0.1333,3.1269,-2.0433,1.4715,0.3094,2.6711,-1.3344,
15.814477,-0.1525,0.9460,0.1333,0.9138,-0.1442,-0.7038,0.3094,2.6711,-1.3344,
15.834446,-0.1525,0.9460,0.1333,7.0953,-0.3719,-1.5746,0.3094,2.6711,-1.3344,
15.856015,-0.1525,0.9460,0.1333,5.9711,-1.8676,-1.7217,0.3094,2.6711,-1.3344,
15.874329,0.1740,0.7060,-0.3209,5.9711,-1.8676,-1.7217,0.3094,2.6711,-1.3344,
15.878547,0.1740,0.7060,-0.3209,5.9711,-1.8676,-1.7217,0.6633,4.8078,-0.9453,
15.881296,0.1740,0.7060,-0.3209,4.1619,-2.5699,-2.7476,0.6633,4.8078,-0.9453,
15.894428,0.1740,0.7060,-0.3209,3.2942,-2.5301,-3.1910,0.6633,4.8078,-0.9453,
15.919337,0.1740,0.7060,-0.3209,2.9787,-2.4293,-3.1311,0.6633,4.8078,-0.9453,
15.934292,0.1740,0.7060,-0.3209,3.1518,-1.7791,-2.8700,0.6633,4.8078,-0.9453,
15.939298,0.0507,0.8030,-0.4453,3.1518,-1.7791,-2.8700,0.6633,4.8078,-0.9453,
15.941765,0.0507,0.8030,-0.4453,3.1518,-1.7791,-2.8700,-0.0537,3.7293,-0.0084,
15.954522,0.0507,0.8030,-0.4453,2.3685,-0.9217,-3.1028,-0.0537,3.7293,-0.0084,
15.973761,0.0507,0.8030,-0.4453,1.7948,-0.6819,-2.8100,-0.0537,3.7293,-0.0084,
15.993845,0.0507,0.8030,-0.4453,2.1244,-0.6899,-1.5572,-0.0537,3.7293,-0.0084,
16.004188,0.0183,0.9295,-0.3401,2.1244,-0.6899,-1.5572,-0.0537,3.7293,-0.0084,
16.006614,0.0183,0.9295,-0.3401,2.1244,-0.6899,-1.5572,-0.6973,3.3759,0.8060,
16.014202,0.0183,0.9295,-0.3401,2.1824,-0.1128,-1.8115,-0.6973,3.3759,0.8060,
16.033760,0.0183,0.9295,-0.3401,3.1053,0.4395,-1.7231,-0.6973,3.3759,0.8060,
16.054590,0.0183,0.9295,-0.3401,3.3057,0.8457,-1.7083,-0.6973,3.3759,0.8060,
16.071229,0.0927,1.0857,-0.4211,3.3057,0.8457,-1.7083,-0.6973,3.3759,0.8060,
16.074395,0.0927,1.0857,-0.4211,3.3057,0.8457,-1.7083,-0.6643,4.2074,1.0003,
16.075629,0.0927,1.0857,-0.4211,1.7800,0.9965,-2.5918,-0.6643,4.2074,1.0003,
16.094487,0.0927,1.0857,-0.4211,1.0424,0.7319,-3.0943,-0.6643,4.2074,1.0003,
16.113656,0.0927,1.0857,-0.4211,1.5304,0.8121,-3.7645,-0.6643,4.2074,1.0003,
16.133920,0.0927,1.0857,-0.4211,2.8821,1.0976,-4.6533,-0.6643,4.2074,1.0003,
16.137446,0.3450,1.1147,-0.6287,2.8821,1.0976,-4.6533,-0.6643,4.2074,1.0003,
16.138584,0.3450,1.1147,-0.6287,2.8821,1.0976,-4.6533,-0.5360,3.6628,0.8869,
16.155072,0.3450,1.1147,-0.6287,3.3806,1.9401,-5.3205,-0.5360,3.6628,0.8869,
16.174849,0.3450,1.1147,-0.6287,-5.0584,1.4419,-5.9637,-0.5360,3.6628,0.8869,
16.194150,0.3450,1.1147,-0.6287,-9.8287,-0.5803,-7.6411,-0.5360,3.6628,0.8869,
16.201580,-0.7250,0.9142,-0.8422,-9.8287,-0.5803,-7.6411,-0.5360,3.6628,0.8869,
16.204690,-0.7250,0.9142,-0.8422,-9.8287,-0.5803,-7.6411,-0.6903,1.4872,1.5928,
16.214092,-0.7250,0.9142,-0.8422,-4.9265,-0.6878,-5.6538,-0.6903,1.4872,1.5928,
16.233942,-0.7250,0.9142,-0.8422,-2.0543,-0.3569,-0.5951,-0.6903,1.4872,1.5928,
16.253987,-0.7250,0.9142,-0.8422,-1.7728,-0.5050,-2.6015,-0.6903,1.4872,1.5928,
16.267569,-0.0220,0.9697,-0.3685,-1.7728,-0.5050,-2.6015,-0.6903,1.4872,1.5928,
16.269293,-0.0220,0.9697,-0.3685,-1.7728,-0.5050,-2.6015,-0.0361,-0.4318,1.0024,
16.274023,-0.0220,0.9697,-0.3685,-2.0173,-0.0016,-2.6273,-0.0361,-0.4318,1.0024,
16.293918,-0.0220,0.9697,-0.3685,-3.8097,0.4552,-0.9713,-0.0361,-0.4318,1.0024,
16.313870,-0.0220,0.9697,-0.3685,-6.6214,-0.2517,-0.4293,-0.0361,-0.4318,1.0024,
16.333960,-0.4383,0.9187,-0.0947,-6.6214,-0.2517,-0.4293,-0.0361,-0.4318,1.0024,
16.337552,-0.4383,0.9187,-0.0947,-6.6214,-0.2517,-0.4293,0.2162,0.4374,0.7395,
16.339417,-0.4383,0.9187,-0.0947,-6.7479,-0.5637,-0.1539,0.2162,0.4374,0.7395,
16.355678,-0.4383,0.9187,-0.0947,-4.8063,0.0132,-0.4565,0.2162,0.4374,0.7395,
16.373895,-0.4383,0.9187,-0.0947,-4.3807,0.0730,-0.2782,0.2162,0.4374,0.7395,
16.394152,-0.4383,0.9187,-0.0947,2.3740,9.2458,-0.4390,0.2162,0.4374,0.7395,
16.399311,0.5420,1.2960,-0.3504,2.3740,9.2458,-0.4390,0.2162,0.4374,0.7395,
16.400564,0.5420,1.2960,-0.3504,2.3740,9.2458,-0.4390,0.3833,1.1230,-1.2557,
16.414239,0.5420,1.2960,-0.3504,-2.5855,-2.7752,-2.0261,0.3833,1.1230,-1.2557,
16.433926,0.5420,1.2960,-0.3504,-7.3401,-0.7503,-0.7048,0.3833,1.1230,-1.2557,
16.454056,0.5420,1.2960,-0.3504,-4.3979,0.8839,-1.8601,0.3833,1.1230,-1.2557,
16.465250,-0.0097,1.1601,-0.1837,-4.3979,0.8839,-1.8601,0.3833,1.1230,-1.2557,
16.466878,-0.0097,1.1601,-0.1837,-4.3979,0.8839,-1.8601,0.3424,1.5021,-1.2572,
16.473965,-0.0097,1.1601,-0.1837,1.5466,1.4490,-0.0110,0.3424,1.5021,-1.2572,
16.494134,-0.0097,1.1601,-0.1837,3.1423,-1.5211,3.8902,0.3424,1.5021,-1.2572,
16.515987,-0.0097,1.1601,-0.1837,-6.4619,0.2455,1.3115,0.3424,1.5021,-1.2572,
16.532266,-0.7635,1.0574,0.2457,-6.4619,0.2455,1.3115,0.3424,1.5021,-1.2572,
16.536421,-0.7635,1.0574,0.2457,-6.4619,0.2455,1.3115,0.2508,0.3954,-0.8958,
16.539336,-0.7635,1.0574,0.2457,-8.0432,0.6016,3.2394,0.2508,0.3954,-0.8958,
16.556146,-0.7635,1.0574,0.2457,-2.5208,-0.6580,2.3626,0.2508,0.3954,-0.8958,
16.574381,-0.7635,1.0574,0.2457,-0.7249,0.2061,-0.5449,0.2508,0.3954,-0.8958,
16.593980,-0.7635,1.0574,0.2457,-1.3625,0.5746,-7.1765,0.2508,0.3954,-0.8958,
16.597106,0.0006,1.0390,-0.7501,-1.3625,0.5746,-7.1765,0.2508,0.3954,-0.8958,
16.598113,0.0006,1.0390,-0.7501,-1.3625,0.5746,-7.1765,0.0826,0.3256,-0.6547,
16.613948,0.0006,1.0390,-0.7501,0.0051,0.3140,-1.0439,0.0826,0.3256,-0.6547,
16.634258,0.0006,1.0390,-0.7501,-5.4624,0.3442,1.5985,0.0826,0.3256,-0.6547,
16.654621,0.0006,1.0390,-0.7501,-3.4750,-0.5244,2.4895,0.0826,0.3256,-0.6547,
16.663273,0.1083,0.9820,0.0502,-3.4750,-0.5244,2.4895,0.0826,0.3256,-0.6547,
16.664707,0.1083,0.9820,0.0502,-3.4750,-0.5244,2.4895,0.4211,-0.1098,0.1364,
16.673824,0.1083,0.9820,0.0502,2.1289,-0.2634,-0.1864,0.4211,-0.1098,0.1364,
16.693799,0.1083,0.9820,0.0502,-0.1250,0.0405,-1.7834,0.4211,-0.1098,0.1364,
16.713705,0.1083,0.9820,0.0502,-0.9411,0.0689,-1.3578,0.4211,-0.1098,0.1364,
16.729393,-0.0937,1.0036,-0.2198,-0.9411,0.0689,-1.3578,0.4211,-0.1098,0.1364,
16.731888,-0.0937,1.0036,-0.2198,-0.9411,0.0689,-1.3578,0.2205,0.0254,-0.0201,
16.733809,-0.0937,1.0036,-0.2198,-0.5547,0.0956,-0.7101,0.2205,0.0254,-0.0201,
16.753893,-0.0937,1.0036,-0.2198,0.2313,-0.0749,0.1461,0.2205,0.0254,-0.0201,
16.773840,-0.0937,1.0036,-0.2198,0.4057,-0.0389,0.3565,0.2205,0.0254,-0.0201,
16.793857,-0.0937,1.0036,-0.2198,-0.6549,0.0075,-0.3335,0.2205,0.0254,-0.0201,
16.797422,-0.1143,0.9895,-0.1929,-0.6549,0.0075,-0.3335,0.2205,0.0254,-0.0201,
16.798257,-0.1143,0.9895,-0.1929,-0.6549,0.0075,-0.3335,0.2236,-0.0267,-0.0899,
16.814342,-0.1143,0.9895,-0.1929,-0.3890,-0.0634,-0.0934,0.2236,-0.0267,-0.0899,
16.833916,-0.1143,0.9895,-0.1929,-0.2500,-0.0078,-0.4859,0.2236,-0.0267,-0.0899,
16.854426,-0.1143,0.9895,-0.1929,0.8690,-0.0999,-0.3243,0.2236,-0.0267,-0.0899,
16.861561,0.0146,0.9779,-0.1984,0.8690,-0.0999,-0.3243,0.2236,-0.0267,-0.0899,
16.863124,0.0146,0.9779,-0.1984,0.8690,-0.0999,-0.3243,0.1496,-0.0124,-0.1777,
16.874922,0.0146,0.9779,-0.1984,-0.3815,-0.0352,-0.1469,0.1496,-0.0124,-0.1777,
16.894483,0.0146,0.9779,-0.1984,-0.9423,0.0198,0.0469,0.1496,-0.0124,-0.1777,
16.913853,0.0146,0.9779,-0.1984,0.1662,-0.0136,-0.1305,0.1496,-0.0124,-0.1777,
16.928385,-0.0289,0.9848,-0.2083,0.1662,-0.0136,-0.1305,0.1496,-0.0124,-0.1777,
16.930965,-0.0289,0.9848,-0.2083,0.1662,-0.0136,-0.1305,0.1140,-0.0699,-0.1308,
16.933646,-0.0289,0.9848,-0.2083,0.0681,0.0014,-0.3895,0.1140,-0.0699,-0.1308,
16.953945,-0.0289,0.9848,-0.2083,-0.1675,-0.0622,-0.3895,0.1140,-0.0699,-0.1308,
16.975679,-0.0289,0.9848,-0.2083,-0.1561,-0.0383,0.4498,0.1140,-0.0699,-0.1308,
16.993916,-0.0964,0.9809,-0.1617,-0.1561,-0.0383,0.4498,0.1140,-0.0699,-0.1308,
16.996872,-0.0964,0.9809,-0.1617,-0.1561,-0.0383,0.4498,0.1177,-0.1290,-0.1537,
16.998687,-0.0964,0.9809,-0.1617,-0.3297,-0.0233,0.1746,0.1177,-0.1290,-0.1537,
17.013874,-0.0964,0.9809,-0.1617,-0.5504,0.0609,-0.3040,0.1177,-0.1290,-0.1537,
17.033937,-0.0964,0.9809,-0.1617,0.2207,-0.0322,-0.4828,0.1177,-0.1290,-0.1537,
17.054190,-0.0964,0.9809,-0.1617,-0.3677,0.0598,-0.5406,0.1177,-0.1290,-0.1537,
17.059693,-0.1412,0.9875,-0.2191,-0.3677,0.0598,-0.5406,0.1177,-0.1290,-0.1537,
17.061437,-0.1412,0.9875,-0.2191,-0.3677,0.0598,-0.5406,0.0240,-0.0959,-0.1436,
17.075261,-0.1412,0.9875,-0.2191,-0.6167,0.0238,-0.0654,0.0240,-0.0959,-0.1436,
17.093886,-0.1412,0.9875,-0.2191,0.1023,0.0257,-0.3970,0.0240,-0.0959,-0.1436,
17.113886,-0.1412,0.9875,-0.2191,-0.0093,0.0762,-0.3304,0.0240,-0.0959,-0.1436,
17.125358,-0.1310,0.9926,-0.2718,-0.0093,0.0762,-0.3304,0.0240,-0.0959,-0.1436,
17.128577,-0.1310,0.9926,-0.2718,-0.0093,0.0762,-0.3304,-0.0925,-0.0480,-0.1500,
17.134187,-0.1310,0.9926,-0.2718,-0.4548,0.1067,-0.7311,-0.0925,-0.0480,-0.1500,
17.153886,-0.1310,0.9926,-0.2718,-0.0726,0.1440,-0.6554,-0.0925,-0.0480,-0.1500,
17.174225,-0.1310,0.9926,-0.2718,0.8017,0.4065,-0.9467,-0.0925,-0.0480,-0.1500,
17.192301,-0.0125,1.0142,-0.2083,0.8017,0.4065,-0.9467,-0.0925,-0.0480,-0.1500,
17.195303,-0.0125,1.0142,-0.2083,0.8017,0.4065,-0.9467,-0.2437,-0.1071,-0.3374,
17.196536,-0.0125,1.0142,-0.2083,0.7366,0.3048,-0.3300,-0.2437,-0.1071,-0.3374,
17.214644,-0.0125,1.0142,-0.2083,-0.0841,0.6166,0.0379,-0.2437,-0.1071,-0.3374,
17.234131,-0.0125,1.0142,-0.2083,1.3350,0.8584,0.2355,-0.2437,-0.1071,-0.3374,
17.254002,-0.0125,1.0142,-0.2083,3.0678,2.7718,-0.4399,-0.2437,-0.1071,-0.3374,
17.260248,0.3602,1.3861,-0.0961,3.0678,2.7718,-0.4399,-0.2437,-0.1071,-0.3374,
17.263129,0.3602,1.3861,-0.0961,3.0678,2.7718,-0.4399,-0.1756,-0.2157,-0.7531,
17.276424,0.3602,1.3861,-0.0961,5.7244,3.4162,-0.3810,-0.1756,-0.2157,-0.7531,
17.294518,0.3602,1.3861,-0.0961,1.3690,1.6287,1.0187,-0.1756,-0.2157,-0.7531,
17.314142,0.3602,1.3861,-0.0961,2.8822,3.1525,-0.0851,-0.1756,-0.2157,-0.7531,
17.326698,0.3385,1.3259,-0.1639,2.8822,3.1525,-0.0851,-0.1756,-0.2157,-0.7531,
17.329255,0.3385,1.3259,-0.1639,2.8822,3.1525,-0.0851,-0.0664,-0.2189,-1.7167,
17.333802,0.3385,1.3259,-0.1639,5.8322,3.2053,-0.2293,-0.0664,-0.2189,-1.7167,
17.354659,0.3385,1.3259,-0.1639,3.6133,3.2492,0.1075,-0.0664,-0.2189,-1.7167,
17.374602,0.3385,1.3259,-0.1639,2.9571,3.4285,-0.5723,-0.0664,-0.2189,-1.7167,
17.389186,0.0534,0.9639,-0.1324,2.9571,3.4285,-0.5723,-0.0664,-0.2189,-1.7167,
17.390889,0.0534,0.9639,-0.1324,2.9571,3.4285,-0.5723,0.2370,-0.5899,-2.6972,
17.395063,0.0534,0.9639,-0.1324,3.5586,0.1289,0.2614,0.2370,-0.5899,-2.6972,
17.414202,0.0534,0.9639,-0.1324,-1.1653,-1.1619,-0.8530,0.2370,-0.5899,-2.6972,
17.434064,0.0534,0.9639,-0.1324,0.4147,-2.1290,0.1374,0.2370,-0.5899,-2.6972,
17.454611,0.0534,0.9639,-0.1324,1.6011,-3.3100,1.1085,0.2370,-0.5899,-2.6972,
17.458871,-0.5139,0.6212,-0.0574,1.6011,-3.3100,1.1085,0.2370,-0.5899,-2.6972,
17.460756,-0.5139,0.6212,-0.0574,1.6011,-3.3100,1.1085,0.2870,-0.0140,-0.9842,
17.476402,-0.5139,0.6212,-0.0574,-0.2695,-2.4220,-1.0429,0.2870,-0.0140,-0.9842,
17.494771,-0.5139,0.6212,-0.0574,4.9514,-2.1566,-0.2755,0.2870,-0.0140,-0.9842,
17.513947,-0.5139,0.6212,-0.0574,5.3770,-2.3736,0.0790,0.2870,-0.0140,-0.9842,
17.521514,0.0446,0.6286,-0.2111,5.3770,-2.3736,0.0790,0.2870,-0.0140,-0.9842,
17.522821,0.0446,0.6286,-0.2111,5.3770,-2.3736,0.0790,0.2194,0.1356,1.0131,
17.534495,0.0446,0.6286,-0.2111,4.5328,-2.3562,-0.1841,0.2194,0.1356,1.0131,
17.553986,0.0446,0.6286,-0.2111,3.8268,-2.0688,0.3924,0.2194,0.1356,1.0131,
17.574030,0.0446,0.6286,-0.2111,3.0299,-1.3306,0.2696,0.2194,0.1356,1.0131,
17.587223,-0.1224,0.8408,-0.1577,3.0299,-1.3306,0.2696,0.2194,0.1356,1.0131,
17.588990,-0.1224,0.8408,-0.1577,3.0299,-1.3306,0.2696,0.1145,-0.1662,2.0682,
17.594242,-0.1224,0.8408,-0.1577,2.3578,-0.5518,0.2640,0.1145,-0.1662,2.0682,
17.614163,-0.1224,0.8408,-0.1577,2.0055,-0.2249,0.4192,0.1145,-0.1662,2.0682,
17.633979,-0.1224,0.8408,-0.1577,2.7955,-0.1652,0.8542,0.1145,-0.1662,2.0682,
17.654017,0.0951,1.0212,-0.1274,2.7955,-0.1652,0.8542,0.1145,-0.1662,2.0682,
17.656947,0.0951,1.0212,-0.1274,2.7955,-0.1652,0.8542,0.0187,-0.3914,2.5664,
17.658785,0.0951,1.0212,-0.1274,3.2472,0.5162,0.6265,0.0187,-0.3914,2.5664,
17.675235,0.0951,1.0212,-0.1274,1.7978,1.2441,0.2019,0.0187,-0.3914,2.5664,
17.694959,0.0951,1.0212,-0.1274,1.8646,1.3360,0.8484,0.0187,-0.3914,2.5664,
17.715212,0.0951,1.0212,-0.1274,3.4556,2.4775,1.7123,0.0187,-0.3914,2.5664,
17.719293,0.2334,1.3363,-0.0263,3.4556,2.4775,1.7123,0.0187,-0.3914,2.5664,
17.720699,0.2334,1.3363,-0.0263,3.4556,2.4775,1.7123,-0.2783,-0.7246,1.9692,
17.733895,0.2334,1.3363,-0.0263,1.0289,4.6622,0.5267,-0.2783,-0.7246,1.9692,
17.754057,0.2334,1.3363,-0.0263,-3.0127,3.9241,-0.0599,-0.2783,-0.7246,1.9692,
17.774424,0.2334,1.3363,-0.0263,-4.5915,1.7325,3.1980,-0.2783,-0.7246,1.9692,
17.785128,-0.3744,1.1349,0.1100,-4.5915,1.7325,3.1980,-0.2783,-0.7246,1.9692,
17.786798,-0.3744,1.1349,0.1100,-4.5915,1.7325,3.1980,-0.1495,-0.6921,1.8659,
17.794636,-0.3744,1.1349,0.1100,-3.8769,1.5376,1.9209,-0.1495,-0.6921,1.8659,
17.814311,-0.3744,1.1349,0.1100,-3.4959,2.1145,1.0801,-0.1495,-0.6921,1.8659,
17.833887,-0.3744,1.1349,0.1100,-5.4625,2.3563,0.5849,-0.1495,-0.6921,1.8659,
17.852040,-0.5970,1.0416,-0.0278,-5.4625,2.3563,0.5849,-0.1495,-0.6921,1.8659,
17.854643,-0.5970,1.0416,-0.0278,-5.4625,2.3563,0.5849,-0.2357,-0.0113,1.4672,
17.855948,-0.5970,1.0416,-0.0278,-7.1940,0.5852,1.1139,-0.2357,-0.0113,1.4672,
17.873754,-0.5970,1.0416,-0.0278,-6.6823,-1.1856,1.5539,-0.2357,-0.0113,1.4672,
17.894817,-0.5970,1.0416,-0.0278,-4.5228,-0.6588,1.1513,-0.2357,-0.0113,1.4672,
17.914151,-0.5970,1.0416,-0.0278,-3.4235,-0.2023,0.1111,-0.2357,-0.0113,1.4672,
17.917417,-0.1214,0.9527,-0.1345,-3.4235,-0.2023,0.1111,-0.2357,-0.0113,1.4672,
17.919490,-0.1214,0.9527,-0.1345,-3.4235,-0.2023,0.1111,-0.1303,0.1063,0.6069,
17.934352,-0.1214,0.9527,-0.1345,-3.9665,-0.1729,0.1165,-0.1303,0.1063,0.6069,
17.953953,-0.1214,0.9527,-0.1345,-5.2848,-0.6855,0.2587,-0.1303,0.1063,0.6069,
17.973962,-0.1214,0.9527,-0.1345,-5.8277,-0.8009,-0.1022,-0.1303,0.1063,0.6069,
17.983528,-0.3924,0.8875,-0.1519,-5.8277,-0.8009,-0.1022,-0.1303,0.1063,0.6069,
17.985227,-0.3924,0.8875,-0.1519,-5.8277,-0.8009,-0.1022,-0.0771,0.3038,-0.3390,
17.995559,-0.3924,0.8875,-0.1519,-5.8698,-0.7185,-0.7384,-0.0771,0.3038,-0.3390,
18.014690,-0.3924,0.8875,-0.1519,4.3926,4.9320,-2.9282,-0.0771,0.3038,-0.3390,
18.034026,-0.3924,0.8875,-0.1519,0.4015,-2.5876,-5.7381,-0.0771,0.3038,-0.3390,
18.049517,0.2347,1.1560,-0.1959,0.4015,-2.5876,-5.7381,-0.0771,0.3038,-0.3390,
18.052293,0.2347,1.1560,-0.1959,0.4015,-2.5876,-5.7381,0.3274,-0.2381,-1.1849,
18.054452,0.2347,1.1560,-0.1959,0.7450,1.2720,-0.5819,0.3274,-0.2381,-1.1849,
18.073836,0.2347,1.1560,-0.1959,3.2430,0.7238,3.0347,0.3274,-0.2381,-1.1849,
18.094661,0.2347,1.1560,-0.1959,2.8823,-1.1042,2.9124,0.3274,-0.2381,-1.1849,
18.114260,0.2347,1.1560,-0.1959,-9.9368,-0.2170,2.3057,0.3274,-0.2381,-1.1849,
18.117680,-1.1114,0.9687,0.1823,-9.9368,-0.2170,2.3057,0.3274,-0.2381,-1.1849,
18.119262,-1.1114,0.9687,0.1823,-9.9368,-0.2170,2.3057,0.1278,0.5897,-1.3600,
18.134109,-1.1114,0.9687,0.1823,-5.6548,0.6154,2.6051,0.1278,0.5897,-1.3600,
18.153949,-1.1114,0.9687,0.1823,-2.2804,0.4104,0.0079,0.1278,0.5897,-1.3600,
18.174930,-1.1114,0.9687,0.1823,-1.8638,-0.3963,-6.0200,0.1278,0.5897,-1.3600,
18.181526,0.0681,1.0460,-0.7342,-1.8638,-0.3963,-6.0200,0.1278,0.5897,-1.3600,
18.183360,0.0681,1.0460,-0.7342,-1.8638,-0.3963,-6.0200,0.1486,0.1580,-0.5716,
18.196370,0.0681,1.0460,-0.7342,1.0446,0.1329,-2.7499,0.1486,0.1580,-0.5716,
18.214456,0.0681,1.0460,-0.7342,-3.6195,0.0930,1.5857,0.1486,0.1580,-0.5716,
18.233796,0.0681,1.0460,-0.7342,-3.0965,-0.3733,1.5989,0.1486,0.1580,-0.5716,
18.247451,-0.0231,0.9811,-0.0424,-3.0965,-0.3733,1.5989,0.1486,0.1580,-0.5716,
18.250736,-0.0231,0.9811,-0.0424,-3.0965,-0.3733,1.5989,0.3354,-0.1816,-0.0680,
18.253960,-0.0231,0.9811,-0.0424,0.2154,-0.1103,0.8111,0.3354,-0.1816,-0.0680,
18.273874,-0.0231,0.9811,-0.0424,0.0225,0.0485,-0.7125,0.3354,-0.1816,-0.0680,
18.294277,-0.0231,0.9811,-0.0424,-0.3752,0.1086,-1.0769,0.3354,-0.1816,-0.0680,
18.313544,-0.0109,0.9888,-0.2549,-0.3752,0.1086,-1.0769,0.3354,-0.1816,-0.0680,
18.316097,-0.0109,0.9888,-0.2549,-0.3752,0.1086,-1.0769,0.1534,-0.0252,-0.1420,
18.316786,-0.0109,0.9888,-0.2549,0.1652,0.0578,-0.7032,0.1534,-0.0252,-0.1420,
18.334808,-0.0109,0.9888,-0.2549,-0.3855,0.0250,-0.2316,0.1534,-0.0252,-0.1420,
18.354310,-0.0109,0.9888,-0.2549,-0.0552,-0.0479,-0.1479,0.1534,-0.0252,-0.1420,
18.373759,-0.0109,0.9888,-0.2549,0.1356,0.0259,0.2183,0.1534,-0.0252,-0.1420,
18.379758,-0.0285,0.9846,-0.2007,0.1356,0.0259,0.2183,0.1534,-0.0252,-0.1420,
18.383162,-0.0285,0.9846,-0.2007,0.1356,0.0259,0.2183,0.1385,-0.1034,-0.1580,
18.393452,-0.0285,0.9846,-0.2007,-0.1155,0.0320,-0.3937,0.1385,-0.1034,-0.1580,
18.414147,-0.0285,0.9846,-0.2007,-0.2280,-0.0406,-0.2828,0.1385,-0.1034,-0.1580,
18.433826,-0.0285,0.9846,-0.2007,-0.7450,-0.0456,0.1465,0.1385,-0.1034,-0.1580,
18.446560,-0.1152,0.9769,-0.1835,-0.7450,-0.0456,0.1465,0.1385,-0.1034,-0.1580,
18.449159,-0.1152,0.9769,-0.1835,-0.7450,-0.0456,0.1465,0.1129,-0.0587,-0.0824,
18.453796,-0.1152,0.9769,-0.1835,-0.5112,-0.0308,0.2045,0.1129,-0.0587,-0.0824,
18.473869,-0.1152,0.9769,-0.1835,0.4461,-0.0058,-0.1752,0.1129,-0.0587,-0.0824,
18.494161,-0.1152,0.9769,-0.1835,0.4359,0.0190,-0.5269,0.1129,-0.0587,-0.0824,
18.514283,-0.0797,0.9792,-0.2228,0.4359,0.0190,-0.5269,0.1129,-0.0587,-0.0824,
18.516213,-0.0797,0.9792,-0.2228,0.4359,0.0190,-0.5269,0.0549,-0.0411,-0.1772,
18.517627,-0.0797,0.9792,-0.2228,-0.2996,0.0137,-0.1123,0.0549,-0.0411,-0.1772,
18.533852,-0.0797,0.9792,-0.2228,-0.6891,-0.0316,0.7106,0.0549,-0.0411,-0.1772,
18.554012,-0.0797,0.9792,-0.2228,-0.7659,0.0325,-0.2625,0.0549,-0.0411,-0.1772,
18.574356,-0.0797,0.9792,-0.2228,0.1426,0.0273,-0.4812,0.0549,-0.0411,-0.1772,
18.577161,-0.0391,0.9756,-0.2518,0.1426,0.0273,-0.4812,0.0549,-0.0411,-0.1772,
18.578665,-0.0391,0.9756,-0.2518,0.1426,0.0273,-0.4812,0.0469,-0.0778,-0.0755,
18.594083,-0.0391,0.9756,-0.2518,-0.0277,0.0006,-0.0905,0.0469,-0.0778,-0.0755,
18.614132,-0.0391,0.9756,-0.2518,-0.2908,0.0034,0.0536,0.0469,-0.0778,-0.0755,
18.633766,-0.0391,0.9756,-0.2518,0.1579,0.1044,-0.6146,0.0469,-0.0778,-0.0755,
18.643275,-0.0515,0.9763,-0.2409,0.1579,0.1044,-0.6146,0.0469,-0.0778,-0.0755,
18.645459,-0.0515,0.9763,-0.2409,0.1579,0.1044,-0.6146,-0.0026,-0.0086,-0.1213,
18.654549,-0.0515,0.9763,-0.2409,-0.2148,-0.0410,-0.0346,-0.0026,-0.0086,-0.1213,
18.674027,-0.0515,0.9763,-0.2409,-0.5529,0.0194,-0.0935,-0.0026,-0.0086,-0.1213,
18.693442,-0.0515,0.9763,-0.2409,0.1497,0.0598,-0.2403,-0.0026,-0.0086,-0.1213,
18.709223,-0.0122,0.9998,-0.2420,0.1497,0.0598,-0.2403,-0.0026,-0.0086,-0.1213,
18.710823,-0.0122,0.9998,-0.2420,0.1497,0.0598,-0.2403,-0.0169,-0.0826,-0.1245,
18.714533,-0.0122,0.9998,-0.2420,0.5584,0.2269,-0.2440,-0.0169,-0.0826,-0.1245,
18.734253,-0.0122,0.9998,-0.2420,-0.3537,-0.0465,-0.0037,-0.0169,-0.0826,-0.1245,
18.754512,-0.0122,0.9998,-0.2420,-0.5152,-0.1139,0.0486,-0.0169,-0.0826,-0.1245,
18.773855,-0.0122,0.9998,-0.2420,-0.0101,0.0631,-0.3103,-0.0169,-0.0826,-0.1245,
18.776553,-0.0712,0.9845,-0.2415,-0.0101,0.0631,-0.3103,-0.0169,-0.0826,-0.1245,
18.777314,-0.0712,0.9845,-0.2415,-0.0101,0.0631,-0.3103,-0.0356,-0.0720,-0.1229,
18.794741,-0.0712,0.9845,-0.2415,0.1330,0.0930,-0.0920,-0.0356,-0.0720,-0.1229,
18.814992,-0.0712,0.9845,-0.2415,0.3803,0.3589,-0.2956,-0.0356,-0.0720,-0.1229,
18.833822,-0.0712,0.9845,-0.2415,0.7308,0.5549,-0.0366,-0.0356,-0.0720,-0.1229,
18.841427,-0.0338,1.0017,-0.1981,0.7308,0.5549,-0.0366,-0.0356,-0.0720,-0.1229,
18.843093,-0.0338,1.0017,-0.1981,0.7308,0.5549,-0.0366,-0.1287,-0.0480,-0.2847,
18.854593,-0.0338,1.0017,-0.1981,0.1913,0.1524,0.4991,-0.1287,-0.0480,-0.2847,
18.874153,-0.0338,1.0017,-0.1981,-0.0228,0.4963,0.0525,-0.1287,-0.0480,-0.2847,
18.893929,-0.0338,1.0017,-0.1981,3.4075,4.1638,0.1606,-0.1287,-0.0480,-0.2847,
18.907585,0.5248,1.1741,-0.1193,3.4075,4.1638,0.1606,-0.1287,-0.0480,-0.2847,
18.910378,0.5248,1.1741,-0.1193,3.4075,4.1638,0.1606,-0.0771,-0.0140,-0.8804,
18.914909,0.5248,1.1741,-0.1193,5.5345,1.7832,0.7144,-0.0771,-0.0140,-0.8804,
18.934220,0.5248,1.1741,-0.1193,1.2624,2.3740,0.6596,-0.0771,-0.0140,-0.8804,
18.954327,0.5248,1.1741,-0.1193,3.7458,3.1535,0.2316,-0.0771,-0.0140,-0.8804,
18.973883,0.4997,1.3628,-0.1187,3.7458,3.1535,0.2316,-0.0771,-0.0140,-0.8804,
18.976548,0.4997,1.3628,-0.1187,3.7458,3.1535,0.2316,0.1438,-0.1992,-1.9525,
18.977599,0.4997,1.3628,-0.1187,6.6530,4.0071,0.7209,0.1438,-0.1992,-1.9525,
18.993717,0.4997,1.3628,-0.1187,2.7104,2.4988,1.2383,0.1438,-0.1992,-1.9525,
19.013772,0.4997,1.3628,-0.1187,2.4942,2.3997,0.2789,0.1438,-0.1992,-1.9525,
19.034104,0.4997,1.3628,-0.1187,2.7927,0.8195,0.9902,0.1438,-0.1992,-1.9525,
19.039487,-0.0567,1.0346,-0.1707,2.7927,0.8195,0.9902,0.1438,-0.1992,-1.9525,
19.040869,-0.0567,1.0346,-0.1707,2.7927,0.8195,0.9902,0.2268,0.5753,-2.5135,
19.054775,-0.0567,1.0346,-0.1707,1.2374,0.1638,-0.9588,0.2268,0.5753,-2.5135,
19.073796,-0.0567,1.0346,-0.1707,-2.4759,-2.7389,0.6716,0.2268,0.5753,-2.5135,
19.093479,-0.0567,1.0346,-0.1707,2.1037,-2.8375,0.9985,0.2268,0.5753,-2.5135,
19.105160,0.0381,0.6215,-0.1609,2.1037,-2.8375,0.9985,0.2268,0.5753,-2.5135,
19.108082,0.0381,0.6215,-0.1609,2.1037,-2.8375,0.9985,-0.2693,0.1548,-0.9246,
19.116067,0.0381,0.6215,-0.1609,3.1350,-1.8875,0.6475,-0.2693,0.1548,-0.9246,
