
time,gFx,gFy,gFz,ax,ay,az,wx,wy,wz,
0.039517,0.0000,0.0000,0.0000,0.1022,0.0705,-0.6159,0.0000,0.0000,0.0000,
0.058316,0.0000,0.0000,0.0000,0.1022,0.0705,-0.6159,0.0000,0.0000,0.0000,
0.067218,0.3580,0.9712,0.0095,0.1022,0.0705,-0.6159,0.0000,0.0000,0.0000,
0.067958,0.3580,0.9712,0.0095,0.1022,0.0705,-0.6159,-0.0357,-0.0218,0.0927,
0.080534,0.3580,0.9712,0.0095,0.0834,0.3030,0.0018,-0.0357,-0.0218,0.0927,
0.101459,0.3580,0.9712,0.0095,-2.1720,0.2694,0.0283,-0.0357,-0.0218,0.0927,
0.119109,0.3580,0.9712,0.0095,-1.4859,0.0721,-0.1656,-0.0357,-0.0218,0.0927,
0.132759,0.0273,0.9949,-0.0412,-1.4859,0.0721,-0.1656,-0.0357,-0.0218,0.0927,
0.133989,0.0273,0.9949,-0.0412,-1.4859,0.0721,-0.1656,0.0122,0.0378,0.0204,
0.139318,0.0273,0.9949,-0.0412,-1.3922,0.0977,-0.4920,0.0122,0.0378,0.0204,
0.160336,0.0273,0.9949,-0.0412,-0.0891,0.0621,-0.0093,0.0122,0.0378,0.0204,
0.179521,0.0273,0.9949,-0.0412,-0.3102,0.0622,-0.1823,0.0122,0.0378,0.0204,
0.198728,0.0292,0.9838,-0.0166,-0.3102,0.0622,-0.1823,0.0122,0.0378,0.0204,
0.200635,0.0292,0.9838,-0.0166,-0.3102,0.0622,-0.1823,-0.0309,0.0315,0.0166,
0.201471,0.0292,0.9838,-0.0166,-0.9574,-0.0760,-0.1295,-0.0309,0.0315,0.0166,
0.219385,0.0292,0.9838,-0.0166,-0.1293,-0.0344,0.1260,-0.0309,0.0315,0.0166,
0.239089,0.0292,0.9838,-0.0166,-0.1492,0.0189,-0.0792,-0.0309,0.0315,0.0166,
0.259730,0.0292,0.9838,-0.0166,0.1420,0.1098,-0.1671,-0.0309,0.0315,0.0166,
0.264422,0.0855,1.0011,-0.0293,0.1420,0.1098,-0.1671,-0.0309,0.0315,0.0166,
0.265640,0.0855,1.0011,-0.0293,0.1420,0.1098,-0.1671,-0.0645,-0.0665,0.0054,
0.279558,0.0855,1.0011,-0.0293,-0.7993,0.0610,0.1829,-0.0645,-0.0665,0.0054,
0.299479,0.0855,1.0011,-0.0293,-0.0556,0.0049,0.3748,-0.0645,-0.0665,0.0054,
0.319240,0.0855,1.0011,-0.0293,1.2557,-0.0185,0.1849,-0.0645,-0.0665,0.0054,
0.330964,0.0902,0.9983,-0.0053,1.2557,-0.0185,0.1849,-0.0645,-0.0665,0.0054,
0.332550,0.0902,0.9983,-0.0053,1.2557,-0.0185,0.1849,0.0111,-0.0005,-0.0691,
0.340858,0.0902,0.9983,-0.0053,-0.4556,0.0506,-0.1161,0.0111,-0.0005,-0.0691,
0.359322,0.0902,0.9983,-0.0053,-0.1668,-0.1763,-0.0169,0.0111,-0.0005,-0.0691,
0.379923,0.0902,0.9983,-0.0053,-0.1692,-0.0025,-0.4536,0.0111,-0.0005,-0.0691,
0.398148,0.0755,0.9946,-0.0414,-0.1692,-0.0025,-0.4536,0.0111,-0.0005,-0.0691,
0.400157,0.0755,0.9946,-0.0414,-0.1692,-0.0025,-0.4536,-0.0687,0.0272,-0.0222,
0.401597,0.0755,0.9946,-0.0414,-0.1944,-0.0243,-0.3595,-0.0687,0.0272,-0.0222,
0.421400,0.0755,0.9946,-0.0414,-0.3790,0.1199,-0.3761,-0.0687,0.0272,-0.0222,
0.440663,0.0755,0.9946,-0.0414,-0.0711,-0.0489,0.1077,-0.0687,0.0272,-0.0222,
0.459189,0.0755,0.9946,-0.0414,0.3013,0.0294,0.1543,-0.0687,0.0272,-0.0222,
0.463078,0.1050,0.9732,0.0314,0.3013,0.0294,0.1543,-0.0687,0.0272,-0.0222,
0.464935,0.1050,0.9732,0.0314,0.3013,0.0294,0.1543,-0.0996,-0.0388,-0.0073,
0.480444,0.1050,0.9732,0.0314,0.0515,-0.0879,0.0822,-0.0996,-0.0388,-0.0073,
0.499992,0.1050,0.9732,0.0314,0.3317,0.1094,-0.0593,-0.0996,-0.0388,-0.0073,
0.519270,0.1050,0.9732,0.0314,-0.4518,0.3634,-0.4916,-0.0996,-0.0388,-0.0073,
0.528451,0.1297,0.9993,0.0244,-0.4518,0.3634,-0.4916,-0.0996,-0.0388,-0.0073,
0.530502,0.1297,0.9993,0.0244,-0.4518,0.3634,-0.4916,-0.1124,-0.0500,-0.0345,
0.539910,0.1297,0.9993,0.0244,0.5147,0.0590,0.5350,-0.1124,-0.0500,-0.0345,
0.559054,0.1297,0.9993,0.0244,-0.1406,-0.0791,0.0982,-0.1124,-0.0500,-0.0345,
0.581140,0.1297,0.9993,0.0244,0.3732,-0.0303,0.0179,-0.1124,-0.0500,-0.0345,
0.595812,0.1083,0.9921,0.0297,0.3732,-0.0303,0.0179,-0.1124,-0.0500,-0.0345,
0.599403,0.1083,0.9921,0.0297,0.3732,-0.0303,0.0179,-0.0911,-0.0532,-0.1260,
0.600696,0.1083,0.9921,0.0297,0.1483,-0.0212,0.1703,-0.0911,-0.0532,-0.1260,
0.619089,0.1083,0.9921,0.0297,0.0203,0.0263,-0.1214,-0.0911,-0.0532,-0.1260,
0.639602,0.1083,0.9921,0.0297,0.1387,-0.0045,-0.0767,-0.0911,-0.0532,-0.1260,
0.659568,0.1083,0.9921,0.0297,0.0279,0.0130,-0.2371,-0.0911,-0.0532,-0.1260,
0.661913,0.0972,0.9980,-0.0182,0.0279,0.0130,-0.2371,-0.0911,-0.0532,-0.1260,
0.662986,0.0972,0.9980,-0.0182,0.0279,0.0130,-0.2371,-0.1140,-0.0234,-0.1777,
0.679884,0.0972,0.9980,-0.0182,0.2505,0.0112,-0.1065,-0.1140,-0.0234,-0.1777,
0.699724,0.0972,0.9980,-0.0182,-0.4602,-0.0700,0.4639,-0.1140,-0.0234,-0.1777,
0.719547,0.0972,0.9980,-0.0182,0.0809,0.1145,0.3994,-0.1140,-0.0234,-0.1777,
0.727367,0.1040,1.0061,0.0750,0.0809,0.1145,0.3994,-0.1140,-0.0234,-0.1777,
0.729532,0.1040,1.0061,0.0750,0.0809,0.1145,0.3994,0.0058,0.0469,-0.1697,
0.742520,0.1040,1.0061,0.0750,0.3407,0.0446,0.5012,0.0058,0.0469,-0.1697,
0.760680,0.1040,1.0061,0.0750,0.3330,0.0033,-0.0689,0.0058,0.0469,-0.1697,
0.779301,0.1040,1.0061,0.0750,0.5375,0.0793,-0.6416,0.0058,0.0469,-0.1697,
0.792900,0.1551,1.0428,-0.0231,0.5375,0.0793,-0.6416,0.0058,0.0469,-0.1697,
0.794831,0.1551,1.0428,-0.0231,0.5375,0.0793,-0.6416,-0.0661,0.0453,-0.4135,
0.799212,0.1551,1.0428,-0.0231,1.2061,0.4294,-0.2289,-0.0661,0.0453,-0.4135,
0.819708,0.1551,1.0428,-0.0231,1.5770,0.3967,-0.0537,-0.0661,0.0453,-0.4135,
0.842636,0.1551,1.0428,-0.0231,0.4299,0.4116,-0.2495,-0.0661,0.0453,-0.4135,
0.860928,-0.0897,0.9825,0.0502,0.4299,0.4116,-0.2495,-0.0661,0.0453,-0.4135,
0.863489,-0.0897,0.9825,0.0502,0.4299,0.4116,-0.2495,-0.0586,0.2572,-0.7760,
0.864957,-0.0897,0.9825,0.0502,-1.1564,-0.2694,0.1333,-0.0586,0.2572,-0.7760,
0.882267,-0.0897,0.9825,0.0502,0.3620,-0.3883,0.6758,-0.0586,0.2572,-0.7760,
0.899860,-0.0897,0.9825,0.0502,3.6438,0.6025,1.8991,-0.0586,0.2572,-0.7760,
0.919119,-0.0897,0.9825,0.0502,5.2280,0.9764,1.0344,-0.0586,0.2572,-0.7760,
0.925185,0.3794,1.1009,0.1082,5.2280,0.9764,1.0344,-0.0586,0.2572,-0.7760,
0.927255,0.3794,1.1009,0.1082,5.2280,0.9764,1.0344,0.0111,1.8174,-0.9037,
0.941546,0.3794,1.1009,0.1082,2.5868,0.4986,1.2122,0.0111,1.8174,-0.9037,
0.959646,0.3794,1.1009,0.1082,0.7937,-0.1329,1.9099,0.0111,1.8174,-0.9037,
0.979744,0.3794,1.1009,0.1082,0.4124,-0.4966,1.4982,0.0111,1.8174,-0.9037,
0.992324,-0.2096,0.9672,0.2271,0.4124,-0.4966,1.4982,0.0111,1.8174,-0.9037,
0.994994,-0.2096,0.9672,0.2271,0.4124,-0.4966,1.4982,0.1240,3.0976,-1.0193,
0.999264,-0.2096,0.9672,0.2271,-1.7303,-0.3163,2.0649,0.1240,3.0976,-1.0193,
1.019342,-0.2096,0.9672,0.2271,-2.3346,1.1522,2.0006,0.1240,3.0976,-1.0193,
1.040044,-0.2096,0.9672,0.2271,-3.7404,1.8853,2.2171,0.1240,3.0976,-1.0193,
1.060292,-0.4993,1.0609,0.3370,-3.7404,1.8853,2.2171,0.1240,3.0976,-1.0193,
1.062977,-0.4993,1.0609,0.3370,-3.7404,1.8853,2.2171,-0.5148,3.5618,-0.2027,
1.064418,-0.4993,1.0609,0.3370,-3.6080,0.6637,3.0961,-0.5148,3.5618,-0.2027,
1.079361,-0.4993,1.0609,0.3370,-2.4346,-0.4170,3.0602,-0.5148,3.5618,-0.2027,
1.100364,-0.4993,1.0609,0.3370,-1.8212,-0.8341,1.9955,-0.5148,3.5618,-0.2027,
1.119401,-0.4993,1.0609,0.3370,-1.2011,-0.8323,1.1796,-0.5148,3.5618,-0.2027,
1.122927,-0.2204,0.9197,0.1291,-1.2011,-0.8323,1.1796,-0.5148,3.5618,-0.2027,
1.124657,-0.2204,0.9197,0.1291,-1.2011,-0.8323,1.1796,-0.6468,2.3311,-0.9266,
1.139873,-0.2204,0.9197,0.1291,-0.3017,-0.7090,0.0427,-0.6468,2.3311,-0.9266,
1.159506,-0.2204,0.9197,0.1291,-0.8522,-0.7257,-0.6759,-0.6468,2.3311,-0.9266,
1.179341,-0.2204,0.9197,0.1291,-0.6339,-0.5849,-1.3794,-0.6468,2.3311,-0.9266,
1.189034,-0.2635,0.9350,-0.1339,-0.6339,-0.5849,-1.3794,-0.6468,2.3311,-0.9266,
1.191171,-0.2635,0.9350,-0.1339,-0.6339,-0.5849,-1.3794,-0.7277,1.9633,-1.0161,
1.202327,-0.2635,0.9350,-0.1339,0.3746,-0.1626,-2.0785,-0.7277,1.9633,-1.0161,
1.221315,-0.2635,0.9350,-0.1339,1.1180,-1.6531,-2.0526,-0.7277,1.9633,-1.0161,
1.240521,-0.2635,0.9350,-0.1339,3.2706,-2.0982,-2.0973,-0.7277,1.9633,-1.0161,
1.254928,-0.1347,0.7701,-0.1899,3.2706,-2.0982,-2.0973,-0.7277,1.9633,-1.0161,
1.257639,-0.1347,0.7701,-0.1899,3.2706,-2.0982,-2.0973,-0.5611,1.8892,-0.9293,
1.259517,-0.1347,0.7701,-0.1899,1.6333,-1.6747,-2.4904,-0.5611,1.8892,-0.9293,
1.279536,-0.1347,0.7701,-0.1899,0.3778,-1.2835,-2.6602,-0.5611,1.8892,-0.9293,
1.299627,-0.1347,0.7701,-0.1899,1.3938,-1.4963,-2.2889,-0.5611,1.8892,-0.9293,
1.319521,-0.1347,0.7701,-0.1899,1.7266,-1.2934,-2.4816,-0.5611,1.8892,-0.9293,
1.322076,-0.2196,0.8167,-0.2237,1.7266,-1.2934,-2.4816,-0.5611,1.8892,-0.9293,
1.322933,-0.2196,0.8167,-0.2237,1.7266,-1.2934,-2.4816,-0.4019,1.4746,-0.2256,
1.340752,-0.2196,0.8167,-0.2237,0.9231,-0.5033,-3.0601,-0.4019,1.4746,-0.2256,
1.360330,-0.2196,0.8167,-0.2237,0.1454,-0.8424,-2.7968,-0.4019,1.4746,-0.2256,
1.380674,-0.2196,0.8167,-0.2237,0.7074,-0.4932,-2.4599,-0.4019,1.4746,-0.2256,
1.387141,-0.2318,0.8969,-0.2203,0.7074,-0.4932,-2.4599,-0.4019,1.4746,-0.2256,
1.389174,-0.2318,0.8969,-0.2203,0.7074,-0.4932,-2.4599,0.0218,1.2569,0.2775,
1.399726,-0.2318,0.8969,-0.2203,1.9141,-0.2603,-2.3764,0.0218,1.2569,0.2775,
1.419464,-0.2318,0.8969,-0.2203,0.9750,1.4885,-2.5455,0.0218,1.2569,0.2775,
1.439394,-0.2318,0.8969,-0.2203,-7.6727,0.6049,-3.1612,0.0218,1.2569,0.2775,
1.453005,-0.7387,0.7394,-0.2972,-7.6727,0.6049,-3.1612,0.0218,1.2569,0.2775,
1.455293,-0.7387,0.7394,-0.2972,-7.6727,0.6049,-3.1612,0.2139,0.7437,0.9312,
1.461138,-0.7387,0.7394,-0.2972,-4.3162,-0.4429,-2.1479,0.2139,0.7437,0.9312,
1.479311,-0.7387,0.7394,-0.2972,-0.9257,-0.7898,-0.3379,0.2139,0.7437,0.9312,
1.499404,-0.7387,0.7394,-0.2972,2.2880,1.1416,1.8097,0.2139,0.7437,0.9312,
1.519186,-0.0534,1.0001,0.0861,2.2880,1.1416,1.8097,0.2139,0.7437,0.9312,
1.521530,-0.0534,1.0001,0.0861,2.2880,1.1416,1.8097,0.3518,-0.8852,0.7773,
1.522620,-0.0534,1.0001,0.0861,2.5382,0.3832,1.2370,0.3518,-0.8852,0.7773,
1.539759,-0.0534,1.0001,0.0861,0.8894,0.1477,0.7764,0.3518,-0.8852,0.7773,
1.560949,-0.0534,1.0001,0.0861,2.6883,1.9949,1.6028,0.3518,-0.8852,0.7773,
1.579262,-0.0534,1.0001,0.0861,2.3446,0.8961,1.1252,0.3518,-0.8852,0.7773,
1.585049,0.0022,1.0948,0.0433,2.3446,0.8961,1.1252,0.3518,-0.8852,0.7773,
1.586832,0.0022,1.0948,0.0433,2.3446,0.8961,1.1252,0.3358,0.4866,0.8928,
1.600166,0.0022,1.0948,0.0433,3.1341,0.5852,-0.8373,0.3358,0.4866,0.8928,
1.619882,0.0022,1.0948,0.0433,-0.4797,-0.0794,-1.0020,0.3358,0.4866,0.8928,
1.639311,0.0022,1.0948,0.0433,1.7675,0.6130,0.1777,0.3358,0.4866,0.8928,
1.651245,0.2756,1.0599,-0.1489,1.7675,0.6130,0.1777,0.3358,0.4866,0.8928,
1.653622,0.2756,1.0599,-0.1489,1.7675,0.6130,0.1777,0.4609,0.1539,0.5388,
1.663119,0.2756,1.0599,-0.1489,2.9980,0.9446,-0.4122,0.4609,0.1539,0.5388,
1.680634,0.2756,1.0599,-0.1489,-0.4554,0.0663,-0.0867,0.4609,0.1539,0.5388,
1.699777,0.2756,1.0599,-0.1489,-0.1404,-0.0058,-0.2161,0.4609,0.1539,0.5388,
1.717674,-0.0610,0.9679,-0.1567,-0.1404,-0.0058,-0.2161,0.4609,0.1539,0.5388,
1.719961,-0.0610,0.9679,-0.1567,-0.1404,-0.0058,-0.2161,0.3869,-0.0026,0.3163,
1.721202,-0.0610,0.9679,-0.1567,0.8361,-0.1553,-0.3333,0.3869,-0.0026,0.3163,
1.739370,-0.0610,0.9679,-0.1567,0.3629,-0.3116,-0.6806,0.3869,-0.0026,0.3163,
1.759650,-0.0610,0.9679,-0.1567,0.2210,0.0725,-0.2209,0.3869,-0.0026,0.3163,
1.780272,-0.0610,0.9679,-0.1567,0.1741,-0.0319,-0.0870,0.3869,-0.0026,0.3163,
1.782793,-0.1152,0.9907,-0.1474,0.1741,-0.0319,-0.0870,0.3869,-0.0026,0.3163,
1.784383,-0.1152,0.9907,-0.1474,0.1741,-0.0319,-0.0870,0.3326,0.1257,0.2333,
1.799335,-0.1152,0.9907,-0.1474,-0.2043,0.0604,-0.2984,0.3326,0.1257,0.2333,
1.819566,-0.1152,0.9907,-0.1474,-0.3566,0.0063,-0.5411,0.3326,0.1257,0.2333,
1.839490,-0.1152,0.9907,-0.1474,0.2971,0.0686,-1.2523,0.3326,0.1257,0.2333,
1.848956,-0.0540,0.9846,-0.2488,0.2971,0.0686,-1.2523,0.3326,0.1257,0.2333,
1.851383,-0.0540,0.9846,-0.2488,0.2971,0.0686,-1.2523,0.1873,0.0458,0.2524,
1.859532,-0.0540,0.9846,-0.2488,0.0074,-0.0376,-0.4870,0.1873,0.0458,0.2524,
1.879381,-0.0540,0.9846,-0.2488,0.0119,0.0817,-0.3184,0.1873,0.0458,0.2524,
1.899585,-0.0540,0.9846,-0.2488,0.0015,-0.0935,-0.5254,0.1873,0.0458,0.2524,
1.914830,-0.0915,0.9763,-0.2040,0.0015,-0.0935,-0.5254,0.1873,0.0458,0.2524,
1.917390,-0.0915,0.9763,-0.2040,0.0015,-0.0935,-0.5254,0.1160,0.1038,0.3376,
1.920067,-0.0915,0.9763,-0.2040,0.1492,-0.0240,-0.1788,0.1160,0.1038,0.3376,
1.939821,-0.0915,0.9763,-0.2040,0.2244,-0.0048,-0.2174,0.1160,0.1038,0.3376,
1.959390,-0.0915,0.9763,-0.2040,2.8658,0.5157,-0.4325,0.1160,0.1038,0.3376,
1.980014,-0.0915,0.9763,-0.2040,-1.9154,-0.4127,0.2041,0.1160,0.1038,0.3376,
1.983281,-0.2807,0.9491,-0.1678,-1.9154,-0.4127,0.2041,0.1160,0.1038,0.3376,
1.984264,-0.2807,0.9491,-0.1678,-1.9154,-0.4127,0.2041,0.1325,0.1411,0.2498,
1.999353,-0.2807,0.9491,-0.1678,0.4229,0.1689,-0.2845,0.1325,0.1411,0.2498,
2.019786,-0.2807,0.9491,-0.1678,-0.7716,-0.1329,0.0402,0.1325,0.1411,0.2498,
2.039507,-0.2807,0.9491,-0.1678,-0.2204,0.0363,0.0412,0.1325,0.1411,0.2498,
2.048714,-0.0377,0.9768,-0.2034,-0.2204,0.0363,0.0412,0.1325,0.1411,0.2498,
2.051017,-0.0377,0.9768,-0.2034,-0.2204,0.0363,0.0412,0.1458,0.1374,0.4356,
2.059440,-0.0377,0.9768,-0.2034,-0.0959,-0.1965,0.1614,0.1458,0.1374,0.4356,
2.081097,-0.0377,0.9768,-0.2034,-0.1127,-0.0064,-0.1863,0.1458,0.1374,0.4356,
2.099757,-0.0377,0.9768,-0.2034,-0.9835,-0.1192,-0.0344,0.1458,0.1374,0.4356,
2.115126,-0.0003,0.9722,-0.2120,-0.9835,-0.1192,-0.0344,0.1458,0.1374,0.4356,
2.117775,-0.0003,0.9722,-0.2120,-0.9835,-0.1192,-0.0344,0.1698,0.2172,0.6453,
2.119741,-0.0003,0.9722,-0.2120,0.5345,-0.0644,0.0295,0.1698,0.2172,0.6453,
2.139476,-0.0003,0.9722,-0.2120,0.1661,-0.2430,0.4577,0.1698,0.2172,0.6453,
2.159647,-0.0003,0.9722,-0.2120,-1.8142,0.2582,0.3435,0.1698,0.2172,0.6453,
2.181805,0.0120,1.0175,-0.2846,-1.8142,0.2582,0.3435,0.1698,0.2172,0.6453,
2.184020,0.0120,1.0175,-0.2846,-1.8142,0.2582,0.3435,0.2145,0.2045,0.8992,
2.185386,0.0120,1.0175,-0.2846,-0.4754,0.4100,-0.4919,0.2145,0.2045,0.8992,
2.199729,0.0120,1.0175,-0.2846,-0.1370,0.2021,-0.7336,0.2145,0.2045,0.8992,
2.219524,0.0120,1.0175,-0.2846,-0.6855,0.4258,-0.6846,0.2145,0.2045,0.8992,
2.239436,0.0120,1.0175,-0.2846,-1.5893,0.7311,-0.4838,0.2145,0.2045,0.8992,
2.248447,-0.0214,1.0604,-0.2850,-1.5893,0.7311,-0.4838,0.2145,0.2045,0.8992,
2.250954,-0.0214,1.0604,-0.2850,-1.5893,0.7311,-0.4838,0.1304,0.5728,1.0286,
2.259767,-0.0214,1.0604,-0.2850,-1.3881,1.6689,0.2594,0.1304,0.5728,1.0286,
2.280279,-0.0214,1.0604,-0.2850,-2.0970,1.8072,0.4734,0.1304,0.5728,1.0286,
2.299735,-0.0214,1.0604,-0.2850,-2.7994,2.6491,0.5514,0.1304,0.5728,1.0286,
2.311160,-0.1465,1.2650,-0.1626,-2.7994,2.6491,0.5514,0.1304,0.5728,1.0286,
2.313486,-0.1465,1.2650,-0.1626,-2.7994,2.6491,0.5514,-0.0288,0.3982,1.5465,
2.319223,-0.1465,1.2650,-0.1626,-3.4889,3.0579,0.9182,-0.0288,0.3982,1.5465,
2.339856,-0.1465,1.2650,-0.1626,-3.3695,3.6084,1.0898,-0.0288,0.3982,1.5465,
2.359523,-0.1465,1.2650,-0.1626,-5.7979,2.8364,0.9591,-0.0288,0.3982,1.5465,
2.377480,-0.2566,1.2668,-0.2033,-5.7979,2.8364,0.9591,-0.0288,0.3982,1.5465,
2.380865,-0.2566,1.2668,-0.2033,-5.7979,2.8364,0.9591,0.0340,0.2396,2.5148,
2.382203,-0.2566,1.2668,-0.2033,-5.4008,3.3121,0.2709,0.0340,0.2396,2.5148,
2.399753,-0.2566,1.2668,-0.2033,-5.8232,3.9972,0.5650,0.0340,0.2396,2.5148,
2.419579,-0.2566,1.2668,-0.2033,-6.0949,2.2747,0.2641,0.0340,0.2396,2.5148,
2.439492,-0.2566,1.2668,-0.2033,-3.6409,3.6214,-0.6674,0.0340,0.2396,2.5148,
2.442558,0.2276,1.2562,-0.3809,-3.6409,3.6214,-0.6674,0.0340,0.2396,2.5148,
2.444083,0.2276,1.2562,-0.3809,-3.6409,3.6214,-0.6674,0.7606,0.4674,3.8574,
2.459546,0.2276,1.2562,-0.3809,1.1490,2.6039,-0.5806,0.7606,0.4674,3.8574,
2.480646,0.2276,1.2562,-0.3809,1.3167,1.0928,-0.2347,0.7606,0.4674,3.8574,
2.499786,0.2276,1.2562,-0.3809,-0.8644,-0.5344,0.0219,0.7606,0.4674,3.8574,
2.508863,0.5035,0.2175,-0.2418,-0.8644,-0.5344,0.0219,0.7606,0.4674,3.8574,
2.510553,0.5035,0.2175,-0.2418,-0.8644,-0.5344,0.0219,0.2246,0.8912,1.5598,
2.519390,0.5035,0.2175,-0.2418,4.3472,-1.3425,-1.4314,0.2246,0.8912,1.5598,
2.539367,0.5035,0.2175,-0.2418,2.7582,-0.5997,0.1989,0.2246,0.8912,1.5598,
2.559483,0.5035,0.2175,-0.2418,-3.7574,-2.6065,1.4285,0.2246,0.8912,1.5598,
2.575167,-0.0328,0.4792,-0.1449,-3.7574,-2.6065,1.4285,0.2246,0.8912,1.5598,
2.577391,-0.0328,0.4792,-0.1449,-3.7574,-2.6065,1.4285,-0.4930,0.4041,-1.2918,
2.582971,-0.0328,0.4792,-0.1449,-7.3301,-2.3110,0.6929,-0.4930,0.4041,-1.2918,
2.600108,-0.0328,0.4792,-0.1449,-10.2298,-1.9848,0.4360,-0.4930,0.4041,-1.2918,
2.629146,-0.0328,0.4792,-0.1449,-5.6184,-1.8833,0.2866,-0.4930,0.4041,-1.2918,
2.650529,-0.0328,0.4792,-0.1449,-3.0861,-2.1756,0.8162,-0.4930,0.4041,-1.2918,
2.653045,0.3112,0.5615,-0.1061,-3.0861,-2.1756,0.8162,-0.4930,0.4041,-1.2918,
2.654671,0.3112,0.5615,-0.1061,-3.0861,-2.1756,0.8162,-0.8587,-0.5211,-1.5191,
2.659957,0.3112,0.5615,-0.1061,-2.6993,-1.8216,0.2035,-0.8587,-0.5211,-1.5191,
2.679770,0.3112,0.5615,-0.1061,-2.0514,-1.3428,-0.6981,-0.8587,-0.5211,-1.5191,
2.700008,0.3112,0.5615,-0.1061,-1.6699,-0.9409,-0.5469,-0.8587,-0.5211,-1.5191,
2.706771,0.2845,0.7864,-0.2136,-1.6699,-0.9409,-0.5469,-0.8587,-0.5211,-1.5191,
2.708091,0.2845,0.7864,-0.2136,-1.6699,-0.9409,-0.5469,-1.1483,-1.0396,-2.7147,
2.719357,0.2845,0.7864,-0.2136,-2.0712,-0.6667,-0.7735,-1.1483,-1.0396,-2.7147,
2.739702,0.2845,0.7864,-0.2136,-1.1068,-0.1262,-1.3174,-1.1483,-1.0396,-2.7147,
2.759582,0.2845,0.7864,-0.2136,-0.0403,0.6806,-1.5433,-1.1483,-1.0396,-2.7147,
2.772960,0.3216,1.0497,-0.2852,-0.0403,0.6806,-1.5433,-1.1483,-1.0396,-2.7147,
2.774889,0.3216,1.0497,-0.2852,-0.0403,0.6806,-1.5433,-1.3351,-1.4069,-3.2524,
2.778848,0.3216,1.0497,-0.2852,0.2477,1.0160,-1.6520,-1.3351,-1.4069,-3.2524,
2.800131,0.3216,1.0497,-0.2852,0.0217,1.2914,-1.9243,-1.3351,-1.4069,-3.2524,
2.819531,0.3216,1.0497,-0.2852,0.0553,1.7244,-1.7991,-1.3351,-1.4069,-3.2524,
2.838802,0.1672,1.1669,-0.2331,0.0553,1.7244,-1.7991,-1.3351,-1.4069,-3.2524,
2.840936,0.1672,1.1669,-0.2331,0.0553,1.7244,-1.7991,-1.0567,-1.9445,-3.1097,
2.841697,0.1672,1.1669,-0.2331,0.8631,1.6501,-1.8149,-1.0567,-1.9445,-3.1097,
2.859303,0.1672,1.1669,-0.2331,0.9077,1.8100,-1.3860,-1.0567,-1.9445,-3.1097,
2.879074,0.1672,1.1669,-0.2331,0.3692,2.0924,-1.8849,-1.0567,-1.9445,-3.1097,
2.900438,0.1672,1.1669,-0.2331,2.3191,1.9604,-2.4330,-1.0567,-1.9445,-3.1097,
2.905290,0.1024,1.2118,-0.2432,2.3191,1.9604,-2.4330,-1.0567,-1.9445,-3.1097,
2.906760,0.1024,1.2118,-0.2432,2.3191,1.9604,-2.4330,-0.5734,-3.0629,-2.6370,
2.922021,0.1024,1.2118,-0.2432,1.8417,2.4858,-2.8122,-0.5734,-3.0629,-2.6370,
2.939384,0.1024,1.2118,-0.2432,0.9053,2.7071,-3.2816,-0.5734,-3.0629,-2.6370,
2.959638,0.1024,1.2118,-0.2432,0.7868,2.1757,-3.8308,-0.5734,-3.0629,-2.6370,
2.970797,-0.0854,1.0709,-0.3214,0.7868,2.1757,-3.8308,-0.5734,-3.0629,-2.6370,
2.974066,-0.0854,1.0709,-0.3214,0.7868,2.1757,-3.8308,-0.1076,-4.4262,-1.1992,
2.978995,-0.0854,1.0709,-0.3214,2.5494,0.7067,-3.9597,-0.1076,-4.4262,-1.1992,
3.002224,-0.0854,1.0709,-0.3214,4.5460,0.0705,-4.2627,-0.1076,-4.4262,-1.1992,
3.019373,-0.0854,1.0709,-0.3214,4.4684,0.5435,-4.7021,-0.1076,-4.4262,-1.1992,
3.037710,-0.0225,0.9567,-0.3699,4.4684,0.5435,-4.7021,-0.1076,-4.4262,-1.1992,
3.039963,-0.0225,0.9567,-0.3699,4.4684,0.5435,-4.7021,0.3332,-4.8191,-0.1212,
3.041581,-0.0225,0.9567,-0.3699,2.5106,0.0912,-5.2862,0.3332,-4.8191,-0.1212,
3.060132,-0.0225,0.9567,-0.3699,3.5072,-0.9546,-5.0885,0.3332,-4.8191,-0.1212,
3.079064,-0.0225,0.9567,-0.3699,5.4330,-0.9681,-5.9491,0.3332,-4.8191,-0.1212,
3.100038,-0.0225,0.9567,-0.3699,4.7097,-0.2607,-5.3327,0.3332,-4.8191,-0.1212,
3.102986,0.2190,0.9293,-0.3181,4.7097,-0.2607,-5.3327,0.3332,-4.8191,-0.1212,
3.104329,0.2190,0.9293,-0.3181,4.7097,-0.2607,-5.3327,0.8681,-3.7257,0.3302,
3.119355,0.2190,0.9293,-0.3181,2.4628,-0.5068,-5.0241,0.8681,-3.7257,0.3302,
3.141067,0.2190,0.9293,-0.3181,1.6630,-0.4504,-5.2577,0.8681,-3.7257,0.3302,
3.159460,0.2190,0.9293,-0.3181,2.9840,-0.1327,-5.6804,0.8681,-3.7257,0.3302,
3.169053,-0.1642,1.2912,-0.2392,2.9840,-0.1327,-5.6804,0.8681,-3.7257,0.3302,
3.171117,-0.1642,1.2912,-0.2392,2.9840,-0.1327,-5.6804,0.9991,-2.6727,0.1513,
3.178970,-0.1642,1.2912,-0.2392,-2.5370,1.1902,-2.4765,0.9991,-2.6727,0.1513,
3.199530,-0.1642,1.2912,-0.2392,0.7128,0.7048,2.4823,0.9991,-2.6727,0.1513,
3.219921,-0.1642,1.2912,-0.2392,-1.2602,5.1030,3.0616,0.9991,-2.6727,0.1513,
3.235220,0.0439,1.2740,-0.2398,-1.2602,5.1030,3.0616,0.9991,-2.6727,0.1513,
3.237615,0.0439,1.2740,-0.2398,-1.2602,5.1030,3.0616,1.1205,-2.2926,1.2255,
3.239151,0.0439,1.2740,-0.2398,2.4052,3.2290,-3.6764,1.1205,-2.2926,1.2255,
3.259412,0.0439,1.2740,-0.2398,14.5908,2.3704,-3.3562,1.1205,-2.2926,1.2255,
3.279068,0.0439,1.2740,-0.2398,1.9923,1.0614,-0.7514,1.1205,-2.2926,1.2255,
3.301738,0.0439,1.2740,-0.2398,-3.0516,-0.7803,-0.3151,1.1205,-2.2926,1.2255,
3.304213,-0.1687,0.9388,0.0954,-3.0516,-0.7803,-0.3151,1.1205,-2.2926,1.2255,
3.305292,-0.1687,0.9388,0.0954,-3.0516,-0.7803,-0.3151,0.6409,-0.2698,0.0342,
3.319636,-0.1687,0.9388,0.0954,0.6794,0.1504,0.5009,0.6409,-0.2698,0.0342,
3.339717,-0.1687,0.9388,0.0954,-0.6994,0.0245,-0.0943,0.6409,-0.2698,0.0342,
3.359553,-0.1687,0.9388,0.0954,-1.1113,-0.2180,-0.6304,0.6409,-0.2698,0.0342,
3.368878,-0.1097,0.9928,-0.0680,-1.1113,-0.2180,-0.6304,0.6409,-0.2698,0.0342,
3.371244,-0.1097,0.9928,-0.0680,-1.1113,-0.2180,-0.6304,0.7393,-0.3715,0.0901,
3.379582,-0.1097,0.9928,-0.0680,1.2300,0.2475,-1.0332,0.7393,-0.3715,0.0901,
3.400903,-0.1097,0.9928,-0.0680,1.3492,0.4208,-1.5924,0.7393,-0.3715,0.0901,
3.419209,-0.1097,0.9928,-0.0680,-1.2680,0.1270,-1.7934,0.7393,-0.3715,0.0901,
3.435774,-0.0448,1.0027,-0.0975,-1.2680,0.1270,-1.7934,0.7393,-0.3715,0.0901,
3.438491,-0.0448,1.0027,-0.0975,-1.2680,0.1270,-1.7934,0.4423,-0.0292,-0.0222,
3.440018,-0.0448,1.0027,-0.0975,0.4033,0.0696,-0.6507,0.4423,-0.0292,-0.0222,
3.459855,-0.0448,1.0027,-0.0975,0.0976,0.0324,-0.5166,0.4423,-0.0292,-0.0222,
3.479128,-0.0448,1.0027,-0.0975,-0.2465,-0.1703,-0.7432,0.4423,-0.0292,-0.0222,
3.498833,-0.0213,1.0036,-0.0975,-0.2465,-0.1703,-0.7432,0.4423,-0.0292,-0.0222,
3.501746,-0.0213,1.0036,-0.0975,-0.2465,-0.1703,-0.7432,0.3215,-0.3379,-0.0872,
3.502958,-0.0213,1.0036,-0.0975,0.3444,0.0193,-0.5973,0.3215,-0.3379,-0.0872,
3.519271,-0.0213,1.0036,-0.0975,0.0400,-0.1140,-0.2056,0.3215,-0.3379,-0.0872,
3.539578,-0.0213,1.0036,-0.0975,-0.3701,-0.1200,-0.2374,0.3215,-0.3379,-0.0872,
3.559482,-0.0213,1.0036,-0.0975,-0.6009,-0.0768,-0.7008,0.3215,-0.3379,-0.0872,
3.564624,-0.0818,0.9974,-0.1451,-0.6009,-0.0768,-0.7008,0.3215,-0.3379,-0.0872,
3.566648,-0.0818,0.9974,-0.1451,-0.6009,-0.0768,-0.7008,0.2789,-0.2251,0.0789,
3.579434,-0.0818,0.9974,-0.1451,-0.3471,-0.0342,-0.9910,0.2789,-0.2251,0.0789,
3.600364,-0.0818,0.9974,-0.1451,-0.0107,-0.0210,-1.0976,0.2789,-0.2251,0.0789,
3.620024,-0.0818,0.9974,-0.1451,0.5389,-0.1267,-0.1046,0.2789,-0.2251,0.0789,
3.630770,-0.0141,1.0038,-0.0889,0.5389,-0.1267,-0.1046,0.2789,-0.2251,0.0789,
3.632714,-0.0141,1.0038,-0.0889,0.5389,-0.1267,-0.1046,0.1538,-0.1266,0.0565,
3.639258,-0.0141,1.0038,-0.0889,0.1441,0.0420,-0.2962,0.1538,-0.1266,0.0565,
3.659411,-0.0141,1.0038,-0.0889,-0.3352,-0.0436,-0.8775,0.1538,-0.1266,0.0565,
3.679462,-0.0141,1.0038,-0.0889,0.0363,0.1549,-1.6964,0.1538,-0.1266,0.0565,
3.697506,-0.0769,0.9962,-0.1419,0.0363,0.1549,-1.6964,0.1538,-0.1266,0.0565,
3.701085,-0.0769,0.9962,-0.1419,0.0363,0.1549,-1.6964,0.0409,0.0059,0.0725,
3.702673,-0.0769,0.9962,-0.1419,-0.3145,-0.0005,-0.5096,0.0409,0.0059,0.0725,
3.720406,-0.0769,0.9962,-0.1419,0.1434,-0.0390,-0.3770,0.0409,0.0059,0.0725,
3.739546,-0.0769,0.9962,-0.1419,0.0180,-0.1462,0.3635,0.0409,0.0059,0.0725,
3.759518,-0.0769,0.9962,-0.1419,-0.6930,-0.3617,-0.1568,0.0409,0.0059,0.0725,
3.762517,-0.1114,1.0004,-0.1180,-0.6930,-0.3617,-0.1568,0.0409,0.0059,0.0725,
3.764243,-0.1114,1.0004,-0.1180,-0.6930,-0.3617,-0.1568,-0.0102,-0.0116,0.1731,
3.779871,-0.1114,1.0004,-0.1180,-0.4668,-0.0583,-0.7697,-0.0102,-0.0116,0.1731,
3.799415,-0.1114,1.0004,-0.1180,0.0110,0.0672,-0.8922,-0.0102,-0.0116,0.1731,
3.819386,-0.1114,1.0004,-0.1180,0.3487,0.0151,0.0411,-0.0102,-0.0116,0.1731,
3.828922,0.0208,1.0032,-0.1132,0.3487,0.0151,0.0411,-0.0102,-0.0116,0.1731,
3.830544,0.0208,1.0032,-0.1132,0.3487,0.0151,0.0411,-0.1310,-0.0260,0.2131,
3.839483,0.0208,1.0032,-0.1132,1.0105,0.3851,-0.3099,-0.1310,-0.0260,0.2131,
3.859855,0.0208,1.0032,-0.1132,-0.1099,-0.0884,-0.5985,-0.1310,-0.0260,0.2131,
3.879431,0.0208,1.0032,-0.1132,0.3341,0.0254,-0.2825,-0.1310,-0.0260,0.2131,
3.894877,-0.0293,0.9935,-0.0609,0.3341,0.0254,-0.2825,-0.1310,-0.0260,0.2131,
3.897840,-0.0293,0.9935,-0.0609,0.3341,0.0254,-0.2825,-0.2742,-0.0127,0.1593,
3.899911,-0.0293,0.9935,-0.0609,-0.1869,-0.0375,0.3086,-0.2742,-0.0127,0.1593,
3.920244,-0.0293,0.9935,-0.0609,-0.0720,-0.1201,-0.1519,-0.2742,-0.0127,0.1593,
3.940036,-0.0293,0.9935,-0.0609,-1.7861,-0.0943,-0.6738,-0.2742,-0.0127,0.1593,
3.959836,-0.0293,0.9935,-0.0609,0.6176,0.2539,-0.9577,-0.2742,-0.0127,0.1593,
3.962770,0.2075,1.0511,-0.1673,0.6176,0.2539,-0.9577,-0.2742,-0.0127,0.1593,
3.964151,0.2075,1.0511,-0.1673,0.6176,0.2539,-0.9577,-0.5090,0.0006,0.2083,
3.979470,0.2075,1.0511,-0.1673,-0.9237,-0.1827,-0.0968,-0.5090,0.0006,0.2083,
4.000562,0.2075,1.0511,-0.1673,-0.8859,0.1943,-0.2817,-0.5090,0.0006,0.2083,
4.019999,0.2075,1.0511,-0.1673,-0.3086,0.2297,-0.4817,-0.5090,0.0006,0.2083,
4.026953,-0.0331,1.0341,-0.1071,-0.3086,0.2297,-0.4817,-0.5090,0.0006,0.2083,
4.028594,-0.0331,1.0341,-0.1071,-0.3086,0.2297,-0.4817,-0.8023,-0.0973,0.4324,
4.040954,-0.0331,1.0341,-0.1071,-1.1567,0.4243,-0.8134,-0.8023,-0.0973,0.4324,
4.059537,-0.0331,1.0341,-0.1071,-1.1000,0.3671,-0.4045,-0.8023,-0.0973,0.4324,
4.079687,-0.0331,1.0341,-0.1071,-1.0248,1.0596,0.0060,-0.8023,-0.0973,0.4324,
4.093238,-0.3374,1.2705,0.0482,-1.0248,1.0596,0.0060,-0.8023,-0.0973,0.4324,
4.096174,-0.3374,1.2705,0.0482,-1.0248,1.0596,0.0060,-0.9833,-0.0878,0.7071,
4.099209,-0.3374,1.2705,0.0482,-3.9751,2.4439,0.1979,-0.9833,-0.0878,0.7071,
4.119562,-0.3374,1.2705,0.0482,-1.8718,2.2762,-1.3428,-0.9833,-0.0878,0.7071,
4.140917,-0.3374,1.2705,0.0482,-2.5388,1.8939,-1.2690,-0.9833,-0.0878,0.7071,
4.159107,-0.0813,1.1166,-0.0819,-2.5388,1.8939,-1.2690,-0.9833,-0.0878,0.7071,
4.161702,-0.0813,1.1166,-0.0819,-2.5388,1.8939,-1.2690,-1.2862,-0.2762,1.2772,
4.162740,-0.0813,1.1166,-0.0819,-2.0183,1.1802,-1.7701,-1.2862,-0.2762,1.2772,
4.179904,-0.0813,1.1166,-0.0819,-1.7169,1.9248,-2.8387,-1.2862,-0.2762,1.2772,
4.199210,-0.0813,1.1166,-0.0819,-2.3698,3.1789,-3.8957,-1.2862,-0.2762,1.2772,
4.219895,-0.0813,1.1166,-0.0819,-0.8888,3.5938,-5.0472,-1.2862,-0.2762,1.2772,
4.224953,0.3639,1.3294,-0.4069,-0.8888,3.5938,-5.0472,-1.2862,-0.2762,1.2772,
4.226828,0.3639,1.3294,-0.4069,-0.8888,3.5938,-5.0472,-1.0109,-2.1287,1.6817,
4.240206,0.3639,1.3294,-0.4069,3.3052,2.4884,-5.6087,-1.0109,-2.1287,1.6817,
4.260031,0.3639,1.3294,-0.4069,5.4278,-5.1466,-4.5091,-1.0109,-2.1287,1.6817,
4.279447,0.3639,1.3294,-0.4069,4.5118,-1.0928,-2.7996,-1.0109,-2.1287,1.6817,
4.291098,0.0516,0.8484,-0.1776,4.5118,-1.0928,-2.7996,-1.0109,-2.1287,1.6817,
4.294204,0.0516,0.8484,-0.1776,4.5118,-1.0928,-2.7996,-0.4137,-5.8816,-0.3538,
4.299481,0.0516,0.8484,-0.1776,-5.3440,-1.0571,-3.2574,-0.4137,-5.8816,-0.3538,
4.319237,0.0516,0.8484,-0.1776,-10.4572,-1.2848,-4.4158,-0.4137,-5.8816,-0.3538,
4.350785,0.0516,0.8484,-0.1776,-6.3558,-0.6093,-5.6361,-0.4137,-5.8816,-0.3538,
4.368297,0.2225,0.9055,-0.4966,-6.3558,-0.6093,-5.6361,-0.4137,-5.8816,-0.3538,
4.370548,0.2225,0.9055,-0.4966,-6.3558,-0.6093,-5.6361,0.0766,-4.3277,0.8811,
4.371987,0.2225,0.9055,-0.4966,-1.5097,-0.2188,-5.2254,0.0766,-4.3277,0.8811,
4.381894,0.2225,0.9055,-0.4966,-1.0702,-0.0857,-4.2038,0.0766,-4.3277,0.8811,
4.400216,0.2225,0.9055,-0.4966,-1.5056,0.0620,-3.2832,0.0766,-4.3277,0.8811,
4.419820,0.2225,0.9055,-0.4966,-3.3921,-0.6005,-2.2678,0.0766,-4.3277,0.8811,
4.422914,-0.0183,0.8339,-0.2673,-3.3921,-0.6005,-2.2678,0.0766,-4.3277,0.8811,
4.424762,-0.0183,0.8339,-0.2673,-3.3921,-0.6005,-2.2678,0.0345,-2.3294,-0.4683,
4.441105,-0.0183,0.8339,-0.2673,-3.4458,-0.8703,-1.8815,0.0345,-2.3294,-0.4683,
4.459505,-0.0183,0.8339,-0.2673,-2.2945,-0.8621,-1.4581,0.0345,-2.3294,-0.4683,
4.479862,-0.0183,0.8339,-0.2673,-1.8650,-0.8016,-1.0337,0.0345,-2.3294,-0.4683,
4.492012,0.1500,0.8636,-0.1926,-1.8650,-0.8016,-1.0337,0.0345,-2.3294,-0.4683,
4.495004,0.1500,0.8636,-0.1926,-1.8650,-0.8016,-1.0337,0.0894,-1.7784,-1.7954,
4.499962,0.1500,0.8636,-0.1926,-1.5039,-0.7528,-0.7116,0.0894,-1.7784,-1.7954,
4.519240,0.1500,0.8636,-0.1926,-1.3257,-0.6090,-0.4235,0.0894,-1.7784,-1.7954,
4.539209,0.1500,0.8636,-0.1926,-1.2723,-0.4843,-0.1959,0.0894,-1.7784,-1.7954,
4.556937,0.0486,0.9677,-0.1686,-1.2723,-0.4843,-0.1959,0.0894,-1.7784,-1.7954,
4.559086,0.0486,0.9677,-0.1686,-1.2723,-0.4843,-0.1959,0.0106,-1.5671,-2.8797,
4.560274,0.0486,0.9677,-0.1686,-1.0357,-0.0413,-0.2213,0.0106,-1.5671,-2.8797,
4.579908,0.0486,0.9677,-0.1686,-0.1272,0.5844,-0.2690,0.0106,-1.5671,-2.8797,
4.599418,0.0486,0.9677,-0.1686,0.6496,1.1752,-0.1330,0.0106,-1.5671,-2.8797,
4.619138,0.0486,0.9677,-0.1686,0.9185,1.6785,-0.1548,0.0106,-1.5671,-2.8797,
4.622146,0.0344,1.1673,-0.1630,0.9185,1.6785,-0.1548,0.0106,-1.5671,-2.8797,
4.623556,0.0344,1.1673,-0.1630,0.9185,1.6785,-0.1548,-0.1683,-0.9895,-3.2603,
4.639653,0.0344,1.1673,-0.1630,-0.1285,1.9698,-0.1992,-0.1683,-0.9895,-3.2603,
4.659816,0.0344,1.1673,-0.1630,1.7581,3.1392,-0.4741,-0.1683,-0.9895,-3.2603,
4.679564,0.0344,1.1673,-0.1630,3.3251,2.6439,-0.0177,-0.1683,-0.9895,-3.2603,
4.686884,0.1080,1.2102,-0.1101,3.3251,2.6439,-0.0177,-0.1683,-0.9895,-3.2603,
4.688221,0.1080,1.2102,-0.1101,3.3251,2.6439,-0.0177,-0.2673,-0.4082,-2.4054,
4.700707,0.1080,1.2102,-0.1101,3.8312,2.4047,0.3888,-0.2673,-0.4082,-2.4054,
4.719375,0.1080,1.2102,-0.1101,6.0582,3.0880,-0.0113,-0.2673,-0.4082,-2.4054,
4.741202,0.1080,1.2102,-0.1101,8.7029,2.7886,0.0408,-0.2673,-0.4082,-2.4054,
4.752794,0.3906,1.0656,-0.0645,8.7029,2.7886,0.0408,-0.2673,-0.4082,-2.4054,
4.754487,0.3906,1.0656,-0.0645,8.7029,2.7886,0.0408,-0.1773,-1.7459,-1.8332,
4.759445,0.3906,1.0656,-0.0645,6.6039,1.0310,0.3994,-0.1773,-1.7459,-1.8332,
4.779672,0.3906,1.0656,-0.0645,5.4991,0.1740,-0.0532,-0.1773,-1.7459,-1.8332,
4.799097,0.3906,1.0656,-0.0645,6.4609,-0.0273,-0.4615,-0.1773,-1.7459,-1.8332,
4.819479,0.2107,0.9121,-0.1925,6.4609,-0.0273,-0.4615,-0.1773,-1.7459,-1.8332,
4.822912,0.2107,0.9121,-0.1925,6.4609,-0.0273,-0.4615,0.2421,-1.5330,0.6687,
4.824942,0.2107,0.9121,-0.1925,6.4943,0.1380,-1.3902,0.2421,-1.5330,0.6687,
4.839240,0.2107,0.9121,-0.1925,2.3339,8.5270,-1.8787,0.2421,-1.5330,0.6687,
4.859436,0.2107,0.9121,-0.1925,4.9828,-1.7810,-4.4847,0.2421,-1.5330,0.6687,
4.879436,0.2107,0.9121,-0.1925,-1.3015,2.4966,-2.4436,0.2421,-1.5330,0.6687,
4.884736,-0.7102,1.0390,-0.3663,-1.3015,2.4966,-2.4436,0.2421,-1.5330,0.6687,
4.886142,-0.7102,1.0390,-0.3663,-1.3015,2.4966,-2.4436,0.5333,-0.3938,1.0355,
4.899949,-0.7102,1.0390,-0.3663,-2.0154,-1.0668,-3.3370,0.5333,-0.3938,1.0355,
4.919204,-0.7102,1.0390,-0.3663,1.5996,0.1004,1.8660,0.5333,-0.3938,1.0355,
4.939314,-0.7102,1.0390,-0.3663,2.6246,1.6433,4.1206,0.5333,-0.3938,1.0355,
4.951046,-0.0437,0.8915,0.2723,2.6246,1.6433,4.1206,0.5333,-0.3938,1.0355,
4.952707,-0.0437,0.8915,0.2723,2.6246,1.6433,4.1206,0.3704,-0.8926,1.0642,
4.960331,-0.0437,0.8915,0.2723,2.4189,-0.2308,3.1371,0.3704,-0.8926,1.0642,
4.979787,-0.0437,0.8915,0.2723,3.0951,0.8201,2.7168,0.3704,-0.8926,1.0642,
4.999479,-0.0437,0.8915,0.2723,7.2903,2.2077,-0.8452,0.3704,-0.8926,1.0642,
5.017706,-0.2907,0.9649,-0.3856,7.2903,2.2077,-0.8452,0.3704,-0.8926,1.0642,
5.021125,-0.2907,0.9649,-0.3856,7.2903,2.2077,-0.8452,0.5567,0.2369,0.9322,
5.022714,-0.2907,0.9649,-0.3856,-0.4124,-0.0323,-3.0864,0.5567,0.2369,0.9322,
5.039331,-0.2907,0.9649,-0.3856,-0.4637,0.3460,-1.9983,0.5567,0.2369,0.9322,
5.059624,-0.2907,0.9649,-0.3856,2.6358,0.6347,-0.6214,0.5567,0.2369,0.9322,
5.079573,-0.2907,0.9649,-0.3856,2.7641,0.7054,0.7099,0.5567,0.2369,0.9322,
5.082728,0.1211,1.0578,-0.0548,2.7641,0.7054,0.7099,0.5567,0.2369,0.9322,
5.084235,0.1211,1.0578,-0.0548,2.7641,0.7054,0.7099,0.4583,0.0767,0.6410,
5.099351,0.1211,1.0578,-0.0548,2.2500,0.3244,-0.0993,0.4583,0.0767,0.6410,
5.119386,0.1211,1.0578,-0.0548,1.1570,0.1821,-0.4545,0.4583,0.0767,0.6410,
5.139918,0.1211,1.0578,-0.0548,-0.0537,-0.0425,-0.6297,0.4583,0.0767,0.6410,
5.148937,-0.1972,0.9599,-0.2218,-0.0537,-0.0425,-0.6297,0.4583,0.0767,0.6410,
5.150593,-0.1972,0.9599,-0.2218,-0.0537,-0.0425,-0.6297,0.3486,0.1273,0.2567,
5.159910,-0.1972,0.9599,-0.2218,-0.2440,-0.0207,-0.9130,0.3486,0.1273,0.2567,
5.179409,-0.1972,0.9599,-0.2218,0.1143,0.0379,-0.8262,0.3486,0.1273,0.2567,
5.200879,-0.1972,0.9599,-0.2218,-0.4888,-0.0706,-0.1507,0.3486,0.1273,0.2567,
5.215275,-0.1478,0.9822,-0.1593,-0.4888,-0.0706,-0.1507,0.3486,0.1273,0.2567,
5.218575,-0.1478,0.9822,-0.1593,-0.4888,-0.0706,-0.1507,0.2517,0.1209,0.3786,
5.219968,-0.1478,0.9822,-0.1593,-0.0887,-0.0030,-0.0941,0.2517,0.1209,0.3786,
5.239372,-0.1478,0.9822,-0.1593,0.3390,-0.0543,-0.3351,0.2517,0.1209,0.3786,
5.260001,-0.1478,0.9822,-0.1593,0.6413,0.0032,-0.2439,0.2517,0.1209,0.3786,
5.279840,-0.1478,0.9822,-0.1593,0.2595,0.0326,-0.4567,0.2517,0.1209,0.3786,
5.282647,-0.1052,0.9806,-0.2234,0.2595,0.0326,-0.4567,0.2517,0.1209,0.3786,
5.283823,-0.1052,0.9806,-0.2234,0.2595,0.0326,-0.4567,0.2033,0.1241,0.2918,
5.299855,-0.1052,0.9806,-0.2234,-0.3344,-0.0839,-0.6373,0.2033,0.1241,0.2918,
5.319399,-0.1052,0.9806,-0.2234,-0.0624,-0.0254,-0.3056,0.2033,0.1241,0.2918,
5.339342,-0.1052,0.9806,-0.2234,0.1359,0.0226,-0.2137,0.2033,0.1241,0.2918,
5.346872,-0.0725,0.9816,-0.2073,0.1359,0.0226,-0.2137,0.2033,0.1241,0.2918,
5.348367,-0.0725,0.9816,-0.2073,0.1359,0.0226,-0.2137,0.1250,0.1624,0.3477,
5.360247,-0.0725,0.9816,-0.2073,0.0792,-0.1154,-0.2230,0.1250,0.1624,0.3477,
5.380059,-0.0725,0.9816,-0.2073,-0.3997,-0.1354,0.2273,0.1250,0.1624,0.3477,
5.400237,-0.0725,0.9816,-0.2073,-0.4449,-0.0072,0.1822,0.1250,0.1624,0.3477,
5.414127,-0.0871,0.9879,-0.2365,-0.4449,-0.0072,0.1822,0.1250,0.1624,0.3477,
5.417061,-0.0871,0.9879,-0.2365,-0.4449,-0.0072,0.1822,0.1633,0.1688,0.5197,
5.419166,-0.0871,0.9879,-0.2365,-0.3427,0.0724,-0.5363,0.1633,0.1688,0.5197,
5.439586,-0.0871,0.9879,-0.2365,-1.3547,-0.1906,-0.5124,0.1633,0.1688,0.5197,
5.460972,-0.0871,0.9879,-0.2365,0.1956,0.0563,-0.6476,0.1633,0.1688,0.5197,
5.478742,-0.0467,0.9562,-0.1798,0.1956,0.0563,-0.6476,0.1633,0.1688,0.5197,
5.481728,-0.0467,0.9562,-0.1798,0.1956,0.0563,-0.6476,0.1271,0.2535,0.7204,
5.483090,-0.0467,0.9562,-0.1798,-0.2904,-0.2351,0.1630,0.1271,0.2535,0.7204,
5.499615,-0.0467,0.9562,-0.1798,1.5803,0.3775,-0.2429,0.1271,0.2535,0.7204,
5.519252,-0.0467,0.9562,-0.1798,-1.7704,0.3948,-0.2940,0.1271,0.2535,0.7204,
5.539843,-0.0467,0.9562,-0.1798,-2.3476,0.6099,-0.5556,0.1271,0.2535,0.7204,
5.546320,-0.0855,1.0471,-0.2526,-2.3476,0.6099,-0.5556,0.1271,0.2535,0.7204,
5.549437,-0.0855,1.0471,-0.2526,-2.3476,0.6099,-0.5556,0.1293,0.2838,1.1361,
5.562269,-0.0855,1.0471,-0.2526,-0.8694,1.2133,-0.7587,0.1293,0.2838,1.1361,
5.579574,-0.0855,1.0471,-0.2526,-0.7882,1.0377,-0.1810,0.1293,0.2838,1.1361,
5.600607,-0.0855,1.0471,-0.2526,-2.2136,1.8360,0.0974,0.1293,0.2838,1.1361,
5.611707,-0.1936,1.1594,-0.1554,-2.2136,1.8360,0.0974,0.1293,0.2838,1.1361,
5.614862,-0.1936,1.1594,-0.1554,-2.2136,1.8360,0.0974,0.0526,0.3796,1.4321,
5.619708,-0.1936,1.1594,-0.1554,-2.6731,1.8753,0.5033,0.0526,0.3796,1.4321,
5.639328,-0.1936,1.1594,-0.1554,-2.2550,1.9105,0.3175,0.0526,0.3796,1.4321,
5.659881,-0.1936,1.1594,-0.1554,-2.0513,2.3601,0.0883,0.0526,0.3796,1.4321,
5.678254,-0.1785,1.1727,-0.1499,-2.0513,2.3601,0.0883,0.0526,0.3796,1.4321,
5.681042,-0.1785,1.1727,-0.1499,-2.0513,2.3601,0.0883,-0.1087,0.4510,1.9128,
5.686195,-0.1785,1.1727,-0.1499,-4.0091,2.1600,0.6018,-0.1087,0.4510,1.9128,
5.700126,-0.1785,1.1727,-0.1499,-4.8027,2.7099,-0.1811,-0.1087,0.4510,1.9128,
5.719326,-0.1785,1.1727,-0.1499,-8.1983,4.5330,-0.2772,-0.1087,0.4510,1.9128,
5.739509,-0.1785,1.1727,-0.1499,-8.2721,4.2624,-0.2403,-0.1087,0.4510,1.9128,
5.744933,-0.3932,1.3244,-0.2285,-8.2721,4.2624,-0.2403,-0.1087,0.4510,1.9128,
5.748014,-0.3932,1.3244,-0.2285,-8.2721,4.2624,-0.2403,0.2805,0.3445,3.4193,
5.762080,-0.3932,1.3244,-0.2285,-7.2996,2.8812,-0.0669,0.2805,0.3445,3.4193,
5.780381,-0.3932,1.3244,-0.2285,-7.4944,3.3428,-0.9887,0.2805,0.3445,3.4193,
5.799651,-0.3932,1.3244,-0.2285,-3.3564,4.9809,-2.9389,0.2805,0.3445,3.4193,
5.808760,0.4900,1.2306,-0.4089,-3.3564,4.9809,-2.9389,0.2805,0.3445,3.4193,
5.810403,0.4900,1.2306,-0.4089,-3.3564,4.9809,-2.9389,0.5482,0.6261,4.4019,
5.819505,0.4900,1.2306,-0.4089,0.0935,3.6547,-1.4379,0.5482,0.6261,4.4019,
5.839900,0.4900,1.2306,-0.4089,0.7124,1.2117,-0.9449,0.5482,0.6261,4.4019,
5.860121,0.4900,1.2306,-0.4089,0.6258,-2.8412,1.1611,0.5482,0.6261,4.4019,
5.875031,1.0217,0.1233,-0.4862,0.6258,-2.8412,1.1611,0.5482,0.6261,4.4019,
5.876987,1.0217,0.1233,-0.4862,0.6258,-2.8412,1.1611,0.0909,0.1033,0.6075,
5.880942,1.0217,0.1233,-0.4862,3.2588,-3.9397,-2.5674,0.0909,0.1033,0.6075,
5.900093,1.0217,0.1233,-0.4862,1.4593,-0.0833,0.0312,0.0909,0.1033,0.6075,
5.919607,1.0217,0.1233,-0.4862,-2.5542,-2.0403,0.4067,0.0909,0.1033,0.6075,
5.940192,1.0217,0.1233,-0.4862,-5.2157,-3.6340,0.9738,0.0909,0.1033,0.6075,
5.943141,0.0934,0.3177,-0.0944,-5.2157,-3.6340,0.9738,0.0909,0.1033,0.6075,
5.944193,0.0934,0.3177,-0.0944,-5.2157,-3.6340,0.9738,-0.2737,-0.8469,-2.8627,
5.959974,0.0934,0.3177,-0.0944,-8.0063,-4.1863,1.3740,-0.2737,-0.8469,-2.8627,
5.980061,0.0934,0.3177,-0.0944,-6.5650,-3.4858,1.2915,-0.2737,-0.8469,-2.8627,
5.999374,0.0934,0.3177,-0.0944,-3.9535,-3.6065,0.8216,-0.2737,-0.8469,-2.8627,
6.006623,0.2244,0.4734,-0.1096,-3.9535,-3.6065,0.8216,-0.2737,-0.8469,-2.8627,
6.007849,0.2244,0.4734,-0.1096,-3.9535,-3.6065,0.8216,-0.3466,-0.2874,-3.2625,
6.019828,0.2244,0.4734,-0.1096,-1.8580,-2.9370,1.3053,-0.3466,-0.2874,-3.2625,
6.039375,0.2244,0.4734,-0.1096,-0.3775,-1.5711,1.0352,-0.3466,-0.2874,-3.2625,
6.059332,0.2244,0.4734,-0.1096,0.3094,-1.0918,0.3516,-0.3466,-0.2874,-3.2625,
6.073100,0.1424,0.8253,-0.1217,0.3094,-1.0918,0.3516,-0.3466,-0.2874,-3.2625,
6.074987,0.1424,0.8253,-0.1217,0.3094,-1.0918,0.3516,-0.4717,0.3386,-4.3660,
6.079852,0.1424,0.8253,-0.1217,-1.8120,-0.8948,0.8287,-0.4717,0.3386,-4.3660,
6.100642,0.1424,0.8253,-0.1217,-0.0830,0.0467,0.9716,-0.4717,0.3386,-4.3660,
6.119154,0.1424,0.8253,-0.1217,0.6126,1.0326,0.5812,-0.4717,0.3386,-4.3660,
6.138692,0.3408,1.2409,-0.2028,0.6126,1.0326,0.5812,-0.4717,0.3386,-4.3660,
6.141206,0.3408,1.2409,-0.2028,0.6126,1.0326,0.5812,-0.3274,0.2114,-4.0977,
6.141923,0.3408,1.2409,-0.2028,2.7511,2.4164,-0.3652,-0.3274,0.2114,-4.0977,
6.159235,0.3408,1.2409,-0.2028,3.9809,3.1730,-0.0959,-0.3274,0.2114,-4.0977,
6.179691,0.3408,1.2409,-0.2028,4.4367,3.5634,-0.1245,-0.3274,0.2114,-4.0977,
6.199440,0.3408,1.2409,-0.2028,4.4048,3.7086,-0.3001,-0.3274,0.2114,-4.0977,
6.204744,0.1979,1.3414,-0.1637,4.4048,3.7086,-0.3001,-0.3274,0.2114,-4.0977,
6.206020,0.1979,1.3414,-0.1637,4.4048,3.7086,-0.3001,-0.1619,-0.1963,-3.6085,
6.220394,0.1979,1.3414,-0.1637,2.1167,2.7561,0.3888,-0.1619,-0.1963,-3.6085,
6.239308,0.1979,1.3414,-0.1637,3.6049,2.8498,-0.2649,-0.1619,-0.1963,-3.6085,
6.260259,0.1979,1.3414,-0.1637,6.4522,2.9357,-0.4445,-0.1619,-0.1963,-3.6085,
6.270698,0.2773,1.1038,-0.1541,6.4522,2.9357,-0.4445,-0.1619,-0.1963,-3.6085,
6.272081,0.2773,1.1038,-0.1541,6.4522,2.9357,-0.4445,-0.2024,0.2992,-1.7805,
6.279967,0.2773,1.1038,-0.1541,6.9928,1.5167,0.0432,-0.2024,0.2992,-1.7805,
6.299191,0.2773,1.1038,-0.1541,6.5504,0.4567,0.1876,-0.2024,0.2992,-1.7805,
6.319661,0.2773,1.1038,-0.1541,5.4537,0.7644,0.2967,-0.2024,0.2992,-1.7805,
6.337779,0.0520,0.9453,-0.1174,5.4537,0.7644,0.2967,-0.2024,0.2992,-1.7805,
6.340684,0.0520,0.9453,-0.1174,5.4537,0.7644,0.2967,0.0100,0.4866,-0.0935,
6.341846,0.0520,0.9453,-0.1174,5.0271,0.6789,0.2964,0.0100,0.4866,-0.0935,
6.359387,0.0520,0.9453,-0.1174,1.0631,6.3530,1.0827,0.0100,0.4866,-0.0935,
6.379446,0.0520,0.9453,-0.1174,-5.0853,0.8466,-0.3997,0.0100,0.4866,-0.0935,
6.399794,0.0520,0.9453,-0.1174,2.6572,-0.9946,-1.3243,0.0100,0.4866,-0.0935,
6.403187,-0.1494,1.0224,-0.2896,2.6572,-0.9946,-1.3243,0.0100,0.4866,-0.0935,
6.404967,-0.1494,1.0224,-0.2896,2.6572,-0.9946,-1.3243,0.4439,-0.1154,1.2559,
6.419455,-0.1494,1.0224,-0.2896,0.7115,1.6500,-1.9481,0.4439,-0.1154,1.2559,
6.439379,-0.1494,1.0224,-0.2896,0.8562,1.2277,-1.4651,0.4439,-0.1154,1.2559,
6.459368,-0.1494,1.0224,-0.2896,2.5728,0.3503,3.9233,0.4439,-0.1154,1.2559,
6.469566,-0.0815,0.9160,0.1129,2.5728,0.3503,3.9233,0.4439,-0.1154,1.2559,
6.472142,-0.0815,0.9160,0.1129,2.5728,0.3503,3.9233,0.1697,-0.6110,0.8966,
6.481487,-0.0815,0.9160,0.1129,2.9443,1.7600,3.3376,0.1697,-0.6110,0.8966,
6.500874,-0.0815,0.9160,0.1129,2.2362,-0.3901,2.2808,0.1697,-0.6110,0.8966,
6.520320,-0.0815,0.9160,0.1129,2.3708,1.2626,0.1154,0.1697,-0.6110,0.8966,
6.534836,0.0496,1.0646,-0.5526,2.3708,1.2626,0.1154,0.1697,-0.6110,0.8966,
6.537810,0.0496,1.0646,-0.5526,2.3708,1.2626,0.1154,0.2948,0.6708,0.9243,
6.539319,0.0496,1.0646,-0.5526,3.1285,1.2400,-3.7449,0.2948,0.6708,0.9243,
6.559890,0.0496,1.0646,-0.5526,-0.3310,0.5816,-3.4686,0.2948,0.6708,0.9243,
6.579932,0.0496,1.0646,-0.5526,1.3033,0.2841,0.0852,0.2948,0.6708,0.9243,
6.599363,0.0496,1.0646,-0.5526,2.4198,0.5038,1.6250,0.2948,0.6708,0.9243,
6.602297,-0.0096,0.9799,-0.0373,2.4198,0.5038,1.6250,0.2948,0.6708,0.9243,
6.603566,-0.0096,0.9799,-0.0373,2.4198,0.5038,1.6250,0.2475,0.1550,0.6496,
6.619374,-0.0096,0.9799,-0.0373,0.5850,0.6277,1.2332,0.2475,0.1550,0.6496,
6.639494,-0.0096,0.9799,-0.0373,-0.1024,-0.0138,0.1264,0.2475,0.1550,0.6496,
6.659913,-0.0096,0.9799,-0.0373,0.0232,-0.2085,-0.4850,0.2475,0.1550,0.6496,
6.667101,-0.1914,0.9579,-0.2962,0.0232,-0.2085,-0.4850,0.2475,0.1550,0.6496,
6.670307,-0.1914,0.9579,-0.2962,0.0232,-0.2085,-0.4850,0.3374,0.0272,0.5612,
6.679341,-0.1914,0.9579,-0.2962,-0.1302,0.1448,-0.2128,0.3374,0.0272,0.5612,
6.699802,-0.1914,0.9579,-0.2962,1.2509,0.5891,0.0477,0.3374,0.0272,0.5612,
6.719428,-0.1914,0.9579,-0.2962,0.5480,0.2431,-0.1738,0.3374,0.0272,0.5612,
6.734348,-0.1101,0.9627,-0.3196,0.5480,0.2431,-0.1738,0.3374,0.0272,0.5612,
6.737349,-0.1101,0.9627,-0.3196,0.5480,0.2431,-0.1738,0.2810,0.1103,0.3813,
6.739566,-0.1101,0.9627,-0.3196,0.4744,0.0979,-0.6716,0.2810,0.1103,0.3813,
6.759374,-0.1101,0.9627,-0.3196,0.5133,0.1486,-0.1964,0.2810,0.1103,0.3813,
6.779445,-0.1101,0.9627,-0.3196,0.4416,0.0048,-0.1543,0.2810,0.1103,0.3813,
6.800079,-0.1035,0.9598,-0.3279,0.4416,0.0048,-0.1543,0.2810,0.1103,0.3813,
6.803192,-0.1035,0.9598,-0.3279,0.4416,0.0048,-0.1543,0.2506,0.2120,0.2498,
6.804296,-0.1035,0.9598,-0.3279,0.3734,0.0594,-0.4911,0.2506,0.2120,0.2498,
6.819880,-0.1035,0.9598,-0.3279,-0.4532,-0.0320,-0.6540,0.2506,0.2120,0.2498,
6.839356,-0.1035,0.9598,-0.3279,-0.4699,-0.1056,-0.8331,0.2506,0.2120,0.2498,
6.859393,-0.1035,0.9598,-0.3279,0.4017,0.0627,-0.4313,0.2506,0.2120,0.2498,
6.866527,-0.0401,0.9521,-0.3158,0.4017,0.0627,-0.4313,0.2506,0.2120,0.2498,
6.869624,-0.0401,0.9521,-0.3158,0.4017,0.0627,-0.4313,0.1532,0.2109,0.3445,
6.879751,-0.0401,0.9521,-0.3158,0.5434,-0.1230,-0.0344,0.1532,0.2109,0.3445,
6.899926,-0.0401,0.9521,-0.3158,1.7737,0.1243,-0.2654,0.1532,0.2109,0.3445,
6.919338,-0.0401,0.9521,-0.3158,-0.7839,-0.0565,-0.0460,0.1532,0.2109,0.3445,
6.930591,-0.2127,0.9407,-0.3157,-0.7839,-0.0565,-0.0460,0.1532,0.2109,0.3445,
6.932618,-0.2127,0.9407,-0.3157,-0.7839,-0.0565,-0.0460,0.1713,0.2668,0.3126,
6.939371,-0.2127,0.9407,-0.3157,-0.4428,-0.0410,-0.1592,0.1713,0.2668,0.3126,
6.959482,-0.2127,0.9407,-0.3157,0.5244,-0.0564,-0.2111,0.1713,0.2668,0.3126,
6.980002,-0.2127,0.9407,-0.3157,0.6658,0.0173,-0.2840,0.1713,0.2668,0.3126,
7.000246,-0.2836,0.9380,-0.3237,0.6658,0.0173,-0.2840,0.1713,0.2668,0.3126,
7.002784,-0.2836,0.9380,-0.3237,0.6658,0.0173,-0.2840,0.1303,0.2551,0.3264,
7.004445,-0.2836,0.9380,-0.3237,-2.0967,-0.1217,-0.1335,0.1303,0.2551,0.3264,
7.020428,-0.2836,0.9380,-0.3237,0.8443,-0.1867,-0.2821,0.1303,0.2551,0.3264,
7.039514,-0.2836,0.9380,-0.3237,0.3694,-0.2135,-0.2512,0.1303,0.2551,0.3264,
7.060042,-0.2836,0.9380,-0.3237,1.5334,-0.1416,0.0838,0.1303,0.2551,0.3264,
7.062773,-0.0383,0.9280,-0.2993,1.5334,-0.1416,0.0838,0.1303,0.2551,0.3264,
7.064293,-0.0383,0.9280,-0.2993,1.5334,-0.1416,0.0838,0.1112,0.1896,0.0736,
7.079642,-0.0383,0.9280,-0.2993,-1.4940,-0.0181,0.1048,0.1112,0.1896,0.0736,
7.100391,-0.0383,0.9280,-0.2993,-1.1344,0.0181,-0.0445,0.1112,0.1896,0.0736,
7.119477,-0.0383,0.9280,-0.2993,0.0808,0.3096,0.0052,0.1112,0.1896,0.0736,
7.128614,0.0396,0.9742,-0.3226,0.0808,0.3096,0.0052,0.1112,0.1896,0.0736,
7.130573,0.0396,0.9742,-0.3226,0.0808,0.3096,0.0052,0.1516,0.2971,0.3706,
7.139961,0.0396,0.9742,-0.3226,2.0657,0.2388,-0.2498,0.1516,0.2971,0.3706,
7.159513,0.0396,0.9742,-0.3226,-1.4590,-0.3019,-0.1640,0.1516,0.2971,0.3706,
7.179372,0.0396,0.9742,-0.3226,-2.0812,0.2453,-0.0804,0.1516,0.2971,0.3706,
7.194832,-0.1034,1.0335,-0.2984,-2.0812,0.2453,-0.0804,0.1516,0.2971,0.3706,
7.197634,-0.1034,1.0335,-0.2984,-2.0812,0.2453,-0.0804,0.1750,0.3844,0.6560,
7.199885,-0.1034,1.0335,-0.2984,-0.8057,0.9712,0.4282,0.1750,0.3844,0.6560,
7.219967,-0.1034,1.0335,-0.2984,0.1155,1.1514,0.4501,0.1750,0.3844,0.6560,
7.239694,-0.1034,1.0335,-0.2984,-0.5396,0.7252,-0.0098,0.1750,0.3844,0.6560,
7.259584,-0.1034,1.0335,-0.2984,-1.7022,0.6424,-0.7393,0.1750,0.3844,0.6560,
7.262271,-0.1369,1.0027,-0.4270,-1.7022,0.6424,-0.7393,0.1750,0.3844,0.6560,
7.263183,-0.1369,1.0027,-0.4270,-1.7022,0.6424,-0.7393,0.1474,0.4707,0.6884,
7.279486,-0.1369,1.0027,-0.4270,-1.4928,0.6500,-0.6388,0.1474,0.4707,0.6884,
7.300909,-0.1369,1.0027,-0.4270,-1.6380,1.3483,0.2923,0.1474,0.4707,0.6884,
7.319799,-0.1369,1.0027,-0.4270,-2.1540,1.5342,0.7540,0.1474,0.4707,0.6884,
7.326478,-0.1298,1.1363,-0.3266,-2.1540,1.5342,0.7540,0.1474,0.4707,0.6884,
7.328305,-0.1298,1.1363,-0.3266,-2.1540,1.5342,0.7540,0.2943,0.8502,0.9940,
7.339422,-0.1298,1.1363,-0.3266,-2.2133,2.2989,0.0762,0.2943,0.8502,0.9940,
7.359443,-0.1298,1.1363,-0.3266,-1.7426,1.5264,0.1282,0.2943,0.8502,0.9940,
7.380161,-0.1298,1.1363,-0.3266,-1.1949,1.8557,-0.6547,0.2943,0.8502,0.9940,
7.393031,-0.0346,1.0493,-0.4614,-1.1949,1.8557,-0.6547,0.2943,0.8502,0.9940,
7.395519,-0.0346,1.0493,-0.4614,-1.1949,1.8557,-0.6547,0.7074,2.0762,1.1244,
7.401693,-0.0346,1.0493,-0.4614,-2.5749,1.3506,-1.0081,0.7074,2.0762,1.1244,
7.419908,-0.0346,1.0493,-0.4614,-3.8643,1.2024,-1.5712,0.7074,2.0762,1.1244,
7.439467,-0.0346,1.0493,-0.4614,-2.4584,-0.9104,-0.6834,0.7074,2.0762,1.1244,
7.459390,0.7971,0.9518,-0.3194,-2.4584,-0.9104,-0.6834,0.7074,2.0762,1.1244,
7.462385,0.7971,0.9518,-0.3194,-2.4584,-0.9104,-0.6834,1.3339,3.5246,1.1947,
7.463359,0.7971,0.9518,-0.3194,3.4395,0.5532,0.5064,1.3339,3.5246,1.1947,
7.479427,0.7971,0.9518,-0.3194,8.5868,0.6295,-0.2723,1.3339,3.5246,1.1947,
7.500069,0.7971,0.9518,-0.3194,3.5559,-1.1446,-0.1171,1.3339,3.5246,1.1947,
7.519320,0.7971,0.9518,-0.3194,0.1102,-1.9693,0.0672,1.3339,3.5246,1.1947,
7.524553,0.4602,0.6118,-0.3231,0.1102,-1.9693,0.0672,1.3339,3.5246,1.1947,
7.526235,0.4602,0.6118,-0.3231,0.1102,-1.9693,0.0672,1.7113,4.3178,-0.7009,
7.540024,0.4602,0.6118,-0.3231,0.2063,-2.2974,0.8255,1.7113,4.3178,-0.7009,
7.559760,0.4602,0.6118,-0.3231,2.5551,-3.7097,2.0592,1.7113,4.3178,-0.7009,
7.579393,0.4602,0.6118,-0.3231,6.5361,-1.0563,2.3600,1.7113,4.3178,-0.7009,
7.591070,0.9916,0.6689,-0.0587,6.5361,-1.0563,2.3600,1.7113,4.3178,-0.7009,
7.594138,0.9916,0.6689,-0.0587,6.5361,-1.0563,2.3600,1.7928,4.7878,-2.5284,
7.599415,0.9916,0.6689,-0.0587,3.1555,-2.4004,2.2207,1.7928,4.7878,-2.5284,
7.619936,0.9916,0.6689,-0.0587,0.4839,-3.2787,2.1866,1.7928,4.7878,-2.5284,
7.640638,0.9916,0.6689,-0.0587,-4.0668,-3.5548,3.4171,1.7928,4.7878,-2.5284,
7.658731,-0.2918,0.6238,-0.0137,-4.0668,-3.5548,3.4171,1.7928,4.7878,-2.5284,
7.661456,-0.2918,0.6238,-0.0137,-4.0668,-3.5548,3.4171,1.1881,2.2337,-2.9782,
7.662585,-0.2918,0.6238,-0.0137,-6.5995,-2.4970,2.7126,1.1881,2.2337,-2.9782,
7.679274,-0.2918,0.6238,-0.0137,-2.8178,-1.1763,2.5761,1.1881,2.2337,-2.9782,
7.699756,-0.2918,0.6238,-0.0137,2.1965,-1.0313,3.2415,1.1881,2.2337,-2.9782,
7.719165,-0.2918,0.6238,-0.0137,2.3963,-0.5334,3.2837,1.1881,2.2337,-2.9782,
7.722715,0.4378,0.8926,0.0357,2.3963,-0.5334,3.2837,1.1881,2.2337,-2.9782,
7.724355,0.4378,0.8926,0.0357,2.3963,-0.5334,3.2837,0.1729,3.4267,-2.8403,
7.739201,0.4378,0.8926,0.0357,-0.2261,-0.0135,2.6411,0.1729,3.4267,-2.8403,
7.759696,0.4378,0.8926,0.0357,-0.8265,-0.0760,2.5998,0.1729,3.4267,-2.8403,
7.779786,0.4378,0.8926,0.0357,0.4146,0.0467,2.4027,0.1729,3.4267,-2.8403,
7.788915,0.2774,0.9650,-0.0255,0.4146,0.0467,2.4027,0.1729,3.4267,-2.8403,
7.790668,0.2774,0.9650,-0.0255,0.4146,0.0467,2.4027,-0.2396,2.8997,-2.7935,
7.802643,0.2774,0.9650,-0.0255,1.4453,-0.0478,1.8063,-0.2396,2.8997,-2.7935,
7.819610,0.2774,0.9650,-0.0255,1.0648,0.5257,1.4100,-0.2396,2.8997,-2.7935,
7.839314,0.2774,0.9650,-0.0255,0.5833,0.7950,0.9777,-0.2396,2.8997,-2.7935,
7.855655,0.1107,1.0777,-0.1182,0.5833,0.7950,0.9777,-0.2396,2.8997,-2.7935,
7.858860,0.1107,1.0777,-0.1182,0.5833,0.7950,0.9777,-0.6538,2.9811,-2.6088,
7.860247,0.1107,1.0777,-0.1182,0.8719,0.9473,0.6641,-0.6538,2.9811,-2.6088,
7.879281,0.1107,1.0777,-0.1182,1.4747,1.0118,0.2882,-0.6538,2.9811,-2.6088,
7.899774,0.1107,1.0777,-0.1182,2.1725,0.8792,-0.2855,-0.6538,2.9811,-2.6088,
7.920554,0.1107,1.0777,-0.1182,1.7938,0.8529,-0.5813,-0.6538,2.9811,-2.6088,
7.923162,0.0713,1.0754,-0.2175,1.7938,0.8529,-0.5813,-0.6538,2.9811,-2.6088,
7.924427,0.0713,1.0754,-0.2175,1.7938,0.8529,-0.5813,-0.8273,3.4118,-2.3314,
7.939783,0.0713,1.0754,-0.2175,1.3178,0.7259,-0.9994,-0.8273,3.4118,-2.3314,
7.959824,0.0713,1.0754,-0.2175,1.1807,0.6409,-1.1598,-0.8273,3.4118,-2.3314,
7.979340,0.0713,1.0754,-0.2175,1.2896,0.2395,-1.1324,-0.8273,3.4118,-2.3314,
7.986919,-0.0672,0.9880,-0.2508,1.2896,0.2395,-1.1324,-0.8273,3.4118,-2.3314,
7.989913,-0.0672,0.9880,-0.2508,1.2896,0.2395,-1.1324,-0.6591,3.7099,-1.5665,
7.999306,-0.0672,0.9880,-0.2508,1.3946,0.0057,-1.1204,-0.6591,3.7099,-1.5665,
8.019759,-0.0672,0.9880,-0.2508,0.4460,-0.3118,-1.2200,-0.6591,3.7099,-1.5665,
8.039252,-0.0672,0.9880,-0.2508,-0.8541,-0.3386,-0.7712,-0.6591,3.7099,-1.5665,
8.054248,-0.2479,0.9188,-0.2076,-0.8541,-0.3386,-0.7712,-0.6591,3.7099,-1.5665,
8.057088,-0.2479,0.9188,-0.2076,-0.8541,-0.3386,-0.7712,-0.4935,2.2060,-0.3544,
8.059589,-0.2479,0.9188,-0.2076,0.3065,-0.4820,-0.5790,-0.4935,2.2060,-0.3544,
8.079320,-0.2479,0.9188,-0.2076,1.1748,-0.9319,-0.6906,-0.4935,2.2060,-0.3544,
8.099702,-0.2479,0.9188,-0.2076,0.9403,-1.0817,-1.2353,-0.4935,2.2060,-0.3544,
8.120772,-0.0883,0.9268,-0.3672,0.9403,-1.0817,-1.2353,-0.4935,2.2060,-0.3544,
8.123613,-0.0883,0.9268,-0.3672,0.9403,-1.0817,-1.2353,-0.3381,1.5513,-0.0531,
8.126737,-0.0883,0.9268,-0.3672,1.4895,-0.3499,-2.0700,-0.3381,1.5513,-0.0531,
8.139277,-0.0883,0.9268,-0.3672,1.0817,-0.7789,-2.1572,-0.3381,1.5513,-0.0531,
8.161079,-0.0883,0.9268,-0.3672,-6.7530,3.7920,-3.0665,-0.3381,1.5513,-0.0531,
8.179628,-0.0883,0.9268,-0.3672,-6.5788,-1.4035,-2.1185,-0.3381,1.5513,-0.0531,
8.188173,-0.9600,0.8783,-0.2836,-6.5788,-1.4035,-2.1185,-0.3381,1.5513,-0.0531,
8.191023,-0.9600,0.8783,-0.2836,-6.5788,-1.4035,-2.1185,0.1404,1.4826,0.2173,
8.199560,-0.9600,0.8783,-0.2836,-7.4374,-1.9600,-0.2496,0.1404,1.4826,0.2173,
8.219194,-0.9600,0.8783,-0.2836,-5.0192,-0.8648,-0.5377,0.1404,1.4826,0.2173,
8.241970,-0.9600,0.8783,-0.2836,4.3058,1.2075,-0.8690,0.1404,1.4826,0.2173,
8.250731,0.4831,1.1984,-0.2333,4.3058,1.2075,-0.8690,0.1404,1.4826,0.2173,
8.252448,0.4831,1.1984,-0.2333,4.3058,1.2075,-0.8690,0.4130,-0.2256,1.0360,
8.259959,0.4831,1.1984,-0.2333,5.6025,2.0267,-0.7035,0.4130,-0.2256,1.0360,
8.279338,0.4831,1.1984,-0.2333,1.3300,0.4447,-0.2438,0.4130,-0.2256,1.0360,
8.299304,0.4831,1.1984,-0.2333,-2.9881,-0.8249,-0.2380,0.4130,-0.2256,1.0360,
8.317616,0.0874,0.9931,-0.2049,-2.9881,-0.8249,-0.2380,0.4130,-0.2256,1.0360,
8.320294,0.0874,0.9931,-0.2049,-2.9881,-0.8249,-0.2380,0.3150,0.0970,0.8055,
8.322605,0.0874,0.9931,-0.2049,2.0143,0.2063,0.0325,0.3150,0.0970,0.8055,
8.341977,0.0874,0.9931,-0.2049,4.7362,0.7218,-0.4018,0.3150,0.0970,0.8055,
8.359506,0.0874,0.9931,-0.2049,-1.4711,-0.0830,0.9119,0.3150,0.0970,0.8055,
8.379385,0.0874,0.9931,-0.2049,-1.1523,-0.2375,0.3896,0.3150,0.0970,0.8055,
8.382802,-0.1092,0.9694,-0.1828,-1.1523,-0.2375,0.3896,0.3150,0.0970,0.8055,
8.384244,-0.1092,0.9694,-0.1828,-1.1523,-0.2375,0.3896,0.3784,0.2114,0.4420,
8.399312,-0.1092,0.9694,-0.1828,0.7144,0.1731,0.4522,0.3784,0.2114,0.4420,
8.420623,-0.1092,0.9694,-0.1828,1.7860,0.7851,0.4353,0.3784,0.2114,0.4420,
8.439202,-0.1092,0.9694,-0.1828,0.3562,0.2640,-0.0778,0.3784,0.2114,0.4420,
8.448860,-0.0943,0.9850,-0.2867,0.3562,0.2640,-0.0778,0.3784,0.2114,0.4420,
8.450724,-0.0943,0.9850,-0.2867,0.3562,0.2640,-0.0778,0.4210,0.2705,0.0853,
8.459443,-0.0943,0.9850,-0.2867,-0.0976,-0.0497,-0.4460,0.4210,0.2705,0.0853,
8.479412,-0.0943,0.9850,-0.2867,0.1477,0.0491,-0.5507,0.4210,0.2705,0.0853,
8.499567,-0.0943,0.9850,-0.2867,-0.5687,-0.0285,-1.0234,0.4210,0.2705,0.0853,
8.514783,-0.0559,0.9594,-0.4304,-0.5687,-0.0285,-1.0234,0.4210,0.2705,0.0853,
8.517362,-0.0559,0.9594,-0.4304,-0.5687,-0.0285,-1.0234,0.2469,0.1241,0.0683,
8.521491,-0.0559,0.9594,-0.4304,0.0338,0.0082,-1.4496,0.2469,0.1241,0.0683,
8.539558,-0.0559,0.9594,-0.4304,-0.5439,-0.1953,-1.1597,0.2469,0.1241,0.0683,
8.559805,-0.0559,0.9594,-0.4304,0.5495,0.2047,-0.1090,0.2469,0.1241,0.0683,
8.583769,-0.0559,0.9594,-0.4304,0.0501,0.0846,0.2599,0.2469,0.1241,0.0683,
8.586554,-0.0599,0.9709,-0.2746,0.0501,0.0846,0.2599,0.2469,0.1241,0.0683,
8.588151,-0.0599,0.9709,-0.2746,0.0501,0.0846,0.2599,0.1495,0.0869,-0.0360,
8.599361,-0.0599,0.9709,-0.2746,0.1593,0.1723,0.1032,0.1495,0.0869,-0.0360,
8.619085,-0.0599,0.9709,-0.2746,-0.2655,0.1515,-0.2626,0.1495,0.0869,-0.0360,
8.639013,-0.0599,0.9709,-0.2746,-0.3128,0.1203,0.1234,0.1495,0.0869,-0.0360,
8.646773,-0.1328,0.9647,-0.2996,-0.3128,0.1203,0.1234,0.1495,0.0869,-0.0360,
8.648653,-0.1328,0.9647,-0.2996,-0.3128,0.1203,0.1234,0.0984,0.1518,-0.0845,
8.661189,-0.1328,0.9647,-0.2996,-1.0852,-0.0380,-0.0686,0.0984,0.1518,-0.0845,
8.679439,-0.1328,0.9647,-0.2996,-0.9205,-0.1008,-0.5010,0.0984,0.1518,-0.0845,
8.699518,-0.1328,0.9647,-0.2996,-0.2249,-0.0571,-0.4834,0.0984,0.1518,-0.0845,
8.712979,-0.0565,0.9516,-0.3369,-0.2249,-0.0571,-0.4834,0.0984,0.1518,-0.0845,
8.715522,-0.0565,0.9516,-0.3369,-0.2249,-0.0571,-0.4834,0.0366,0.2290,0.0709,
8.719054,-0.0565,0.9516,-0.3369,-0.0775,-0.0055,-0.2446,0.0366,0.2290,0.0709,
8.740386,-0.0565,0.9516,-0.3369,-0.3591,0.0252,-0.2557,0.0366,0.2290,0.0709,
8.759154,-0.0565,0.9516,-0.3369,-0.1320,-0.0527,0.0345,0.0366,0.2290,0.0709,
8.780537,-0.0607,0.9540,-0.3124,-0.1320,-0.0527,0.0345,0.0366,0.2290,0.0709,
8.783669,-0.0607,0.9540,-0.3124,-0.1320,-0.0527,0.0345,0.0260,0.1720,0.1103,
8.784314,-0.0607,0.9540,-0.3124,-0.1818,0.0165,0.0015,0.0260,0.1720,0.1103,
8.799128,-0.0607,0.9540,-0.3124,0.1501,-0.1200,-0.0509,0.0260,0.1720,0.1103,
8.819492,-0.0607,0.9540,-0.3124,-0.0957,-0.1388,-0.1521,0.0260,0.1720,0.1103,
8.840108,-0.0607,0.9540,-0.3124,-0.2933,-0.0591,0.0609,0.0260,0.1720,0.1103,
8.845056,-0.0499,0.9487,-0.3162,-0.2933,-0.0591,0.0609,0.0260,0.1720,0.1103,
8.846484,-0.0499,0.9487,-0.3162,-0.2933,-0.0591,0.0609,0.0515,0.1401,0.1465,
8.859359,-0.0499,0.9487,-0.3162,-0.1733,0.1584,0.1684,0.0515,0.1401,0.1465,
8.879732,-0.0499,0.9487,-0.3162,-0.9023,0.0634,-0.0739,0.0515,0.1401,0.1465,
8.900397,-0.0499,0.9487,-0.3162,-0.4945,0.1166,-0.2934,0.0515,0.1401,0.1465,
8.910987,-0.0595,0.9524,-0.3019,-0.4945,0.1166,-0.2934,0.0515,0.1401,0.1465,
8.913283,-0.0595,0.9524,-0.3019,-0.4945,0.1166,-0.2934,0.1016,0.0948,0.2439,
8.919483,-0.0595,0.9524,-0.3019,-0.4755,-0.0952,0.1921,0.1016,0.0948,0.2439,
8.939214,-0.0595,0.9524,-0.3019,-0.5598,-0.1277,0.3421,0.1016,0.0948,0.2439,
8.959760,-0.0595,0.9524,-0.3019,-0.4351,-0.1066,0.2596,0.1016,0.0948,0.2439,
8.978224,-0.1459,0.9480,-0.3091,-0.4351,-0.1066,0.2596,0.1016,0.0948,0.2439,
8.980709,-0.1459,0.9480,-0.3091,-0.4351,-0.1066,0.2596,0.2959,0.2386,0.4654,
8.981685,-0.1459,0.9480,-0.3091,-1.4533,0.0291,0.2142,0.2959,0.2386,0.4654,
8.999084,-0.1459,0.9480,-0.3091,-0.8387,0.3707,0.1455,0.2959,0.2386,0.4654,
9.019182,-0.1459,0.9480,-0.3091,-0.6826,0.3044,-0.0752,0.2959,0.2386,0.4654,
9.039481,-0.1459,0.9480,-0.3091,-1.8775,0.5831,0.0062,0.2959,0.2386,0.4654,
9.042939,-0.2015,0.9906,-0.3532,-1.8775,0.5831,0.0062,0.2959,0.2386,0.4654,
9.045239,-0.2015,0.9906,-0.3532,-1.8775,0.5831,0.0062,0.2959,0.3514,0.8247,
9.059562,-0.2015,0.9906,-0.3532,-2.9485,1.2473,-0.0906,0.2959,0.3514,0.8247,
9.079340,-0.2015,0.9906,-0.3532,-2.4141,1.2925,-0.2524,0.2959,0.3514,0.8247,
9.099404,-0.2015,0.9906,-0.3532,-1.6060,1.8074,0.1520,0.2959,0.3514,0.8247,
9.109178,-0.0769,1.1174,-0.2910,-1.6060,1.8074,0.1520,0.2959,0.3514,0.8247,
9.111934,-0.0769,1.1174,-0.2910,-1.6060,1.8074,0.1520,0.2203,0.4659,1.3272,
9.119257,-0.0769,1.1174,-0.2910,-2.0086,1.7455,1.0960,0.2203,0.4659,1.3272,
9.139799,-0.0769,1.1174,-0.2910,-0.8777,1.3002,1.2504,0.2203,0.4659,1.3272,
9.159579,-0.0769,1.1174,-0.2910,-2.2408,1.8825,1.3995,0.2203,0.4659,1.3272,
9.175356,-0.2084,1.1671,-0.2978,-2.2408,1.8825,1.3995,0.2203,0.4659,1.3272,
9.177987,-0.2084,1.1671,-0.2978,-2.2408,1.8825,1.3995,0.2336,0.1784,1.7408,
9.179707,-0.2084,1.1671,-0.2978,-4.2242,2.7587,0.6345,0.2336,0.1784,1.7408,
9.199420,-0.2084,1.1671,-0.2978,-5.6209,3.0752,0.1619,0.2336,0.1784,1.7408,
9.219652,-0.2084,1.1671,-0.2978,-5.5760,3.6820,-0.3663,0.2336,0.1784,1.7408,
9.240718,-0.2084,1.1671,-0.2978,-8.3875,4.4050,-0.1291,0.2336,0.1784,1.7408,
9.243278,-0.5931,1.2580,-0.3804,-8.3875,4.4050,-0.1291,0.2336,0.1784,1.7408,
9.244673,-0.5931,1.2580,-0.3804,-8.3875,4.4050,-0.1291,0.6855,0.4276,2.8800,
9.259545,-0.5931,1.2580,-0.3804,-9.7857,2.3658,1.0469,0.6855,0.4276,2.8800,
9.280044,-0.5931,1.2580,-0.3804,-0.1413,2.6928,1.1259,0.6855,0.4276,2.8800,
9.301151,-0.5931,1.2580,-0.3804,4.5898,4.2159,0.5157,0.6855,0.4276,2.8800,
9.309663,0.6811,1.1201,-0.3373,4.5898,4.2159,0.5157,0.6855,0.4276,2.8800,
9.312897,0.6811,1.1201,-0.3373,4.5898,4.2159,0.5157,0.9384,0.8162,2.6708,
9.319386,0.6811,1.1201,-0.3373,-2.1364,3.3199,0.7511,0.9384,0.8162,2.6708,
9.339481,0.6811,1.1201,-0.3373,-4.3693,2.3982,0.5423,0.9384,0.8162,2.6708,
9.359691,0.6811,1.1201,-0.3373,-7.2103,-1.8884,1.0215,0.9384,0.8162,2.6708,
9.372907,0.7879,0.3028,-0.5688,-7.2103,-1.8884,1.0215,0.9384,0.8162,2.6708,
9.375918,0.7879,0.3028,-0.5688,-7.2103,-1.8884,1.0215,0.3188,0.9769,1.1728,
9.380330,0.7879,0.3028,-0.5688,4.3366,-0.2723,-1.3512,0.3188,0.9769,1.1728,
9.399914,0.7879,0.3028,-0.5688,2.9118,1.2609,0.7257,0.3188,0.9769,1.1728,
9.419439,0.7879,0.3028,-0.5688,-1.7832,-0.6090,1.4680,0.3188,0.9769,1.1728,
9.438858,0.3596,0.4749,-0.2481,-1.7832,-0.6090,1.4680,0.3188,0.9769,1.1728,
9.442091,0.3596,0.4749,-0.2481,-1.7832,-0.6090,1.4680,-0.5846,0.3307,-2.5699,
9.443569,0.3596,0.4749,-0.2481,-2.6959,-1.7785,1.1104,-0.5846,0.3307,-2.5699,
9.459901,0.3596,0.4749,-0.2481,-5.7463,-2.6482,0.6953,-0.5846,0.3307,-2.5699,
9.479345,0.3596,0.4749,-0.2481,-7.3968,-3.1258,0.9116,-0.5846,0.3307,-2.5699,
9.499549,0.3596,0.4749,-0.2481,-6.0862,-2.9030,0.5061,-0.5846,0.3307,-2.5699,
9.504698,-0.0377,0.4960,-0.2602,-6.0862,-2.9030,0.5061,-0.5846,0.3307,-2.5699,
9.505890,-0.0377,0.4960,-0.2602,-6.0862,-2.9030,0.5061,-0.9450,-0.2006,-3.0442,
9.519321,-0.0377,0.4960,-0.2602,-4.0685,-2.5334,0.8055,-0.9450,-0.2006,-3.0442,
9.539819,-0.0377,0.4960,-0.2602,-1.6429,-1.8967,0.3688,-0.9450,-0.2006,-3.0442,
9.559918,-0.0377,0.4960,-0.2602,-1.3389,-1.5765,-0.2435,-0.9450,-0.2006,-3.0442,
9.570819,0.2253,0.8082,-0.3287,-1.3389,-1.5765,-0.2435,-0.9450,-0.2006,-3.0442,
9.572884,0.2253,0.8082,-0.3287,-1.3389,-1.5765,-0.2435,-1.1371,-0.4007,-3.9742,
9.580064,0.2253,0.8082,-0.3287,-1.0472,-0.7114,-0.5405,-1.1371,-0.4007,-3.9742,
9.599934,0.2253,0.8082,-0.3287,-0.7888,-0.2711,-1.0488,-1.1371,-0.4007,-3.9742,
9.619598,0.2253,0.8082,-0.3287,-0.3642,0.3316,-1.0987,-1.1371,-0.4007,-3.9742,
9.637434,0.2296,1.1461,-0.3877,-0.3642,0.3316,-1.0987,-1.1371,-0.4007,-3.9742,
9.640295,0.2296,1.1461,-0.3877,-0.3642,0.3316,-1.0987,-0.9460,0.4110,-4.1254,
9.641661,0.2296,1.1461,-0.3877,1.6958,1.6348,-1.7787,-0.9460,0.4110,-4.1254,
9.659224,0.2296,1.1461,-0.3877,2.9347,2.5097,-1.7084,-0.9460,0.4110,-4.1254,
9.679172,0.2296,1.1461,-0.3877,1.5389,3.1442,-1.2768,-0.9460,0.4110,-4.1254,
9.699967,0.2296,1.1461,-0.3877,3.0666,4.5205,-1.5854,-0.9460,0.4110,-4.1254,
9.703330,0.2250,1.4516,-0.3216,3.0666,4.5205,-1.5854,-0.9460,0.4110,-4.1254,
9.704362,0.2250,1.4516,-0.3216,3.0666,4.5205,-1.5854,-0.4068,0.3195,-3.5403,
9.719353,0.2250,1.4516,-0.3216,5.6153,4.2872,-1.0730,-0.4068,0.3195,-3.5403,
9.739401,0.2250,1.4516,-0.3216,5.4252,2.9393,-0.7398,-0.4068,0.3195,-3.5403,
9.760276,0.2250,1.4516,-0.3216,2.8786,2.7172,-0.8831,-0.4068,0.3195,-3.5403,
9.769083,-0.0668,1.1177,-0.1882,2.8786,2.7172,-0.8831,-0.4068,0.3195,-3.5403,
9.770426,-0.0668,1.1177,-0.1882,2.8786,2.7172,-0.8831,-0.1518,-1.1726,-2.0275,
9.779420,-0.0668,1.1177,-0.1882,3.4732,1.4222,-0.2410,-0.1518,-1.1726,-2.0275,
9.799714,-0.0668,1.1177,-0.1882,6.5307,0.3745,-0.0426,-0.1518,-1.1726,-2.0275,
9.819322,-0.0668,1.1177,-0.1882,5.2602,-0.0042,-0.1813,-0.1518,-1.1726,-2.0275,
9.834709,-0.1819,1.2682,-0.1638,5.2602,-0.0042,-0.1813,-0.1518,-1.1726,-2.0275,
9.837510,-0.1819,1.2682,-0.1638,5.2602,-0.0042,-0.1813,0.6616,-1.2716,0.7592,
9.839135,-0.1819,1.2682,-0.1638,1.6272,5.2068,-0.7362,0.6616,-1.2716,0.7592,
9.860271,-0.1819,1.2682,-0.1638,-3.7273,1.8804,-1.6334,0.6616,-1.2716,0.7592,
9.879247,-0.1819,1.2682,-0.1638,7.1861,-1.3756,-2.4622,0.6616,-1.2716,0.7592,
9.899478,-0.1819,1.2682,-0.1638,3.6352,3.2572,0.6850,0.6616,-1.2716,0.7592,
9.902407,-0.2069,1.2127,-0.0203,3.6352,3.2572,0.6850,0.6616,-1.2716,0.7592,
9.903208,-0.2069,1.2127,-0.0203,3.6352,3.2572,0.6850,0.6275,-1.4617,0.7465,
9.918977,-0.2069,1.2127,-0.0203,-0.9905,-0.4210,1.7032,0.6275,-1.4617,0.7465,
9.939610,-0.2069,1.2127,-0.0203,3.5795,0.4989,1.9102,0.6275,-1.4617,0.7465,
9.959992,-0.2069,1.2127,-0.0203,5.4669,2.1696,3.8865,0.6275,-1.4617,0.7465,
9.966802,0.0737,1.1159,0.2212,5.4669,2.1696,3.8865,0.6275,-1.4617,0.7465,
9.968265,0.0737,1.1159,0.2212,5.4669,2.1696,3.8865,0.4109,0.2375,1.0169,
9.979046,0.0737,1.1159,0.2212,3.7049,2.1720,1.8618,0.4109,0.2375,1.0169,
9.999850,0.0737,1.1159,0.2212,3.5616,1.6295,-2.9276,0.4109,0.2375,1.0169,
10.020587,0.0737,1.1159,0.2212,-1.5985,-0.5193,-3.3890,0.4109,0.2375,1.0169,
10.033833,-0.3451,0.9149,-0.3911,-1.5985,-0.5193,-3.3890,0.4109,0.2375,1.0169,
10.036799,-0.3451,0.9149,-0.3911,-1.5985,-0.5193,-3.3890,0.4353,0.1896,1.0291,
10.039197,-0.3451,0.9149,-0.3911,-0.0416,-0.2818,-1.7258,0.4353,0.1896,1.0291,
10.061534,-0.3451,0.9149,-0.3911,1.4764,0.4566,0.1549,0.4353,0.1896,1.0291,
10.079066,-0.3451,0.9149,-0.3911,1.8615,0.4291,1.0089,0.4353,0.1896,1.0291,
10.100894,-0.0806,1.0023,-0.2026,1.8615,0.4291,1.0089,0.4353,0.1896,1.0291,
10.103677,-0.0806,1.0023,-0.2026,1.8615,0.4291,1.0089,0.4859,0.1263,0.5862,
10.105200,-0.0806,1.0023,-0.2026,1.1776,0.3782,-0.0439,0.4859,0.1263,0.5862,
10.118956,-0.0806,1.0023,-0.2026,1.0987,0.2066,-0.6722,0.4859,0.1263,0.5862,
10.139099,-0.0806,1.0023,-0.2026,-0.6938,-0.2528,-1.2517,0.4859,0.1263,0.5862,
10.159208,-0.0806,1.0023,-0.2026,-1.9195,-0.3289,-0.8485,0.4859,0.1263,0.5862,
10.164294,-0.3141,0.9335,-0.2405,-1.9195,-0.3289,-0.8485,0.4859,0.1263,0.5862,
10.165234,-0.3141,0.9335,-0.2405,-1.9195,-0.3289,-0.8485,0.2613,0.2258,0.5575,
10.179112,-0.3141,0.9335,-0.2405,-0.8248,0.4403,0.6098,0.2613,0.2258,0.5575,
10.200207,-0.3141,0.9335,-0.2405,0.8704,0.1676,0.2891,0.2613,0.2258,0.5575,
10.219135,-0.3141,0.9335,-0.2405,0.2812,0.4499,-0.0587,0.2613,0.2258,0.5575,
10.230752,-0.1937,0.9243,-0.2433,0.2812,0.4499,-0.0587,0.2613,0.2258,0.5575,
10.233469,-0.1937,0.9243,-0.2433,0.2812,0.4499,-0.0587,0.2810,0.2998,0.3930,
10.239023,-0.1937,0.9243,-0.2433,-1.0850,-0.1941,0.0460,0.2810,0.2998,0.3930,
10.259422,-0.1937,0.9243,-0.2433,0.6380,-0.0451,-0.4232,0.2810,0.2998,0.3930,
10.279676,-0.1937,0.9243,-0.2433,1.6154,0.3490,-0.3288,0.2810,0.2998,0.3930,
10.297948,-0.1662,0.9631,-0.2736,1.6154,0.3490,-0.3288,0.2810,0.2998,0.3930,
10.300585,-0.1662,0.9631,-0.2736,1.6154,0.3490,-0.3288,0.2283,0.2226,0.1982,
10.301909,-0.1662,0.9631,-0.2736,-0.6240,-0.0074,-0.1760,0.2283,0.2226,0.1982,
10.319125,-0.1662,0.9631,-0.2736,-1.6778,-0.1967,-0.2608,0.2283,0.2226,0.1982,
10.339544,-0.1662,0.9631,-0.2736,0.0803,-0.0070,-0.4627,0.2283,0.2226,0.1982,
10.359240,-0.1662,0.9631,-0.2736,1.1775,0.1917,-0.0617,0.2283,0.2226,0.1982,
10.362608,-0.0270,0.9756,-0.2880,1.1775,0.1917,-0.0617,0.2283,0.2226,0.1982,
10.363891,-0.0270,0.9756,-0.2880,1.1775,0.1917,-0.0617,0.1623,0.1790,0.1843,
10.379282,-0.0270,0.9756,-0.2880,-0.6647,-0.1065,0.1098,0.1623,0.1790,0.1843,
10.399442,-0.0270,0.9756,-0.2880,-1.6464,-0.2085,0.2712,0.1623,0.1790,0.1843,
10.419769,-0.0270,0.9756,-0.2880,1.3118,0.2478,-0.2572,0.1623,0.1790,0.1843,
10.429559,0.0586,0.9782,-0.2904,1.3118,0.2478,-0.2572,0.1623,0.1790,0.1843,
10.432148,0.0586,0.9782,-0.2904,1.3118,0.2478,-0.2572,0.2064,0.1928,0.2423,
10.440248,0.0586,0.9782,-0.2904,-0.3154,0.0400,-0.1341,0.2064,0.1928,0.2423,
10.459622,0.0586,0.9782,-0.2904,-1.3394,-0.0310,-0.5316,0.2064,0.1928,0.2423,
10.480096,0.0586,0.9782,-0.2904,-0.8476,-0.0835,-0.5565,0.2064,0.1928,0.2423,
10.496776,-0.0932,0.9512,-0.3424,-0.8476,-0.0835,-0.5565,0.2064,0.1928,0.2423,
10.500759,-0.0932,0.9512,-0.3424,-0.8476,-0.0835,-0.5565,0.1229,0.2631,0.5426,
10.502706,-0.0932,0.9512,-0.3424,-0.5690,-0.0583,-0.4482,0.1229,0.2631,0.5426,
10.519499,-0.0932,0.9512,-0.3424,-0.3733,-0.0144,-0.1891,0.1229,0.2631,0.5426,
10.539365,-0.0932,0.9512,-0.3424,-1.0690,0.1186,0.4405,0.1229,0.2631,0.5426,
10.559218,-0.0932,0.9512,-0.3424,-0.0955,0.2947,0.1732,0.1229,0.2631,0.5426,
10.563098,0.0724,0.9937,-0.2986,-0.0955,0.2947,0.1732,0.1229,0.2631,0.5426,
10.564880,0.0724,0.9937,-0.2986,-0.0955,0.2947,0.1732,0.1665,0.3067,0.7566,
10.579688,0.0724,0.9937,-0.2986,-0.4943,0.3470,0.1437,0.1665,0.3067,0.7566,
10.599318,0.0724,0.9937,-0.2986,-2.0766,0.4600,-0.0439,0.1665,0.3067,0.7566,
10.619776,0.0724,0.9937,-0.2986,-1.3049,0.9514,-0.2691,0.1665,0.3067,0.7566,
10.627000,-0.0233,1.0423,-0.2979,-1.3049,0.9514,-0.2691,0.1665,0.3067,0.7566,
10.630782,-0.0233,1.0423,-0.2979,-1.3049,0.9514,-0.2691,0.1745,0.4015,0.9967,
10.639347,-0.0233,1.0423,-0.2979,-0.8072,0.8111,0.3196,0.1745,0.4015,0.9967,
10.659845,-0.0233,1.0423,-0.2979,-1.4421,0.9492,0.0013,0.1745,0.4015,0.9967,
10.679458,-0.0233,1.0423,-0.2979,-1.6203,1.5341,-0.4488,0.1745,0.4015,0.9967,
10.692595,-0.0806,1.1178,-0.3428,-1.6203,1.5341,-0.4488,0.1745,0.4015,0.9967,
10.694123,-0.0806,1.1178,-0.3428,-1.6203,1.5341,-0.4488,0.0265,0.3078,1.2937,
10.699218,-0.0806,1.1178,-0.3428,-2.3933,1.8185,-0.1978,0.0265,0.3078,1.2937,
10.719404,-0.0806,1.1178,-0.3428,-1.8023,1.3146,0.1090,0.0265,0.3078,1.2937,
10.739484,-0.0806,1.1178,-0.3428,-2.1496,1.5957,0.4514,0.0265,0.3078,1.2937,
10.758931,-0.1027,1.1613,-0.2707,-2.1496,1.5957,0.4514,0.0265,0.3078,1.2937,
10.761761,-0.1027,1.1613,-0.2707,-2.1496,1.5957,0.4514,-0.0805,0.2854,1.6317,
10.762926,-0.1027,1.1613,-0.2707,-3.2151,2.3461,0.4299,-0.0805,0.2854,1.6317,
10.779107,-0.1027,1.1613,-0.2707,-4.4751,1.9816,0.3619,-0.0805,0.2854,1.6317,
10.801304,-0.1027,1.1613,-0.2707,-4.4841,3.2299,0.4641,-0.0805,0.2854,1.6317,
10.819812,-0.1027,1.1613,-0.2707,-6.2526,3.3189,0.6308,-0.0805,0.2854,1.6317,
10.824712,-0.3300,1.2225,-0.1953,-6.2526,3.3189,0.6308,-0.0805,0.2854,1.6317,
10.825835,-0.3300,1.2225,-0.1953,-6.2526,3.3189,0.6308,0.0483,0.4185,2.5053,
10.839216,-0.3300,1.2225,-0.1953,-6.9467,3.5358,0.6529,0.0483,0.4185,2.5053,
10.859213,-0.3300,1.2225,-0.1953,-6.8429,2.7334,-0.0237,0.0483,0.4185,2.5053,
10.879416,-0.3300,1.2225,-0.1953,-4.4834,3.8940,-2.7623,0.0483,0.4185,2.5053,
10.890390,0.4624,1.1804,-0.5181,-4.4834,3.8940,-2.7623,0.0483,0.4185,2.5053,
10.891757,0.4624,1.1804,-0.5181,-4.4834,3.8940,-2.7623,0.4151,0.3584,3.6726,
10.902527,0.4624,1.1804,-0.5181,-0.1418,3.6605,-1.8734,0.4151,0.3584,3.6726,
10.919579,0.4624,1.1804,-0.5181,-0.3460,1.2605,-2.2838,0.4151,0.3584,3.6726,
10.939435,0.4624,1.1804,-0.5181,-0.7607,-0.1479,-1.3084,0.4151,0.3584,3.6726,
10.957755,0.3909,0.0099,-0.4716,-0.7607,-0.1479,-1.3084,0.4151,0.3584,3.6726,
10.961223,0.3909,0.0099,-0.4716,-0.7607,-0.1479,-1.3084,-0.0017,0.3663,1.3459,
10.963593,0.3909,0.0099,-0.4716,-2.7374,-6.4652,-1.4013,-0.0017,0.3663,1.3459,
10.979798,0.3909,0.0099,-0.4716,5.8616,1.6781,1.3888,-0.0017,0.3663,1.3459,
11.000250,0.3909,0.0099,-0.4716,-0.9471,-1.9545,0.6511,-0.0017,0.3663,1.3459,
11.019958,0.3909,0.0099,-0.4716,-4.3836,-2.2885,0.3948,-0.0017,0.3663,1.3459,
11.022750,0.1258,0.4408,-0.2709,-4.3836,-2.2885,0.3948,-0.0017,0.3663,1.3459,
11.024054,0.1258,0.4408,-0.2709,-4.3836,-2.2885,0.3948,-0.7123,-0.4226,-1.8539,
11.039454,0.1258,0.4408,-0.2709,-7.1244,-2.5165,0.1149,-0.7123,-0.4226,-1.8539,
11.059866,0.1258,0.4408,-0.2709,-7.2098,-2.5840,0.5408,-0.7123,-0.4226,-1.8539,
11.079544,0.1258,0.4408,-0.2709,-5.2470,-2.4033,-0.0473,-0.7123,-0.4226,-1.8539,
11.088665,0.2513,0.5734,-0.3040,-5.2470,-2.4033,-0.0473,-0.7123,-0.4226,-1.8539,
11.090303,0.2513,0.5734,-0.3040,-5.2470,-2.4033,-0.0473,-1.0365,-0.8575,-2.0653,
11.099497,0.2513,0.5734,-0.3040,-2.2468,-1.7037,-0.3177,-1.0365,-0.8575,-2.0653,
11.119346,0.2513,0.5734,-0.3040,-1.1100,-1.2463,-0.9794,-1.0365,-0.8575,-2.0653,
11.139804,0.2513,0.5734,-0.3040,0.2975,-0.9039,-1.4570,-1.0365,-0.8575,-2.0653,
11.154992,0.5459,0.8536,-0.3712,0.2975,-0.9039,-1.4570,-1.0365,-0.8575,-2.0653,
11.157687,0.5459,0.8536,-0.3712,0.2975,-0.9039,-1.4570,-1.3948,-0.7350,-3.3812,
11.159055,0.5459,0.8536,-0.3712,1.0252,-0.2178,-1.2402,-1.3948,-0.7350,-3.3812,
11.179954,0.5459,0.8536,-0.3712,-1.2823,-0.3346,-1.5584,-1.3948,-0.7350,-3.3812,
11.199026,0.5459,0.8536,-0.3712,-2.2982,0.3874,-1.6162,-1.3948,-0.7350,-3.3812,
11.220315,0.5459,0.8536,-0.3712,-0.3253,1.1573,-1.5548,-1.3948,-0.7350,-3.3812,
11.223194,0.2187,1.0936,-0.3327,-0.3253,1.1573,-1.5548,-1.3948,-0.7350,-3.3812,
11.224285,0.2187,1.0936,-0.3327,-0.3253,1.1573,-1.5548,-1.1957,-0.9171,-3.3647,
11.239268,0.2187,1.0936,-0.3327,0.7926,1.1959,-1.3451,-1.1957,-0.9171,-3.3647,
11.259302,0.2187,1.0936,-0.3327,-0.0386,1.4448,-1.3626,-1.1957,-0.9171,-3.3647,
11.279218,0.2187,1.0936,-0.3327,0.1935,1.7991,-1.7859,-1.1957,-0.9171,-3.3647,
11.286510,0.0201,1.1978,-0.3182,0.1935,1.7991,-1.7859,-1.1957,-0.9171,-3.3647,
11.288156,0.0201,1.1978,-0.3182,0.1935,1.7991,-1.7859,-0.6772,-2.6695,-3.0804,
11.299549,0.0201,1.1978,-0.3182,1.0273,1.9581,-2.3442,-0.6772,-2.6695,-3.0804,
11.319188,0.0201,1.1978,-0.3182,1.1558,1.9733,-2.7484,-0.6772,-2.6695,-3.0804,
11.339251,0.0201,1.1978,-0.3182,0.9635,2.3291,-3.0862,-0.6772,-2.6695,-3.0804,
11.352907,-0.0763,1.2110,-0.3959,0.9635,2.3291,-3.0862,-0.6772,-2.6695,-3.0804,
11.355462,-0.0763,1.2110,-0.3959,0.9635,2.3291,-3.0862,-0.3823,-2.8659,-2.4347,
11.359087,-0.0763,1.2110,-0.3959,1.7838,2.3088,-3.4348,-0.3823,-2.8659,-2.4347,
11.380693,-0.0763,1.2110,-0.3959,2.6416,2.1471,-3.1775,-0.3823,-2.8659,-2.4347,
11.399654,-0.0763,1.2110,-0.3959,2.9199,0.7059,-2.6978,-0.3823,-2.8659,-2.4347,
11.419104,0.0102,0.8520,-0.2584,2.9199,0.7059,-2.6978,-0.3823,-2.8659,-2.4347,
11.422617,0.0102,0.8520,-0.2584,2.9199,0.7059,-2.6978,0.1559,-2.3634,-1.5015,
11.424104,0.0102,0.8520,-0.2584,3.7081,-0.7598,-2.6523,0.1559,-2.3634,-1.5015,
11.439326,0.0102,0.8520,-0.2584,1.7181,0.1957,-2.4067,0.1559,-2.3634,-1.5015,
11.459752,0.0102,0.8520,-0.2584,0.3775,1.1836,-2.5103,0.1559,-2.3634,-1.5015,
11.479483,0.0102,0.8520,-0.2584,2.1430,0.0113,-2.7202,0.1559,-2.3634,-1.5015,
11.484918,-0.0704,0.8637,-0.1878,2.1430,0.0113,-2.7202,0.1559,-2.3634,-1.5015,
11.486750,-0.0704,0.8637,-0.1878,2.1430,0.0113,-2.7202,0.8740,-4.2494,0.1694,
11.500887,-0.0704,0.8637,-0.1878,3.6760,-1.0662,-2.4021,0.8740,-4.2494,0.1694,
11.521729,-0.0704,0.8637,-0.1878,2.4546,-0.7549,-2.6670,0.8740,-4.2494,0.1694,
11.539681,-0.0704,0.8637,-0.1878,1.4221,-0.1224,-3.2623,0.8740,-4.2494,0.1694,
11.551779,-0.1531,0.9444,-0.2616,1.4221,-0.1224,-3.2623,0.8740,-4.2494,0.1694,
11.554774,-0.1531,0.9444,-0.2616,1.4221,-0.1224,-3.2623,1.5341,-5.2795,0.9067,
11.559403,-0.1531,0.9444,-0.2616,2.3859,0.2886,-4.0058,1.5341,-5.2795,0.9067,
11.580601,-0.1531,0.9444,-0.2616,3.5070,0.1170,-4.1527,1.5341,-5.2795,0.9067,
11.599935,-0.1531,0.9444,-0.2616,3.6875,0.8587,-4.9176,1.5341,-5.2795,0.9067,
11.617717,-0.2060,1.0195,0.0638,3.6875,0.8587,-4.9176,1.5341,-5.2795,0.9067,
11.621384,-0.2060,1.0195,0.0638,3.6875,0.8587,-4.9176,1.2051,-2.7419,0.4404,
11.623041,-0.2060,1.0195,0.0638,0.5073,0.5797,-0.5688,1.2051,-2.7419,0.4404,
11.639779,-0.2060,1.0195,0.0638,-0.6242,0.2217,1.5641,1.2051,-2.7419,0.4404,
11.659608,-0.2060,1.0195,0.0638,0.1731,2.2184,1.4663,1.2051,-2.7419,0.4404,
11.679394,-0.2060,1.0195,0.0638,2.7572,1.7468,-0.3702,1.2051,-2.7419,0.4404,
11.683918,0.1842,1.1227,0.0229,2.7572,1.7468,-0.3702,1.2051,-2.7419,0.4404,
11.685780,0.1842,1.1227,0.0229,2.7572,1.7468,-0.3702,1.0289,-1.8982,0.9221,
11.700717,0.1842,1.1227,0.0229,3.9588,1.5829,-1.8877,1.0289,-1.8982,0.9221,
11.720114,0.1842,1.1227,0.0229,2.8225,1.0040,-0.9542,1.0289,-1.8982,0.9221,
11.739376,0.1842,1.1227,0.0229,2.2279,2.5081,-1.3403,1.0289,-1.8982,0.9221,
11.750487,0.2866,1.2336,-0.2183,2.2279,2.5081,-1.3403,1.0289,-1.8982,0.9221,
11.753532,0.2866,1.2336,-0.2183,2.2279,2.5081,-1.3403,0.9139,-0.2118,0.4233,
11.759319,0.2866,1.2336,-0.2183,5.0253,1.5130,-1.3670,0.9139,-0.2118,0.4233,
11.782590,0.2866,1.2336,-0.2183,0.7612,0.2954,0.4314,0.9139,-0.2118,0.4233,
11.801196,0.2866,1.2336,-0.2183,0.9504,0.0268,-0.5315,0.9139,-0.2118,0.4233,
11.815085,-0.1357,0.9978,-0.0874,0.9504,0.0268,-0.5315,0.9139,-0.2118,0.4233,
11.817540,-0.1357,0.9978,-0.0874,0.9504,0.0268,-0.5315,0.7718,0.0198,-0.1154,
11.820590,-0.1357,0.9978,-0.0874,-0.0241,-0.0213,-0.8376,0.7718,0.0198,-0.1154,
11.839408,-0.1357,0.9978,-0.0874,-0.3447,-0.1333,-0.4442,0.7718,0.0198,-0.1154,
11.860021,-0.1357,0.9978,-0.0874,-1.1368,0.2268,-0.4895,0.7718,0.0198,-0.1154,
11.879361,-0.1357,0.9978,-0.0874,-0.5488,-0.4133,-1.4201,0.7718,0.0198,-0.1154,
11.882578,-0.2295,0.9285,-0.1618,-0.5488,-0.4133,-1.4201,0.7718,0.0198,-0.1154,
11.883898,-0.2295,0.9285,-0.1618,-0.5488,-0.4133,-1.4201,0.6275,-0.1910,0.0411,
11.900072,-0.2295,0.9285,-0.1618,-1.2903,-0.1035,0.1708,0.6275,-0.1910,0.0411,
11.919828,-0.2295,0.9285,-0.1618,-0.0238,-0.0985,-0.3624,0.6275,-0.1910,0.0411,
11.939821,-0.2295,0.9285,-0.1618,1.4084,0.0817,-0.3486,0.6275,-0.1910,0.0411,
11.946798,-0.0424,1.0026,-0.1149,1.4084,0.0817,-0.3486,0.6275,-0.1910,0.0411,
11.948341,-0.0424,1.0026,-0.1149,1.4084,0.0817,-0.3486,0.4572,-0.1708,0.0411,
11.959389,-0.0424,1.0026,-0.1149,0.0081,0.3124,-0.2515,0.4572,-0.1708,0.0411,
11.979396,-0.0424,1.0026,-0.1149,0.3361,0.0843,-0.7088,0.4572,-0.1708,0.0411,
11.999617,-0.0424,1.0026,-0.1149,-0.7772,-0.2126,0.4530,0.4572,-0.1708,0.0411,
12.013171,-0.3254,0.9383,-0.1943,-0.7772,-0.2126,0.4530,0.4572,-0.1708,0.0411,
12.015190,-0.3254,0.9383,-0.1943,-0.7772,-0.2126,0.4530,0.4241,-0.2416,0.1747,
12.019895,-0.3254,0.9383,-0.1943,-1.1514,-0.2436,-1.1104,0.4241,-0.2416,0.1747,
12.039359,-0.3254,0.9383,-0.1943,2.4798,0.5441,0.1458,0.4241,-0.2416,0.1747,
12.059791,-0.3254,0.9383,-0.1943,-0.1998,0.0506,-0.8879,0.4241,-0.2416,0.1747,
12.078827,-0.2690,0.9464,-0.1215,-0.1998,0.0506,-0.8879,0.4241,-0.2416,0.1747,
12.081223,-0.2690,0.9464,-0.1215,-0.1998,0.0506,-0.8879,0.2464,-0.0467,0.0715,
12.082472,-0.2690,0.9464,-0.1215,-1.1865,-0.3349,0.1190,0.2464,-0.0467,0.0715,
12.100191,-0.2690,0.9464,-0.1215,-1.0199,-0.3987,0.9393,0.2464,-0.0467,0.0715,
12.119517,-0.2690,0.9464,-0.1215,-0.8473,0.1834,0.3495,0.2464,-0.0467,0.0715,
12.140620,-0.2690,0.9464,-0.1215,-0.5834,-0.1858,-0.6519,0.2464,-0.0467,0.0715,
12.145754,-0.1624,0.9925,-0.2701,-0.5834,-0.1858,-0.6519,0.2464,-0.0467,0.0715,
12.147014,-0.1624,0.9925,-0.2701,-0.5834,-0.1858,-0.6519,0.3358,-0.1745,0.3653,
12.159188,-0.1624,0.9925,-0.2701,0.1404,0.1301,-1.7052,0.3358,-0.1745,0.3653,
12.179557,-0.1624,0.9925,-0.2701,-0.3441,-0.0951,0.1385,0.3358,-0.1745,0.3653,
12.198785,-0.1624,0.9925,-0.2701,0.4404,-0.1069,0.1350,0.3358,-0.1745,0.3653,
12.210292,-0.1414,0.9904,-0.1788,0.4404,-0.1069,0.1350,0.3358,-0.1745,0.3653,
12.211161,-0.1414,0.9904,-0.1788,0.4404,-0.1069,0.1350,0.1708,-0.1899,0.3834,
12.218874,-0.1414,0.9904,-0.1788,-0.1867,0.2462,-0.2381,0.1708,-0.1899,0.3834,
12.238988,-0.1414,0.9904,-0.1788,-0.2836,-0.0309,-1.2328,0.1708,-0.1899,0.3834,
12.259702,-0.1414,0.9904,-0.1788,0.7598,0.1012,-0.7456,0.1708,-0.1899,0.3834,
12.277822,0.0925,1.0031,-0.0586,0.7598,0.1012,-0.7456,0.1708,-0.1899,0.3834,
12.280058,0.0925,1.0031,-0.0586,0.7598,0.1012,-0.7456,-0.0544,-0.1873,0.2083,
12.281308,0.0925,1.0031,-0.0586,1.7180,0.1906,1.1238,-0.0544,-0.1873,0.2083,
12.299039,0.0925,1.0031,-0.0586,-0.1560,0.1270,0.6213,-0.0544,-0.1873,0.2083,
12.320619,0.0925,1.0031,-0.0586,0.3023,0.2311,-1.1017,-0.0544,-0.1873,0.2083,
12.339436,0.0925,1.0031,-0.0586,-1.6611,-0.1084,-1.3687,-0.0544,-0.1873,0.2083,
12.342639,-0.1982,0.9685,-0.2642,-1.6611,-0.1084,-1.3687,-0.0544,-0.1873,0.2083,
12.343540,-0.1982,0.9685,-0.2642,-1.6611,-0.1084,-1.3687,-0.2524,-0.1558,0.3344,
12.358884,-0.1982,0.9685,-0.2642,0.2770,0.0565,-0.6885,-0.2524,-0.1558,0.3344,
12.379229,-0.1982,0.9685,-0.2642,0.5738,0.0719,1.2622,-0.2524,-0.1558,0.3344,
12.399149,-0.1982,0.9685,-0.2642,-0.9594,0.0987,1.0559,-0.2524,-0.1558,0.3344,
12.408622,0.0100,1.0194,-0.1265,-0.9594,0.0987,1.0559,-0.2524,-0.1558,0.3344,
12.409874,0.0100,1.0194,-0.1265,-0.9594,0.0987,1.0559,-0.2918,-0.0952,0.3658,
12.419537,0.0100,1.0194,-0.1265,0.6252,0.1655,-0.1923,-0.2918,-0.0952,0.3658,
12.439043,0.0100,1.0194,-0.1265,-1.2216,0.0360,-0.7243,-0.2918,-0.0952,0.3658,
12.459198,0.0100,1.0194,-0.1265,-2.7476,0.0899,-0.3765,-0.2918,-0.0952,0.3658,
12.475003,-0.2559,1.0115,-0.1751,-2.7476,0.0899,-0.3765,-0.2918,-0.0952,0.3658,
12.477578,-0.2559,1.0115,-0.1751,-2.7476,0.0899,-0.3765,-0.5681,0.0060,1.0329,
12.479941,-0.2559,1.0115,-0.1751,-2.3507,0.0731,-0.3607,-0.5681,0.0060,1.0329,
12.499187,-0.2559,1.0115,-0.1751,0.3201,0.4606,-0.3416,-0.5681,0.0060,1.0329,
12.520162,-0.2559,1.0115,-0.1751,-0.3625,0.7546,-0.0719,-0.5681,0.0060,1.0329,
12.539382,-0.2559,1.0115,-0.1751,-0.2665,0.7193,-0.1068,-0.5681,0.0060,1.0329,
12.542216,0.0473,1.0939,-0.0413,-0.2665,0.7193,-0.1068,-0.5681,0.0060,1.0329,
12.543590,0.0473,1.0939,-0.0413,-0.2665,0.7193,-0.1068,-0.9029,-0.6962,1.1947,
12.559512,0.0473,1.0939,-0.0413,-1.9362,2.8774,-0.2816,-0.9029,-0.6962,1.1947,
12.579826,0.0473,1.0939,-0.0413,-2.3346,1.6904,-0.0128,-0.9029,-0.6962,1.1947,
12.599097,0.0473,1.0939,-0.0413,0.1778,1.1350,-1.2361,-0.9029,-0.6962,1.1947,
12.606982,0.0321,1.0751,-0.1571,0.1778,1.1350,-1.2361,-0.9029,-0.6962,1.1947,
12.608676,0.0321,1.0751,-0.1571,0.1778,1.1350,-1.2361,-1.1462,-0.4667,1.0291,
12.619921,0.0321,1.0751,-0.1571,-1.4617,0.9878,-1.5696,-1.1462,-0.4667,1.0291,
12.639873,0.0321,1.0751,-0.1571,-2.9100,1.6347,-1.6897,-1.1462,-0.4667,1.0291,
12.660871,0.0321,1.0751,-0.1571,-3.0472,2.1483,-2.1010,-1.1462,-0.4667,1.0291,
12.673019,-0.0104,1.0927,-0.1880,-3.0472,2.1483,-2.1010,-1.1462,-0.4667,1.0291,
12.675840,-0.0104,1.0927,-0.1880,-3.0472,2.1483,-2.1010,-0.9593,-1.4451,1.4470,
12.679307,-0.0104,1.0927,-0.1880,-1.2829,1.5487,-2.3809,-0.9593,-1.4451,1.4470,
12.699117,-0.0104,1.0927,-0.1880,0.0648,1.8870,-3.9635,-0.9593,-1.4451,1.4470,
12.720617,-0.0104,1.0927,-0.1880,-0.7057,-1.8297,-4.2787,-0.9593,-1.4451,1.4470,
12.741981,0.9207,0.8432,-0.3284,-0.7057,-1.8297,-4.2787,-0.9593,-1.4451,1.4470,
12.746861,0.9207,0.8432,-0.3284,-0.7057,-1.8297,-4.2787,-0.7911,-4.6742,1.1798,
12.748619,0.9207,0.8432,-0.3284,5.9166,-1.5063,-3.8020,-0.7911,-4.6742,1.1798,
12.760273,0.9207,0.8432,-0.3284,-0.1171,-0.6773,-3.3452,-0.7911,-4.6742,1.1798,
12.779433,0.9207,0.8432,-0.3284,-5.3104,-1.7612,-3.6839,-0.7911,-4.6742,1.1798,
12.799439,0.9207,0.8432,-0.3284,-6.6843,-1.6083,-4.4864,-0.7911,-4.6742,1.1798,
12.806290,-0.1964,0.8162,-0.5141,-6.6843,-1.6083,-4.4864,-0.7911,-4.6742,1.1798,
12.808898,-0.1964,0.8162,-0.5141,-6.6843,-1.6083,-4.4864,-0.2881,-4.5986,1.1265,
12.821138,-0.1964,0.8162,-0.5141,-3.0694,-0.3891,-4.9938,-0.2881,-4.5986,1.1265,
12.839271,-0.1964,0.8162,-0.5141,-1.9416,-0.3108,-4.2255,-0.2881,-4.5986,1.1265,
12.860275,-0.1964,0.8162,-0.5141,-2.3439,-0.6004,-3.4897,-0.2881,-4.5986,1.1265,
12.871766,0.1775,0.8653,-0.4162,-2.3439,-0.6004,-3.4897,-0.2881,-4.5986,1.1265,
12.874977,0.1775,0.8653,-0.4162,-2.3439,-0.6004,-3.4897,-0.1561,-2.9175,0.2573,
12.879323,0.1775,0.8653,-0.4162,-2.2335,-0.8148,-3.0699,-0.1561,-2.9175,0.2573,
12.899977,0.1775,0.8653,-0.4162,-1.7368,-0.4007,-2.2351,-0.1561,-2.9175,0.2573,
12.921106,0.1775,0.8653,-0.4162,-2.4444,-0.5325,-1.5033,-0.1561,-2.9175,0.2573,
12.938175,0.0933,0.8153,-0.2620,-2.4444,-0.5325,-1.5033,-0.1561,-2.9175,0.2573,
12.941553,0.0933,0.8153,-0.2620,-2.4444,-0.5325,-1.5033,-0.0565,-2.6349,-0.9953,
12.942910,0.0933,0.8153,-0.2620,-2.6310,-1.0350,-1.0203,-0.0565,-2.6349,-0.9953,
12.959766,0.0933,0.8153,-0.2620,-2.3432,-1.0389,-0.8774,-0.0565,-2.6349,-0.9953,
12.979629,0.0933,0.8153,-0.2620,-1.9277,-0.7242,-0.9283,-0.0565,-2.6349,-0.9953,
12.999764,0.0933,0.8153,-0.2620,-0.4691,-0.1164,-1.0404,-0.0565,-2.6349,-0.9953,
13.005185,0.2605,0.9412,-0.3061,-0.4691,-0.1164,-1.0404,-0.0565,-2.6349,-0.9953,
13.007804,0.2605,0.9412,-0.3061,-0.4691,-0.1164,-1.0404,-0.2412,-2.2431,-2.0977,
13.021686,0.2605,0.9412,-0.3061,0.6889,-0.1499,-0.7424,-0.2412,-2.2431,-2.0977,
13.039362,0.2605,0.9412,-0.3061,0.3892,-0.2598,-0.3749,-0.2412,-2.2431,-2.0977,
13.060026,0.2605,0.9412,-0.3061,-0.1313,0.1353,-0.6760,-0.2412,-2.2431,-2.0977,
13.069507,0.0148,1.0469,-0.2897,-0.1313,0.1353,-0.6760,-0.2412,-2.2431,-2.0977,
13.070723,0.0148,1.0469,-0.2897,-0.1313,0.1353,-0.6760,-0.5654,-1.4015,-3.0298,
13.079961,0.0148,1.0469,-0.2897,-0.4069,0.8814,-0.9914,-0.5654,-1.4015,-3.0298,
13.100112,0.0148,1.0469,-0.2897,0.0354,1.3111,-0.9661,-0.5654,-1.4015,-3.0298,
13.119231,0.0148,1.0469,-0.2897,0.1591,1.6724,-0.8172,-0.5654,-1.4015,-3.0298,
13.134919,-0.0562,1.1743,-0.2478,0.1591,1.6724,-0.8172,-0.5654,-1.4015,-3.0298,
13.136808,-0.0562,1.1743,-0.2478,0.1591,1.6724,-0.8172,-0.3440,-0.4561,-2.6599,
13.141717,-0.0562,1.1743,-0.2478,1.0367,1.9416,-0.8107,-0.3440,-0.4561,-2.6599,
13.159898,-0.0562,1.1743,-0.2478,3.1199,2.1016,-0.9084,-0.3440,-0.4561,-2.6599,
13.179404,-0.0562,1.1743,-0.2478,5.5189,2.5471,-0.6354,-0.3440,-0.4561,-2.6599,
13.199450,-0.0562,1.1743,-0.2478,7.2913,2.3874,-0.1929,-0.3440,-0.4561,-2.6599,
13.202454,0.4522,1.1827,-0.1446,7.2913,2.3874,-0.1929,-0.3440,-0.4561,-2.6599,
13.204270,0.4522,1.1827,-0.1446,7.2913,2.3874,-0.1929,-0.2657,-0.7009,-2.6093,
13.219254,0.4522,1.1827,-0.1446,4.2597,1.1910,0.3822,-0.2657,-0.7009,-2.6093,
13.239274,0.4522,1.1827,-0.1446,3.0387,0.4354,0.6151,-0.2657,-0.7009,-2.6093,
13.259661,0.4522,1.1827,-0.1446,4.5813,0.3925,0.6838,-0.2657,-0.7009,-2.6093,
13.266764,0.0558,0.9161,-0.0417,4.5813,0.3925,0.6838,-0.2657,-0.7009,-2.6093,
13.268406,0.0558,0.9161,-0.0417,4.5813,0.3925,0.6838,0.0196,-1.6868,-0.8510,
13.279477,0.0558,0.9161,-0.0417,4.8934,0.1204,0.3812,0.0196,-1.6868,-0.8510,
13.299841,0.0558,0.9161,-0.0417,4.7182,0.0907,-0.2334,0.0196,-1.6868,-0.8510,
13.319110,0.0558,0.9161,-0.0417,4.4905,0.5353,-0.9933,0.0196,-1.6868,-0.8510,
13.333056,-0.2495,1.5688,-0.1719,4.4905,0.5353,-0.9933,0.0196,-1.6868,-0.8510,
13.334759,-0.2495,1.5688,-0.1719,4.4905,0.5353,-0.9933,0.6834,-1.2412,0.8849,
13.339647,-0.2495,1.5688,-0.1719,0.6804,7.0456,-1.3648,0.6834,-1.2412,0.8849,
13.359572,-0.2495,1.5688,-0.1719,0.7287,0.0165,-3.0452,0.6834,-1.2412,0.8849,
13.379965,-0.2495,1.5688,-0.1719,-1.6262,-1.0387,-2.8376,0.6834,-1.2412,0.8849,
13.399834,-0.4643,1.0126,-0.1432,-1.6262,-1.0387,-2.8376,0.6834,-1.2412,0.8849,
13.402926,-0.4643,1.0126,-0.1432,-1.6262,-1.0387,-2.8376,0.3076,-0.2953,0.5782,
13.404350,-0.4643,1.0126,-0.1432,-0.7645,1.2601,-0.9993,0.3076,-0.2953,0.5782,
13.419481,-0.4643,1.0126,-0.1432,3.4821,-0.4690,2.3493,0.3076,-0.2953,0.5782,
13.439599,-0.4643,1.0126,-0.1432,3.5420,1.3291,2.8996,0.3076,-0.2953,0.5782,
13.459979,-0.4643,1.0126,-0.1432,1.1387,1.4295,2.9445,0.3076,-0.2953,0.5782,
13.464978,-0.2416,1.0335,0.1448,1.1387,1.4295,2.9445,0.3076,-0.2953,0.5782,
13.466004,-0.2416,1.0335,0.1448,1.1387,1.4295,2.9445,0.5663,-0.0345,1.0462,
13.479455,-0.2416,1.0335,0.1448,2.0796,1.7804,1.6338,0.5663,-0.0345,1.0462,
13.499388,-0.2416,1.0335,0.1448,5.2414,1.1710,-3.8427,0.5663,-0.0345,1.0462,
13.519704,-0.2416,1.0335,0.1448,-0.8647,0.1487,-3.8973,0.5663,-0.0345,1.0462,
13.530842,-0.5220,0.8664,-0.4969,-0.8647,0.1487,-3.8973,0.5663,-0.0345,1.0462,
13.532581,-0.5220,0.8664,-0.4969,-0.8647,0.1487,-3.8973,0.3608,0.2759,0.9924,
13.544848,-0.5220,0.8664,-0.4969,-1.1277,-0.6283,-2.2044,0.3608,0.2759,0.9924,
13.559184,-0.5220,0.8664,-0.4969,2.8038,0.8759,0.8332,0.3608,0.2759,0.9924,
13.579064,-0.5220,0.8664,-0.4969,2.9165,0.7795,2.4804,0.3608,0.2759,0.9924,
13.597246,-0.0692,0.9933,-0.1390,2.9165,0.7795,2.4804,0.3608,0.2759,0.9924,
13.599629,-0.0692,0.9933,-0.1390,2.9165,0.7795,2.4804,0.5375,0.3254,0.4798,
13.600825,-0.0692,0.9933,-0.1390,1.8445,0.3994,0.3310,0.5375,0.3254,0.4798,
13.619454,-0.0692,0.9933,-0.1390,-0.6979,-0.2915,-1.9963,0.5375,0.3254,0.4798,
13.639117,-0.0692,0.9933,-0.1390,-1.9573,-0.4117,-1.0682,0.5375,0.3254,0.4798,
13.659397,-0.0692,0.9933,-0.1390,0.2444,-0.0037,-0.0388,0.5375,0.3254,0.4798,
13.662608,-0.1471,0.9742,-0.2028,0.2444,-0.0037,-0.0388,0.5375,0.3254,0.4798,
13.663897,-0.1471,0.9742,-0.2028,0.2444,-0.0037,-0.0388,0.3448,0.3626,0.6549,
13.679282,-0.1471,0.9742,-0.2028,2.4840,0.6078,-0.0973,0.3448,0.3626,0.6549,
13.699465,-0.1471,0.9742,-0.2028,1.2616,0.1423,-0.4675,0.3448,0.3626,0.6549,
13.718681,-0.1471,0.9742,-0.2028,-0.7411,-0.1165,-1.2307,0.3448,0.3626,0.6549,
13.728692,-0.2563,0.9456,-0.3061,-0.7411,-0.1165,-1.2307,0.3448,0.3626,0.6549,
13.731304,-0.2563,0.9456,-0.3061,-0.7411,-0.1165,-1.2307,0.2666,0.2721,0.4111,
13.739204,-0.2563,0.9456,-0.3061,0.5791,0.0806,-0.4597,0.2666,0.2721,0.4111,
13.759580,-0.2563,0.9456,-0.3061,1.7874,0.2644,-0.3344,0.2666,0.2721,0.4111,
13.779515,-0.2563,0.9456,-0.3061,0.5974,0.0025,-0.8237,0.2666,0.2721,0.4111,
13.794868,-0.3152,0.9297,-0.3360,0.5974,0.0025,-0.8237,0.2666,0.2721,0.4111,
13.797078,-0.3152,0.9297,-0.3360,0.5974,0.0025,-0.8237,0.1644,0.1816,0.1795,
13.799317,-0.3152,0.9297,-0.3360,-1.4438,-0.2550,-0.8593,0.1644,0.1816,0.1795,
13.818754,-0.3152,0.9297,-0.3360,-1.1386,-0.2640,-0.4410,0.1644,0.1816,0.1795,
13.839043,-0.3152,0.9297,-0.3360,0.3480,-0.0337,-0.1427,0.1644,0.1816,0.1795,
13.861634,0.0022,0.9690,-0.2666,0.3480,-0.0337,-0.1427,0.1644,0.1816,0.1795,
13.863749,0.0022,0.9690,-0.2666,0.3480,-0.0337,-0.1427,0.1601,0.1087,0.1907,
13.864547,0.0022,0.9690,-0.2666,1.7849,0.1669,-0.0871,0.1601,0.1087,0.1907,
13.879325,0.0022,0.9690,-0.2666,-0.6109,-0.1454,-0.2637,0.1601,0.1087,0.1907,
13.899614,0.0022,0.9690,-0.2666,-1.5261,-0.3875,-0.3672,0.1601,0.1087,0.1907,
13.918876,0.0022,0.9690,-0.2666,-0.9956,-0.3192,-0.2894,0.1601,0.1087,0.1907,
13.927769,-0.1999,0.9356,-0.3058,-0.9956,-0.3192,-0.2894,0.1601,0.1087,0.1907,
13.931151,-0.1999,0.9356,-0.3058,-0.9956,-0.3192,-0.2894,0.1947,0.1891,0.5862,
13.941021,-0.1999,0.9356,-0.3058,-0.8779,-0.3117,0.1350,0.1947,0.1891,0.5862,
13.960144,-0.1999,0.9356,-0.3058,0.1854,-0.0404,0.0904,0.1947,0.1891,0.5862,
13.979314,-0.1999,0.9356,-0.3058,2.5292,0.3986,-0.6978,0.1947,0.1891,0.5862,
13.993169,-0.0707,0.9527,-0.4017,2.5292,0.3986,-0.6978,0.1947,0.1891,0.5862,
13.996623,-0.0707,0.9527,-0.4017,2.5292,0.3986,-0.6978,0.1298,0.2226,0.4143,
13.999237,-0.0707,0.9527,-0.4017,-0.6748,-0.0220,-1.0126,0.1298,0.2226,0.4143,
14.019416,-0.0707,0.9527,-0.4017,-2.0077,-0.2777,-0.5188,0.1298,0.2226,0.4143,
14.039148,-0.0707,0.9527,-0.4017,-0.5126,0.0037,-0.3501,0.1298,0.2226,0.4143,
14.058903,-0.0664,0.9549,-0.2835,-0.5126,0.0037,-0.3501,0.1298,0.2226,0.4143,
14.061378,-0.0664,0.9549,-0.2835,-0.5126,0.0037,-0.3501,0.1154,0.3626,0.8748,
14.062143,-0.0664,0.9549,-0.2835,-0.2095,-0.0674,0.0131,0.1154,0.3626,0.8748,
14.079370,-0.0664,0.9549,-0.2835,-0.8746,0.3951,0.3208,0.1154,0.3626,0.8748,
14.099731,-0.0664,0.9549,-0.2835,0.4152,0.7256,-0.5139,0.1154,0.3626,0.8748,
14.119153,-0.0664,0.9549,-0.2835,-2.4960,0.2399,-0.1629,0.1154,0.3626,0.8748,
14.125811,-0.2021,1.0072,-0.3154,-2.4960,0.2399,-0.1629,0.1154,0.3626,0.8748,
14.128418,-0.2021,1.0072,-0.3154,-2.4960,0.2399,-0.1629,0.1750,0.4829,1.1830,
14.142269,-0.2021,1.0072,-0.3154,-1.1426,0.9520,-0.4153,0.1750,0.4829,1.1830,
14.159824,-0.2021,1.0072,-0.3154,-1.1797,1.6933,0.5923,0.1750,0.4829,1.1830,
14.179646,-0.2021,1.0072,-0.3154,-1.4294,1.7307,0.0966,0.1750,0.4829,1.1830,
14.194031,-0.0764,1.1469,-0.3439,-1.4294,1.7307,0.0966,0.1750,0.4829,1.1830,
14.196266,-0.0764,1.1469,-0.3439,-1.4294,1.7307,0.0966,0.0052,0.2445,1.4385,
14.199053,-0.0764,1.1469,-0.3439,-1.5966,1.9207,-0.6053,0.0052,0.2445,1.4385,
14.219155,-0.0764,1.1469,-0.3439,-2.5063,1.9405,-0.6730,0.0052,0.2445,1.4385,
14.239379,-0.0764,1.1469,-0.3439,-2.9628,2.5783,-0.3816,0.0052,0.2445,1.4385,
14.258269,-0.1921,1.1670,-0.3435,-2.9628,2.5783,-0.3816,0.0052,0.2445,1.4385,
14.261196,-0.1921,1.1670,-0.3435,-2.9628,2.5783,-0.3816,-0.1188,0.4771,1.8042,
14.262904,-0.1921,1.1670,-0.3435,-4.0626,2.3421,-0.4035,-0.1188,0.4771,1.8042,
14.279351,-0.1921,1.1670,-0.3435,-6.3531,3.3340,0.1551,-0.1188,0.4771,1.8042,
14.299682,-0.1921,1.1670,-0.3435,-7.2295,3.3402,0.3726,-0.1188,0.4771,1.8042,
14.319384,-0.1921,1.1670,-0.3435,-6.1487,3.8620,1.1811,-0.1188,0.4771,1.8042,
14.322669,-0.2538,1.2806,-0.1742,-6.1487,3.8620,1.1811,-0.1188,0.4771,1.8042,
14.324255,-0.2538,1.2806,-0.1742,-6.1487,3.8620,1.1811,0.3991,0.5191,3.0514,
14.339446,-0.2538,1.2806,-0.1742,-6.8674,1.6040,0.7117,0.3991,0.5191,3.0514,
14.361353,-0.2538,1.2806,-0.1742,-4.4705,3.1325,-2.1020,0.3991,0.5191,3.0514,
14.379407,-0.2538,1.2806,-0.1742,-0.9839,3.5492,-1.2871,0.3991,0.5191,3.0514,
14.388859,0.5748,1.0120,-0.4178,-0.9839,3.5492,-1.2871,0.3991,0.5191,3.0514,
14.390651,0.5748,1.0120,-0.4178,-0.9839,3.5492,-1.2871,0.6557,0.4962,3.3884,
14.400223,0.5748,1.0120,-0.4178,-0.1291,1.0511,-0.9787,0.6557,0.4962,3.3884,
14.419941,0.5748,1.0120,-0.4178,1.3648,-0.5609,-1.0468,0.6557,0.4962,3.3884,
14.439398,0.5748,1.0120,-0.4178,-2.3010,-2.2085,0.7553,0.6557,0.4962,3.3884,
14.454782,0.7722,0.3621,-0.4249,-2.3010,-2.2085,0.7553,0.6557,0.4962,3.3884,
14.457861,0.7722,0.3621,-0.4249,-2.3010,-2.2085,0.7553,0.0132,0.1859,0.5495,
14.460833,0.7722,0.3621,-0.4249,1.7331,-2.4119,-1.2051,0.0132,0.1859,0.5495,
14.480353,0.7722,0.3621,-0.4249,1.5539,-0.5666,-0.1211,0.0132,0.1859,0.5495,
14.500175,0.7722,0.3621,-0.4249,-2.5632,-1.5496,1.1441,0.0132,0.1859,0.5495,
14.519437,0.7722,0.3621,-0.4249,-3.8318,-1.9399,1.4581,0.0132,0.1859,0.5495,
14.522256,0.2342,0.4918,-0.1594,-3.8318,-1.9399,1.4581,0.0132,0.1859,0.5495,
14.523085,0.2342,0.4918,-0.1594,-3.8318,-1.9399,1.4581,-0.3057,-0.7856,-2.0147,
14.539536,0.2342,0.4918,-0.1594,-5.4191,-2.8898,1.1938,-0.3057,-0.7856,-2.0147,
14.559583,0.2342,0.4918,-0.1594,-6.2138,-3.2883,0.9958,-0.3057,-0.7856,-2.0147,
14.581820,0.2342,0.4918,-0.1594,-4.0403,-2.3511,0.8262,-0.3057,-0.7856,-2.0147,
14.586804,0.3093,0.6217,-0.2222,-4.0403,-2.3511,0.8262,-0.3057,-0.7856,-2.0147,
14.587983,0.3093,0.6217,-0.2222,-4.0403,-2.3511,0.8262,-0.5867,-0.7680,-2.6577,
14.599411,0.3093,0.6217,-0.2222,-1.1841,-1.5481,0.7066,-0.5867,-0.7680,-2.6577,
14.619183,0.3093,0.6217,-0.2222,-0.8118,-1.3589,0.2216,-0.5867,-0.7680,-2.6577,
14.638913,0.3093,0.6217,-0.2222,-0.5094,-1.2153,-0.3617,-0.5867,-0.7680,-2.6577,
14.652645,0.3026,0.8201,-0.3253,-0.5094,-1.2153,-0.3617,-0.5867,-0.7680,-2.6577,
14.654795,0.3026,0.8201,-0.3253,-0.5094,-1.2153,-0.3617,-0.8428,-0.7462,-3.7953,
14.662867,0.3026,0.8201,-0.3253,-0.4171,-0.7606,-0.4078,-0.8428,-0.7462,-3.7953,
14.679220,0.3026,0.8201,-0.3253,-0.3327,-0.2716,-0.2850,-0.8428,-0.7462,-3.7953,
14.699240,0.3026,0.8201,-0.3253,0.0522,0.0839,-0.2545,-0.8428,-0.7462,-3.7953,
14.718784,0.0919,1.0767,-0.3463,0.0522,0.0839,-0.2545,-0.8428,-0.7462,-3.7953,
14.721352,0.0919,1.0767,-0.3463,0.0522,0.0839,-0.2545,-0.9375,-0.4465,-3.9822,
14.722611,0.0919,1.0767,-0.3463,0.0351,0.9015,-0.9138,-0.9375,-0.4465,-3.9822,
14.739607,0.0919,1.0767,-0.3463,2.0630,2.2574,-1.4409,-0.9375,-0.4465,-3.9822,
14.760157,0.0919,1.0767,-0.3463,3.2332,3.0982,-1.0668,-0.9375,-0.4465,-3.9822,
14.779333,0.0919,1.0767,-0.3463,4.1014,3.3748,-1.0012,-0.9375,-0.4465,-3.9822,
14.785508,0.2871,1.3309,-0.2783,4.1014,3.3748,-1.0012,-0.9375,-0.4465,-3.9822,
14.786928,0.2871,1.3309,-0.2783,4.1014,3.3748,-1.0012,-0.8843,-0.1803,-3.8251,
14.799213,0.2871,1.3309,-0.2783,4.8034,3.6915,-0.8921,-0.8843,-0.1803,-3.8251,
14.819893,0.2871,1.3309,-0.2783,3.3227,3.0268,-0.7488,-0.8843,-0.1803,-3.8251,
14.839408,0.2871,1.3309,-0.2783,3.3482,2.4213,-0.3594,-0.8843,-0.1803,-3.8251,
14.850839,-0.0470,1.1027,-0.1660,3.3482,2.4213,-0.3594,-0.8843,-0.1803,-3.8251,
14.853775,-0.0470,1.1027,-0.1660,3.3482,2.4213,-0.3594,-0.5090,-0.4342,-2.7019,
14.859696,-0.0470,1.1027,-0.1660,3.6231,1.6242,-0.4687,-0.5090,-0.4342,-2.7019,
14.879392,-0.0470,1.1027,-0.1660,4.0734,0.9959,-0.3339,-0.5090,-0.4342,-2.7019,
14.899757,-0.0470,1.1027,-0.1660,3.9383,0.0855,-0.2518,-0.5090,-0.4342,-2.7019,
14.917598,-0.2854,0.8540,-0.1531,3.9383,0.0855,-0.2518,-0.5090,-0.4342,-2.7019,
14.920105,-0.2854,0.8540,-0.1531,3.9383,0.0855,-0.2518,0.2964,-0.4688,0.5452,
14.922229,-0.2854,0.8540,-0.1531,2.1747,-0.0457,-0.5446,0.2964,-0.4688,0.5452,
14.938979,-0.2854,0.8540,-0.1531,4.7282,0.5384,-1.3748,0.2964,-0.4688,0.5452,
14.959402,-0.2854,0.8540,-0.1531,2.4647,6.0296,-2.0886,0.2964,-0.4688,0.5452,
14.980366,-0.2854,0.8540,-0.1531,1.2258,-0.0419,-3.1331,0.2964,-0.4688,0.5452,
14.984792,-0.2191,0.8143,-0.4320,1.2258,-0.0419,-3.1331,0.2964,-0.4688,0.5452,
14.986312,-0.2191,0.8143,-0.4320,1.2258,-0.0419,-3.1331,0.6099,-0.5322,1.3091,
15.000370,-0.2191,0.8143,-0.4320,4.1070,0.4484,-1.5260,0.6099,-0.5322,1.3091,
15.019480,-0.2191,0.8143,-0.4320,1.0169,2.2371,1.0924,0.6099,-0.5322,1.3091,
15.039059,-0.2191,0.8143,-0.4320,-0.1543,0.5325,2.9537,0.6099,-0.5322,1.3091,
15.049282,-0.2980,0.8873,0.1423,-0.1543,0.5325,2.9537,0.6099,-0.5322,1.3091,
15.051580,-0.2980,0.8873,0.1423,-0.1543,0.5325,2.9537,0.2985,-0.4193,0.5053,
15.059829,-0.2980,0.8873,0.1423,1.6478,-0.0206,2.2663,0.2985,-0.4193,0.5053,
15.079960,-0.2980,0.8873,0.1423,0.9039,1.6309,2.1859,0.2985,-0.4193,0.5053,
15.099288,-0.2980,0.8873,0.1423,2.6202,1.2431,0.3570,0.2985,-0.4193,0.5053,
15.115178,-0.1773,1.0476,-0.2587,2.6202,1.2431,0.3570,0.2985,-0.4193,0.5053,
15.118140,-0.1773,1.0476,-0.2587,2.6202,1.2431,0.3570,0.5428,0.8870,1.1718,
15.120113,-0.1773,1.0476,-0.2587,1.7109,1.2496,-1.6554,0.5428,0.8870,1.1718,
15.139416,-0.1773,1.0476,-0.2587,0.4793,-0.3450,-5.1405,0.5428,0.8870,1.1718,
15.159324,-0.1773,1.0476,-0.2587,-1.0616,-0.4933,-1.6603,0.5428,0.8870,1.1718,
15.180406,-0.1773,1.0476,-0.2587,2.5967,0.2361,0.1933,0.5428,0.8870,1.1718,
15.183240,0.0100,0.9848,-0.1298,2.5967,0.2361,0.1933,0.5428,0.8870,1.1718,
15.184260,0.0100,0.9848,-0.1298,2.5967,0.2361,0.1933,0.4002,-0.0424,1.2399,
15.200727,0.0100,0.9848,-0.1298,3.7833,1.3272,0.8915,0.4002,-0.0424,1.2399,
15.219761,0.0100,0.9848,-0.1298,3.8172,1.2385,-1.0097,0.4002,-0.0424,1.2399,
15.239434,0.0100,0.9848,-0.1298,1.9281,0.4567,-1.3472,0.4002,-0.0424,1.2399,
15.249198,-0.1421,0.9760,-0.3852,1.9281,0.4567,-1.3472,0.4002,-0.0424,1.2399,
15.252247,-0.1421,0.9760,-0.3852,1.9281,0.4567,-1.3472,0.3022,0.2264,0.2535,
15.259645,-0.1421,0.9760,-0.3852,-0.1999,-0.0144,-1.3995,0.3022,0.2264,0.2535,
15.279977,-0.1421,0.9760,-0.3852,-1.0710,-0.4371,-0.1563,0.3022,0.2264,0.2535,
15.299755,-0.1421,0.9760,-0.3852,-0.6109,-0.3354,0.8172,0.3022,0.2264,0.2535,
15.315692,-0.1181,0.9679,-0.2118,-0.6109,-0.3354,0.8172,0.3022,0.2264,0.2535,
15.318441,-0.1181,0.9679,-0.2118,-0.6109,-0.3354,0.8172,0.3060,0.1146,0.5543,
15.320025,-0.1181,0.9679,-0.2118,0.8082,0.1253,-0.0643,0.3060,0.1146,0.5543,
15.339235,-0.1181,0.9679,-0.2118,-0.0557,-0.0274,-0.9351,0.3060,0.1146,0.5543,
15.359558,-0.1181,0.9679,-0.2118,-0.7194,-0.2093,-0.4995,0.3060,0.1146,0.5543,
15.380049,0.0270,0.9602,-0.1872,-0.7194,-0.2093,-0.4995,0.3060,0.1146,0.5543,
15.383184,0.0270,0.9602,-0.1872,-0.7194,-0.2093,-0.4995,0.2533,0.0683,0.5037,
15.384551,0.0270,0.9602,-0.1872,1.5929,0.0569,0.3020,0.2533,0.0683,0.5037,
15.399673,0.0270,0.9602,-0.1872,0.4187,0.2575,0.4397,0.2533,0.0683,0.5037,
15.419748,0.0270,0.9602,-0.1872,1.8653,0.3068,-0.2429,0.2533,0.0683,0.5037,
15.439532,0.0270,0.9602,-0.1872,-1.2982,-0.1285,-0.3849,0.2533,0.0683,0.5037,
15.448741,-0.3353,0.9291,-0.2689,-1.2982,-0.1285,-0.3849,0.2533,0.0683,0.5037,
15.451642,-0.3353,0.9291,-0.2689,-1.2982,-0.1285,-0.3849,0.2096,0.3935,0.3068,
15.460523,-0.3353,0.9291,-0.2689,-0.3558,-0.0455,0.2129,0.2096,0.3935,0.3068,
15.479358,-0.3353,0.9291,-0.2689,0.8503,0.2114,-0.2744,0.2096,0.3935,0.3068,
15.500095,-0.3353,0.9291,-0.2689,0.9093,0.0402,-0.9938,0.2096,0.3935,0.3068,
15.511276,-0.0937,0.9471,-0.3806,0.9093,0.0402,-0.9938,0.2096,0.3935,0.3068,
15.514465,-0.0937,0.9471,-0.3806,0.9093,0.0402,-0.9938,0.1846,0.1715,0.2136,
15.519494,-0.0937,0.9471,-0.3806,-0.1780,-0.0620,-1.0967,0.1846,0.1715,0.2136,
15.539603,-0.0937,0.9471,-0.3806,-0.6796,-0.1854,-0.8072,0.1846,0.1715,0.2136,
15.559340,-0.0937,0.9471,-0.3806,-0.3002,-0.1550,-0.2804,0.1846,0.1715,0.2136,
15.577511,-0.0185,0.9548,-0.2866,-0.3002,-0.1550,-0.2804,0.1846,0.1715,0.2136,
15.580966,-0.0185,0.9548,-0.2866,-0.3002,-0.1550,-0.2804,0.1165,0.2136,0.3430,
15.582493,-0.0185,0.9548,-0.2866,0.7400,-0.0087,-0.0372,0.1165,0.2136,0.3430,
15.600412,-0.0185,0.9548,-0.2866,1.7502,0.2368,-0.0731,0.1165,0.2136,0.3430,
15.620273,-0.0185,0.9548,-0.2866,-0.5931,-0.1119,-0.2605,0.1165,0.2136,0.3430,
15.639343,-0.0185,0.9548,-0.2866,-0.6518,-0.1593,-0.3472,0.1165,0.2136,0.3430,
15.642733,-0.1481,0.9481,-0.3076,-0.6518,-0.1593,-0.3472,0.1165,0.2136,0.3430,
15.644366,-0.1481,0.9481,-0.3076,-0.6518,-0.1593,-0.3472,0.1074,0.2008,0.4175,
15.659552,-0.1481,0.9481,-0.3076,0.5171,-0.1103,-0.0836,0.1074,0.2008,0.4175,
15.679385,-0.1481,0.9481,-0.3076,0.5862,0.0485,0.3886,0.1074,0.2008,0.4175,
15.700666,-0.1481,0.9481,-0.3076,-0.5031,-0.3003,0.4857,0.1074,0.2008,0.4175,
15.709011,-0.0607,0.9524,-0.2441,-0.5031,-0.3003,0.4857,0.1074,0.2008,0.4175,
15.710448,-0.0607,0.9524,-0.2441,-0.5031,-0.3003,0.4857,0.2112,0.3712,0.4542,
15.719389,-0.0607,0.9524,-0.2441,0.0266,0.0209,0.3580,0.2112,0.3712,0.4542,
15.739467,-0.0607,0.9524,-0.2441,0.4963,0.2267,-0.8538,0.2112,0.3712,0.4542,
15.759395,-0.0607,0.9524,-0.2441,-2.5617,-0.0672,-0.9630,0.2112,0.3712,0.4542,
15.775063,-0.1169,0.9924,-0.3955,-2.5617,-0.0672,-0.9630,0.2112,0.3712,0.4542,
15.777573,-0.1169,0.9924,-0.3955,-2.5617,-0.0672,-0.9630,0.1117,0.3749,0.6954,
15.780632,-0.1169,0.9924,-0.3955,-0.6350,0.4309,-0.7661,0.1117,0.3749,0.6954,
15.799286,-0.1169,0.9924,-0.3955,0.7021,0.5841,-0.6673,0.1117,0.3749,0.6954,
15.820313,-0.1169,0.9924,-0.3955,-0.4513,0.4704,-1.0237,0.1117,0.3749,0.6954,
15.839783,-0.1169,0.9924,-0.3955,-1.0306,0.7472,-0.9990,0.1117,0.3749,0.6954,
15.842682,-0.0617,1.0320,-0.4102,-1.0306,0.7472,-0.9990,0.1117,0.3749,0.6954,
15.844002,-0.0617,1.0320,-0.4102,-1.0306,0.7472,-0.9990,-0.0847,0.4526,0.6506,
15.859794,-0.0617,1.0320,-0.4102,-0.8042,1.1990,-0.7707,-0.0847,0.4526,0.6506,
15.879353,-0.0617,1.0320,-0.4102,-0.9691,0.9255,-0.1283,-0.0847,0.4526,0.6506,
15.900230,-0.0617,1.0320,-0.4102,-0.7495,0.6166,0.5621,-0.0847,0.4526,0.6506,
15.907094,-0.0180,1.0354,-0.2673,-0.7495,0.6166,0.5621,-0.0847,0.4526,0.6506,
15.908869,-0.0180,1.0354,-0.2673,-0.7495,0.6166,0.5621,-0.0613,0.7864,0.8093,
15.919319,-0.0180,1.0354,-0.2673,-2.0498,1.2249,0.3300,-0.0613,0.7864,0.8093,
15.939974,-0.0180,1.0354,-0.2673,-2.4510,1.3098,-0.2733,-0.0613,0.7864,0.8093,
15.959787,-0.0180,1.0354,-0.2673,-1.8453,1.2978,-0.3917,-0.0613,0.7864,0.8093,
15.973061,-0.0278,1.0463,-0.3547,-1.8453,1.2978,-0.3917,-0.0613,0.7864,0.8093,
15.975578,-0.0278,1.0463,-0.3547,-1.8453,1.2978,-0.3917,0.1000,0.9514,1.1281,
15.979312,-0.0278,1.0463,-0.3547,-1.7699,1.1006,-0.3937,0.1000,0.9514,1.1281,
15.999332,-0.0278,1.0463,-0.3547,-1.5951,1.3150,-0.5270,0.1000,0.9514,1.1281,
16.019624,-0.0278,1.0463,-0.3547,-2.2475,1.3129,-0.3536,0.1000,0.9514,1.1281,
16.039352,-0.0288,1.0892,-0.3404,-2.2475,1.3129,-0.3536,0.1000,0.9514,1.1281,
16.042479,-0.0288,1.0892,-0.3404,-2.2475,1.3129,-0.3536,0.4470,1.8388,1.3560,
16.043854,-0.0288,1.0892,-0.3404,-2.8273,1.6600,-0.4953,0.4470,1.8388,1.3560,
16.059355,-0.0288,1.0892,-0.3404,-3.2519,0.6205,-0.5346,0.4470,1.8388,1.3560,
16.079433,-0.0288,1.0892,-0.3404,-2.7907,0.0150,-0.0234,0.4470,1.8388,1.3560,
16.100923,-0.0288,1.0892,-0.3404,0.2481,0.6205,-0.1156,0.4470,1.8388,1.3560,
16.105181,0.5314,0.9161,-0.3189,0.2481,0.6205,-0.1156,0.4470,1.8388,1.3560,
16.107558,0.5314,0.9161,-0.3189,0.2481,0.6205,-0.1156,1.2237,2.8316,1.5290,
16.120245,0.5314,0.9161,-0.3189,2.7002,0.0041,0.1102,1.2237,2.8316,1.5290,
16.140630,0.5314,0.9161,-0.3189,5.1253,-0.5624,0.1890,1.2237,2.8316,1.5290,
16.159451,0.5314,0.9161,-0.3189,5.3330,-1.5111,0.0315,1.2237,2.8316,1.5290,
16.172304,0.8374,0.5316,-0.2199,5.3330,-1.5111,0.0315,1.2237,2.8316,1.5290,
16.175168,0.8374,0.5316,-0.2199,5.3330,-1.5111,0.0315,1.4808,3.8430,-0.9319,
16.180348,0.8374,0.5316,-0.2199,1.9052,-3.4088,0.4304,1.4808,3.8430,-0.9319,
16.200311,0.8374,0.5316,-0.2199,0.8989,-4.3508,0.4656,1.4808,3.8430,-0.9319,
16.219278,0.8374,0.5316,-0.2199,2.7375,-3.0104,1.1941,1.4808,3.8430,-0.9319,
16.238422,0.7611,0.5351,-0.1426,2.7375,-3.0104,1.1941,1.4808,3.8430,-0.9319,
16.241363,0.7611,0.5351,-0.1426,2.7375,-3.0104,1.1941,1.7065,3.6769,-2.2633,
16.242447,0.7611,0.5351,-0.1426,2.6215,-3.0679,0.6056,1.7065,3.6769,-2.2633,
16.259958,0.7611,0.5351,-0.1426,-0.5406,-3.9942,1.3351,1.7065,3.6769,-2.2633,
16.279242,0.7611,0.5351,-0.1426,-3.1231,-4.1089,1.7137,1.7065,3.6769,-2.2633,
16.299506,0.7611,0.5351,-0.1426,-6.1117,-3.6979,1.3412,1.7065,3.6769,-2.2633,
16.302997,-0.2412,0.5872,-0.0739,-6.1117,-3.6979,1.3412,1.7065,3.6769,-2.2633,
16.304267,-0.2412,0.5872,-0.0739,-6.1117,-3.6979,1.3412,1.2721,2.0171,-2.9633,
16.319400,-0.2412,0.5872,-0.0739,-4.7966,-1.9137,1.4996,1.2721,2.0171,-2.9633,
16.339761,-0.2412,0.5872,-0.0739,0.8357,-0.8498,1.3586,1.2721,2.0171,-2.9633,
16.359586,-0.2412,0.5872,-0.0739,2.1662,-0.6480,1.1124,1.2721,2.0171,-2.9633,
16.368802,0.4005,0.8893,-0.1518,2.1662,-0.6480,1.1124,1.2721,2.0171,-2.9633,
16.371402,0.4005,0.8893,-0.1518,2.1662,-0.6480,1.1124,0.7792,3.4091,-3.1555,
16.379243,0.4005,0.8893,-0.1518,1.1902,-0.4423,0.7284,0.7792,3.4091,-3.1555,
16.399851,0.4005,0.8893,-0.1518,0.1157,-0.1849,0.3297,0.7792,3.4091,-3.1555,
16.419603,0.4005,0.8893,-0.1518,-0.3171,0.3014,0.9718,0.7792,3.4091,-3.1555,
16.436659,0.0785,1.0544,-0.1338,-0.3171,0.3014,0.9718,0.7792,3.4091,-3.1555,
16.439647,0.0785,1.0544,-0.1338,-0.3171,0.3014,0.9718,0.4965,3.7940,-3.1262,
16.440926,0.0785,1.0544,-0.1338,-0.1003,0.9036,1.0661,0.4965,3.7940,-3.1262,
16.459402,0.0785,1.0544,-0.1338,-1.8079,1.3910,0.7215,0.4965,3.7940,-3.1262,
16.479235,0.0785,1.0544,-0.1338,-0.9091,1.8292,0.7943,0.4965,3.7940,-3.1262,
16.499781,0.0785,1.0544,-0.1338,-0.4294,1.8967,1.2179,0.4965,3.7940,-3.1262,
16.502705,-0.0823,1.1513,-0.1359,-0.4294,1.8967,1.2179,0.4965,3.7940,-3.1262,
16.504086,-0.0823,1.1513,-0.1359,-0.4294,1.8967,1.2179,0.0600,3.3341,-2.1994,
16.519109,-0.0823,1.1513,-0.1359,-0.7948,1.2145,1.5087,0.0600,3.3341,-2.1994,
16.539397,-0.0823,1.1513,-0.1359,-1.8204,1.1953,1.5772,0.0600,3.3341,-2.1994,
16.559573,-0.0823,1.1513,-0.1359,-1.2615,1.7302,1.2343,0.0600,3.3341,-2.1994,
16.569448,-0.1647,1.1279,-0.1662,-1.2615,1.7302,1.2343,0.0600,3.3341,-2.1994,
16.572239,-0.1647,1.1279,-0.1662,-1.2615,1.7302,1.2343,-0.1859,1.4209,-1.0214,
16.579773,-0.1647,1.1279,-0.1662,-0.2516,1.3113,0.7697,-0.1859,1.4209,-1.0214,
16.600269,-0.1647,1.1279,-0.1662,-0.2079,0.7832,0.4286,-0.1859,1.4209,-1.0214,
16.619027,-0.1647,1.1279,-0.1662,-0.0466,0.5076,0.4071,-0.1859,1.4209,-1.0214,
16.632759,-0.1050,0.9892,-0.2097,-0.0466,0.5076,0.4071,-0.1859,1.4209,-1.0214,
16.635230,-0.1050,0.9892,-0.2097,-0.0466,0.5076,0.4071,-0.1523,0.4478,-0.2660,
16.639390,-0.1050,0.9892,-0.2097,0.4578,0.2960,0.4293,-0.1523,0.4478,-0.2660,
16.659995,-0.1050,0.9892,-0.2097,1.6337,0.4708,-0.0082,-0.1523,0.4478,-0.2660,
16.679277,-0.1050,0.9892,-0.2097,2.9804,0.3634,-0.6308,-0.1523,0.4478,-0.2660,
16.698796,0.1329,0.9230,-0.3599,2.9804,0.3634,-0.6308,-0.1523,0.4478,-0.2660,
16.702135,0.1329,0.9230,-0.3599,2.9804,0.3634,-0.6308,-0.1337,2.2455,-0.7211,
16.703554,0.1329,0.9230,-0.3599,2.7549,-0.3055,-0.8626,-0.1337,2.2455,-0.7211,
16.719700,0.1329,0.9230,-0.3599,1.8215,-0.4989,-1.4052,-0.1337,2.2455,-0.7211,
16.739857,0.1329,0.9230,-0.3599,0.6989,-0.8718,-1.0597,-0.1337,2.2455,-0.7211,
16.759457,0.1329,0.9230,-0.3599,-2.2650,-1.5628,0.1759,-0.1337,2.2455,-0.7211,
16.764679,-0.4424,0.8200,-0.2445,-2.2650,-1.5628,0.1759,-0.1337,2.2455,-0.7211,
16.766184,-0.4424,0.8200,-0.2445,-2.2650,-1.5628,0.1759,-0.4813,3.1291,-0.8058,
16.779260,-0.4424,0.8200,-0.2445,-3.4950,-0.8274,0.6776,-0.4813,3.1291,-0.8058,
16.799407,-0.4424,0.8200,-0.2445,-4.6518,2.7023,1.3910,-0.4813,3.1291,-0.8058,
16.820351,-0.4424,0.8200,-0.2445,-1.4965,-0.4232,-0.0333,-0.4813,3.1291,-0.8058,
16.830993,-0.5425,1.0914,-0.3639,-1.4965,-0.4232,-0.0333,-0.4813,3.1291,-0.8058,
16.833101,-0.5425,1.0914,-0.3639,-1.4965,-0.4232,-0.0333,-0.0704,1.1122,0.0773,
16.840854,-0.5425,1.0914,-0.3639,-4.6003,0.8262,-1.2149,-0.0704,1.1122,0.0773,
16.859519,-0.5425,1.0914,-0.3639,-4.6597,-0.6978,-0.0536,-0.0704,1.1122,0.0773,
16.879558,-0.5425,1.0914,-0.3639,-3.0706,-0.1135,-0.1076,-0.0704,1.1122,0.0773,
16.897433,0.4656,1.0372,-0.4663,-3.0706,-0.1135,-0.1076,-0.0704,1.1122,0.0773,
16.899964,0.4656,1.0372,-0.4663,-3.0706,-0.1135,-0.1076,0.2384,0.0012,0.6347,
16.902111,0.4656,1.0372,-0.4663,5.3982,0.7648,-1.8790,0.2384,0.0012,0.6347,
16.919290,0.4656,1.0372,-0.4663,0.2895,0.3750,0.5932,0.2384,0.0012,0.6347,
16.939980,0.4656,1.0372,-0.4663,-1.1394,-0.2908,0.8586,0.2384,0.0012,0.6347,
16.959615,0.4656,1.0372,-0.4663,1.2096,0.3164,0.3830,0.2384,0.0012,0.6347,
16.962514,0.1581,0.9880,-0.2794,1.2096,0.3164,0.3830,0.2384,0.0012,0.6347,
16.963619,0.1581,0.9880,-0.2794,1.2096,0.3164,0.3830,0.2176,-0.0802,0.3137,
16.979723,0.1581,0.9880,-0.2794,0.6801,0.2253,0.2539,0.2176,-0.0802,0.3137,
16.999230,0.1581,0.9880,-0.2794,0.6514,0.3894,0.3420,0.2176,-0.0802,0.3137,
17.020232,0.1581,0.9880,-0.2794,0.5175,0.1627,-0.2246,0.2176,-0.0802,0.3137,
17.028898,-0.0111,0.9671,-0.3035,0.5175,0.1627,-0.2246,0.2176,-0.0802,0.3137,
17.030574,-0.0111,0.9671,-0.3035,0.5175,0.1627,-0.2246,0.1851,-0.0903,-0.0142,
17.039281,-0.0111,0.9671,-0.3035,0.3309,0.0939,0.1106,0.1851,-0.0903,-0.0142,
17.059781,-0.0111,0.9671,-0.3035,0.8247,0.1545,0.4791,0.1851,-0.0903,-0.0142,
17.079481,-0.0111,0.9671,-0.3035,1.1406,0.2467,1.0369,0.1851,-0.0903,-0.0142,
17.094794,-0.0167,0.9654,-0.2327,1.1406,0.2467,1.0369,0.1851,-0.0903,-0.0142,
17.097489,-0.0167,0.9654,-0.2327,1.1406,0.2467,1.0369,0.2980,-0.0179,-0.3549,
17.099039,-0.0167,0.9654,-0.2327,0.3227,0.1083,0.7317,0.2980,-0.0179,-0.3549,
17.119178,-0.0167,0.9654,-0.2327,-0.4821,-0.0254,0.0920,0.2980,-0.0179,-0.3549,
17.139812,-0.0167,0.9654,-0.2327,-0.5076,-0.3041,-0.5322,0.2980,-0.0179,-0.3549,
17.159360,-0.0167,0.9654,-0.2327,-1.1654,-0.0307,-0.8556,0.2980,-0.0179,-0.3549,
17.162537,-0.1937,0.9426,-0.4231,-1.1654,-0.0307,-0.8556,0.2980,-0.0179,-0.3549,
17.163548,-0.1937,0.9426,-0.4231,-1.1654,-0.0307,-0.8556,0.3193,0.0741,-0.2383,
17.179388,-0.1937,0.9426,-0.4231,-0.6529,-0.1527,-0.6959,0.3193,0.0741,-0.2383,
17.199251,-0.1937,0.9426,-0.4231,-0.3801,0.0550,-0.6133,0.3193,0.0741,-0.2383,
17.219387,-0.1937,0.9426,-0.4231,-0.9894,-0.1322,-0.6772,0.3193,0.0741,-0.2383,
17.226859,-0.1005,0.9372,-0.3909,-0.9894,-0.1322,-0.6772,0.3193,0.0741,-0.2383,
17.228809,-0.1005,0.9372,-0.3909,-0.9894,-0.1322,-0.6772,0.1809,-0.0126,-0.0983,
17.239226,-0.1005,0.9372,-0.3909,0.2049,0.1085,-0.6012,0.1809,-0.0126,-0.0983,
17.259811,-0.1005,0.9372,-0.3909,0.1510,0.0623,-0.2403,0.1809,-0.0126,-0.0983,
17.279509,-0.1005,0.9372,-0.3909,-1.9924,0.0062,0.5853,0.1809,-0.0126,-0.0983,
17.293525,-0.0626,0.9358,-0.3098,-1.9924,0.0062,0.5853,0.1809,-0.0126,-0.0983,
17.296426,-0.0626,0.9358,-0.3098,-1.9924,0.0062,0.5853,0.1505,0.0709,-0.0509,
17.299790,-0.0626,0.9358,-0.3098,1.0541,0.1625,0.2354,0.1505,0.0709,-0.0509,
17.319586,-0.0626,0.9358,-0.3098,-0.7665,-0.1095,0.0384,0.1505,0.0709,-0.0509,
17.339930,-0.0626,0.9358,-0.3098,-0.6315,-0.1059,-0.3042,0.1505,0.0709,-0.0509,
17.359282,-0.1199,0.9326,-0.3743,-0.6315,-0.1059,-0.3042,0.1505,0.0709,-0.0509,
17.363181,-0.1199,0.9326,-0.3743,-0.6315,-0.1059,-0.3042,0.1335,0.1210,-0.0547,
17.364340,-0.1199,0.9326,-0.3743,-0.2042,0.0240,-0.1075,0.1335,0.1210,-0.0547,
17.379683,-0.1199,0.9326,-0.3743,-0.3600,0.0150,-0.0023,0.1335,0.1210,-0.0547,
17.399892,-0.1199,0.9326,-0.3743,-0.4664,-0.0243,-0.2628,0.1335,0.1210,-0.0547,
17.419357,-0.1199,0.9326,-0.3743,-0.1376,0.0230,0.1023,0.1335,0.1210,-0.0547,
17.425238,-0.1275,0.9232,-0.3752,-0.1376,0.0230,0.1023,0.1335,0.1210,-0.0547,
17.427090,-0.1275,0.9232,-0.3752,-0.1376,0.0230,0.1023,0.1117,0.1566,-0.0254,
17.439224,-0.1275,0.9232,-0.3752,-0.5171,-0.0174,0.3410,0.1117,0.1566,-0.0254,
17.459848,-0.1275,0.9232,-0.3752,-0.2437,0.0307,0.2191,0.1117,0.1566,-0.0254,
17.479587,-0.1275,0.9232,-0.3752,-0.4645,0.0014,-0.0075,0.1117,0.1566,-0.0254,
17.491234,-0.1438,0.9182,-0.3832,-0.4645,0.0014,-0.0075,0.1117,0.1566,-0.0254,
17.494630,-0.1438,0.9182,-0.3832,-0.4645,0.0014,-0.0075,0.1388,0.1667,0.0651,
17.499396,-0.1438,0.9182,-0.3832,-0.5828,-0.0284,-0.0580,0.1388,0.1667,0.0651,
17.520062,-0.1438,0.9182,-0.3832,-0.4829,0.0687,0.1663,0.1388,0.1667,0.0651,
17.539922,-0.1438,0.9182,-0.3832,-0.1658,0.2437,0.2242,0.1388,0.1667,0.0651,
17.557620,-0.0935,0.9229,-0.3428,-0.1658,0.2437,0.2242,0.1388,0.1667,0.0651,
17.560698,-0.0935,0.9229,-0.3428,-0.1658,0.2437,0.2242,0.1580,0.2024,0.0976,
17.562045,-0.0935,0.9229,-0.3428,-0.0607,0.0367,0.4701,0.1580,0.2024,0.0976,
17.579168,-0.0935,0.9229,-0.3428,0.0173,-0.0224,0.5772,0.1580,0.2024,0.0976,
17.599317,-0.0935,0.9229,-0.3428,-0.7030,-0.0566,0.0892,0.1580,0.2024,0.0976,
17.619606,-0.0935,0.9229,-0.3428,-1.0564,0.0481,0.1153,0.1580,0.2024,0.0976,
17.623765,-0.1871,0.9233,-0.3926,-1.0564,0.0481,0.1153,0.1580,0.2024,0.0976,
17.625256,-0.1871,0.9233,-0.3926,-1.0564,0.0481,0.1153,0.2570,0.3206,0.1944,
17.639168,-0.1871,0.9233,-0.3926,-1.0929,0.1539,0.3709,0.2570,0.3206,0.1944,
17.659364,-0.1871,0.9233,-0.3926,-0.3711,0.1241,0.6509,0.2570,0.3206,0.1944,
17.679303,-0.1871,0.9233,-0.3926,-0.0648,0.1957,0.2023,0.2570,0.3206,0.1944,
17.689778,-0.1071,0.9106,-0.4089,-0.0648,0.1957,0.2023,0.2570,0.3206,0.1944,
17.692382,-0.1071,0.9106,-0.4089,-0.0648,0.1957,0.2023,0.3470,0.3973,0.2977,
17.699809,-0.1071,0.9106,-0.4089,-0.8137,-0.0048,0.0010,0.3470,0.3973,0.2977,
17.719456,-0.1071,0.9106,-0.4089,-0.4548,0.1887,0.1646,0.3470,0.3973,0.2977,
17.740098,-0.1071,0.9106,-0.4089,-0.5855,0.1386,0.3580,0.3470,0.3973,0.2977,
17.757096,-0.1566,0.9024,-0.4193,-0.5855,0.1386,0.3580,0.3470,0.3973,0.2977,
17.760137,-0.1566,0.9024,-0.4193,-0.5855,0.1386,0.3580,0.4188,0.4931,0.4915,
17.761752,-0.1566,0.9024,-0.4193,-1.3417,0.0528,0.3100,0.4188,0.4931,0.4915,
17.779564,-0.1566,0.9024,-0.4193,-0.7183,1.0013,0.3653,0.4188,0.4931,0.4915,
17.799267,-0.1566,0.9024,-0.4193,-0.3967,0.9040,-0.2058,0.4188,0.4931,0.4915,
17.819297,-0.1566,0.9024,-0.4193,-2.1055,1.0712,-0.4004,0.4188,0.4931,0.4915,
17.824054,-0.1784,0.9847,-0.5229,-2.1055,1.0712,-0.4004,0.4188,0.4931,0.4915,
17.825753,-0.1784,0.9847,-0.5229,-2.1055,1.0712,-0.4004,0.3480,0.4734,0.6155,
17.840333,-0.1784,0.9847,-0.5229,-1.6335,1.1279,0.0313,0.3480,0.4734,0.6155,
17.860008,-0.1784,0.9847,-0.5229,-1.7571,1.2525,1.0030,0.3480,0.4734,0.6155,
17.881069,-0.1784,0.9847,-0.5229,-1.5072,1.2544,1.2876,0.3480,0.4734,0.6155,
17.887056,-0.0732,1.0175,-0.3548,-1.5072,1.2544,1.2876,0.3480,0.4734,0.6155,
17.889161,-0.0732,1.0175,-0.3548,-1.5072,1.2544,1.2876,0.3257,0.5042,0.9179,
17.899687,-0.0732,1.0175,-0.3548,-1.8326,1.3988,1.1098,0.3257,0.5042,0.9179,
17.919366,-0.0732,1.0175,-0.3548,-3.1168,1.5481,1.1821,0.3257,0.5042,0.9179,
17.940231,-0.0732,1.0175,-0.3548,-3.8300,1.5077,0.9604,0.3257,0.5042,0.9179,
17.952295,-0.1896,1.1305,-0.4190,-3.8300,1.5077,0.9604,0.3257,0.5042,0.9179,
17.954277,-0.1896,1.1305,-0.4190,-3.8300,1.5077,0.9604,0.5455,0.6592,1.5423,
17.959903,-0.1896,1.1305,-0.4190,-3.6766,3.1069,0.8048,0.5455,0.6592,1.5423,
17.979599,-0.1896,1.1305,-0.4190,-5.4935,3.3407,0.4534,0.5455,0.6592,1.5423,
17.999830,-0.1896,1.1305,-0.4190,-7.4023,4.2166,0.6562,0.5455,0.6592,1.5423,
18.019598,-0.4482,1.0402,-0.3497,-7.4023,4.2166,0.6562,0.5455,0.6592,1.5423,
18.023245,-0.4482,1.0402,-0.3497,-7.4023,4.2166,0.6562,1.1848,1.6274,2.5159,
18.026448,-0.4482,1.0402,-0.3497,-7.5009,2.5973,1.6141,1.1848,1.6274,2.5159,
18.041154,-0.4482,1.0402,-0.3497,0.1029,1.8430,2.3797,1.1848,1.6274,2.5159,
18.059483,-0.4482,1.0402,-0.3497,8.9945,4.7972,2.5757,1.1848,1.6274,2.5159,
18.079487,-0.4482,1.0402,-0.3497,2.8571,4.8286,1.8164,1.1848,1.6274,2.5159,
18.084846,0.4462,1.1865,-0.4191,2.8571,4.8286,1.8164,1.1848,1.6274,2.5159,
18.087004,0.4462,1.1865,-0.4191,2.8571,4.8286,1.8164,1.2705,2.8028,0.6970,
18.100051,0.4462,1.1865,-0.4191,-2.9539,3.6965,2.2064,1.2705,2.8028,0.6970,
18.124036,0.4462,1.1865,-0.4191,-3.1484,2.7032,1.7843,1.2705,2.8028,0.6970,
18.141362,0.4462,1.1865,-0.4191,-5.6482,-1.6727,1.9830,1.2705,2.8028,0.6970,
18.150798,0.4420,0.2390,-0.5722,-5.6482,-1.6727,1.9830,1.2705,2.8028,0.6970,
18.152307,0.4420,0.2390,-0.5722,-5.6482,-1.6727,1.9830,0.9235,2.4025,-0.1015,
18.159707,0.4420,0.2390,-0.5722,1.8077,-2.2689,-1.0531,0.9235,2.4025,-0.1015,
18.179720,0.4420,0.2390,-0.5722,1.4726,0.3252,2.4146,0.9235,2.4025,-0.1015,
18.199499,0.4420,0.2390,-0.5722,-0.1171,-0.8652,3.5746,0.9235,2.4025,-0.1015,
18.217473,0.6827,0.6739,-0.1058,-0.1171,-0.8652,3.5746,0.9235,2.4025,-0.1015,
18.219931,0.6827,0.6739,-0.1058,-0.1171,-0.8652,3.5746,-0.0076,0.8258,-2.8744,
18.221586,0.6827,0.6739,-0.1058,0.8532,-0.0707,3.1978,-0.0076,0.8258,-2.8744,
18.240139,0.6827,0.6739,-0.1058,-1.6416,-2.9542,1.9454,-0.0076,0.8258,-2.8744,
18.262186,0.6827,0.6739,-0.1058,-5.2653,-4.0966,1.5217,-0.0076,0.8258,-2.8744,
18.279157,0.6827,0.6739,-0.1058,-7.0139,-3.8863,1.9936,-0.0076,0.8258,-2.8744,
18.283300,-0.3124,0.4134,-0.1935,-7.0139,-3.8863,1.9936,-0.0076,0.8258,-2.8744,
18.284904,-0.3124,0.4134,-0.1935,-7.0139,-3.8863,1.9936,-0.8641,-0.2554,-3.7735,
18.299235,-0.3124,0.4134,-0.1935,-7.0445,-3.5968,2.4351,-0.8641,-0.2554,-3.7735,
18.319156,-0.3124,0.4134,-0.1935,-2.1407,-1.5674,1.5358,-0.8641,-0.2554,-3.7735,
18.339203,-0.3124,0.4134,-0.1935,0.1390,-0.5990,0.7068,-0.8641,-0.2554,-3.7735,
18.348233,0.2440,0.8795,-0.3273,0.1390,-0.5990,0.7068,-0.8641,-0.2554,-3.7735,
18.349679,0.2440,0.8795,-0.3273,0.1390,-0.5990,0.7068,-1.2931,-0.2335,-4.0466,
18.359827,0.2440,0.8795,-0.3273,0.2225,-0.1267,0.1497,-1.2931,-0.2335,-4.0466,
18.379322,0.2440,0.8795,-0.3273,0.3998,0.5110,0.0380,-1.2931,-0.2335,-4.0466,
18.399546,0.2440,0.8795,-0.3273,0.1110,0.9212,0.3596,-1.2931,-0.2335,-4.0466,
18.414849,-0.1234,1.0955,-0.2887,0.1110,0.9212,0.3596,-1.2931,-0.2335,-4.0466,
18.417579,-0.1234,1.0955,-0.2887,0.1110,0.9212,0.3596,-1.4150,0.0220,-4.2696,
18.419579,-0.1234,1.0955,-0.2887,-0.6957,1.4278,-0.2249,-1.4150,0.0220,-4.2696,
18.441087,-0.1234,1.0955,-0.2887,0.5617,3.1704,-0.9504,-1.4150,0.0220,-4.2696,
18.459359,-0.1234,1.0955,-0.2887,2.6668,4.6505,-0.7950,-1.4150,0.0220,-4.2696,
18.479243,-0.1234,1.0955,-0.2887,3.0721,4.8836,-0.5536,-1.4150,0.0220,-4.2696,
18.482552,0.0185,1.4302,-0.2473,3.0721,4.8836,-0.5536,-1.4150,0.0220,-4.2696,
18.483486,0.0185,1.4302,-0.2473,3.0721,4.8836,-0.5536,-1.2276,0.3765,-3.3769,
18.499781,0.0185,1.4302,-0.2473,4.0676,4.4528,-0.4651,-1.2276,0.3765,-3.3769,
18.519224,0.0185,1.4302,-0.2473,5.3654,2.8282,-0.1545,-1.2276,0.3765,-3.3769,
18.539379,0.0185,1.4302,-0.2473,2.3596,1.2971,0.1550,-1.2276,0.3765,-3.3769,
18.547052,-0.2416,0.9702,-0.1333,2.3596,1.2971,0.1550,-1.2276,0.3765,-3.3769,
18.548433,-0.2416,0.9702,-0.1333,2.3596,1.2971,0.1550,-0.4068,-0.5125,-1.5787,
18.559431,-0.2416,0.9702,-0.1333,2.5324,0.6221,0.0261,-0.4068,-0.5125,-1.5787,
18.581989,-0.2416,0.9702,-0.1333,3.7360,0.1882,0.0748,-0.4068,-0.5125,-1.5787,
18.600056,-0.2416,0.9702,-0.1333,3.6663,-0.3041,-0.2370,-0.4068,-0.5125,-1.5787,
18.613855,-0.1309,0.8844,-0.2242,3.6663,-0.3041,-0.2370,-0.4068,-0.5125,-1.5787,
18.616370,-0.1309,0.8844,-0.2242,3.6663,-0.3041,-0.2370,0.3949,-1.0267,1.2197,
18.619159,-0.1309,0.8844,-0.2242,3.7722,2.3239,-1.0743,0.3949,-1.0267,1.2197,
18.639145,-0.1309,0.8844,-0.2242,-1.6273,2.3353,-3.1143,0.3949,-1.0267,1.2197,
18.659748,-0.1309,0.8844,-0.2242,0.0925,-0.9399,-3.6336,0.3949,-1.0267,1.2197,
18.678935,-0.5975,0.9170,-0.5093,0.0925,-0.9399,-3.6336,0.3949,-1.0267,1.2197,
18.681951,-0.5975,0.9170,-0.5093,0.0925,-0.9399,-3.6336,0.5343,-0.4161,1.0227,
18.682984,-0.5975,0.9170,-0.5093,-1.4949,0.2543,-3.9899,0.5343,-0.4161,1.0227,
18.699487,-0.5975,0.9170,-0.5093,0.2479,0.0841,0.5549,0.5343,-0.4161,1.0227,
18.719168,-0.5975,0.9170,-0.5093,3.5949,1.1388,2.8110,0.5343,-0.4161,1.0227,
18.739569,-0.5975,0.9170,-0.5093,6.2007,2.3054,4.1170,0.5343,-0.4161,1.0227,
18.745557,0.0343,1.1297,0.2717,6.2007,2.3054,4.1170,0.5343,-0.4161,1.0227,
18.747090,0.0343,1.1297,0.2717,6.2007,2.3054,4.1170,0.3656,-0.2271,0.5921,
18.760813,0.0343,1.1297,0.2717,2.4481,2.0447,2.6460,0.3656,-0.2271,0.5921,
18.779831,0.0343,1.1297,0.2717,2.6400,2.3777,0.3417,0.3656,-0.2271,0.5921,
18.799377,0.0343,1.1297,0.2717,0.2153,-0.2049,-4.4408,0.3656,-0.2271,0.5921,
18.812044,-0.6706,0.7862,-0.5982,0.2153,-0.2049,-4.4408,0.3656,-0.2271,0.5921,
18.815868,-0.6706,0.7862,-0.5982,0.2153,-0.2049,-4.4408,0.3906,0.4723,0.5612,
18.819956,-0.6706,0.7862,-0.5982,-3.7752,-1.3386,-3.6697,0.3906,0.4723,0.5612,
18.839343,-0.6706,0.7862,-0.5982,0.4438,-0.1284,0.1513,0.3906,0.4723,0.5612,
18.860929,-0.6706,0.7862,-0.5982,0.6971,0.4168,1.3477,0.3906,0.4723,0.5612,
18.877757,-0.2867,0.9124,-0.0900,0.6971,0.4168,1.3477,0.3906,0.4723,0.5612,
18.881344,-0.2867,0.9124,-0.0900,0.6971,0.4168,1.3477,0.5114,0.1503,0.8545,
18.883088,-0.2867,0.9124,-0.0900,0.0162,-0.2546,1.0724,0.5114,0.1503,0.8545,
18.900171,-0.2867,0.9124,-0.0900,0.6441,0.3686,-0.1298,0.5114,0.1503,0.8545,
18.919558,-0.2867,0.9124,-0.0900,0.3835,-0.0397,-1.1118,0.5114,0.1503,0.8545,
18.939807,-0.2867,0.9124,-0.0900,-0.2917,-0.1171,-1.2037,0.5114,0.1503,0.8545,
18.943431,-0.2815,0.9312,-0.3458,-0.2917,-0.1171,-1.2037,0.5114,0.1503,0.8545,
18.944970,-0.2815,0.9312,-0.3458,-0.2917,-0.1171,-1.2037,0.3523,0.2424,0.5357,
18.960996,-0.2815,0.9312,-0.3458,-0.3900,0.1498,-0.4655,0.3523,0.2424,0.5357,
18.979692,-0.2815,0.9312,-0.3458,-0.4991,-0.1942,0.0571,0.3523,0.2424,0.5357,
18.999358,-0.2815,0.9312,-0.3458,-0.2624,-0.2327,0.3208,0.3523,0.2424,0.5357,
19.011592,-0.2356,0.9596,-0.2143,-0.2624,-0.2327,0.3208,0.3523,0.2424,0.5357,
19.014678,-0.2356,0.9596,-0.2143,-0.2624,-0.2327,0.3208,0.3086,0.2610,0.5772,
19.019682,-0.2356,0.9596,-0.2143,-0.0040,0.6139,0.3990,0.3086,0.2610,0.5772,
19.039303,-0.2356,0.9596,-0.2143,0.4751,0.0099,-0.8216,0.3086,0.2610,0.5772,
19.059938,-0.2356,0.9596,-0.2143,-0.3164,-0.0985,-0.8474,0.3086,0.2610,0.5772,
19.074990,-0.1100,0.9286,-0.2882,-0.3164,-0.0985,-0.8474,0.3086,0.2610,0.5772,
19.077230,-0.1100,0.9286,-0.2882,-0.3164,-0.0985,-0.8474,0.2155,0.1880,0.3999,
19.081923,-0.1100,0.9286,-0.2882,0.5155,-0.2960,0.0280,0.2155,0.1880,0.3999,
19.099431,-0.1100,0.9286,-0.2882,-1.1451,-0.0710,0.2897,0.2155,0.1880,0.3999,
19.119337,-0.1100,0.9286,-0.2882,1.3255,0.2386,-0.3224,0.2155,0.1880,0.3999,
19.139871,-0.1100,0.9286,-0.2882,0.2436,0.1884,-0.2904,0.2155,0.1880,0.3999,
19.144434,-0.1924,0.9843,-0.3052,0.2436,0.1884,-0.2904,0.2155,0.1880,0.3999,
19.146913,-0.1924,0.9843,-0.3052,0.2436,0.1884,-0.2904,0.1984,0.1827,0.2940,
19.159299,-0.1924,0.9843,-0.3052,-1.4807,-0.4059,-0.2415,0.1984,0.1827,0.2940,
19.179653,-0.1924,0.9843,-0.3052,-1.3164,-0.1194,0.1786,0.1984,0.1827,0.2940,
19.199512,-0.1924,0.9843,-0.3052,-0.2020,0.0176,-0.0559,0.1984,0.1827,0.2940,
19.207010,-0.0931,0.9520,-0.3171,-0.2020,0.0176,-0.0559,0.1984,0.1827,0.2940,
19.208523,-0.0931,0.9520,-0.3171,-0.2020,0.0176,-0.0559,0.1936,0.2253,0.4526,
19.220826,-0.0931,0.9520,-0.3171,-0.0501,-0.0402,-0.2216,0.1936,0.2253,0.4526,
19.239213,-0.0931,0.9520,-0.3171,-0.3422,-0.0962,0.0145,0.1936,0.2253,0.4526,
19.259181,-0.0931,0.9520,-0.3171,-0.7066,-0.2791,-0.5348,0.1936,0.2253,0.4526,
19.272910,-0.2164,0.9279,-0.3249,-0.7066,-0.2791,-0.5348,0.1936,0.2253,0.4526,
