time,gFx,gFy,gFz,ax,ay,az,wx,wy,wz,P
0.012,0.12,0.97,0.08,0.07,-0.01,-0.06,-0.02,0.02,-0.01,1009.26
0.013,0.10,0.97,0.10,0.07,-0.01,-0.06,-0.02,0.02,-0.01,1009.26
0.013,0.10,0.97,0.10,0.07,-0.01,-0.06,-0.02,0.02,-0.01,1009.30
0.02,0.10,0.97,0.10,0.07,-0.01,-0.06,-0.00,0.01,-0.01,1009.30
0.049,0.10,0.97,0.10,0.07,-0.01,-0.06,-0.00,0.01,-0.01,1009.30
0.049,0.10,0.97,0.10,-0.00,0.01,0.02,-0.00,0.01,-0.01,1009.30
0.091,0.10,0.97,0.10,-0.00,0.01,0.02,-0.01,0.01,-0.01,1009.30
0.092,0.10,0.97,0.09,-0.00,0.01,0.02,-0.01,0.01,-0.01,1009.30
0.092,0.10,0.97,0.09,-0.00,0.01,0.02,-0.01,0.01,-0.01,1009.30
0.093,0.11,0.98,0.08,-0.00,0.01,0.02,-0.01,0.01,-0.01,1009.30
0.093,0.11,0.98,0.08,-0.00,0.01,0.02,-0.01,0.01,-0.01,1009.30
0.111,0.10,0.97,0.09,-0.00,0.01,0.02,-0.01,0.01,-0.01,1009.30
0.112,0.10,0.97,0.09,0.06,0.00,-0.05,-0.01,0.01,-0.01,1009.30
0.159,0.10,0.97,0.11,0.06,0.00,-0.05,-0.01,0.01,-0.01,1009.30
0.161,0.09,0.98,0.10,0.06,0.00,-0.05,-0.01,0.01,-0.01,1009.30
0.161,0.09,0.98,0.10,0.06,0.00,-0.05,-0.03,0.01,-0.02,1009.30
0.172,0.09,0.98,0.09,0.06,0.00,-0.05,-0.03,0.01,-0.02,1009.30
0.173,0.09,0.98,0.09,0.06,0.00,-0.05,-0.03,0.01,-0.02,1009.27
0.18,0.09,0.98,0.09,0.07,-0.00,-0.10,-0.03,0.01,-0.02,1009.27
0.213,0.09,0.98,0.09,0.07,-0.00,-0.10,-0.03,0.01,-0.02,1009.29
0.214,0.09,0.98,0.09,0.07,-0.00,-0.10,-0.03,0.01,-0.02,1009.29
0.215,0.10,0.98,0.09,0.07,-0.00,-0.10,-0.03,0.01,-0.02,1009.29
0.23,0.10,0.98,0.09,0.07,-0.00,-0.10,-0.03,0.01,-0.01,1009.29
0.25,0.10,0.98,0.09,-0.03,0.01,-0.03,-0.03,0.01,-0.01,1009.29
0.251,0.11,0.96,0.10,-0.03,0.01,-0.03,-0.03,0.01,-0.01,1009.29
0.251,0.10,0.97,0.10,-0.03,0.01,-0.03,-0.03,0.01,-0.01,1009.29
0.292,0.10,0.97,0.10,-0.03,0.01,-0.03,-0.03,0.01,-0.01,1009.29
0.293,0.09,0.97,0.11,-0.03,0.01,-0.03,-0.03,0.01,-0.01,1009.29
0.293,0.09,0.97,0.11,-0.03,0.01,-0.03,-0.03,0.01,-0.01,1009.28
0.299,0.09,0.97,0.11,-0.03,0.01,-0.03,-0.03,0.01,-0.03,1009.28
0.32,0.09,0.97,0.11,0.08,-0.02,-0.05,-0.03,0.01,-0.03,1009.28
0.321,0.10,0.98,0.09,0.08,-0.02,-0.05,-0.03,0.01,-0.03,1009.28
0.358,0.10,0.97,0.09,0.08,-0.02,-0.05,-0.03,0.01,-0.03,1009.28
0.359,0.09,0.98,0.09,0.08,-0.02,-0.05,-0.03,0.01,-0.03,1009.28
0.37,0.09,0.98,0.09,0.08,-0.02,-0.05,-0.05,0.01,-0.03,1009.28
0.372,0.11,0.97,0.05,0.08,-0.02,-0.05,-0.05,0.01,-0.03,1009.28
0.372,0.11,0.97,0.05,0.08,-0.02,-0.05,-0.05,0.01,-0.03,1009.26
0.39,0.08,0.96,0.16,0.08,-0.02,-0.05,-0.05,0.01,-0.03,1009.26
0.391,0.08,0.96,0.16,0.04,0.01,-0.07,-0.05,0.01,-0.03,1009.26
0.413,0.09,0.97,0.14,0.04,0.01,-0.07,-0.05,0.01,-0.03,1009.26
0.414,0.09,0.97,0.14,0.04,0.01,-0.07,-0.05,0.01,-0.03,1009.25
0.44,0.09,0.97,0.14,0.04,0.01,-0.07,-0.03,0.02,-0.02,1009.25
0.441,0.09,0.98,0.09,0.04,0.01,-0.07,-0.03,0.02,-0.02,1009.25
0.46,0.09,0.98,0.09,0.02,0.00,-0.05,-0.03,0.02,-0.02,1009.25
0.461,0.08,0.98,0.10,0.02,0.00,-0.05,-0.03,0.02,-0.02,1009.25
0.491,0.10,0.97,0.10,0.02,0.00,-0.05,-0.03,0.02,-0.02,1009.25
0.492,0.11,0.96,0.11,0.02,0.00,-0.05,-0.03,0.02,-0.02,1009.25
0.493,0.11,0.96,0.11,0.02,0.00,-0.05,-0.03,0.02,-0.02,1009.27
0.51,0.11,0.96,0.11,0.02,0.00,-0.05,-0.02,0.01,-0.02,1009.27
0.53,0.09,0.97,0.13,0.02,0.00,-0.05,-0.02,0.01,-0.02,1009.27
0.531,0.10,0.98,0.09,0.02,0.00,-0.05,-0.02,0.01,-0.02,1009.27
0.532,0.10,0.98,0.09,-0.02,0.01,0.01,-0.02,0.01,-0.02,1009.27
0.565,0.10,0.97,0.06,-0.02,0.01,0.01,-0.02,0.01,-0.02,1009.27
0.572,0.08,0.96,0.13,-0.02,0.01,0.01,-0.02,0.01,-0.02,1009.27
0.573,0.08,0.96,0.13,-0.02,0.01,0.01,-0.02,0.01,-0.02,1009.30
0.58,0.08,0.96,0.13,-0.02,0.01,0.01,-0.04,-0.01,-0.04,1009.30
0.6,0.08,0.96,0.13,0.10,-0.07,-0.00,-0.04,-0.01,-0.04,1009.30
0.602,0.10,0.97,0.08,0.10,-0.07,-0.00,-0.04,-0.01,-0.04,1009.30
0.612,0.10,0.97,0.13,0.10,-0.07,-0.00,-0.04,-0.01,-0.04,1009.30
0.613,0.10,0.97,0.13,0.10,-0.07,-0.00,-0.04,-0.01,-0.04,1009.28
0.65,0.10,0.97,0.13,0.10,-0.07,-0.00,-0.07,-0.01,-0.05,1009.28
0.651,0.08,0.97,0.11,0.10,-0.07,-0.00,-0.07,-0.01,-0.05,1009.28
0.67,0.08,0.97,0.11,0.06,-0.04,-0.14,-0.07,-0.01,-0.05,1009.28
0.672,0.07,0.99,0.10,0.06,-0.04,-0.14,-0.07,-0.01,-0.05,1009.28
0.672,0.09,0.97,0.15,0.06,-0.04,-0.14,-0.07,-0.01,-0.05,1009.28
0.693,0.08,0.96,0.13,0.06,-0.04,-0.14,-0.07,-0.01,-0.05,1009.28
0.694,0.08,0.96,0.13,0.06,-0.04,-0.14,-0.07,-0.01,-0.05,1009.26
0.72,0.09,0.97,0.14,0.06,-0.04,-0.14,-0.07,-0.01,-0.05,1009.26
0.721,0.09,0.97,0.14,0.06,-0.04,-0.14,0.01,0.01,-0.02,1009.26
0.74,0.09,0.97,0.14,-0.03,0.04,0.10,0.01,0.01,-0.02,1009.26
0.741,0.09,0.97,0.12,-0.03,0.04,0.10,0.01,0.01,-0.02,1009.26
0.758,0.08,0.98,0.13,-0.03,0.04,0.10,0.01,0.01,-0.02,1009.26
0.772,0.10,0.98,0.11,-0.03,0.04,0.10,0.01,0.01,-0.02,1009.26
0.773,0.10,0.98,0.11,-0.03,0.04,0.10,0.01,0.01,-0.02,1009.24
0.79,0.10,0.98,0.11,-0.03,0.04,0.10,0.07,-0.01,-0.03,1009.24
0.811,0.08,0.99,0.07,-0.03,0.04,0.10,0.07,-0.01,-0.03,1009.24
0.813,0.09,0.98,0.15,-0.03,0.04,0.10,0.07,-0.01,-0.03,1009.24
0.814,0.09,0.98,0.15,0.01,-0.04,0.21,0.07,-0.01,-0.03,1009.24
0.814,0.09,0.98,0.15,0.01,-0.04,0.21,0.07,-0.01,-0.03,1009.25
0.85,0.09,0.97,0.16,0.01,-0.04,0.21,0.07,-0.01,-0.03,1009.25
0.852,0.09,0.98,0.13,0.01,-0.04,0.21,0.07,-0.01,-0.03,1009.25
0.861,0.09,0.98,0.13,0.01,-0.04,0.21,0.15,-0.03,-0.04,1009.25
0.88,0.08,1.00,0.10,0.01,-0.04,0.21,0.15,-0.03,-0.04,1009.25
0.881,0.08,1.00,0.10,0.06,0.07,0.15,0.15,-0.03,-0.04,1009.25
0.892,0.06,1.01,0.08,0.06,0.07,0.15,0.15,-0.03,-0.04,1009.25
0.892,0.06,1.01,0.08,0.06,0.07,0.15,0.15,-0.03,-0.04,1009.29
0.932,0.06,1.01,0.08,0.06,0.07,0.15,0.24,-0.05,-0.00,1009.29
0.933,0.02,1.03,0.06,0.06,0.07,0.15,0.24,-0.05,-0.00,1009.29
0.951,0.02,1.03,0.06,-0.01,0.08,0.32,0.24,-0.05,-0.00,1009.29
0.952,0.01,1.06,-0.01,-0.01,0.08,0.32,0.24,-0.05,-0.00,1009.29
0.952,-0.02,1.07,-0.05,-0.01,0.08,0.32,0.24,-0.05,-0.00,1009.29
0.973,-0.06,1.07,-0.05,-0.01,0.08,0.32,0.24,-0.05,-0.00,1009.29
0.974,-0.06,1.07,-0.05,-0.01,0.08,0.32,0.24,-0.05,-0.00,1009.26
1.001,-0.06,1.07,-0.05,-0.01,0.08,0.32,-0.11,-0.06,0.44,1009.26
1.002,0.04,1.08,-0.04,-0.01,0.08,0.32,-0.11,-0.06,0.44,1009.26
1.012,0.02,1.09,0.00,-0.01,0.08,0.32,-0.11,-0.06,0.44,1009.26
1.013,0.02,1.09,0.00,-0.01,0.08,0.32,-0.11,-0.06,0.44,1009.34
1.02,0.02,1.09,0.00,-1.13,0.74,-0.86,-0.11,-0.06,0.44,1009.34
1.07,0.02,1.09,0.00,-1.13,0.74,-0.86,-0.34,-0.02,1.03,1009.34
1.072,-0.00,1.12,0.06,-1.13,0.74,-0.86,-0.34,-0.02,1.03,1009.34
1.073,0.01,1.14,0.04,-1.13,0.74,-0.86,-0.34,-0.02,1.03,1009.34
1.09,0.01,1.14,0.04,-1.92,1.22,-1.32,-0.34,-0.02,1.03,1009.34
1.091,0.11,1.12,0.06,-1.92,1.22,-1.32,-0.34,-0.02,1.03,1009.34
1.092,0.13,1.06,0.02,-1.92,1.22,-1.32,-0.34,-0.02,1.03,1009.34
1.092,0.13,1.06,0.02,-1.92,1.22,-1.32,-0.34,-0.02,1.03,1009.33
1.141,0.13,1.06,0.02,-1.92,1.22,-1.32,-0.14,-0.68,1.18,1009.33
1.142,0.20,0.90,0.10,-1.92,1.22,-1.32,-0.14,-0.68,1.18,1009.33
1.143,0.07,0.78,0.09,-1.92,1.22,-1.32,-0.14,-0.68,1.18,1009.33
1.158,0.47,0.88,-0.01,-1.92,1.22,-1.32,-0.14,-0.68,1.18,1009.33
1.162,0.47,0.88,-0.01,-1.80,1.53,-0.47,-0.14,-0.68,1.18,1009.33
1.172,0.08,0.87,-0.12,-1.80,1.53,-0.47,-0.14,-0.68,1.18,1009.33
1.173,0.08,0.87,-0.12,-1.80,1.53,-0.47,-0.14,-0.68,1.18,1009.05
1.211,0.08,0.87,-0.12,-1.80,1.53,-0.47,0.62,-0.58,-0.62,1009.05
1.213,-0.36,0.90,-0.27,-1.80,1.53,-0.47,0.62,-0.58,-0.62,1009.05
1.214,-0.49,0.94,-0.18,-1.80,1.53,-0.47,0.62,-0.58,-0.62,1009.05
1.214,-0.49,0.94,-0.18,-1.80,1.53,-0.47,0.62,-0.58,-0.62,1009.10
1.23,-0.35,0.97,-0.08,-1.80,1.53,-0.47,0.62,-0.58,-0.62,1009.10
1.231,-0.35,0.97,-0.08,0.30,-1.12,-0.12,0.62,-0.58,-0.62,1009.10
1.281,-0.19,0.99,-0.05,0.30,-1.12,-0.12,0.62,-0.58,-0.62,1009.10
1.283,-0.06,1.02,-0.03,0.30,-1.12,-0.12,0.62,-0.58,-0.62,1009.10
1.283,-0.06,1.02,-0.03,0.30,-1.12,-0.12,0.34,-0.85,-0.84,1009.10
1.291,0.04,1.01,0.01,0.30,-1.12,-0.12,0.34,-0.85,-0.84,1009.10
1.292,0.04,1.01,0.01,0.30,-1.12,-0.12,0.34,-0.85,-0.84,1009.20
1.3,0.04,1.01,0.01,-4.61,-0.46,-1.78,0.34,-0.85,-0.84,1009.20
1.35,0.04,1.01,0.01,-4.61,-0.46,-1.78,0.18,-1.19,-0.98,1009.20
1.352,0.08,1.01,0.05,-4.61,-0.46,-1.78,0.18,-1.19,-0.98,1009.20
1.353,0.12,1.01,0.08,-4.61,-0.46,-1.78,0.18,-1.19,-0.98,1009.20
1.358,0.15,0.98,0.12,-4.61,-0.46,-1.78,0.18,-1.19,-0.98,1009.20
1.371,0.15,0.98,0.12,-1.08,0.25,-0.10,0.18,-1.19,-0.98,1009.20
1.372,0.18,0.95,0.17,-1.08,0.25,-0.10,0.18,-1.19,-0.98,1009.20
1.372,0.18,0.95,0.17,-1.08,0.25,-0.10,0.18,-1.19,-0.98,1009.23
1.413,0.18,0.95,0.17,-1.08,0.25,-0.10,0.18,-1.19,-0.98,1009.27
1.415,0.21,0.92,0.16,-1.08,0.25,-0.10,0.18,-1.19,-0.98,1009.27
1.415,0.27,0.86,0.16,-1.08,0.25,-0.10,0.18,-1.19,-0.98,1009.27
1.419,0.27,0.86,0.16,-1.08,0.25,-0.10,-0.23,-1.34,-0.78,1009.27
1.44,0.32,0.78,0.18,-1.08,0.25,-0.10,-0.23,-1.34,-0.78,1009.27
1.441,0.32,0.78,0.18,1.18,-0.02,0.98,-0.23,-1.34,-0.78,1009.27
1.491,0.32,0.78,0.18,1.18,-0.02,0.98,-0.36,-0.62,-0.09,1009.27
1.492,0.38,0.70,0.13,1.18,-0.02,0.98,-0.36,-0.62,-0.09,1009.27
1.493,0.37,0.66,0.07,1.18,-0.02,0.98,-0.36,-0.62,-0.09,1009.27
1.494,0.37,0.64,0.13,1.18,-0.02,0.98,-0.36,-0.62,-0.09,1009.27
1.494,0.37,0.64,0.13,1.18,-0.02,0.98,-0.36,-0.62,-0.09,1009.25
1.51,0.52,0.65,0.19,1.18,-0.02,0.98,-0.36,-0.62,-0.09,1009.25
1.511,0.52,0.65,0.19,2.36,-1.44,1.23,-0.36,-0.62,-0.09,1009.25
1.558,0.86,0.62,0.25,2.36,-1.44,1.23,-0.36,-0.62,-0.09,1009.25
1.56,1.25,0.58,0.28,2.36,-1.44,1.23,-0.36,-0.62,-0.09,1009.25
1.56,1.25,0.58,0.28,2.36,-1.44,1.23,0.00,0.77,0.67,1009.25
1.572,1.25,0.58,0.28,2.36,-1.44,1.23,0.00,0.77,0.67,1009.27
1.573,1.67,0.74,0.33,2.36,-1.44,1.23,0.00,0.77,0.67,1009.27
1.58,1.67,0.74,0.33,3.67,-3.13,0.96,0.00,0.77,0.67,1009.27
1.613,0.42,1.96,-0.57,3.67,-3.13,0.96,0.00,0.77,0.67,1009.27
1.614,-2.86,0.80,-0.53,3.67,-3.13,0.96,0.00,0.77,0.67,1009.27
1.615,-2.86,0.80,-0.53,3.67,-3.13,0.96,0.00,0.77,0.67,1010.00
1.63,-2.86,0.80,-0.53,3.67,-3.13,0.96,0.37,0.60,-0.45,1010.00
1.65,-2.86,0.80,-0.53,16.03,3.64,2.62,0.37,0.60,-0.45,1010.00
1.652,1.97,1.28,0.15,16.03,3.64,2.62,0.37,0.60,-0.45,1010.00
1.653,-0.41,0.92,-0.70,16.03,3.64,2.62,0.37,0.60,-0.45,1010.00
1.692,0.14,0.85,0.07,16.03,3.64,2.62,0.37,0.60,-0.45,1010.00
1.693,0.22,0.85,0.39,16.03,3.64,2.62,0.37,0.60,-0.45,1010.00
1.694,0.22,0.85,0.39,16.03,3.64,2.62,0.37,0.60,-0.45,1009.73
1.7,0.22,0.85,0.39,16.03,3.64,2.62,-0.38,0.11,0.44,1009.73
1.72,0.22,0.85,0.39,-9.94,-3.42,-5.50,-0.38,0.11,0.44,1009.73
1.722,0.07,0.95,0.15,-9.94,-3.42,-5.50,-0.38,0.11,0.44,1009.73
1.758,0.15,1.02,-0.01,-9.94,-3.42,-5.50,-0.38,0.11,0.44,1009.73
1.76,0.13,1.00,0.01,-9.94,-3.42,-5.50,-0.38,0.11,0.44,1009.73
1.77,0.13,1.00,0.01,-9.94,-3.42,-5.50,-0.05,0.02,0.11,1009.73
1.772,0.10,1.02,0.05,-9.94,-3.42,-5.50,-0.05,0.02,0.11,1009.73
1.772,0.10,1.02,0.05,-9.94,-3.42,-5.50,-0.05,0.02,0.11,1009.47
1.791,0.10,1.02,0.05,0.39,-0.64,1.23,-0.05,0.02,0.11,1009.47
1.792,0.10,1.04,-0.03,0.39,-0.64,1.23,-0.05,0.02,0.11,1009.47
1.812,0.10,0.99,0.03,0.39,-0.64,1.23,-0.05,0.02,0.11,1009.47
1.813,0.10,0.99,0.03,0.39,-0.64,1.23,-0.05,0.02,0.11,1009.48
1.84,0.10,0.99,0.03,0.39,-0.64,1.23,-0.08,-0.04,0.03,1009.48
1.841,0.09,0.97,0.09,0.39,-0.64,1.23,-0.08,-0.04,0.03,1009.48
1.86,0.07,0.97,0.09,0.39,-0.64,1.23,-0.08,-0.04,0.03,1009.48
1.861,0.07,0.97,0.09,0.08,0.48,-0.37,-0.08,-0.04,0.03,1009.48
1.891,0.10,0.97,0.08,0.08,0.48,-0.37,-0.08,-0.04,0.03,1009.48
1.892,0.11,0.97,0.02,0.08,0.48,-0.37,-0.08,-0.04,0.03,1009.48
1.893,0.11,0.97,0.02,0.08,0.48,-0.37,-0.08,-0.04,0.03,1009.37
1.91,0.11,0.97,0.02,0.08,0.48,-0.37,0.04,-0.06,0.03,1009.37
1.931,0.11,0.97,0.02,-0.22,0.07,0.30,0.04,-0.06,0.03,1009.37
1.932,0.10,0.98,0.03,-0.22,0.07,0.30,0.04,-0.06,0.03,1009.37
1.932,0.09,0.98,0.05,-0.22,0.07,0.30,0.04,-0.06,0.03,1009.37
1.958,0.08,0.99,0.06,-0.22,0.07,0.30,0.04,-0.06,0.03,1009.37
1.972,0.06,0.99,0.06,-0.22,0.07,0.30,0.04,-0.06,0.03,1009.37
1.973,0.06,0.99,0.06,-0.22,0.07,0.30,0.04,-0.06,0.03,1009.33
1.98,0.06,0.99,0.06,-0.22,0.07,0.30,0.07,-0.12,0.04,1009.33
2.001,0.06,0.99,0.06,-0.09,0.08,0.01,0.07,-0.12,0.04,1009.33
2.002,0.06,0.98,0.07,-0.09,0.08,0.01,0.07,-0.12,0.04,1009.33
2.013,0.08,0.97,0.05,-0.09,0.08,0.01,0.07,-0.12,0.04,1009.33
2.014,0.08,0.97,0.05,-0.09,0.08,0.01,0.07,-0.12,0.04,1009.34
2.052,0.08,0.97,0.05,-0.09,0.08,0.01,0.17,-0.13,0.17,1009.34
2.053,0.08,0.98,0.03,-0.09,0.08,0.01,0.17,-0.13,0.17,1009.34
2.071,0.08,0.98,0.03,-0.58,0.15,0.37,0.17,-0.13,0.17,1009.34
2.072,0.09,0.99,0.01,-0.58,0.15,0.37,0.17,-0.13,0.17,1009.34
2.072,0.10,0.99,0.01,-0.58,0.15,0.37,0.17,-0.13,0.17,1009.34
2.092,0.10,0.98,0.02,-0.58,0.15,0.37,0.17,-0.13,0.17,1009.34
2.093,0.10,0.98,0.02,-0.58,0.15,0.37,0.17,-0.13,0.17,1009.28
2.12,0.10,0.98,0.02,-0.58,0.15,0.37,0.14,-0.16,0.24,1009.28
2.122,0.10,0.99,0.00,-0.58,0.15,0.37,0.14,-0.16,0.24,1009.28
2.141,0.10,0.99,0.00,-0.52,0.18,0.05,0.14,-0.16,0.24,1009.28
2.142,0.04,1.01,-0.01,-0.52,0.18,0.05,0.14,-0.16,0.24,1009.28
2.158,0.02,1.06,-0.01,-0.52,0.18,0.05,0.14,-0.16,0.24,1009.28
2.172,-0.02,1.10,-0.08,-0.52,0.18,0.05,0.14,-0.16,0.24,1009.28
2.173,-0.02,1.10,-0.08,-0.52,0.18,0.05,0.14,-0.16,0.24,1009.36
2.19,-0.02,1.10,-0.08,-0.52,0.18,0.05,-0.03,-0.25,0.59,1009.36
2.211,-0.02,1.10,-0.08,-1.18,0.41,-0.17,-0.03,-0.25,0.59,1009.36
2.212,0.04,1.10,-0.11,-1.18,0.41,-0.17,-0.03,-0.25,0.59,1009.36
2.212,0.03,1.14,-0.12,-1.18,0.41,-0.17,-0.03,-0.25,0.59,1009.36
2.213,0.03,1.14,-0.12,-1.18,0.41,-0.17,-0.03,-0.25,0.59,1009.56
2.261,0.03,1.14,-0.12,-1.18,0.41,-0.17,-0.37,-0.02,1.48,1009.56
2.262,-0.04,1.20,-0.06,-1.18,0.41,-0.17,-0.37,-0.02,1.48,1009.56
2.262,-0.07,1.24,-0.02,-1.18,0.41,-0.17,-0.37,-0.02,1.48,1009.56
2.281,-0.07,1.24,-0.02,-2.88,1.78,-1.35,-0.37,-0.02,1.48,1009.56
2.282,-0.11,1.33,-0.04,-2.88,1.78,-1.35,-0.37,-0.02,1.48,1009.56
2.291,-0.21,1.40,-0.04,-2.88,1.78,-1.35,-0.37,-0.02,1.48,1009.56
2.292,-0.21,1.40,-0.04,-2.88,1.78,-1.35,-0.37,-0.02,1.48,1009.72
2.331,-0.37,1.47,-0.04,-2.88,1.78,-1.35,-0.37,-0.02,1.48,1009.72
2.333,-0.37,1.47,-0.04,-2.88,1.78,-1.35,-0.58,-0.23,3.29,1009.72
2.351,-0.56,1.46,0.12,-2.88,1.78,-1.35,-0.58,-0.23,3.29,1009.72
2.351,-0.52,1.52,0.11,-2.88,1.78,-1.35,-0.58,-0.23,3.29,1009.72
2.352,-0.52,1.52,0.11,-6.24,4.60,-1.06,-0.58,-0.23,3.29,1009.72
2.372,-0.52,1.52,0.11,-6.24,4.60,-1.06,-0.58,-0.23,3.29,1009.52
2.373,0.01,1.49,0.33,-6.24,4.60,-1.06,-0.58,-0.23,3.29,1009.52
2.401,0.21,1.31,0.49,-6.24,4.60,-1.06,-0.58,-0.23,3.29,1009.52
2.402,0.21,1.31,0.49,-6.24,4.60,-1.06,-0.77,-1.08,5.86,1009.52
2.412,-0.14,1.18,0.47,-6.24,4.60,-1.06,-0.77,-1.08,5.86,1009.52
2.412,-0.14,1.18,0.47,-6.24,4.60,-1.06,-0.77,-1.08,5.86,1008.50
2.42,-0.14,1.18,0.47,-12.44,9.41,0.18,-0.77,-1.08,5.86,1008.50
2.471,-0.14,1.18,0.47,-12.44,9.41,0.18,-0.36,-1.23,3.29,1008.50
2.472,-0.02,0.72,0.04,-12.44,9.41,0.18,-0.36,-1.23,3.29,1008.50
2.473,1.97,0.67,0.20,-12.44,9.41,0.18,-0.36,-1.23,3.29,1008.50
2.491,1.97,0.67,0.20,-8.24,7.77,3.68,-0.36,-1.23,3.29,1008.50
2.492,1.10,0.53,0.60,-8.24,7.77,3.68,-0.36,-1.23,3.29,1008.50
2.493,-0.12,0.60,0.19,-8.24,7.77,3.68,-0.36,-1.23,3.29,1008.50
2.494,-0.12,0.60,0.19,-8.24,7.77,3.68,-0.36,-1.23,3.29,1008.19
2.541,-0.12,0.60,0.19,-8.24,7.77,3.68,-0.01,0.65,-1.73,1008.19
2.543,-0.57,0.64,-0.18,-8.24,7.77,3.68,-0.01,0.65,-1.73,1008.19
2.543,-0.32,0.54,0.00,-8.24,7.77,3.68,-0.01,0.65,-1.73,1008.19
2.558,0.36,0.50,0.16,-8.24,7.77,3.68,-0.01,0.65,-1.73,1008.19
2.56,0.36,0.50,0.16,0.99,0.07,2.09,-0.01,0.65,-1.73,1008.19
2.572,0.63,0.49,0.19,0.99,0.07,2.09,-0.01,0.65,-1.73,1008.19
2.573,0.63,0.49,0.19,0.99,0.07,2.09,-0.01,0.65,-1.73,1008.88
2.611,0.63,0.49,0.19,0.99,0.07,2.09,0.32,1.37,-3.95,1008.88
2.613,0.25,0.51,0.09,0.99,0.07,2.09,0.32,1.37,-3.95,1008.88
2.613,-0.06,0.62,0.02,0.99,0.07,2.09,0.32,1.37,-3.95,1008.88
2.614,-0.06,0.62,0.02,0.99,0.07,2.09,0.32,1.37,-3.95,1009.11
2.631,0.14,0.76,0.02,0.99,0.07,2.09,0.32,1.37,-3.95,1009.11
2.632,0.14,0.76,0.02,-5.76,-2.33,-0.74,0.32,1.37,-3.95,1009.11
2.681,0.14,0.76,0.02,-5.76,-2.33,-0.74,0.79,0.67,-4.70,1009.11
2.682,0.39,0.84,0.12,-5.76,-2.33,-0.74,0.79,0.67,-4.70,1009.11
2.682,0.47,0.97,0.13,-5.76,-2.33,-0.74,0.79,0.67,-4.70,1009.11
2.691,0.42,1.11,0.07,-5.76,-2.33,-0.74,0.79,0.67,-4.70,1009.11
2.692,0.42,1.11,0.07,-5.76,-2.33,-0.74,0.79,0.67,-4.70,1009.24
2.7,0.42,1.11,0.07,-0.49,-3.00,0.01,0.79,0.67,-4.70,1009.24
2.754,0.42,1.11,0.07,-0.49,-3.00,0.01,0.74,0.63,-4.48,1009.24
2.756,0.33,1.29,0.06,-0.49,-3.00,0.01,0.74,0.63,-4.48,1009.24
2.757,0.34,1.39,0.12,-0.49,-3.00,0.01,0.74,0.63,-4.48,1009.24
2.758,0.38,1.46,0.08,-0.49,-3.00,0.01,0.74,0.63,-4.48,1009.24
2.771,0.38,1.46,0.08,4.28,0.64,0.67,0.74,0.63,-4.48,1009.24
2.773,0.53,1.54,0.01,4.28,0.64,0.67,0.74,0.63,-4.48,1009.24
2.773,0.53,1.54,0.01,4.28,0.64,0.67,0.74,0.63,-4.48,1009.25
2.813,0.53,1.54,0.01,4.28,0.64,0.67,0.74,0.63,-4.48,1009.21
2.814,1.22,1.42,0.17,4.28,0.64,0.67,0.74,0.63,-4.48,1009.21
2.815,2.16,0.93,0.38,4.28,0.64,0.67,0.74,0.63,-4.48,1009.21
2.82,2.16,0.93,0.38,4.28,0.64,0.67,0.44,1.51,-1.92,1009.21
2.841,2.16,0.93,0.38,4.90,4.84,0.77,0.44,1.51,-1.92,1009.21
2.842,2.53,0.47,0.39,4.90,4.84,0.77,0.44,1.51,-1.92,1009.21
2.892,2.53,0.47,0.39,4.90,4.84,0.77,-0.31,0.71,1.05,1009.21
2.894,2.21,0.28,0.37,4.90,4.84,0.77,-0.31,0.71,1.05,1009.21
2.894,1.63,0.24,0.21,4.90,4.84,0.77,-0.31,0.71,1.05,1009.21
2.895,1.08,2.54,1.29,4.90,4.84,0.77,-0.31,0.71,1.05,1009.21
2.895,1.08,2.54,1.29,4.90,4.84,0.77,-0.31,0.71,1.05,1009.41
2.912,0.80,0.77,0.05,4.90,4.84,0.77,-0.31,0.71,1.05,1009.41
2.912,0.80,0.77,0.05,19.37,-1.02,2.86,-0.31,0.71,1.05,1009.41
2.959,0.96,1.77,-0.73,19.37,-1.02,2.86,-0.31,0.71,1.05,1009.41
2.96,0.53,1.13,-0.70,19.37,-1.02,2.86,-0.31,0.71,1.05,1009.41
2.961,0.53,1.13,-0.70,19.37,-1.02,2.86,-0.19,0.15,0.73,1009.41
2.973,0.53,1.13,-0.70,19.37,-1.02,2.86,-0.19,0.15,0.73,1010.48
2.974,0.08,0.94,0.04,19.37,-1.02,2.86,-0.19,0.15,0.73,1010.48
2.982,0.08,0.94,0.04,11.83,0.95,4.26,-0.19,0.15,0.73,1010.48
3.013,0.08,0.94,0.04,11.83,0.95,4.26,-0.19,0.15,0.73,1009.57
3.015,0.10,0.97,0.30,11.83,0.95,4.26,-0.19,0.15,0.73,1009.57
3.015,0.14,0.98,0.14,11.83,0.95,4.26,-0.19,0.15,0.73,1009.57
3.031,0.14,0.98,0.14,11.83,0.95,4.26,-0.36,0.07,0.25,1009.57
3.051,0.14,0.98,0.14,3.48,2.75,-3.87,-0.36,0.07,0.25,1009.57
3.052,0.14,0.93,0.18,3.48,2.75,-3.87,-0.36,0.07,0.25,1009.57
3.053,0.14,0.94,0.20,3.48,2.75,-3.87,-0.36,0.07,0.25,1009.57
3.092,0.14,1.00,0.03,3.48,2.75,-3.87,-0.36,0.07,0.25,1009.57
3.093,0.14,0.99,-0.01,3.48,2.75,-3.87,-0.36,0.07,0.25,1009.57
3.094,0.14,0.99,-0.01,3.48,2.75,-3.87,-0.36,0.07,0.25,1009.17
3.102,0.14,0.99,-0.01,3.48,2.75,-3.87,0.04,-0.07,0.12,1009.17
3.121,0.10,0.97,0.08,3.48,2.75,-3.87,0.04,-0.07,0.12,1009.17
3.122,0.10,0.97,0.08,0.08,-0.01,1.06,0.04,-0.07,0.12,1009.17
3.158,0.10,0.95,0.13,0.08,-0.01,1.06,0.04,-0.07,0.12,1009.17
3.159,0.13,0.95,0.08,0.08,-0.01,1.06,0.04,-0.07,0.12,1009.17
3.171,0.13,0.95,0.08,0.08,-0.01,1.06,0.11,-0.11,0.13,1009.17
3.172,0.15,0.96,0.05,0.08,-0.01,1.06,0.11,-0.11,0.13,1009.17
3.172,0.15,0.96,0.05,0.08,-0.01,1.06,0.11,-0.11,0.13,1009.11
3.191,0.15,0.96,0.05,-0.09,0.29,-0.02,0.11,-0.11,0.13,1009.11
3.193,0.12,0.97,0.02,-0.09,0.29,-0.02,0.11,-0.11,0.13,1009.11
3.212,0.12,0.97,0.02,-0.09,0.29,-0.02,0.11,-0.11,0.13,1009.20
3.213,0.13,0.98,0.04,-0.09,0.29,-0.02,0.11,-0.11,0.13,1009.20
3.241,0.13,0.98,0.04,-0.09,0.29,-0.02,0.11,-0.13,0.13,1009.20
3.242,0.11,0.98,0.04,-0.09,0.29,-0.02,0.11,-0.13,0.13,1009.20
3.261,0.11,0.98,0.04,-0.14,0.06,0.18,0.11,-0.13,0.13,1009.20
3.262,0.10,0.98,0.03,-0.14,0.06,0.18,0.11,-0.13,0.13,1009.20
3.292,0.10,0.98,0.03,-0.14,0.06,0.18,0.11,-0.13,0.13,1009.28
3.293,0.13,0.98,0.02,-0.14,0.06,0.18,0.11,-0.13,0.13,1009.28
3.294,0.12,0.97,0.05,-0.14,0.06,0.18,0.11,-0.13,0.13,1009.28
3.311,0.12,0.97,0.05,-0.14,0.06,0.18,0.08,-0.09,0.26,1009.28
3.331,0.12,0.97,0.05,-0.46,0.30,-0.04,0.08,-0.09,0.26,1009.28
3.332,0.14,0.98,0.02,-0.46,0.30,-0.04,0.08,-0.09,0.26,1009.28
3.332,0.15,1.00,-0.01,-0.46,0.30,-0.04,0.08,-0.09,0.26,1009.28
3.358,0.11,1.01,0.02,-0.46,0.30,-0.04,0.08,-0.09,0.26,1009.28
3.373,0.09,1.03,0.01,-0.46,0.30,-0.04,0.08,-0.09,0.26,1009.28
3.375,0.09,1.03,0.01,-0.46,0.30,-0.04,0.08,-0.09,0.26,1009.44
3.381,0.09,1.03,0.01,-0.46,0.30,-0.04,0.06,-0.01,0.43,1009.44
3.402,0.09,1.03,0.01,-0.58,0.36,-0.10,0.06,-0.01,0.43,1009.44
3.403,0.09,1.05,-0.02,-0.58,0.36,-0.10,0.06,-0.01,0.43,1009.44
3.412,0.05,1.08,-0.00,-0.58,0.36,-0.10,0.06,-0.01,0.43,1009.44
3.413,0.05,1.08,-0.00,-0.58,0.36,-0.10,0.06,-0.01,0.43,1009.59
3.456,0.05,1.08,-0.00,-0.58,0.36,-0.10,-0.05,0.07,1.01,1009.59
3.458,0.06,1.11,-0.04,-0.58,0.36,-0.10,-0.05,0.07,1.01,1009.59
3.471,0.06,1.11,-0.04,-1.79,1.07,-0.35,-0.05,0.07,1.01,1009.59
3.473,0.09,1.14,-0.06,-1.79,1.07,-0.35,-0.05,0.07,1.01,1009.59
3.473,0.04,1.17,-0.02,-1.79,1.07,-0.35,-0.05,0.07,1.01,1009.59
3.492,-0.01,1.21,0.00,-1.79,1.07,-0.35,-0.05,0.07,1.01,1009.59
3.493,-0.01,1.21,0.00,-1.79,1.07,-0.35,-0.05,0.07,1.01,1009.67
3.521,-0.01,1.21,0.00,-1.79,1.07,-0.35,-0.15,-0.10,2.10,1009.67
3.522,-0.12,1.39,-0.08,-1.79,1.07,-0.35,-0.15,-0.10,2.10,1009.67
3.541,-0.31,1.51,-0.06,-1.79,1.07,-0.35,-0.15,-0.10,2.10,1009.67
3.542,-0.31,1.51,-0.06,-3.69,2.64,-0.79,-0.15,-0.10,2.10,1009.67
3.558,-0.62,1.66,-0.08,-3.69,2.64,-0.79,-0.15,-0.10,2.10,1009.67
3.573,-0.51,1.69,0.03,-3.69,2.64,-0.79,-0.15,-0.10,2.10,1009.67
3.575,-0.51,1.69,0.03,-3.69,2.64,-0.79,-0.15,-0.10,2.10,1009.36
3.591,-0.51,1.69,0.03,-3.69,2.64,-0.79,-0.38,-0.47,4.77,1009.36
3.611,-0.03,1.63,0.25,-3.69,2.64,-0.79,-0.38,-0.47,4.77,1009.36
3.613,0.17,1.26,0.54,-3.69,2.64,-0.79,-0.38,-0.47,4.77,1009.36
3.613,0.17,1.26,0.54,-9.02,7.49,-0.91,-0.38,-0.47,4.77,1009.36
3.614,0.17,1.26,0.54,-9.02,7.49,-0.91,-0.38,-0.47,4.77,1008.85
3.661,0.17,1.26,0.54,-9.02,7.49,-0.91,0.63,-0.40,6.11,1008.85
3.662,-0.09,1.08,0.77,-9.02,7.49,-0.91,0.63,-0.40,6.11,1008.85
3.663,-0.19,0.42,0.40,-9.02,7.49,-0.91,0.63,-0.40,6.11,1008.85
3.682,-0.19,0.42,0.40,-10.43,11.07,2.18,0.63,-0.40,6.11,1008.85
3.683,2.68,0.79,0.25,-10.43,11.07,2.18,0.63,-0.40,6.11,1008.85
3.692,2.68,0.79,0.25,-10.43,11.07,2.18,0.63,-0.40,6.11,1008.47
3.693,0.89,0.61,0.31,-10.43,11.07,2.18,0.63,-0.40,6.11,1008.47
3.731,0.89,0.61,0.31,-10.43,11.07,2.18,1.48,0.93,-1.43,1008.47
3.733,-0.32,0.51,0.22,-10.43,11.07,2.18,1.48,0.93,-1.43,1008.47
3.756,-0.68,0.46,0.05,-10.43,11.07,2.18,1.48,0.93,-1.43,1008.47
3.758,-0.29,0.42,0.22,-10.43,11.07,2.18,1.48,0.93,-1.43,1008.47
3.759,-0.29,0.42,0.22,1.20,2.19,4.21,1.48,0.93,-1.43,1008.47
3.775,0.39,0.44,0.38,1.20,2.19,4.21,1.48,0.93,-1.43,1008.47
3.776,0.39,0.44,0.38,1.20,2.19,4.21,1.48,0.93,-1.43,1008.88
3.801,0.39,0.44,0.38,1.20,2.19,4.21,1.77,1.39,-2.94,1008.88
3.803,0.56,0.42,0.44,1.20,2.19,4.21,1.77,1.39,-2.94,1008.88
3.812,0.17,0.45,0.40,1.20,2.19,4.21,1.77,1.39,-2.94,1008.88
3.813,0.17,0.45,0.40,1.20,2.19,4.21,1.77,1.39,-2.94,1009.15
3.821,0.17,0.45,0.40,-9.30,-2.61,1.50,1.77,1.39,-2.94,1009.15
3.85,-0.01,0.63,0.33,-9.30,-2.61,1.50,1.77,1.39,-2.94,1009.15
3.871,-0.01,0.63,0.33,-9.30,-2.61,1.50,1.86,1.73,-4.75,1009.15
3.873,0.18,0.76,0.45,-9.30,-2.61,1.50,1.86,1.73,-4.75,1009.15
3.893,0.37,0.88,0.54,-9.30,-2.61,1.50,1.86,1.73,-4.75,1009.15
3.894,0.42,1.05,0.48,-9.30,-2.61,1.50,1.86,1.73,-4.75,1009.15
3.894,0.42,1.05,0.48,-0.14,-4.14,3.98,1.86,1.73,-4.75,1009.15
3.895,0.42,1.05,0.48,-0.14,-4.14,3.98,1.86,1.73,-4.75,1009.27
3.942,0.42,1.05,0.48,-0.14,-4.14,3.98,1.24,1.98,-4.87,1009.27
3.944,0.27,1.25,0.40,-0.14,-4.14,3.98,1.24,1.98,-4.87,1009.27
3.944,0.17,1.41,0.42,-0.14,-4.14,3.98,1.24,1.98,-4.87,1009.27
3.96,0.29,1.53,0.40,-0.14,-4.14,3.98,1.24,1.98,-4.87,1009.27
3.962,0.29,1.53,0.40,2.34,-0.73,4.93,1.24,1.98,-4.87,1009.27
3.975,0.59,1.59,0.31,2.34,-0.73,4.93,1.24,1.98,-4.87,1009.27
3.976,0.59,1.59,0.31,2.34,-0.73,4.93,1.24,1.98,-4.87,1009.27
4.012,0.59,1.59,0.31,2.34,-0.73,4.93,0.32,2.02,-3.55,1009.27
4.014,0.97,1.61,0.28,2.34,-0.73,4.93,0.32,2.02,-3.55,1009.27
4.015,1.02,1.47,0.47,2.34,-0.73,4.93,0.32,2.02,-3.55,1009.27
4.015,1.02,1.47,0.47,2.34,-0.73,4.93,0.32,2.02,-3.55,1009.15
4.031,1.71,0.91,0.76,2.34,-0.73,4.93,0.32,2.02,-3.55,1009.15
4.032,1.71,0.91,0.76,3.91,4.74,4.38,0.32,2.02,-3.55,1009.15
4.082,1.71,0.91,0.76,3.91,4.74,4.38,-0.19,1.29,-0.22,1009.15
4.083,2.42,0.63,0.49,3.91,4.74,4.38,-0.19,1.29,-0.22,1009.15
4.084,2.42,0.51,0.26,3.91,4.74,4.38,-0.19,1.29,-0.22,1009.15
4.092,1.59,0.45,0.30,3.91,4.74,4.38,-0.19,1.29,-0.22,1009.15
4.093,1.59,0.45,0.30,3.91,4.74,4.38,-0.19,1.29,-0.22,1009.30
4.102,1.59,0.45,0.30,11.77,4.10,4.88,-0.19,1.29,-0.22,1009.30
4.157,1.59,0.45,0.30,11.77,4.10,4.88,-0.55,0.62,1.66,1009.30
4.159,-0.28,2.17,-0.51,11.77,4.10,4.88,-0.55,0.62,1.66,1009.30
4.159,1.87,0.55,0.02,11.77,4.10,4.88,-0.55,0.62,1.66,1009.30
4.16,0.01,1.71,-0.06,11.77,4.10,4.88,-0.55,0.62,1.66,1009.30
4.172,0.73,1.11,-0.27,11.77,4.10,4.88,-0.55,0.62,1.66,1009.30
4.173,0.73,1.11,-0.27,17.36,-0.25,3.69,-0.55,0.62,1.66,1009.30
4.174,0.73,1.11,-0.27,17.36,-0.25,3.69,-0.55,0.62,1.66,1009.66
4.213,0.73,1.11,-0.27,17.36,-0.25,3.69,-0.55,0.62,1.66,1009.50
4.214,0.16,0.95,-0.25,17.36,-0.25,3.69,-0.55,0.62,1.66,1009.50
4.215,0.06,0.94,0.36,17.36,-0.25,3.69,-0.55,0.62,1.66,1009.50
4.221,0.06,0.94,0.36,17.36,-0.25,3.69,-0.57,0.23,0.35,1009.50
4.242,0.12,0.97,0.09,17.36,-0.25,3.69,-0.57,0.23,0.35,1009.50
4.243,0.12,0.97,0.09,5.74,1.56,-3.71,-0.57,0.23,0.35,1009.50
4.292,0.12,0.97,0.09,5.74,1.56,-3.71,-0.16,0.01,0.09,1009.50
4.294,0.13,0.95,0.13,5.74,1.56,-3.71,-0.16,0.01,0.09,1009.50
4.295,0.14,0.97,0.09,5.74,1.56,-3.71,-0.16,0.01,0.09,1009.50
4.295,0.12,1.01,-0.01,5.74,1.56,-3.71,-0.16,0.01,0.09,1009.50
4.296,0.12,1.01,-0.01,5.74,1.56,-3.71,-0.16,0.01,0.09,1009.23
4.312,0.10,1.01,0.01,5.74,1.56,-3.71,-0.16,0.01,0.09,1009.23
4.313,0.10,1.01,0.01,0.28,0.07,0.25,-0.16,0.01,0.09,1009.23
4.359,0.08,0.98,0.08,0.28,0.07,0.25,-0.16,0.01,0.09,1009.23
4.361,0.08,0.96,0.09,0.28,0.07,0.25,-0.16,0.01,0.09,1009.23
4.361,0.08,0.96,0.09,0.28,0.07,0.25,-0.06,-0.06,0.05,1009.23
4.373,0.09,0.97,0.06,0.28,0.07,0.25,-0.06,-0.06,0.05,1009.23
4.374,0.09,0.97,0.06,0.28,0.07,0.25,-0.06,-0.06,0.05,1009.21
4.382,0.09,0.97,0.06,0.26,0.39,-0.14,-0.06,-0.06,0.05,1009.21
4.413,0.09,0.97,0.06,0.26,0.39,-0.14,-0.06,-0.06,0.05,1009.16
4.414,0.10,0.98,0.02,0.26,0.39,-0.14,-0.06,-0.06,0.05,1009.16
4.415,0.09,0.99,0.01,0.26,0.39,-0.14,-0.06,-0.06,0.05,1009.16
4.431,0.09,0.99,0.01,0.26,0.39,-0.14,0.00,0.01,0.12,1009.16
4.459,0.09,0.98,0.04,0.26,0.39,-0.14,0.00,0.01,0.12,1009.16
4.46,0.10,0.96,0.07,0.26,0.39,-0.14,0.00,0.01,0.12,1009.16
4.461,0.10,0.96,0.07,-0.16,0.18,0.15,0.00,0.01,0.12,1009.16
4.493,0.10,0.98,0.06,-0.16,0.18,0.15,0.00,0.01,0.12,1009.16
4.495,0.10,0.99,0.05,-0.16,0.18,0.15,0.00,0.01,0.12,1009.16
4.495,0.10,0.99,0.05,-0.16,0.18,0.15,0.00,0.01,0.12,1009.15
4.501,0.10,0.99,0.05,-0.16,0.18,0.15,0.04,0.01,0.19,1009.15
4.523,0.12,0.98,0.04,-0.16,0.18,0.15,0.04,0.01,0.19,1009.15
4.524,0.12,0.98,0.04,-0.18,0.30,-0.14,0.04,0.01,0.19,1009.15
4.559,0.13,0.98,0.04,-0.18,0.30,-0.14,0.04,0.01,0.19,1009.15
4.56,0.11,0.98,0.06,-0.18,0.30,-0.14,0.04,0.01,0.19,1009.15
4.572,0.11,0.98,0.06,-0.18,0.30,-0.14,0.07,-0.00,0.25,1009.15
4.573,0.09,0.99,0.04,-0.18,0.30,-0.14,0.07,-0.00,0.25,1009.15
4.575,0.09,0.99,0.04,-0.18,0.30,-0.14,0.07,-0.00,0.25,1009.25
4.592,0.09,0.99,0.04,-0.24,0.32,0.00,0.07,-0.00,0.25,1009.25
4.593,0.08,1.02,0.02,-0.24,0.32,0.00,0.07,-0.00,0.25,1009.25
4.613,0.07,1.05,-0.03,-0.24,0.32,0.00,0.07,-0.00,0.25,1009.25
4.614,0.07,1.05,-0.03,-0.24,0.32,0.00,0.07,-0.00,0.25,1009.41
4.642,0.07,1.05,-0.03,-0.24,0.32,0.00,0.09,-0.01,0.54,1009.41
4.644,0.04,1.07,-0.02,-0.24,0.32,0.00,0.09,-0.01,0.54,1009.41
4.662,0.04,1.07,-0.02,-0.81,0.50,0.02,0.09,-0.01,0.54,1009.41
4.663,0.02,1.07,-0.00,-0.81,0.50,0.02,0.09,-0.01,0.54,1009.41
4.692,0.02,1.07,-0.00,-0.81,0.50,0.02,0.09,-0.01,0.54,1009.44
4.694,0.03,1.09,-0.00,-0.81,0.50,0.02,0.09,-0.01,0.54,1009.44
4.694,0.04,1.12,-0.02,-0.81,0.50,0.02,0.09,-0.01,0.54,1009.44
4.711,0.04,1.12,-0.02,-0.81,0.50,0.02,0.06,0.04,1.31,1009.44
4.732,0.04,1.12,-0.02,-2.32,1.45,-0.50,0.06,0.04,1.31,1009.44
4.733,0.04,1.13,0.03,-2.32,1.45,-0.50,0.06,0.04,1.31,1009.44
4.734,0.02,1.15,0.04,-2.32,1.45,-0.50,0.06,0.04,1.31,1009.44
4.759,-0.05,1.29,-0.03,-2.32,1.45,-0.50,0.06,0.04,1.31,1009.44
4.773,-0.23,1.45,-0.07,-2.32,1.45,-0.50,0.06,0.04,1.31,1009.44
4.774,-0.23,1.45,-0.07,-2.32,1.45,-0.50,0.06,0.04,1.31,1009.49
4.781,-0.23,1.45,-0.07,-2.32,1.45,-0.50,0.03,-0.10,2.54,1009.49
4.802,-0.42,1.51,-0.07,-2.32,1.45,-0.50,0.03,-0.10,2.54,1009.49
4.803,-0.42,1.51,-0.07,-4.28,2.82,-0.17,0.03,-0.10,2.54,1009.49
4.812,-0.42,1.51,-0.07,-4.28,2.82,-0.17,0.03,-0.10,2.54,1009.44
4.814,-0.37,1.51,-0.03,-4.28,2.82,-0.17,0.03,-0.10,2.54,1009.44
4.85,-0.01,1.52,0.06,-4.28,2.82,-0.17,0.03,-0.10,2.54,1009.44
4.851,-0.01,1.52,0.06,-4.28,2.82,-0.17,-0.17,-0.32,4.98,1009.44
4.872,-0.01,1.52,0.06,-9.77,8.01,-0.72,-0.17,-0.32,4.98,1009.44
4.873,0.17,1.37,0.33,-9.77,8.01,-0.72,-0.17,-0.32,4.98,1009.44
4.874,0.18,1.10,0.52,-9.77,8.01,-0.72,-0.17,-0.32,4.98,1009.44
4.892,-0.03,0.97,0.73,-9.77,8.01,-0.72,-0.17,-0.32,4.98,1009.44
4.893,-0.03,0.97,0.73,-9.77,8.01,-0.72,-0.17,-0.32,4.98,1008.97
4.922,0.64,0.22,0.32,-9.77,8.01,-0.72,-0.17,-0.32,4.98,1008.97
4.923,0.64,0.22,0.32,-9.77,8.01,-0.72,1.02,0.13,5.32,1008.97
4.942,0.64,0.22,0.32,-7.68,8.85,2.45,1.02,0.13,5.32,1008.97
4.943,2.63,1.18,0.30,-7.68,8.85,2.45,1.02,0.13,5.32,1008.97
4.959,0.02,0.59,0.21,-7.68,8.85,2.45,1.02,0.13,5.32,1008.97
4.978,-0.62,0.60,0.06,-7.68,8.85,2.45,1.02,0.13,5.32,1008.97
4.979,-0.62,0.60,0.06,-7.68,8.85,2.45,1.02,0.13,5.32,1008.85
4.992,-0.62,0.60,0.06,-7.68,8.85,2.45,1.10,1.45,-1.70,1008.85
5.012,-0.62,0.60,0.06,1.90,1.88,3.33,1.10,1.45,-1.70,1008.85
5.014,-0.62,0.60,0.06,1.90,1.88,3.33,1.10,1.45,-1.70,1009.10
5.014,-0.58,0.57,0.08,1.90,1.88,3.33,1.10,1.45,-1.70,1009.10
5.015,0.04,0.54,0.24,1.90,1.88,3.33,1.10,1.45,-1.70,1009.10
5.062,0.04,0.54,0.24,1.90,1.88,3.33,0.93,1.32,-3.29,1009.10
5.063,0.58,0.53,0.30,1.90,1.88,3.33,0.93,1.32,-3.29,1009.10
5.064,0.19,0.50,0.20,1.90,1.88,3.33,0.93,1.32,-3.29,1009.10
5.082,0.19,0.50,0.20,-9.07,-1.70,0.62,0.93,1.32,-3.29,1009.10
5.083,-0.10,0.62,0.07,-9.07,-1.70,0.62,0.93,1.32,-3.29,1009.10
5.092,0.06,0.72,0.10,-9.07,-1.70,0.62,0.93,1.32,-3.29,1009.10
5.094,0.06,0.72,0.10,-9.07,-1.70,0.62,0.93,1.32,-3.29,1009.24
5.132,0.32,0.84,0.16,-9.07,-1.70,0.62,0.93,1.32,-3.29,1009.24
5.133,0.32,0.84,0.16,-9.07,-1.70,0.62,0.99,1.07,-4.55,1009.24
5.152,0.32,0.84,0.16,-0.89,-3.18,1.18,0.99,1.07,-4.55,1009.24
5.153,0.35,0.94,0.15,-0.89,-3.18,1.18,0.99,1.07,-4.55,1009.24
5.153,0.30,1.07,0.12,-0.89,-3.18,1.18,0.99,1.07,-4.55,1009.24
5.172,0.35,1.22,0.19,-0.89,-3.18,1.18,0.99,1.07,-4.55,1009.24
5.173,0.35,1.22,0.19,-0.89,-3.18,1.18,0.99,1.07,-4.55,1009.19
5.202,0.35,1.22,0.19,-0.89,-3.18,1.18,1.35,0.85,-4.93,1009.19
5.203,0.32,1.36,0.18,-0.89,-3.18,1.18,1.35,0.85,-4.93,1009.19
5.212,0.32,1.36,0.18,-0.89,-3.18,1.18,1.35,0.85,-4.93,1009.35
5.214,0.08,1.61,-0.02,-0.89,-3.18,1.18,1.35,0.85,-4.93,1009.35
5.222,0.08,1.61,-0.02,3.09,-0.17,1.56,1.35,0.85,-4.93,1009.35
5.273,0.08,1.61,-0.02,3.09,-0.17,1.56,0.82,1.01,-3.40,1009.35
5.274,0.65,1.84,-0.01,3.09,-0.17,1.56,0.82,1.01,-3.40,1009.35
5.275,1.39,1.52,0.31,3.09,-0.17,1.56,0.82,1.01,-3.40,1009.35
5.293,1.28,1.38,0.28,3.09,-0.17,1.56,0.82,1.01,-3.40,1009.35
5.294,1.28,1.38,0.28,4.12,5.19,1.50,0.82,1.01,-3.40,1009.35
5.295,1.28,1.38,0.28,4.12,5.19,1.50,0.82,1.01,-3.40,1009.46
5.295,1.66,0.94,0.49,4.12,5.19,1.50,0.82,1.01,-3.40,1009.46
5.342,1.66,0.94,0.49,4.12,5.19,1.50,-0.07,1.18,0.78,1009.46
5.344,2.92,0.30,0.76,4.12,5.19,1.50,-0.07,1.18,0.78,1009.46
5.345,2.41,0.26,0.43,4.12,5.19,1.50,-0.07,1.18,0.78,1009.46
5.358,1.27,0.52,0.27,4.12,5.19,1.50,-0.07,1.18,0.78,1009.46
5.362,1.27,0.52,0.27,13.56,3.98,3.52,-0.07,1.18,0.78,1009.46
5.378,1.16,2.33,0.44,13.56,3.98,3.52,-0.07,1.18,0.78,1009.46
5.379,1.16,2.33,0.44,13.56,3.98,3.52,-0.07,1.18,0.78,1009.30
5.413,1.16,2.33,0.44,13.56,3.98,3.52,-0.71,0.65,1.38,1009.30
5.414,-1.17,0.92,-0.63,13.56,3.98,3.52,-0.71,0.65,1.38,1009.30
5.415,-1.17,0.92,-0.63,13.56,3.98,3.52,-0.71,0.65,1.38,1009.50
5.416,1.26,1.48,0.71,13.56,3.98,3.52,-0.71,0.65,1.38,1009.50
5.432,0.23,1.04,-0.36,13.56,3.98,3.52,-0.71,0.65,1.38,1009.50
5.433,0.23,1.04,-0.36,19.07,-2.86,4.71,-0.71,0.65,1.38,1009.50
5.482,0.23,1.04,-0.36,19.07,-2.86,4.71,-0.43,0.20,0.56,1009.50
5.484,0.13,0.99,-0.22,19.07,-2.86,4.71,-0.43,0.20,0.56,1009.50
5.485,0.15,0.97,0.25,19.07,-2.86,4.71,-0.43,0.20,0.56,1009.50
5.492,0.19,0.94,0.10,19.07,-2.86,4.71,-0.43,0.20,0.56,1009.50
5.493,0.19,0.94,0.10,19.07,-2.86,4.71,-0.43,0.20,0.56,1009.28
5.502,0.19,0.94,0.10,1.93,3.44,-0.54,-0.43,0.20,0.56,1009.28
5.552,0.19,0.96,0.05,1.93,3.44,-0.54,-0.43,0.20,0.56,1009.28
5.554,0.15,0.98,0.06,1.93,3.44,-0.54,-0.43,0.20,0.56,1009.28
5.555,0.15,0.98,0.06,1.93,3.44,-0.54,-0.14,0.01,0.21,1009.28
5.563,0.14,0.98,0.05,1.93,3.44,-0.54,-0.14,0.01,0.21,1009.28
5.574,0.10,0.96,0.12,1.93,3.44,-0.54,-0.14,0.01,0.21,1009.28
5.575,0.10,0.96,0.12,1.93,3.44,-0.54,-0.14,0.01,0.21,1009.20
5.576,0.10,0.96,0.12,0.49,0.14,0.09,-0.14,0.01,0.21,1009.20
5.613,0.10,0.96,0.12,0.49,0.14,0.09,-0.14,0.01,0.21,1009.24
5.614,0.13,0.96,0.08,0.49,0.14,0.09,-0.14,0.01,0.21,1009.24
5.615,0.17,0.98,0.00,0.49,0.14,0.09,-0.14,0.01,0.21,1009.24
5.623,0.17,0.98,0.00,0.49,0.14,0.09,0.10,-0.03,0.18,1009.24
5.642,0.17,0.97,-0.01,0.49,0.14,0.09,0.10,-0.03,0.18,1009.24
5.644,0.17,0.97,-0.01,0.17,0.25,0.45,0.10,-0.03,0.18,1009.24
5.692,0.14,0.98,0.01,0.17,0.25,0.45,0.10,-0.03,0.18,1009.24
5.694,0.13,0.97,0.01,0.17,0.25,0.45,0.10,-0.03,0.18,1009.24
5.694,0.14,0.98,-0.01,0.17,0.25,0.45,0.10,-0.03,0.18,1009.24
5.695,0.14,0.98,-0.01,0.17,0.25,0.45,0.14,-0.03,0.14,1009.24
5.695,0.14,0.98,-0.01,0.17,0.25,0.45,0.14,-0.03,0.14,1009.30
5.712,0.15,0.98,-0.03,0.17,0.25,0.45,0.14,-0.03,0.14,1009.30
5.714,0.15,0.98,-0.03,0.27,0.24,0.02,0.14,-0.03,0.14,1009.30
5.763,0.15,0.96,-0.01,0.27,0.24,0.02,0.14,-0.03,0.14,1009.30
5.764,0.12,0.97,0.00,0.27,0.24,0.02,0.14,-0.03,0.14,1009.30
5.765,0.12,0.97,0.00,0.27,0.24,0.02,0.11,-0.02,0.17,1009.30
5.774,0.12,0.97,0.03,0.27,0.24,0.02,0.11,-0.02,0.17,1009.30
5.776,0.12,0.97,0.03,0.27,0.24,0.02,0.11,-0.02,0.17,1009.31
5.782,0.12,0.97,0.03,-0.03,0.30,-0.12,0.11,-0.02,0.17,1009.31
5.813,0.12,0.97,0.03,-0.03,0.30,-0.12,0.11,-0.02,0.17,1009.39
5.814,0.16,0.96,0.02,-0.03,0.30,-0.12,0.11,-0.02,0.17,1009.39
5.815,0.17,0.96,0.00,-0.03,0.30,-0.12,0.11,-0.02,0.17,1009.39
5.832,0.17,0.96,0.00,-0.03,0.30,-0.12,0.19,-0.01,0.27,1009.39
5.849,0.16,0.99,-0.01,-0.03,0.30,-0.12,0.19,-0.01,0.27,1009.39
5.852,0.12,1.00,-0.01,-0.03,0.30,-0.12,0.19,-0.01,0.27,1009.39
5.853,0.12,1.00,-0.01,-0.26,0.24,0.18,0.19,-0.01,0.27,1009.39
5.893,0.10,1.04,-0.05,-0.26,0.24,0.18,0.19,-0.01,0.27,1009.39
5.895,0.10,1.04,-0.05,-0.26,0.24,0.18,0.19,-0.01,0.27,1009.45
5.895,0.07,1.06,-0.07,-0.26,0.24,0.18,0.19,-0.01,0.27,1009.45
5.902,0.07,1.06,-0.07,-0.26,0.24,0.18,0.27,-0.02,0.55,1009.45
5.922,0.04,1.09,-0.08,-0.26,0.24,0.18,0.27,-0.02,0.55,1009.45
5.923,0.04,1.09,-0.08,-0.57,0.47,0.19,0.27,-0.02,0.55,1009.45
5.963,0.07,1.11,-0.10,-0.57,0.47,0.19,0.27,-0.02,0.55,1009.45
5.964,0.09,1.14,-0.12,-0.57,0.47,0.19,0.27,-0.02,0.55,1009.45
5.973,0.09,1.14,-0.12,-0.57,0.47,0.19,0.25,0.09,1.38,1009.45
5.974,0.09,1.14,-0.12,-0.57,0.47,0.19,0.25,0.09,1.38,1009.40
5.974,0.04,1.24,-0.13,-0.57,0.47,0.19,0.25,0.09,1.38,1009.40
5.993,0.04,1.24,-0.13,-2.44,1.62,-0.30,0.25,0.09,1.38,1009.40
5.994,-0.08,1.40,-0.17,-2.44,1.62,-0.30,0.25,0.09,1.38,1009.40
6.013,-0.27,1.53,-0.15,-2.44,1.62,-0.30,0.25,0.09,1.38,1009.40
6.014,-0.27,1.53,-0.15,-2.44,1.62,-0.30,0.25,0.09,1.38,1009.46
6.042,-0.27,1.53,-0.15,-2.44,1.62,-0.30,0.16,0.06,3.16,1009.46
6.044,-0.48,1.54,-0.09,-2.44,1.62,-0.30,0.16,0.06,3.16,1009.46
6.062,-0.40,1.51,0.03,-2.44,1.62,-0.30,0.16,0.06,3.16,1009.46
6.063,-0.40,1.51,0.03,-5.06,4.38,-0.84,0.16,0.06,3.16,1009.46
6.093,0.10,1.48,0.20,-5.06,4.38,-0.84,0.16,0.06,3.16,1009.46
6.094,0.15,1.21,0.49,-5.06,4.38,-0.84,0.16,0.06,3.16,1009.46
6.095,0.15,1.21,0.49,-5.06,4.38,-0.84,0.16,0.06,3.16,1009.26
6.112,0.15,1.21,0.49,-5.06,4.38,-0.84,0.53,-0.26,5.48,1009.26
6.133,0.15,1.21,0.49,-11.15,9.81,0.58,0.53,-0.26,5.48,1009.26
6.134,0.03,1.00,0.70,-11.15,9.81,0.58,0.53,-0.26,5.48,1009.26
6.135,0.19,0.47,0.64,-11.15,9.81,0.58,0.53,-0.26,5.48,1009.26
6.158,2.40,0.70,0.00,-11.15,9.81,0.58,0.53,-0.26,5.48,1009.26
6.172,1.34,0.89,0.07,-11.15,9.81,0.58,0.53,-0.26,5.48,1009.26
6.173,1.34,0.89,0.07,-11.15,9.81,0.58,0.53,-0.26,5.48,1008.70
6.182,1.34,0.89,0.07,-11.15,9.81,0.58,2.14,1.65,2.00,1008.70
6.203,1.34,0.89,0.07,-6.17,4.27,5.77,2.14,1.65,2.00,1008.70
6.204,-0.40,0.59,0.14,-6.17,4.27,5.77,2.14,1.65,2.00,1008.70
6.215,-0.40,0.59,0.14,-6.17,4.27,5.77,2.14,1.65,2.00,1008.98
6.216,-0.64,0.57,0.06,-6.17,4.27,5.77,2.14,1.65,2.00,1008.98
6.253,-0.64,0.57,0.06,-6.17,4.27,5.77,1.48,2.07,-1.77,1008.98
6.254,-0.30,0.53,0.32,-6.17,4.27,5.77,1.48,2.07,-1.77,1008.98
6.272,-0.30,0.53,0.32,1.59,0.60,0.68,1.48,2.07,-1.77,1008.98
6.274,0.22,0.53,0.49,1.59,0.60,0.68,1.48,2.07,-1.77,1008.98
6.274,0.46,0.50,0.57,1.59,0.60,0.68,1.48,2.07,-1.77,1008.98
6.292,0.30,0.51,0.55,1.59,0.60,0.68,1.48,2.07,-1.77,1008.98
6.294,0.30,0.51,0.55,1.59,0.60,0.68,1.48,2.07,-1.77,1009.08
6.322,0.30,0.51,0.55,1.59,0.60,0.68,2.03,1.06,-3.42,1009.08
6.323,0.26,0.61,0.49,1.59,0.60,0.68,2.03,1.06,-3.42,1009.08
6.343,0.26,0.61,0.49,-4.78,-2.61,4.48,2.03,1.06,-3.42,1009.08
6.344,0.43,0.77,0.46,-4.78,-2.61,4.48,2.03,1.06,-3.42,1009.08
6.359,0.51,0.86,0.54,-4.78,-2.61,4.48,2.03,1.06,-3.42,1009.08
6.372,0.49,0.90,0.65,-4.78,-2.61,4.48,2.03,1.06,-3.42,1009.08
6.373,0.49,0.90,0.65,-4.78,-2.61,4.48,2.03,1.06,-3.42,1009.30
6.398,0.49,0.90,0.65,-4.78,-2.61,4.48,1.78,1.90,-4.16,1009.30
6.413,0.49,0.90,0.65,-4.78,-2.61,4.48,1.78,1.90,-4.16,1009.33
6.415,0.51,1.03,0.57,-4.78,-2.61,4.48,1.78,1.90,-4.16,1009.33
6.416,0.44,1.18,0.45,-4.78,-2.61,4.48,1.78,1.90,-4.16,1009.33
6.416,0.44,1.18,0.45,0.91,-2.28,5.62,1.78,1.90,-4.16,1009.33
6.466,0.44,1.18,0.45,0.91,-2.28,5.62,0.93,3.12,-3.97,1009.33
6.468,0.33,1.26,0.45,0.91,-2.28,5.62,0.93,3.12,-3.97,1009.33
6.469,0.24,1.32,0.46,0.91,-2.28,5.62,0.93,3.12,-3.97,1009.33
6.483,0.24,1.32,0.46,4.21,0.78,6.24,0.93,3.12,-3.97,1009.33
6.484,0.20,1.36,0.49,4.21,0.78,6.24,0.93,3.12,-3.97,1009.33
6.493,0.38,1.40,0.27,4.21,0.78,6.24,0.93,3.12,-3.97,1009.33
6.494,0.38,1.40,0.27,4.21,0.78,6.24,0.93,3.12,-3.97,1009.20
6.533,0.69,1.41,0.22,4.21,0.78,6.24,0.93,3.12,-3.97,1009.20
6.535,0.69,1.41,0.22,4.21,0.78,6.24,0.18,2.77,-2.94,1009.20
6.553,1.21,1.15,0.54,4.21,0.78,6.24,0.18,2.77,-2.94,1009.20
6.553,1.60,0.96,0.45,4.21,0.78,6.24,0.18,2.77,-2.94,1009.20
6.554,1.60,0.96,0.45,3.59,3.83,5.23,0.18,2.77,-2.94,1009.20
6.573,1.60,0.96,0.45,3.59,3.83,5.23,0.18,2.77,-2.94,1009.06
6.603,1.60,0.96,0.45,3.59,3.83,5.23,-0.15,0.82,-1.53,1009.06
6.604,1.65,0.84,0.32,3.59,3.83,5.23,-0.15,0.82,-1.53,1009.06
6.605,1.59,0.60,0.21,3.59,3.83,5.23,-0.15,0.82,-1.53,1009.06
6.612,1.59,0.60,0.21,3.59,3.83,5.23,-0.15,0.82,-1.53,1009.30
6.624,1.38,0.48,0.19,3.59,3.83,5.23,-0.15,0.82,-1.53,1009.30
6.624,1.38,0.48,0.19,11.51,2.67,4.05,-0.15,0.82,-1.53,1009.30
6.674,1.38,0.48,0.19,11.51,2.67,4.05,-0.69,0.31,2.49,1009.30
6.676,1.16,0.57,0.19,11.51,2.67,4.05,-0.69,0.31,2.49,1009.30
6.677,-0.16,1.55,-0.39,11.51,2.67,4.05,-0.69,0.31,2.49,1009.30
6.693,2.29,0.57,-0.60,11.51,2.67,4.05,-0.69,0.31,2.49,1009.30
6.693,0.70,1.79,0.46,11.51,2.67,4.05,-0.69,0.31,2.49,1009.30
6.694,0.70,1.79,0.46,14.20,-3.11,2.43,-0.69,0.31,2.49,1009.30
6.695,0.70,1.79,0.46,14.20,-3.11,2.43,-0.69,0.31,2.49,1009.51
6.744,0.70,1.79,0.46,14.20,-3.11,2.43,-0.48,0.51,0.12,1009.51
6.745,0.60,1.16,-0.59,14.20,-3.11,2.43,-0.48,0.51,0.12,1009.51
6.746,-0.11,0.87,-0.16,14.20,-3.11,2.43,-0.48,0.51,0.12,1009.51
6.759,0.11,0.92,0.37,14.20,-3.11,2.43,-0.48,0.51,0.12,1009.51
6.762,0.11,0.92,0.37,8.67,2.59,-1.47,-0.48,0.51,0.12,1009.51
6.773,0.11,0.92,0.37,8.67,2.59,-1.47,-0.48,0.51,0.12,1009.61
6.814,0.14,0.96,0.19,8.67,2.59,-1.47,-0.48,0.51,0.12,1009.61
6.816,0.12,0.97,0.03,8.67,2.59,-1.47,-0.48,0.51,0.12,1009.61
6.817,0.12,0.97,0.03,8.67,2.59,-1.47,-0.48,0.51,0.12,1009.33
6.818,0.12,0.97,0.03,8.67,2.59,-1.47,-0.21,0.12,0.19,1009.33
6.826,0.16,0.95,0.13,8.67,2.59,-1.47,-0.21,0.12,0.19,1009.33
6.833,0.16,1.00,0.02,8.67,2.59,-1.47,-0.21,0.12,0.19,1009.33
6.833,0.16,1.00,0.02,0.86,0.33,-0.89,-0.21,0.12,0.19,1009.33
6.883,0.16,1.00,0.02,0.86,0.33,-0.89,-0.11,0.04,0.07,1009.33
6.884,0.13,1.01,-0.04,0.86,0.33,-0.89,-0.11,0.04,0.07,1009.33
6.884,0.12,0.99,0.02,0.86,0.33,-0.89,-0.11,0.04,0.07,1009.33
6.893,0.12,0.99,0.02,0.86,0.33,-0.89,-0.11,0.04,0.07,1009.34
6.903,0.11,0.96,0.11,0.86,0.33,-0.89,-0.11,0.04,0.07,1009.34
6.903,0.11,0.96,0.11,0.57,0.35,0.17,-0.11,0.04,0.07,1009.34
6.953,0.11,0.96,0.11,0.57,0.35,0.17,-0.00,0.02,0.11,1009.34
6.955,0.11,0.97,0.09,0.57,0.35,0.17,-0.00,0.02,0.11,1009.34
6.955,0.11,0.98,0.05,0.57,0.35,0.17,-0.00,0.02,0.11,1009.34
6.958,0.11,1.00,0.01,0.57,0.35,0.17,-0.00,0.02,0.11,1009.34
6.973,0.11,1.00,0.01,0.57,0.35,0.17,-0.00,0.02,0.11,1009.27
6.974,0.10,1.00,0.03,0.57,0.35,0.17,-0.00,0.02,0.11,1009.27
6.974,0.10,1.00,0.03,0.13,0.41,0.03,-0.00,0.02,0.11,1009.27
7.014,0.10,0.98,0.05,0.13,0.41,0.03,-0.00,0.02,0.11,1009.27
7.016,0.10,0.98,0.05,0.13,0.41,0.03,-0.00,0.02,0.11,1009.23
7.022,0.14,0.97,0.06,0.13,0.41,0.03,-0.00,0.02,0.11,1009.23
7.023,0.14,0.97,0.06,0.13,0.41,0.03,0.05,0.00,0.22,1009.23
7.044,0.16,0.96,0.08,0.13,0.41,0.03,0.05,0.00,0.22,1009.23
7.045,0.16,0.96,0.08,-0.16,0.48,0.03,0.05,0.00,0.22,1009.23
7.092,0.11,0.96,0.10,-0.16,0.48,0.03,0.05,0.00,0.22,1009.23
7.093,0.16,0.96,0.06,-0.16,0.48,0.03,0.05,0.00,0.22,1009.23
7.094,0.16,0.96,0.06,-0.16,0.48,0.03,0.05,0.00,0.22,1009.26
7.094,0.16,0.96,0.06,-0.16,0.48,0.03,0.17,-0.10,0.25,1009.26
7.113,0.17,0.97,0.01,-0.16,0.48,0.03,0.17,-0.10,0.25,1009.26
7.115,0.17,0.98,-0.00,-0.16,0.48,0.03,0.17,-0.10,0.25,1009.26
7.116,0.17,0.98,-0.00,-0.07,0.28,0.49,0.17,-0.10,0.25,1009.26
7.159,0.12,0.99,0.02,-0.07,0.28,0.49,0.17,-0.10,0.25,1009.26
7.16,0.10,1.02,0.01,-0.07,0.28,0.49,0.17,-0.10,0.25,1009.26
7.162,0.10,1.02,0.01,-0.07,0.28,0.49,0.14,-0.13,0.33,1009.26
7.172,0.10,1.02,0.01,-0.07,0.28,0.49,0.14,-0.13,0.33,1009.38
7.184,0.06,1.05,-0.02,-0.07,0.28,0.49,0.14,-0.13,0.33,1009.38
7.185,0.06,1.05,-0.02,-0.12,0.31,0.21,0.14,-0.13,0.33,1009.38
7.213,0.06,1.05,-0.02,-0.12,0.31,0.21,0.14,-0.13,0.33,1009.62
7.215,0.06,1.06,-0.03,-0.12,0.31,0.21,0.14,-0.13,0.33,1009.62
7.225,0.07,1.08,-0.06,-0.12,0.31,0.21,0.14,-0.13,0.33,1009.62
7.233,0.07,1.08,-0.06,-0.12,0.31,0.21,-0.00,-0.13,0.90,1009.62
7.253,0.07,1.08,-0.06,-1.48,1.03,-0.16,-0.00,-0.13,0.90,1009.62
7.254,0.07,1.12,-0.06,-1.48,1.03,-0.16,-0.00,-0.13,0.90,1009.62
7.255,0.09,1.16,-0.09,-1.48,1.03,-0.16,-0.00,-0.13,0.90,1009.62
7.292,0.05,1.21,-0.07,-1.48,1.03,-0.16,-0.00,-0.13,0.90,1009.62
7.293,0.05,1.21,-0.07,-1.48,1.03,-0.16,-0.00,-0.13,0.90,1009.86
7.302,0.01,1.25,-0.07,-1.48,1.03,-0.16,-0.00,-0.13,0.90,1009.86
7.303,0.01,1.25,-0.07,-1.48,1.03,-0.16,-0.24,-0.06,1.87,1009.86
7.324,-0.07,1.36,-0.10,-1.48,1.03,-0.16,-0.24,-0.06,1.87,1009.86
7.325,-0.07,1.36,-0.10,-2.99,2.32,-0.89,-0.24,-0.06,1.87,1009.86
7.358,-0.23,1.43,0.02,-2.99,2.32,-0.89,-0.24,-0.06,1.87,1009.86
7.359,-0.47,1.49,0.13,-2.99,2.32,-0.89,-0.24,-0.06,1.87,1009.86
7.373,-0.47,1.49,0.13,-2.99,2.32,-0.89,-0.30,-0.43,3.91,1009.86
7.374,-0.47,1.49,0.13,-2.99,2.32,-0.89,-0.30,-0.43,3.91,1009.78
7.393,-0.47,1.49,0.13,-6.50,5.70,-0.91,-0.30,-0.43,3.91,1009.78
7.395,-0.49,1.49,0.19,-6.50,5.70,-0.91,-0.30,-0.43,3.91,1009.78
7.395,0.01,1.57,0.23,-6.50,5.70,-0.91,-0.30,-0.43,3.91,1009.78
7.413,0.01,1.57,0.23,-6.50,5.70,-0.91,-0.30,-0.43,3.91,1009.00
7.425,0.13,1.39,0.44,-6.50,5.70,-0.91,-0.30,-0.43,3.91,1009.00
7.443,0.13,1.39,0.44,-6.50,5.70,-0.91,-0.26,-1.18,6.39,1009.00
7.444,-0.09,1.22,0.67,-6.50,5.70,-0.91,-0.26,-1.18,6.39,1009.00
7.464,0.14,0.64,0.35,-6.50,5.70,-0.91,-0.26,-1.18,6.39,1009.00
7.464,0.14,0.64,0.35,-11.44,10.92,1.97,-0.26,-1.18,6.39,1009.00
7.491,2.62,0.84,-0.10,-11.44,10.92,1.97,-0.26,-1.18,6.39,1009.00
7.492,2.62,0.84,-0.10,-11.44,10.92,1.97,-0.26,-1.18,6.39,1008.35
7.513,2.62,0.84,-0.10,-11.44,10.92,1.97,0.26,0.25,0.59,1008.35
7.514,1.34,0.73,0.56,-11.44,10.92,1.97,0.26,0.25,0.59,1008.35
7.533,1.34,0.73,0.56,-5.25,4.46,3.49,0.26,0.25,0.59,1008.35
7.534,-0.31,0.64,0.12,-5.25,4.46,3.49,0.26,0.25,0.59,1008.35
7.535,-0.71,0.59,-0.16,-5.25,4.46,3.49,0.26,0.25,0.59,1008.35
7.558,-0.32,0.47,0.08,-5.25,4.46,3.49,0.26,0.25,0.59,1008.35
7.572,-0.32,0.47,0.08,-5.25,4.46,3.49,0.26,0.25,0.59,1008.87
7.584,-0.32,0.47,0.08,-5.25,4.46,3.49,-0.23,1.48,-2.40,1008.87
7.587,0.24,0.43,0.15,-5.25,4.46,3.49,-0.23,1.48,-2.40,1008.87
7.603,0.34,0.50,-0.01,-5.25,4.46,3.49,-0.23,1.48,-2.40,1008.87
7.604,0.34,0.50,-0.01,-0.39,1.25,0.52,-0.23,1.48,-2.40,1008.87
7.612,0.34,0.50,-0.01,-0.39,1.25,0.52,-0.23,1.48,-2.40,1009.05
7.625,-0.07,0.54,-0.07,-0.39,1.25,0.52,-0.23,1.48,-2.40,1009.05
7.653,-0.07,0.54,-0.07,-0.39,1.25,0.52,-0.03,0.22,-4.86,1009.05
7.654,0.00,0.63,-0.02,-0.39,1.25,0.52,-0.03,0.22,-4.86,1009.05
7.673,0.00,0.63,-0.02,-3.11,-3.62,-0.44,-0.03,0.22,-4.86,1009.05
7.674,0.37,0.77,-0.04,-3.11,-3.62,-0.44,-0.03,0.22,-4.86,1009.05
7.675,0.42,0.92,-0.12,-3.11,-3.62,-0.44,-0.03,0.22,-4.86,1009.05
7.692,0.42,0.92,-0.12,-3.11,-3.62,-0.44,-0.03,0.22,-4.86,1009.13
7.723,0.42,0.92,-0.12,-3.11,-3.62,-0.44,0.52,0.55,-5.32,1009.13
7.725,0.42,1.05,-0.18,-3.11,-3.62,-0.44,0.52,0.55,-5.32,1009.13
7.725,0.33,1.21,-0.19,-3.11,-3.62,-0.44,0.52,0.55,-5.32,1009.13
7.743,0.33,1.21,-0.19,1.36,-1.79,-1.25,0.52,0.55,-5.32,1009.13
7.745,0.28,1.42,-0.22,1.36,-1.79,-1.25,0.52,0.55,-5.32,1009.13
7.759,0.44,1.56,-0.21,1.36,-1.79,-1.25,0.52,0.55,-5.32,1009.13
7.773,0.44,1.56,-0.21,1.36,-1.79,-1.25,0.52,0.55,-5.32,1009.24
7.793,0.44,1.56,-0.21,1.36,-1.79,-1.25,0.63,0.61,-4.15,1009.24
7.794,0.64,1.59,-0.23,1.36,-1.79,-1.25,0.63,0.61,-4.15,1009.24
7.813,1.01,1.57,-0.21,1.36,-1.79,-1.25,0.63,0.61,-4.15,1009.24
7.814,1.01,1.57,-0.21,1.36,-1.79,-1.25,0.63,0.61,-4.15,1009.22
7.814,1.17,1.41,0.09,1.36,-1.79,-1.25,0.63,0.61,-4.15,1009.22
7.815,1.17,1.41,0.09,4.81,3.44,-2.14,0.63,0.61,-4.15,1009.22
7.85,1.84,0.83,0.38,4.81,3.44,-2.14,0.63,0.61,-4.15,1009.22
7.863,2.55,0.52,0.48,4.81,3.44,-2.14,0.63,0.61,-4.15,1009.22
7.864,2.55,0.52,0.48,4.81,3.44,-2.14,0.47,0.13,-0.33,1009.22
7.886,2.55,0.52,0.48,9.41,5.84,-1.33,0.47,0.13,-0.33,1009.22
7.888,2.51,0.32,0.46,9.41,5.84,-1.33,0.47,0.13,-0.33,1009.22
7.892,2.51,0.32,0.46,9.41,5.84,-1.33,0.47,0.13,-0.33,1009.34
7.934,1.01,1.27,0.72,9.41,5.84,-1.33,0.47,0.13,-0.33,1009.34
7.935,2.35,1.67,0.18,9.41,5.84,-1.33,0.47,0.13,-0.33,1009.34
7.936,2.35,1.67,0.18,9.41,5.84,-1.33,-0.35,-0.04,2.07,1009.34
7.954,2.35,1.67,0.18,21.02,-3.90,3.68,-0.35,-0.04,2.07,1009.34
7.955,2.36,1.01,0.93,21.02,-3.90,3.68,-0.35,-0.04,2.07,1009.34
7.956,-1.53,0.99,-1.44,21.02,-3.90,3.68,-0.35,-0.04,2.07,1009.34
7.972,-1.53,0.99,-1.44,21.02,-3.90,3.68,-0.35,-0.04,2.07,1010.35
8.003,-1.53,0.99,-1.44,21.02,-3.90,3.68,-0.25,0.23,0.26,1010.35
8.005,0.75,0.95,0.35,21.02,-3.90,3.68,-0.25,0.23,0.26,1010.35
8.005,0.17,1.00,-0.05,21.02,-3.90,3.68,-0.25,0.23,0.26,1010.35
8.013,0.17,1.00,-0.05,21.02,-3.90,3.68,-0.25,0.23,0.26,1009.60
8.023,0.17,1.00,-0.05,8.41,4.02,0.35,-0.25,0.23,0.26,1009.60
8.024,0.00,1.02,0.22,8.41,4.02,0.35,-0.25,0.23,0.26,1009.60
8.073,0.00,1.02,0.22,8.41,4.02,0.35,-0.16,0.07,0.17,1009.60
8.074,0.16,1.00,0.01,8.41,4.02,0.35,-0.16,0.07,0.17,1009.60
8.075,0.14,0.97,0.24,8.41,4.02,0.35,-0.16,0.07,0.17,1009.60
8.092,0.14,1.01,0.01,8.41,4.02,0.35,-0.16,0.07,0.17,1009.60
8.093,0.14,1.01,0.01,8.41,4.02,0.35,-0.16,0.07,0.17,1009.37
8.093,0.15,1.00,0.02,8.41,4.02,0.35,-0.16,0.07,0.17,1009.37
8.093,0.15,1.00,0.02,1.84,0.54,0.86,-0.16,0.07,0.17,1009.37
8.143,0.15,1.00,0.02,1.84,0.54,0.86,-0.05,-0.03,0.11,1009.37
8.145,0.12,0.97,0.12,1.84,0.54,0.86,-0.05,-0.03,0.11,1009.37
8.146,0.12,0.97,0.12,1.84,0.54,0.86,-0.05,-0.03,0.11,1009.37
8.158,0.14,0.96,0.10,1.84,0.54,0.86,-0.05,-0.03,0.11,1009.37
8.163,0.14,0.96,0.10,0.17,0.50,0.14,-0.05,-0.03,0.11,1009.37
8.172,0.14,0.96,0.10,0.17,0.50,0.14,-0.05,-0.03,0.11,1009.21
8.212,0.14,0.96,0.10,0.17,0.50,0.14,-0.05,-0.03,0.11,1009.20
8.213,0.15,0.96,0.08,0.17,0.50,0.14,-0.05,-0.03,0.11,1009.20
8.214,0.15,0.96,0.08,0.17,0.50,0.14,-0.05,-0.03,0.11,1009.20
8.214,0.15,0.96,0.08,0.17,0.50,0.14,0.11,-0.09,0.10,1009.20
8.225,0.13,0.97,0.07,0.17,0.50,0.14,0.11,-0.09,0.10,1009.20
8.233,0.11,0.98,0.07,0.17,0.50,0.14,0.11,-0.09,0.10,1009.20
8.234,0.11,0.98,0.07,0.03,0.24,0.57,0.11,-0.09,0.10,1009.20
8.283,0.11,0.98,0.07,0.03,0.24,0.57,0.19,-0.17,0.18,1009.20
8.285,0.11,0.98,0.08,0.03,0.24,0.57,0.19,-0.17,0.18,1009.20
8.285,0.12,0.97,0.05,0.03,0.24,0.57,0.19,-0.17,0.18,1009.20
8.292,0.12,0.97,0.05,0.03,0.24,0.57,0.19,-0.17,0.18,1009.21
8.304,0.14,0.97,0.05,0.03,0.24,0.57,0.19,-0.17,0.18,1009.21
8.305,0.14,0.97,0.05,-0.07,0.29,0.36,0.19,-0.17,0.18,1009.21
8.354,0.13,0.98,0.05,-0.07,0.29,0.36,0.19,-0.17,0.18,1009.21
8.355,0.15,1.00,-0.00,-0.07,0.29,0.36,0.19,-0.17,0.18,1009.21
8.356,0.15,1.00,-0.00,-0.07,0.29,0.36,0.19,-0.17,0.28,1009.21
8.358,0.15,1.01,-0.02,-0.07,0.29,0.36,0.19,-0.17,0.28,1009.21
8.372,0.15,1.01,-0.02,-0.07,0.29,0.36,0.19,-0.17,0.28,1009.30
8.373,0.10,1.01,0.00,-0.07,0.29,0.36,0.19,-0.17,0.28,1009.30
8.373,0.10,1.01,0.00,-0.37,0.35,0.31,0.19,-0.17,0.28,1009.30
8.412,0.10,1.01,0.00,-0.37,0.35,0.31,0.19,-0.17,0.28,1009.52
8.414,0.07,1.03,0.01,-0.37,0.35,0.31,0.19,-0.17,0.28,1009.52
8.423,0.04,1.08,-0.01,-0.37,0.35,0.31,0.19,-0.17,0.28,1009.52
8.424,0.04,1.08,-0.01,-0.37,0.35,0.31,0.06,-0.15,0.61,1009.52
8.443,0.02,1.11,-0.03,-0.37,0.35,0.31,0.06,-0.15,0.61,1009.52
8.444,0.02,1.11,-0.03,-0.76,0.76,-0.23,0.06,-0.15,0.61,1009.52
8.492,0.04,1.17,-0.11,-0.76,0.76,-0.23,0.06,-0.15,0.61,1009.52
8.494,0.06,1.22,-0.13,-0.76,0.76,-0.23,0.06,-0.15,0.61,1009.52
8.494,0.06,1.22,-0.13,-0.76,0.76,-0.23,0.06,-0.15,0.61,1009.76
8.495,0.06,1.22,-0.13,-0.76,0.76,-0.23,-0.22,-0.02,1.58,1009.76
8.495,-0.00,1.27,-0.09,-0.76,0.76,-0.23,-0.22,-0.02,1.58,1009.76
8.514,-0.11,1.38,-0.12,-0.76,0.76,-0.23,-0.22,-0.02,1.58,1009.76
8.515,-0.11,1.38,-0.12,-2.82,1.91,-0.67,-0.22,-0.02,1.58,1009.76
8.558,-0.34,1.53,-0.12,-2.82,1.91,-0.67,-0.22,-0.02,1.58,1009.76
8.56,-0.73,1.70,-0.07,-2.82,1.91,-0.67,-0.22,-0.02,1.58,1009.76
8.565,-0.73,1.70,-0.07,-2.82,1.91,-0.67,-0.73,-0.22,3.62,1009.76
8.572,-0.73,1.70,-0.07,-2.82,1.91,-0.67,-0.73,-0.22,3.62,1009.80
8.584,-0.73,1.70,-0.07,-5.93,5.28,-1.88,-0.73,-0.22,3.62,1009.80
8.584,-0.93,1.75,0.05,-5.93,5.28,-1.88,-0.73,-0.22,3.62,1009.80
8.612,-0.14,1.77,0.33,-5.93,5.28,-1.88,-0.73,-0.22,3.62,1009.80
8.613,-0.14,1.77,0.33,-5.93,5.28,-1.88,-0.73,-0.22,3.62,1009.06
8.625,0.16,1.38,0.67,-5.93,5.28,-1.88,-0.73,-0.22,3.62,1009.06
8.633,0.16,1.38,0.67,-5.93,5.28,-1.88,-0.83,-1.35,6.88,1009.06
8.654,0.16,1.38,0.67,-14.61,12.58,-0.35,-0.83,-1.35,6.88,1009.06
8.656,-0.14,1.15,0.69,-14.61,12.58,-0.35,-0.83,-1.35,6.88,1009.06
8.657,-0.16,0.42,0.18,-14.61,12.58,-0.35,-0.83,-1.35,6.88,1009.06
8.691,2.71,0.73,0.22,-14.61,12.58,-0.35,-0.83,-1.35,6.88,1009.06
8.693,2.71,0.73,0.22,-14.61,12.58,-0.35,-0.83,-1.35,6.88,1008.20
8.704,1.44,0.44,0.69,-14.61,12.58,-0.35,-0.83,-1.35,6.88,1008.20
8.706,1.44,0.44,0.69,-14.61,12.58,-0.35,0.06,-0.57,1.97,1008.20
8.724,1.44,0.44,0.69,-8.11,6.34,4.68,0.06,-0.57,1.97,1008.20
8.725,-0.04,0.43,0.27,-8.11,6.34,4.68,0.06,-0.57,1.97,1008.20
8.758,-0.67,0.47,-0.19,-8.11,6.34,4.68,0.06,-0.57,1.97,1008.20
8.759,-0.55,0.44,0.04,-8.11,6.34,4.68,0.06,-0.57,1.97,1008.20
8.772,-0.55,0.44,0.04,-8.11,6.34,4.68,0.06,-0.57,1.97,1008.84
8.773,-0.55,0.44,0.04,-8.11,6.34,4.68,0.22,1.27,-2.70,1008.84
8.794,-0.55,0.44,0.04,3.65,-0.83,2.08,0.22,1.27,-2.70,1008.84
8.795,0.03,0.41,0.20,3.65,-0.83,2.08,0.22,1.27,-2.70,1008.84
8.795,0.54,0.49,0.17,3.65,-0.83,2.08,0.22,1.27,-2.70,1008.84
8.812,0.54,0.49,0.17,3.65,-0.83,2.08,0.22,1.27,-2.70,1009.04
8.825,0.43,0.52,0.10,3.65,-0.83,2.08,0.22,1.27,-2.70,1009.04
8.844,0.43,0.52,0.10,3.65,-0.83,2.08,0.27,0.69,-4.69,1009.04
8.845,0.09,0.60,-0.00,3.65,-0.83,2.08,0.27,0.69,-4.69,1009.04
8.863,0.12,0.72,0.02,3.65,-0.83,2.08,0.27,0.69,-4.69,1009.04
8.864,0.12,0.72,0.02,-5.27,-3.41,-0.11,0.27,0.69,-4.69,1009.04
8.892,0.46,0.87,-0.03,-5.27,-3.41,-0.11,0.27,0.69,-4.69,1009.04
8.893,0.46,0.87,-0.03,-5.27,-3.41,-0.11,0.27,0.69,-4.69,1009.16
8.91,0.54,1.03,-0.12,-5.27,-3.41,-0.11,0.27,0.69,-4.69,1009.16
8.914,0.54,1.03,-0.12,-5.27,-3.41,-0.11,0.53,0.67,-4.76,1009.16
8.935,0.54,1.03,-0.12,0.81,-2.53,-0.51,0.53,0.67,-4.76,1009.16
8.936,0.53,1.13,-0.12,0.81,-2.53,-0.51,0.53,0.67,-4.76,1009.16
8.936,0.60,1.27,-0.12,0.81,-2.53,-0.51,0.53,0.67,-4.76,1009.16
8.959,0.67,1.39,-0.11,0.81,-2.53,-0.51,0.53,0.67,-4.76,1009.16
8.973,0.67,1.39,-0.11,0.81,-2.53,-0.51,0.53,0.67,-4.76,1009.13
8.994,1.04,1.46,-0.01,0.81,-2.53,-0.51,0.53,0.67,-4.76,1009.13
8.995,1.04,1.46,-0.01,0.81,-2.53,-0.51,0.80,1.12,-4.01,1009.13
9.004,1.04,1.46,-0.01,6.03,1.87,-1.33,0.80,1.12,-4.01,1009.13
9.006,1.60,1.32,0.23,6.03,1.87,-1.33,0.80,1.12,-4.01,1009.13
9.012,1.60,1.32,0.23,6.03,1.87,-1.33,0.80,1.12,-4.01,1009.26
9.026,1.67,1.11,0.24,6.03,1.87,-1.33,0.80,1.12,-4.01,1009.26
9.034,1.63,0.74,0.32,6.03,1.87,-1.33,0.80,1.12,-4.01,1009.26
9.053,1.63,0.74,0.32,6.03,1.87,-1.33,0.69,-0.07,-1.28,1009.26
9.074,1.63,0.74,0.32,11.91,4.22,0.49,0.69,-0.07,-1.28,1009.26
9.075,1.94,0.47,0.38,11.91,4.22,0.49,0.69,-0.07,-1.28,1009.26
9.076,0.35,1.17,0.46,11.91,4.22,0.49,0.69,-0.07,-1.28,1009.26
9.093,0.35,1.17,0.46,11.91,4.22,0.49,0.69,-0.07,-1.28,1009.45
9.11,4.68,0.61,0.08,11.91,4.22,0.49,0.69,-0.07,-1.28,1009.45
9.123,4.68,0.61,0.08,11.91,4.22,0.49,-0.10,-0.30,1.65,1009.45
9.124,0.65,1.39,1.07,11.91,4.22,0.49,-0.10,-0.30,1.65,1009.45
9.144,-0.46,1.24,-1.45,11.91,4.22,0.49,-0.10,-0.30,1.65,1009.45
9.145,-0.46,1.24,-1.45,12.57,-0.94,3.30,-0.10,-0.30,1.65,1009.45
9.158,0.12,0.87,0.01,12.57,-0.94,3.30,-0.10,-0.30,1.65,1009.45
9.173,0.12,0.87,0.01,12.57,-0.94,3.30,-0.10,-0.30,1.65,1010.18
9.194,0.12,0.87,0.01,12.57,-0.94,3.30,-0.42,0.21,0.34,1010.18
9.195,0.46,0.93,0.24,12.57,-0.94,3.30,-0.42,0.21,0.34,1010.18
9.212,-0.04,0.99,0.27,12.57,-0.94,3.30,-0.42,0.21,0.34,1010.18
9.214,-0.04,0.99,0.27,12.57,-0.94,3.30,-0.42,0.21,0.34,1009.48
9.214,0.23,1.01,-0.13,12.57,-0.94,3.30,-0.42,0.21,0.34,1009.48
9.215,0.23,1.01,-0.13,13.28,1.41,-1.38,-0.42,0.21,0.34,1009.48
9.264,0.14,0.94,0.36,13.28,1.41,-1.38,-0.42,0.21,0.34,1009.48
9.266,0.13,1.04,-0.02,13.28,1.41,-1.38,-0.42,0.21,0.34,1009.48
9.266,0.13,1.04,-0.02,13.28,1.41,-1.38,-0.05,0.06,0.11,1009.48
9.284,0.17,1.03,-0.11,13.28,1.41,-1.38,-0.05,0.06,0.11,1009.48
9.285,0.17,1.03,-0.11,0.38,0.14,0.64,-0.05,0.06,0.11,1009.48
9.292,0.17,1.03,-0.11,0.38,0.14,0.64,-0.05,0.06,0.11,1009.35
9.334,0.12,0.99,0.05,0.38,0.14,0.64,-0.05,0.06,0.11,1009.35
9.336,0.11,0.96,0.13,0.38,0.14,0.64,-0.05,0.06,0.11,1009.35
9.336,0.11,0.96,0.13,0.38,0.14,0.64,-0.09,-0.01,0.06,1009.35
9.354,0.11,0.96,0.09,0.38,0.14,0.64,-0.09,-0.01,0.06,1009.35
9.355,0.09,0.96,0.12,0.38,0.14,0.64,-0.09,-0.01,0.06,1009.35
9.356,0.09,0.96,0.12,0.26,0.72,0.11,-0.09,-0.01,0.06,1009.35
9.373,0.09,0.96,0.12,0.26,0.72,0.11,-0.09,-0.01,0.06,1009.23
9.404,0.12,0.97,0.07,0.26,0.72,0.11,-0.09,-0.01,0.06,1009.23
9.405,0.13,0.98,0.03,0.26,0.72,0.11,-0.09,-0.01,0.06,1009.23
9.406,0.13,0.98,0.03,0.26,0.72,0.11,0.12,-0.05,0.13,1009.23
9.412,0.13,0.98,0.03,0.26,0.72,0.11,0.12,-0.05,0.13,1009.21
9.424,0.10,0.98,0.07,0.26,0.72,0.11,0.12,-0.05,0.13,1009.21
9.426,0.10,0.98,0.07,-0.17,0.37,0.69,0.12,-0.05,0.13,1009.21
9.474,0.10,0.98,0.07,-0.17,0.37,0.69,0.16,-0.15,0.21,1009.21
9.476,0.12,0.97,0.05,-0.17,0.37,0.69,0.16,-0.15,0.21,1009.21
9.476,0.15,0.96,0.03,-0.17,0.37,0.69,0.16,-0.15,0.21,1009.21
9.491,0.13,0.98,0.04,-0.17,0.37,0.69,0.16,-0.15,0.21,1009.21
9.492,0.13,0.98,0.04,-0.17,0.37,0.69,0.16,-0.15,0.21,1009.21
9.493,0.13,0.99,0.03,-0.17,0.37,0.69,0.16,-0.15,0.21,1009.21
9.494,0.13,0.99,0.03,-0.26,0.48,0.24,0.16,-0.15,0.21,1009.21
9.544,0.13,0.99,0.03,-0.26,0.48,0.24,0.11,-0.16,0.30,1009.21
9.545,0.15,1.00,-0.02,-0.26,0.48,0.24,0.11,-0.16,0.30,1009.21
9.546,0.13,1.02,-0.02,-0.26,0.48,0.24,0.11,-0.16,0.30,1009.21
9.558,0.04,1.03,0.04,-0.26,0.48,0.24,0.11,-0.16,0.30,1009.21
9.564,0.04,1.03,0.04,-0.27,0.52,0.08,0.11,-0.16,0.30,1009.21
9.572,0.04,1.03,0.04,-0.27,0.52,0.08,0.11,-0.16,0.30,1009.32
9.613,0.04,1.03,0.04,-0.27,0.52,0.08,0.11,-0.16,0.30,1009.66
9.614,0.05,1.05,0.00,-0.27,0.52,0.08,0.11,-0.16,0.30,1009.66
9.615,0.00,1.10,-0.02,-0.27,0.52,0.08,0.11,-0.16,0.30,1009.66
9.616,0.00,1.10,-0.02,-0.27,0.52,0.08,-0.03,-0.19,0.85,1009.66
9.625,-0.02,1.15,-0.06,-0.27,0.52,0.08,-0.03,-0.19,0.85,1009.66
9.635,0.06,1.19,-0.13,-0.27,0.52,0.08,-0.03,-0.19,0.85,1009.66
9.636,0.06,1.19,-0.13,-1.34,1.09,-0.29,-0.03,-0.19,0.85,1009.66
9.675,0.06,1.22,-0.13,-1.34,1.09,-0.29,-0.03,-0.19,0.85,1009.66
9.676,-0.02,1.28,-0.09,-1.34,1.09,-0.29,-0.03,-0.19,0.85,1009.66
9.685,-0.02,1.28,-0.09,-1.34,1.09,-0.29,-0.41,-0.06,1.96,1009.66
9.692,-0.02,1.28,-0.09,-1.34,1.09,-0.29,-0.41,-0.06,1.96,1009.84
9.705,-0.16,1.43,-0.14,-1.34,1.09,-0.29,-0.41,-0.06,1.96,1009.84
9.706,-0.16,1.43,-0.14,-3.49,2.70,-1.18,-0.41,-0.06,1.96,1009.84
9.754,-0.16,1.43,-0.14,-3.49,2.70,-1.18,-0.89,-0.59,4.50,1009.84
9.755,-0.46,1.57,-0.08,-3.49,2.70,-1.18,-0.89,-0.59,4.50,1009.84
9.756,-0.81,1.69,0.06,-3.49,2.70,-1.18,-0.89,-0.59,4.50,1009.84
9.758,-0.66,1.75,0.17,-3.49,2.70,-1.18,-0.89,-0.59,4.50,1009.84
9.772,-0.66,1.75,0.17,-3.49,2.70,-1.18,-0.89,-0.59,4.50,1009.63
9.774,0.18,1.75,0.46,-3.49,2.70,-1.18,-0.89,-0.59,4.50,1009.63
9.774,0.18,1.75,0.46,-7.35,6.71,-1.94,-0.89,-0.59,4.50,1009.63
9.812,-0.10,1.27,0.69,-7.35,6.71,-1.94,-0.89,-0.59,4.50,1009.63
9.814,-0.10,1.27,0.69,-7.35,6.71,-1.94,-0.89,-0.59,4.50,1008.47
9.824,-0.35,1.14,0.68,-7.35,6.71,-1.94,-0.89,-0.59,4.50,1008.47
9.824,-0.35,1.14,0.68,-7.35,6.71,-1.94,-0.61,-1.68,6.89,1008.47
9.844,-0.35,1.14,0.68,-12.83,13.40,1.84,-0.61,-1.68,6.89,1008.47
9.846,0.45,0.21,0.11,-12.83,13.40,1.84,-0.61,-1.68,6.89,1008.47
9.892,3.34,1.12,0.52,-12.83,13.40,1.84,-0.61,-1.68,6.89,1008.47
9.894,0.23,0.43,0.45,-12.83,13.40,1.84,-0.61,-1.68,6.89,1008.47
9.894,0.23,0.43,0.45,-12.83,13.40,1.84,-0.61,-1.68,6.89,1008.48
9.895,0.23,0.43,0.45,-12.83,13.40,1.84,0.11,-0.08,-0.45,1008.48
9.914,-0.46,0.50,-0.06,-12.83,13.40,1.84,0.11,-0.08,-0.45,1008.48
9.915,-0.61,0.47,-0.16,-12.83,13.40,1.84,0.11,-0.08,-0.45,1008.48
9.916,-0.61,0.47,-0.16,-2.41,4.37,3.99,0.11,-0.08,-0.45,1008.48
9.959,-0.18,0.36,0.12,-2.41,4.37,3.99,0.11,-0.08,-0.45,1008.48
9.961,0.28,0.42,0.13,-2.41,4.37,3.99,0.11,-0.08,-0.45,1008.48
9.963,0.28,0.42,0.13,-2.41,4.37,3.99,-0.15,1.19,-2.75,1008.48
9.972,0.28,0.42,0.13,-2.41,4.37,3.99,-0.15,1.19,-2.75,1008.92
9.991,0.27,0.51,-0.01,-2.41,4.37,3.99,-0.15,1.19,-2.75,1008.92
9.993,0.27,0.51,-0.01,-4.62,-1.09,0.89,-0.15,1.19,-2.75,1008.92
10.012,0.15,0.58,-0.07,-4.62,-1.09,0.89,-0.15,1.19,-2.75,1008.92
10.013,0.15,0.58,-0.07,-4.62,-1.09,0.89,-0.15,1.19,-2.75,1009.12
10.025,0.17,0.67,-0.07,-4.62,-1.09,0.89,-0.15,1.19,-2.75,1009.12
10.034,0.17,0.67,-0.07,-4.62,-1.09,0.89,0.29,0.58,-5.14,1009.12
10.054,0.17,0.67,-0.07,-2.16,-3.81,-0.39,0.29,0.58,-5.14,1009.12
10.056,0.28,0.80,-0.12,-2.16,-3.81,-0.39,0.29,0.58,-5.14,1009.12
10.056,0.47,1.00,-0.18,-2.16,-3.81,-0.39,0.29,0.58,-5.14,1009.12
10.092,0.50,1.12,-0.21,-2.16,-3.81,-0.39,0.29,0.58,-5.14,1009.12
10.093,0.50,1.12,-0.21,-2.16,-3.81,-0.39,0.29,0.58,-5.14,1009.20
10.104,0.50,1.12,-0.21,-2.16,-3.81,-0.39,0.67,0.99,-5.27,1009.20
10.105,0.57,1.23,-0.21,-2.16,-3.81,-0.39,0.67,0.99,-5.27,1009.20
10.125,0.58,1.43,-0.30,-2.16,-3.81,-0.39,0.67,0.99,-5.27,1009.20
10.128,0.58,1.43,-0.30,2.37,-1.15,-1.81,0.67,0.99,-5.27,1009.20
10.158,0.62,1.64,-0.20,2.37,-1.15,-1.81,0.67,0.99,-5.27,1009.20
10.16,1.49,1.40,0.29,2.37,-1.15,-1.81,0.67,0.99,-5.27,1009.20
10.172,1.49,1.40,0.29,2.37,-1.15,-1.81,0.67,0.99,-5.27,1009.25
10.174,1.49,1.40,0.29,2.37,-1.15,-1.81,0.80,1.08,-2.98,1009.25
10.194,2.20,1.03,0.41,2.37,-1.15,-1.81,0.80,1.08,-2.98,1009.25
10.195,2.21,0.78,0.37,2.37,-1.15,-1.81,0.80,1.08,-2.98,1009.25
10.196,2.21,0.78,0.37,6.33,3.92,-2.37,0.80,1.08,-2.98,1009.25
10.212,2.21,0.78,0.37,6.33,3.92,-2.37,0.80,1.08,-2.98,1009.33
10.225,1.60,0.67,0.39,6.33,3.92,-2.37,0.80,1.08,-2.98,1009.33
10.244,1.35,0.62,0.16,6.33,3.92,-2.37,0.80,1.08,-2.98,1009.33
10.245,1.35,0.62,0.16,6.33,3.92,-2.37,0.53,-0.80,-0.85,1009.33
10.264,1.32,0.48,0.12,6.33,3.92,-2.37,0.53,-0.80,-0.85,1009.33
10.266,1.32,0.48,0.12,17.82,2.29,2.67,0.53,-0.80,-0.85,1009.33
10.291,-0.97,2.08,-0.37,17.82,2.29,2.67,0.53,-0.80,-0.85,1009.33
10.295,-0.97,2.08,-0.37,17.82,2.29,2.67,0.53,-0.80,-0.85,1009.65
10.31,2.51,0.24,2.67,17.82,2.29,2.67,0.53,-0.80,-0.85,1009.65
10.315,2.51,0.24,2.67,17.82,2.29,2.67,-0.33,-0.00,2.14,1009.65
10.335,2.51,0.24,2.67,8.19,2.26,1.56,-0.33,-0.00,2.14,1009.65
10.336,0.45,2.07,-1.13,8.19,2.26,1.56,-0.33,-0.00,2.14,1009.65
10.337,0.94,1.16,-0.40,8.19,2.26,1.56,-0.33,-0.00,2.14,1009.65
10.358,0.08,0.91,-0.19,8.19,2.26,1.56,-0.33,-0.00,2.14,1009.65
10.372,0.08,0.91,-0.19,8.19,2.26,1.56,-0.33,-0.00,2.14,1010.02
10.384,0.01,1.01,0.09,8.19,2.26,1.56,-0.33,-0.00,2.14,1010.02
10.384,0.01,1.01,0.09,8.19,2.26,1.56,-0.35,0.20,0.36,1010.02
10.405,0.01,1.01,0.09,10.15,0.23,1.64,-0.35,0.20,0.36,1010.02
10.406,0.17,1.04,-0.02,10.15,0.23,1.64,-0.35,0.20,0.36,1010.02
10.412,0.17,1.04,-0.02,10.15,0.23,1.64,-0.35,0.20,0.36,1009.50
10.426,0.11,0.95,0.29,10.15,0.23,1.64,-0.35,0.20,0.36,1009.50
10.454,0.15,0.93,0.17,10.15,0.23,1.64,-0.35,0.20,0.36,1009.50
10.456,0.15,0.93,0.17,10.15,0.23,1.64,-0.09,0.03,0.19,1009.50
10.474,0.15,1.00,0.05,10.15,0.23,1.64,-0.09,0.03,0.19,1009.50
10.475,0.13,1.00,0.04,10.15,0.23,1.64,-0.09,0.03,0.19,1009.50
10.476,0.13,1.00,0.04,-0.29,0.67,-0.59,-0.09,0.03,0.19,1009.50
10.492,0.13,1.00,0.04,-0.29,0.67,-0.59,-0.09,0.03,0.19,1009.30
10.525,0.13,1.00,0.04,-0.29,0.67,-0.59,0.07,-0.04,0.13,1009.30
10.526,0.13,0.99,0.03,-0.29,0.67,-0.59,0.07,-0.04,0.13,1009.30
10.527,0.13,0.97,0.05,-0.29,0.67,-0.59,0.07,-0.04,0.13,1009.30
10.545,0.14,0.96,0.07,-0.29,0.67,-0.59,0.07,-0.04,0.13,1009.30
10.546,0.14,0.96,0.07,0.13,0.47,0.82,0.07,-0.04,0.13,1009.30
10.558,0.14,0.96,0.07,0.13,0.47,0.82,0.07,-0.04,0.13,1009.30
10.572,0.14,0.96,0.07,0.13,0.47,0.82,0.07,-0.04,0.13,1009.24
10.594,0.14,0.96,0.07,0.13,0.47,0.82,0.14,-0.09,0.12,1009.24
10.595,0.13,0.97,0.06,0.13,0.47,0.82,0.14,-0.09,0.12,1009.24
10.612,0.11,0.98,0.04,0.13,0.47,0.82,0.14,-0.09,0.12,1009.24
10.613,0.11,0.98,0.04,0.13,0.47,0.82,0.14,-0.09,0.12,1009.22
10.614,0.12,0.99,0.03,0.13,0.47,0.82,0.14,-0.09,0.12,1009.22
10.615,0.12,0.99,0.03,-0.03,0.51,0.17,0.14,-0.09,0.12,1009.22
10.665,0.12,0.99,0.03,-0.03,0.51,0.17,0.16,-0.15,0.20,1009.22
10.666,0.14,0.99,0.01,-0.03,0.51,0.17,0.16,-0.15,0.20,1009.22
10.667,0.12,0.96,0.06,-0.03,0.51,0.17,0.16,-0.15,0.20,1009.22
10.684,0.12,0.96,0.05,-0.03,0.51,0.17,0.16,-0.15,0.20,1009.22
10.686,0.12,0.96,0.05,-0.27,0.56,0.20,0.16,-0.15,0.20,1009.22
10.694,0.12,0.96,0.05,-0.27,0.56,0.20,0.16,-0.15,0.20,1009.26
10.709,0.15,0.99,-0.00,-0.27,0.56,0.20,0.16,-0.15,0.20,1009.26
10.734,0.15,0.99,-0.00,-0.27,0.56,0.20,0.12,-0.15,0.33,1009.26
10.735,0.13,1.02,-0.05,-0.27,0.56,0.20,0.12,-0.15,0.33,1009.26
10.755,0.13,1.02,-0.05,-0.46,0.58,0.15,0.12,-0.15,0.33,1009.26
10.756,0.07,1.04,-0.03,-0.46,0.58,0.15,0.12,-0.15,0.33,1009.26
10.757,0.06,1.06,-0.02,-0.46,0.58,0.15,0.12,-0.15,0.33,1009.26
10.773,0.06,1.06,-0.02,-0.46,0.58,0.15,0.12,-0.15,0.33,1009.40
10.804,0.06,1.06,-0.02,-0.46,0.58,0.15,-0.07,-0.10,0.95,1009.40
10.806,0.01,1.10,-0.02,-0.46,0.58,0.15,-0.07,-0.10,0.95,1009.40
10.806,0.01,1.14,-0.05,-0.46,0.58,0.15,-0.07,-0.10,0.95,1009.40
10.812,0.01,1.14,-0.05,-0.46,0.58,0.15,-0.07,-0.10,0.95,1009.70
10.826,0.03,1.19,-0.10,-0.46,0.58,0.15,-0.07,-0.10,0.95,1009.70
10.828,0.03,1.19,-0.10,-1.57,1.36,-0.57,-0.07,-0.10,0.95,1009.70
10.849,0.03,1.23,-0.10,-1.57,1.36,-0.57,-0.07,-0.10,0.95,1009.70
10.854,-0.04,1.29,-0.11,-1.57,1.36,-0.57,-0.07,-0.10,0.95,1009.70
10.874,-0.04,1.29,-0.11,-1.57,1.36,-0.57,-0.39,-0.00,2.15,1009.70
10.894,-0.17,1.42,-0.14,-1.57,1.36,-0.57,-0.39,-0.00,2.15,1009.70
10.896,-0.17,1.42,-0.14,-1.57,1.36,-0.57,-0.39,-0.00,2.15,1009.79
10.896,-0.44,1.52,-0.04,-1.57,1.36,-0.57,-0.39,-0.00,2.15,1009.79
10.897,-0.44,1.52,-0.04,-3.84,3.12,-1.16,-0.39,-0.00,2.15,1009.79
10.945,-0.44,1.52,-0.04,-3.84,3.12,-1.16,-0.85,-0.68,5.03,1009.79
10.946,-0.77,1.67,-0.01,-3.84,3.12,-1.16,-0.85,-0.68,5.03,1009.79
10.946,-0.71,1.74,0.06,-3.84,3.12,-1.16,-0.85,-0.68,5.03,1009.79
10.958,0.07,1.75,0.44,-3.84,3.12,-1.16,-0.85,-0.68,5.03,1009.79
10.964,0.07,1.75,0.44,-8.70,7.63,-1.48,-0.85,-0.68,5.03,1009.79
10.972,0.07,1.75,0.44,-8.70,7.63,-1.48,-0.85,-0.68,5.03,1009.37
11.012,0.07,1.75,0.44,-8.70,7.63,-1.48,-0.85,-0.68,5.03,1008.30
11.014,-0.06,1.28,0.62,-8.70,7.63,-1.48,-0.85,-0.68,5.03,1008.30
11.014,-0.28,1.12,0.74,-8.70,7.63,-1.48,-0.85,-0.68,5.03,1008.30
11.015,-0.28,1.12,0.74,-8.70,7.63,-1.48,-0.24,-1.42,6.92,1008.30
11.027,0.25,0.16,0.08,-8.70,7.63,-1.48,-0.24,-1.42,6.92,1008.30
11.034,0.25,0.16,0.08,-12.43,13.07,2.29,-0.24,-1.42,6.92,1008.30
11.036,3.59,1.15,0.35,-12.43,13.07,2.29,-0.24,-1.42,6.92,1008.30
11.085,3.59,1.15,0.35,-12.43,13.07,2.29,0.18,0.67,-1.71,1008.30
11.086,0.47,0.34,0.61,-12.43,13.07,2.29,0.18,0.67,-1.71,1008.30
11.087,-0.42,0.50,-0.04,-12.43,13.07,2.29,0.18,0.67,-1.71,1008.30
11.092,-0.42,0.50,-0.04,-12.43,13.07,2.29,0.18,0.67,-1.71,1008.70
11.105,-0.77,0.52,-0.22,-12.43,13.07,2.29,0.18,0.67,-1.71,1008.70
11.106,-0.77,0.52,-0.22,2.25,3.71,3.42,0.18,0.67,-1.71,1008.70
11.156,-0.77,0.52,-0.22,2.25,3.71,3.42,-0.15,0.86,-3.13,1008.70
11.157,-0.36,0.40,0.09,2.25,3.71,3.42,-0.15,0.86,-3.13,1008.70
11.157,0.37,0.43,0.16,2.25,3.71,3.42,-0.15,0.86,-3.13,1008.70
11.159,0.50,0.46,0.07,2.25,3.71,3.42,-0.15,0.86,-3.13,1008.70
11.174,0.50,0.46,0.07,2.25,3.71,3.42,-0.15,0.86,-3.13,1008.94
11.175,0.17,0.50,-0.01,2.25,3.71,3.42,-0.15,0.86,-3.13,1008.94
11.175,0.17,0.50,-0.01,-8.60,-2.27,0.09,-0.15,0.86,-3.13,1008.94
11.213,0.07,0.61,-0.06,-8.60,-2.27,0.09,-0.15,0.86,-3.13,1008.94
11.214,0.07,0.61,-0.06,-8.60,-2.27,0.09,-0.15,0.86,-3.13,1009.16
11.227,0.07,0.61,-0.06,-8.60,-2.27,0.09,0.32,0.19,-5.09,1009.16
11.228,0.33,0.76,-0.10,-8.60,-2.27,0.09,0.32,0.19,-5.09,1009.16
11.246,0.33,0.76,-0.10,-0.48,-3.84,-0.04,0.32,0.19,-5.09,1009.16
11.247,0.60,0.94,-0.15,-0.48,-3.84,-0.04,0.32,0.19,-5.09,1009.16
11.296,0.60,1.05,-0.17,-0.48,-3.84,-0.04,0.32,0.19,-5.09,1009.16
11.299,0.55,1.14,-0.15,-0.48,-3.84,-0.04,0.32,0.19,-5.09,1009.16
11.299,0.55,1.14,-0.15,-0.48,-3.84,-0.04,0.32,0.19,-5.09,1009.24
11.3,0.55,1.14,-0.15,-0.48,-3.84,-0.04,0.60,1.01,-5.21,1009.24
11.31,0.56,1.31,-0.17,-0.48,-3.84,-0.04,0.60,1.01,-5.21,1009.24
11.314,0.56,1.31,-0.17,3.57,-0.94,-1.65,0.60,1.01,-5.21,1009.24
11.315,0.55,1.59,-0.26,3.57,-0.94,-1.65,0.60,1.01,-5.21,1009.24
11.359,0.92,1.63,0.03,3.57,-0.94,-1.65,0.60,1.01,-5.21,1009.24
11.36,1.78,1.26,0.43,3.57,-0.94,-1.65,0.60,1.01,-5.21,1009.24
11.365,1.78,1.26,0.43,3.57,-0.94,-1.65,0.71,1.06,-2.75,1009.24
11.372,1.78,1.26,0.43,3.57,-0.94,-1.65,0.71,1.06,-2.75,1009.33
11.385,1.78,1.26,0.43,6.42,3.92,-1.79,0.71,1.06,-2.75,1009.33
11.386,2.46,0.78,0.59,6.42,3.92,-1.79,0.71,1.06,-2.75,1009.33
11.395,2.28,0.61,0.62,6.42,3.92,-1.79,0.71,1.06,-2.75,1009.33
11.412,2.28,0.61,0.62,6.42,3.92,-1.79,0.71,1.06,-2.75,1009.35
11.426,1.87,0.70,0.21,6.42,3.92,-1.79,0.71,1.06,-2.75,1009.35
11.434,1.87,0.70,0.21,6.42,3.92,-1.79,0.26,-0.29,-0.77,1009.35
11.456,0.30,1.36,0.07,6.42,3.92,-1.79,0.26,-0.29,-0.77,1009.35
11.457,0.08,0.62,-0.45,6.42,3.92,-1.79,0.26,-0.29,-0.77,1009.35
11.458,0.08,0.62,-0.45,18.01,2.19,3.62,0.26,-0.29,-0.77,1009.35
11.496,0.91,1.22,0.89,18.01,2.19,3.62,0.26,-0.29,-0.77,1009.35
11.497,0.91,1.22,0.89,18.01,2.19,3.62,0.26,-0.29,-0.77,1009.67
11.508,0.91,1.22,0.89,18.01,2.19,3.62,-0.20,0.56,2.23,1009.67
11.509,3.11,1.53,1.07,18.01,2.19,3.62,-0.20,0.56,2.23,1009.67
11.525,-0.94,1.05,-1.37,18.01,2.19,3.62,-0.20,0.56,2.23,1009.67
11.526,-0.94,1.05,-1.37,8.65,-0.56,0.07,-0.20,0.56,2.23,1009.67
11.559,0.33,0.97,-0.01,8.65,-0.56,0.07,-0.20,0.56,2.23,1009.67
11.56,0.20,1.03,0.05,8.65,-0.56,0.07,-0.20,0.56,2.23,1009.67
11.573,0.20,1.03,0.05,8.65,-0.56,0.07,-0.20,0.56,2.23,1009.84
11.574,0.20,1.03,0.05,8.65,-0.56,0.07,-0.35,0.21,0.27,1009.84
11.595,0.08,0.99,0.19,8.65,-0.56,0.07,-0.35,0.21,0.27,1009.84
11.596,0.13,0.99,0.06,8.65,-0.56,0.07,-0.35,0.21,0.27,1009.84
11.597,0.13,0.99,0.06,8.87,3.19,1.33,-0.35,0.21,0.27,1009.84
11.612,0.13,0.99,0.06,8.87,3.19,1.33,-0.35,0.21,0.27,1009.45
11.626,0.13,0.94,0.17,8.87,3.19,1.33,-0.35,0.21,0.27,1009.45
11.645,0.13,0.98,0.09,8.87,3.19,1.33,-0.35,0.21,0.27,1009.45
11.646,0.13,0.98,0.09,8.87,3.19,1.33,-0.07,0.06,0.15,1009.45
11.666,0.13,0.98,0.09,-0.26,0.69,0.15,-0.07,0.06,0.15,1009.45
11.667,0.13,1.00,-0.00,-0.26,0.69,0.15,-0.07,0.06,0.15,1009.45
11.696,0.12,1.00,0.04,-0.26,0.69,0.15,-0.07,0.06,0.15,1009.45
11.698,0.12,1.00,0.04,-0.26,0.69,0.15,-0.07,0.06,0.15,1009.33
11.709,0.13,0.98,0.06,-0.26,0.69,0.15,-0.07,0.06,0.15,1009.33
11.714,0.13,0.98,0.06,-0.26,0.69,0.15,0.02,-0.01,0.13,1009.33
11.735,0.13,0.98,0.06,0.12,0.62,0.31,0.02,-0.01,0.13,1009.33
11.736,0.11,0.97,0.09,0.12,0.62,0.31,0.02,-0.01,0.13,1009.33
11.737,0.13,0.97,0.07,0.12,0.62,0.31,0.02,-0.01,0.13,1009.33
11.759,0.13,0.98,0.04,0.12,0.62,0.31,0.02,-0.01,0.13,1009.33
11.773,0.13,0.98,0.04,0.12,0.62,0.31,0.02,-0.01,0.13,1009.25
11.785,0.13,0.98,0.04,0.12,0.62,0.31,0.14,-0.07,0.17,1009.25
11.786,0.12,0.98,0.05,0.12,0.62,0.31,0.14,-0.07,0.17,1009.25
11.806,0.14,0.97,0.05,0.12,0.62,0.31,0.14,-0.07,0.17,1009.25
11.806,0.14,0.97,0.05,-0.05,0.60,0.35,0.14,-0.07,0.17,1009.25
11.816,0.14,0.97,0.05,-0.05,0.60,0.35,0.14,-0.07,0.17,1009.22
11.826,0.14,0.96,0.05,-0.05,0.60,0.35,0.14,-0.07,0.17,1009.22
11.85,0.14,0.98,0.01,-0.05,0.60,0.35,0.14,-0.07,0.17,1009.22
11.854,0.14,0.98,0.01,-0.05,0.60,0.35,0.19,-0.15,0.20,1009.22
11.881,0.16,0.99,-0.00,-0.05,0.60,0.35,0.19,-0.15,0.20,1009.22
11.882,0.16,0.98,0.01,-0.05,0.60,0.35,0.19,-0.15,0.20,1009.22
11.882,0.16,0.98,0.01,-0.10,0.59,0.23,0.19,-0.15,0.20,1009.22
11.892,0.16,0.98,0.01,-0.10,0.59,0.23,0.19,-0.15,0.20,1009.26
11.91,0.14,0.97,0.02,-0.10,0.59,0.23,0.19,-0.15,0.20,1009.26
11.925,0.14,0.97,0.02,-0.10,0.59,0.23,0.14,-0.14,0.24,1009.26
11.926,0.13,0.98,0.03,-0.10,0.59,0.23,0.14,-0.14,0.24,1009.26
11.945,0.09,1.01,0.02,-0.10,0.59,0.23,0.14,-0.14,0.24,1009.26
11.946,0.09,1.01,0.02,-0.12,0.66,-0.01,0.14,-0.14,0.24,1009.26
11.959,0.06,1.04,-0.01,-0.12,0.66,-0.01,0.14,-0.14,0.24,1009.26
11.972,0.06,1.04,-0.01,-0.12,0.66,-0.01,0.14,-0.14,0.24,1009.40
11.996,0.06,1.04,-0.01,-0.12,0.66,-0.01,0.10,-0.11,0.69,1009.40
11.998,0.06,1.08,-0.06,-0.12,0.66,-0.01,0.10,-0.11,0.69,1009.40
12.012,0.01,1.12,-0.08,-0.12,0.66,-0.01,0.10,-0.11,0.69,1009.40
12.013,0.01,1.12,-0.08,-0.12,0.66,-0.01,0.10,-0.11,0.69,1009.66
12.014,0.08,1.15,-0.12,-0.12,0.66,-0.01,0.10,-0.11,0.69,1009.66
12.015,0.08,1.15,-0.12,-1.04,0.89,0.10,0.10,-0.11,0.69,1009.66
12.055,0.06,1.19,-0.12,-1.04,0.89,0.10,0.10,-0.11,0.69,1009.66
12.057,-0.01,1.29,-0.13,-1.04,0.89,0.10,0.10,-0.11,0.69,1009.66
12.065,-0.01,1.29,-0.13,-1.04,0.89,0.10,-0.20,0.05,1.66,1009.66
12.086,-0.01,1.29,-0.13,-2.87,2.39,-1.01,-0.20,0.05,1.66,1009.66
12.087,-0.16,1.43,-0.12,-2.87,2.39,-1.01,-0.20,0.05,1.66,1009.66
12.097,-0.16,1.43,-0.12,-2.87,2.39,-1.01,-0.20,0.05,1.66,1009.74
12.109,-0.40,1.51,0.01,-2.87,2.39,-1.01,-0.20,0.05,1.66,1009.74
12.135,-0.40,1.51,0.01,-2.87,2.39,-1.01,-0.47,-0.52,3.92,1009.74
12.136,-0.58,1.60,-0.01,-2.87,2.39,-1.01,-0.47,-0.52,3.92,1009.74
12.155,-0.58,1.60,-0.01,-6.65,6.10,-1.30,-0.47,-0.52,3.92,1009.74
12.156,-0.64,1.59,0.02,-6.65,6.10,-1.30,-0.47,-0.52,3.92,1009.74
12.157,-0.02,1.59,0.20,-6.65,6.10,-1.30,-0.47,-0.52,3.92,1009.74
12.172,-0.02,1.59,0.20,-6.65,6.10,-1.30,-0.47,-0.52,3.92,1009.27
12.206,-0.02,1.59,0.20,-6.65,6.10,-1.30,-0.15,-1.03,6.40,1009.27
12.207,0.09,1.25,0.52,-6.65,6.10,-1.30,-0.15,-1.03,6.40,1009.27
12.208,-0.06,1.07,0.64,-6.65,6.10,-1.30,-0.15,-1.03,6.40,1009.27
12.212,-0.06,1.07,0.64,-6.65,6.10,-1.30,-0.15,-1.03,6.40,1008.31
12.228,0.09,0.55,0.24,-6.65,6.10,-1.30,-0.15,-1.03,6.40,1008.31
12.229,0.09,0.55,0.24,-12.19,11.58,0.86,-0.15,-1.03,6.40,1008.31
12.281,0.09,0.55,0.24,-12.19,11.58,0.86,0.74,0.46,0.96,1008.31
12.282,2.05,0.69,0.04,-12.19,11.58,0.86,0.74,0.46,0.96,1008.31
12.283,1.63,0.65,0.63,-12.19,11.58,0.86,0.74,0.46,0.96,1008.31
12.292,0.08,0.50,0.34,-12.19,11.58,0.86,0.74,0.46,0.96,1008.31
12.293,0.08,0.50,0.34,-12.19,11.58,0.86,0.74,0.46,0.96,1008.74
12.295,-0.52,0.54,-0.10,-12.19,11.58,0.86,0.74,0.46,0.96,1008.74
12.295,-0.52,0.54,-0.10,-5.67,3.60,3.64,0.74,0.46,0.96,1008.74
12.346,-0.52,0.54,-0.10,-5.67,3.60,3.64,0.62,1.36,-2.27,1008.74
12.347,-0.46,0.55,0.05,-5.67,3.60,3.64,0.62,1.36,-2.27,1008.74
12.348,0.02,0.50,0.25,-5.67,3.60,3.64,0.62,1.36,-2.27,1008.74
12.359,0.50,0.44,0.40,-5.67,3.60,3.64,0.62,1.36,-2.27,1008.74
12.366,0.50,0.44,0.40,0.91,0.29,2.01,0.62,1.36,-2.27,1008.74
12.372,0.50,0.44,0.40,0.91,0.29,2.01,0.62,1.36,-2.27,1009.00
12.412,0.50,0.44,0.40,0.91,0.29,2.01,0.62,1.36,-2.27,1009.15
12.414,0.56,0.42,0.42,0.91,0.29,2.01,0.62,1.36,-2.27,1009.15
12.414,0.32,0.52,0.30,0.91,0.29,2.01,0.62,1.36,-2.27,1009.15
12.415,0.32,0.52,0.30,0.91,0.29,2.01,0.83,0.76,-4.16,1009.15
12.426,0.23,0.67,0.25,0.91,0.29,2.01,0.83,0.76,-4.16,1009.15
12.435,0.39,0.77,0.35,0.91,0.29,2.01,0.83,0.76,-4.16,1009.15
12.436,0.39,0.77,0.35,-3.33,-3.02,2.06,0.83,0.76,-4.16,1009.15
12.486,0.56,0.85,0.37,-3.33,-3.02,2.06,0.83,0.76,-4.16,1009.15
12.487,0.55,1.00,0.22,-3.33,-3.02,2.06,0.83,0.76,-4.16,1009.15
12.487,0.55,1.00,0.22,-3.33,-3.02,2.06,0.97,1.15,-4.56,1009.15
12.499,0.55,1.00,0.22,-3.33,-3.02,2.06,0.97,1.15,-4.56,1009.21
12.506,0.40,1.15,0.13,-3.33,-3.02,2.06,0.97,1.15,-4.56,1009.21
12.506,0.40,1.15,0.13,1.72,-2.60,2.79,0.97,1.15,-4.56,1009.21
12.555,0.40,1.15,0.13,1.72,-2.60,2.79,0.69,2.05,-4.21,1009.21
12.556,0.37,1.26,0.20,1.72,-2.60,2.79,0.69,2.05,-4.21,1009.21
12.557,0.48,1.35,0.20,1.72,-2.60,2.79,0.69,2.05,-4.21,1009.21
12.559,0.72,1.46,0.14,1.72,-2.60,2.79,0.69,2.05,-4.21,1009.21
12.572,0.72,1.46,0.14,1.72,-2.60,2.79,0.69,2.05,-4.21,1009.17
12.575,1.27,1.40,0.32,1.72,-2.60,2.79,0.69,2.05,-4.21,1009.17
12.577,1.27,1.40,0.32,5.39,1.31,2.33,0.69,2.05,-4.21,1009.17
12.596,1.90,1.17,0.43,5.39,1.31,2.33,0.69,2.05,-4.21,1009.17
12.616,1.90,1.17,0.43,5.39,1.31,2.33,0.69,2.05,-4.21,1009.38
12.627,1.90,1.17,0.43,5.39,1.31,2.33,0.88,2.38,-2.41,1009.38
12.628,1.72,0.87,0.44,5.39,1.31,2.33,0.88,2.38,-2.41,1009.38
12.646,1.72,0.87,0.44,8.70,4.77,2.67,0.88,2.38,-2.41,1009.38
12.648,1.74,0.57,0.39,8.70,4.77,2.67,0.88,2.38,-2.41,1009.38
12.692,2.10,0.39,0.39,8.70,4.77,2.67,0.88,2.38,-2.41,1009.38
12.693,1.63,0.43,0.38,8.70,4.77,2.67,0.88,2.38,-2.41,1009.38
12.694,1.63,0.43,0.38,8.70,4.77,2.67,0.88,2.38,-2.41,1009.35
12.694,1.63,0.43,0.38,8.70,4.77,2.67,-0.68,1.64,1.85,1009.35
12.71,0.14,2.77,1.06,8.70,4.77,2.67,-0.68,1.64,1.85,1009.35
12.716,-0.70,0.99,-2.61,8.70,4.77,2.67,-0.68,1.64,1.85,1009.35
12.717,-0.70,0.99,-2.61,17.71,-1.04,4.19,-0.68,1.64,1.85,1009.35
12.759,2.16,1.18,1.48,17.71,-1.04,4.19,-0.68,1.64,1.85,1009.35
12.761,-0.80,1.13,-1.08,17.71,-1.04,4.19,-0.68,1.64,1.85,1009.35
12.765,-0.80,1.13,-1.08,17.71,-1.04,4.19,-0.28,0.32,0.70,1009.35
12.772,-0.80,1.13,-1.08,17.71,-1.04,4.19,-0.28,0.32,0.70,1009.81
12.786,-0.80,1.13,-1.08,5.28,3.32,-2.79,-0.28,0.32,0.70,1009.81
12.787,0.71,1.11,-0.01,5.28,3.32,-2.79,-0.28,0.32,0.70,1009.81
12.812,-0.04,0.97,0.04,5.28,3.32,-2.79,-0.28,0.32,0.70,1009.81
12.814,-0.04,0.97,0.04,5.28,3.32,-2.79,-0.28,0.32,0.70,1009.35
12.826,0.12,0.92,0.22,5.28,3.32,-2.79,-0.28,0.32,0.70,1009.35
12.835,0.12,0.92,0.22,5.28,3.32,-2.79,-0.41,0.12,0.17,1009.35
12.849,0.15,0.94,0.17,5.28,3.32,-2.79,-0.41,0.12,0.17,1009.35
12.855,0.13,0.92,0.15,5.28,3.32,-2.79,-0.41,0.12,0.17,1009.35
12.855,0.13,0.92,0.15,4.74,1.97,0.55,-0.41,0.12,0.17,1009.35
12.892,0.18,0.97,0.03,4.74,1.97,0.55,-0.41,0.12,0.17,1009.35
12.893,0.18,0.97,0.03,4.74,1.97,0.55,-0.41,0.12,0.17,1009.31
12.905,0.18,0.97,0.03,4.74,1.97,0.55,-0.07,0.06,0.06,1009.31
12.906,0.12,1.03,-0.06,4.74,1.97,0.55,-0.07,0.06,0.06,1009.31
12.926,0.12,1.03,-0.06,0.34,0.15,1.55,-0.07,0.06,0.06,1009.31
12.928,0.09,1.02,0.02,0.34,0.15,1.55,-0.07,0.06,0.06,1009.31
12.958,0.09,0.98,0.07,0.34,0.15,1.55,-0.07,0.06,0.06,1009.31
12.96,0.09,0.97,0.07,0.34,0.15,1.55,-0.07,0.06,0.06,1009.31
12.972,0.09,0.97,0.07,0.34,0.15,1.55,-0.07,0.06,0.06,1009.33
12.975,0.09,0.97,0.07,0.34,0.15,1.55,-0.02,0.00,0.08,1009.33
12.999,0.09,0.97,0.07,0.22,0.83,-0.23,-0.02,0.00,0.08,1009.33
13.0,0.11,0.98,0.07,0.22,0.83,-0.23,-0.02,0.00,0.08,1009.33
13.001,0.11,0.99,0.02,0.22,0.83,-0.23,-0.02,0.00,0.08,1009.33
13.012,0.11,0.99,0.02,0.22,0.83,-0.23,-0.02,0.00,0.08,1009.33
13.026,0.10,1.00,0.01,0.22,0.83,-0.23,-0.02,0.00,0.08,1009.33
13.046,0.10,1.00,0.01,0.22,0.83,-0.23,0.06,-0.03,0.15,1009.33
13.048,0.10,0.99,0.03,0.22,0.83,-0.23,0.06,-0.03,0.15,1009.33
13.066,0.12,0.97,0.04,0.22,0.83,-0.23,0.06,-0.03,0.15,1009.33
13.068,0.12,0.97,0.04,-0.06,0.62,0.28,0.06,-0.03,0.15,1009.33
13.092,0.14,0.97,0.03,-0.06,0.62,0.28,0.06,-0.03,0.15,1009.33
13.093,0.14,0.97,0.03,-0.06,0.62,0.28,0.06,-0.03,0.15,1009.33
13.108,0.11,0.96,0.04,-0.06,0.62,0.28,0.06,-0.03,0.15,1009.33
13.115,0.11,0.96,0.04,-0.06,0.62,0.28,0.11,-0.06,0.20,1009.33
13.136,0.15,0.97,0.04,-0.06,0.62,0.28,0.11,-0.06,0.20,1009.33
13.138,0.13,0.97,0.04,-0.06,0.62,0.28,0.11,-0.06,0.20,1009.33
13.138,0.13,0.97,0.04,-0.13,0.66,0.09,0.11,-0.06,0.20,1009.33
13.158,0.15,0.98,-0.00,-0.13,0.66,0.09,0.11,-0.06,0.20,1009.33
13.172,0.15,0.98,-0.00,-0.13,0.66,0.09,0.11,-0.06,0.20,1009.37
13.186,0.14,0.99,-0.02,-0.13,0.66,0.09,0.11,-0.06,0.20,1009.37
13.187,0.14,0.99,-0.02,-0.13,0.66,0.09,0.16,-0.05,0.23,1009.37
13.206,0.12,1.01,-0.02,-0.13,0.66,0.09,0.16,-0.05,0.23,1009.37
13.208,0.12,1.01,-0.02,-0.04,0.53,0.31,0.16,-0.05,0.23,1009.37
13.212,0.12,1.01,-0.02,-0.04,0.53,0.31,0.16,-0.05,0.23,1009.43
13.23,0.08,1.02,0.00,-0.04,0.53,0.31,0.16,-0.05,0.23,1009.43
13.256,0.08,1.02,0.00,-0.04,0.53,0.31,0.15,0.04,0.52,1009.43
13.258,0.06,1.05,-0.02,-0.04,0.53,0.31,0.15,0.04,0.52,1009.43
13.276,0.06,1.05,-0.02,-0.52,0.88,-0.08,0.15,0.04,0.52,1009.43
13.277,0.02,1.07,-0.02,-0.52,0.88,-0.08,0.15,0.04,0.52,1009.43
13.278,0.01,1.08,-0.03,-0.52,0.88,-0.08,0.15,0.04,0.52,1009.43
13.293,0.01,1.08,-0.03,-0.52,0.88,-0.08,0.15,0.04,0.52,1009.46
13.31,0.01,1.12,-0.03,-0.52,0.88,-0.08,0.15,0.04,0.52,1009.46
13.326,0.01,1.12,-0.03,-0.52,0.88,-0.08,0.15,-0.03,1.42,1009.46
13.327,0.03,1.17,-0.05,-0.52,0.88,-0.08,0.15,-0.03,1.42,1009.46
13.336,-0.03,1.33,-0.10,-0.52,0.88,-0.08,0.15,-0.03,1.42,1009.46
13.348,-0.03,1.33,-0.10,-2.49,1.74,-0.07,0.15,-0.03,1.42,1009.46
13.359,-0.19,1.46,-0.12,-2.49,1.74,-0.07,0.15,-0.03,1.42,1009.46
13.372,-0.19,1.46,-0.12,-2.49,1.74,-0.07,0.15,-0.03,1.42,1009.45
13.403,-0.19,1.46,-0.12,-2.49,1.74,-0.07,0.07,-0.12,3.21,1009.45
13.406,-0.41,1.56,-0.12,-2.49,1.74,-0.07,0.07,-0.12,3.21,1009.45
13.416,-0.56,1.55,-0.07,-2.49,1.74,-0.07,0.07,-0.12,3.21,1009.45
13.417,-0.56,1.55,-0.07,-2.49,1.74,-0.07,0.07,-0.12,3.21,1009.27
13.417,-0.36,1.57,0.00,-2.49,1.74,-0.07,0.07,-0.12,3.21,1009.27
13.418,-0.36,1.57,0.00,-5.19,4.55,-0.50,0.07,-0.12,3.21,1009.27
13.467,-0.36,1.57,0.00,-5.19,4.55,-0.50,0.13,-0.47,5.78,1009.27
13.469,-0.06,1.45,0.24,-5.19,4.55,-0.50,0.13,-0.47,5.78,1009.27
13.469,0.10,1.06,0.59,-5.19,4.55,-0.50,0.13,-0.47,5.78,1009.27
13.486,0.10,1.06,0.59,-11.61,10.28,-0.09,0.13,-0.47,5.78,1009.27
13.488,0.07,0.98,0.85,-11.61,10.28,-0.09,0.13,-0.47,5.78,1009.27
13.492,0.07,0.98,0.85,-11.61,10.28,-0.09,0.13,-0.47,5.78,1008.63
13.509,0.18,0.27,0.45,-11.61,10.28,-0.09,0.13,-0.47,5.78,1008.63
13.536,0.18,0.27,0.45,-11.61,10.28,-0.09,1.63,1.01,3.16,1008.63
13.538,2.58,0.89,-0.11,-11.61,10.28,-0.09,1.63,1.01,3.16,1008.63
13.556,2.58,0.89,-0.11,-7.42,5.77,5.43,1.63,1.01,3.16,1008.63
13.557,1.40,0.68,0.24,-7.42,5.77,5.43,1.63,1.01,3.16,1008.63
13.558,-0.20,0.50,0.23,-7.42,5.77,5.43,1.63,1.01,3.16,1008.63
13.574,-0.20,0.50,0.23,-7.42,5.77,5.43,1.63,1.01,3.16,1008.92
13.606,-0.20,0.50,0.23,-7.42,5.77,5.43,1.19,1.87,-2.38,1008.92
13.608,-0.69,0.52,0.02,-7.42,5.77,5.43,1.19,1.87,-2.38,1008.92
13.608,-0.43,0.54,0.21,-7.42,5.77,5.43,1.19,1.87,-2.38,1008.92
13.612,-0.43,0.54,0.21,-7.42,5.77,5.43,1.19,1.87,-2.38,1009.09
13.626,0.13,0.49,0.44,-7.42,5.77,5.43,1.19,1.87,-2.38,1009.09
13.627,0.13,0.49,0.44,4.35,-0.10,1.34,1.19,1.87,-2.38,1009.09
13.676,0.13,0.49,0.44,4.35,-0.10,1.34,1.29,0.59,-3.46,1009.09
13.678,0.44,0.45,0.53,4.35,-0.10,1.34,1.29,0.59,-3.46,1009.09
13.679,0.42,0.52,0.45,4.35,-0.10,1.34,1.29,0.59,-3.46,1009.09
13.692,0.36,0.63,0.36,4.35,-0.10,1.34,1.29,0.59,-3.46,1009.09
13.693,0.36,0.63,0.36,4.35,-0.10,1.34,1.29,0.59,-3.46,1009.22
13.696,0.37,0.75,0.34,4.35,-0.10,1.34,1.29,0.59,-3.46,1009.22
13.696,0.37,0.75,0.34,-7.00,-2.53,2.70,1.29,0.59,-3.46,1009.22
13.746,0.37,0.75,0.34,-7.00,-2.53,2.70,1.05,1.20,-4.41,1009.22
13.748,0.45,0.83,0.43,-7.00,-2.53,2.70,1.05,1.20,-4.41,1009.22
13.749,0.46,0.91,0.42,-7.00,-2.53,2.70,1.05,1.20,-4.41,1009.22
13.758,0.42,1.06,0.29,-7.00,-2.53,2.70,1.05,1.20,-4.41,1009.22
13.766,0.42,1.06,0.29,1.51,-2.65,4.06,1.05,1.20,-4.41,1009.22
13.772,0.42,1.06,0.29,1.51,-2.65,4.06,1.05,1.20,-4.41,1009.26
13.812,0.42,1.06,0.29,1.51,-2.65,4.06,1.05,1.20,-4.41,1009.17
13.813,0.30,1.19,0.21,1.51,-2.65,4.06,1.05,1.20,-4.41,1009.17
13.814,0.31,1.28,0.17,1.51,-2.65,4.06,1.05,1.20,-4.41,1009.17
13.815,0.31,1.28,0.17,1.51,-2.65,4.06,0.11,1.81,-4.21,1009.17
13.826,0.36,1.33,0.20,1.51,-2.65,4.06,0.11,1.81,-4.21,1009.17
13.836,0.36,1.33,0.20,4.22,0.55,3.36,0.11,1.81,-4.21,1009.17
13.838,0.54,1.34,0.22,4.22,0.55,3.36,0.11,1.81,-4.21,1009.17
13.886,0.54,1.34,0.22,4.22,0.55,3.36,0.50,2.06,-3.09,1009.17
13.888,0.91,1.30,0.30,4.22,0.55,3.36,0.50,2.06,-3.09,1009.17
13.889,1.36,1.23,0.35,4.22,0.55,3.36,0.50,2.06,-3.09,1009.17
13.892,1.36,1.23,0.35,4.22,0.55,3.36,0.50,2.06,-3.09,1009.25
13.902,1.49,1.13,0.27,4.22,0.55,3.36,0.50,2.06,-3.09,1009.25
13.907,1.49,1.13,0.27,5.26,3.92,2.31,0.50,2.06,-3.09,1009.25
13.956,1.49,1.13,0.27,5.26,3.92,2.31,-0.04,0.76,0.06,1009.25
13.958,1.59,0.78,0.42,5.26,3.92,2.31,-0.04,0.76,0.06,1009.25
13.959,1.97,0.44,0.35,5.26,3.92,2.31,-0.04,0.76,0.06,1009.25
13.959,1.89,0.47,0.27,5.26,3.92,2.31,-0.04,0.76,0.06,1009.25
13.972,1.89,0.47,0.27,5.26,3.92,2.31,-0.04,0.76,0.06,1009.38
13.976,0.18,2.35,1.21,5.26,3.92,2.31,-0.04,0.76,0.06,1009.38
13.976,0.18,2.35,1.21,13.06,2.55,3.27,-0.04,0.76,0.06,1009.38
14.012,0.71,1.27,-1.76,13.06,2.55,3.27,-0.04,0.76,0.06,1009.38
14.014,0.71,1.27,-1.76,13.06,2.55,3.27,-0.04,0.76,0.06,1009.57
14.027,2.38,0.76,0.67,13.06,2.55,3.27,-0.04,0.76,0.06,1009.57
14.028,2.38,0.76,0.67,13.06,2.55,3.27,-0.21,0.95,1.97,1009.57
14.048,2.38,0.76,0.67,12.95,1.03,5.75,-0.21,0.95,1.97,1009.57
14.049,-0.98,1.30,-0.84,12.95,1.03,5.75,-0.21,0.95,1.97,1009.57
14.093,1.01,1.11,-0.26,12.95,1.03,5.75,-0.21,0.95,1.97,1009.57
14.094,-0.05,0.94,-0.10,12.95,1.03,5.75,-0.21,0.95,1.97,1009.57
14.095,-0.05,0.94,-0.10,12.95,1.03,5.75,-0.21,0.95,1.97,1009.54
14.102,-0.05,0.94,-0.10,12.95,1.03,5.75,-0.55,0.24,0.17,1009.54
14.116,-0.05,0.94,-0.10,6.72,2.05,-6.15,-0.55,0.24,0.17,1009.54
14.117,-0.03,0.95,0.38,6.72,2.05,-6.15,-0.55,0.24,0.17,1009.54
14.118,0.10,0.96,0.17,6.72,2.05,-6.15,-0.55,0.24,0.17,1009.54
14.16,0.11,0.96,0.13,6.72,2.05,-6.15,-0.55,0.24,0.17,1009.54
14.161,0.12,0.99,0.04,6.72,2.05,-6.15,-0.55,0.24,0.17,1009.54
14.166,0.12,0.99,0.04,6.72,2.05,-6.15,-0.12,0.08,0.12,1009.54
14.172,0.12,0.99,0.04,6.72,2.05,-6.15,-0.12,0.08,0.12,1009.38
14.187,0.14,1.02,-0.02,6.72,2.05,-6.15,-0.12,0.08,0.12,1009.38
14.188,0.14,1.02,-0.02,0.47,0.35,0.75,-0.12,0.08,0.12,1009.38
14.212,0.09,1.00,0.03,0.47,0.35,0.75,-0.12,0.08,0.12,1009.38
14.214,0.09,1.00,0.03,0.47,0.35,0.75,-0.12,0.08,0.12,1009.34
14.226,0.08,0.99,0.08,0.47,0.35,0.75,-0.12,0.08,0.12,1009.34
14.236,0.08,0.99,0.08,0.47,0.35,0.75,-0.08,0.00,0.08,1009.34
14.256,0.08,0.99,0.08,0.25,0.72,0.07,-0.08,0.00,0.08,1009.34
14.258,0.10,0.98,0.06,0.25,0.72,0.07,-0.08,0.00,0.08,1009.34
14.258,0.10,0.97,0.07,0.25,0.72,0.07,-0.08,0.00,0.08,1009.34
14.292,0.12,0.97,0.06,0.25,0.72,0.07,-0.08,0.00,0.08,1009.34
14.293,0.12,0.97,0.06,0.25,0.72,0.07,-0.08,0.00,0.08,1009.28
14.306,0.12,0.97,0.06,0.25,0.72,0.07,0.03,-0.03,0.11,1009.28
14.308,0.11,0.97,0.05,0.25,0.72,0.07,0.03,-0.03,0.11,1009.28
14.326,0.11,0.97,0.05,-0.08,0.60,0.35,0.03,-0.03,0.11,1009.28
14.328,0.10,0.97,0.06,-0.08,0.60,0.35,0.03,-0.03,0.11,1009.28
14.359,0.10,0.98,0.05,-0.08,0.60,0.35,0.03,-0.03,0.11,1009.28
14.36,0.10,0.98,0.06,-0.08,0.60,0.35,0.03,-0.03,0.11,1009.28
14.372,0.10,0.98,0.06,-0.08,0.60,0.35,0.03,-0.03,0.11,1009.30
14.375,0.10,0.98,0.06,-0.08,0.60,0.35,0.10,-0.08,0.16,1009.30
14.406,0.10,0.98,0.06,-0.05,0.50,0.31,0.10,-0.08,0.16,1009.30
14.408,0.10,0.98,0.04,-0.05,0.50,0.31,0.10,-0.08,0.16,1009.30
14.408,0.13,0.98,0.03,-0.05,0.50,0.31,0.10,-0.08,0.16,1009.30
14.412,0.13,0.98,0.03,-0.05,0.50,0.31,0.10,-0.08,0.16,1009.35
14.426,0.18,0.97,0.01,-0.05,0.50,0.31,0.10,-0.08,0.16,1009.35
14.446,0.18,0.97,0.01,-0.05,0.50,0.31,0.13,-0.07,0.19,1009.35
14.448,0.13,0.97,0.03,-0.05,0.50,0.31,0.13,-0.07,0.19,1009.35
14.467,0.12,0.96,0.07,-0.05,0.50,0.31,0.13,-0.07,0.19,1009.35
14.468,0.12,0.96,0.07,-0.15,0.56,0.28,0.13,-0.07,0.19,1009.35
14.492,0.13,0.99,0.04,-0.15,0.56,0.28,0.13,-0.07,0.19,1009.35
14.493,0.13,0.99,0.04,-0.15,0.56,0.28,0.13,-0.07,0.19,1009.35
14.509,0.10,1.03,-0.01,-0.15,0.56,0.28,0.13,-0.07,0.19,1009.35
14.516,0.10,1.03,-0.01,-0.15,0.56,0.28,0.19,-0.09,0.27,1009.35
14.536,0.10,1.03,-0.01,-0.07,0.52,0.34,0.19,-0.09,0.27,1009.35
14.537,0.05,1.06,-0.05,-0.07,0.52,0.34,0.19,-0.09,0.27,1009.35
14.538,0.01,1.09,-0.08,-0.07,0.52,0.34,0.19,-0.09,0.27,1009.35
14.558,-0.01,1.11,-0.09,-0.07,0.52,0.34,0.19,-0.09,0.27,1009.35
14.572,-0.01,1.11,-0.09,-0.07,0.52,0.34,0.19,-0.09,0.27,1009.44
14.587,0.00,1.13,-0.05,-0.07,0.52,0.34,0.19,-0.09,0.27,1009.44
14.588,0.00,1.13,-0.05,-0.07,0.52,0.34,-0.04,-0.05,0.91,1009.44
14.607,0.00,1.13,-0.05,-1.57,1.45,-0.44,-0.04,-0.05,0.91,1009.44
14.608,-0.02,1.16,-0.01,-1.57,1.45,-0.44,-0.04,-0.05,0.91,1009.44
14.612,-0.02,1.16,-0.01,-1.57,1.45,-0.44,-0.04,-0.05,0.91,1009.54
14.626,-0.06,1.27,-0.02,-1.57,1.45,-0.44,-0.04,-0.05,0.91,1009.54
14.636,-0.15,1.37,-0.01,-1.57,1.45,-0.44,-0.04,-0.05,0.91,1009.54
14.656,-0.15,1.37,-0.01,-1.57,1.45,-0.44,0.02,-0.11,2.30,1009.54
14.676,-0.15,1.37,-0.01,-4.02,2.94,-0.43,0.02,-0.11,2.30,1009.54
14.678,-0.30,1.47,-0.06,-4.02,2.94,-0.43,0.02,-0.11,2.30,1009.54
14.679,-0.42,1.51,-0.11,-4.02,2.94,-0.43,0.02,-0.11,2.30,1009.54
14.693,-0.42,1.51,-0.11,-4.02,2.94,-0.43,0.02,-0.11,2.30,1009.33
14.709,-0.43,1.53,-0.06,-4.02,2.94,-0.43,0.02,-0.11,2.30,1009.33
14.727,-0.43,1.53,-0.06,-4.02,2.94,-0.43,-0.20,-0.39,4.72,1009.33
14.728,-0.28,1.49,0.10,-4.02,2.94,-0.43,-0.20,-0.39,4.72,1009.33
14.747,-0.28,1.49,0.10,-8.99,7.61,-0.50,-0.20,-0.39,4.72,1009.33
14.748,0.11,1.27,0.44,-8.99,7.61,-0.50,-0.20,-0.39,4.72,1009.33
14.758,0.09,1.06,0.69,-8.99,7.61,-0.50,-0.20,-0.39,4.72,1009.33
14.772,0.09,1.06,0.69,-8.99,7.61,-0.50,-0.20,-0.39,4.72,1008.84
14.796,-0.06,0.82,0.62,-8.99,7.61,-0.50,-0.20,-0.39,4.72,1008.84
14.797,-0.06,0.82,0.62,-8.99,7.61,-0.50,0.83,-0.11,5.75,1008.84
14.812,1.47,0.27,0.20,-8.99,7.61,-0.50,0.83,-0.11,5.75,1008.84
14.813,1.47,0.27,0.20,-8.99,7.61,-0.50,0.83,-0.11,5.75,1008.39
14.819,2.24,1.17,0.29,-8.99,7.61,-0.50,0.83,-0.11,5.75,1008.39
14.82,2.24,1.17,0.29,-9.24,8.95,2.44,0.83,-0.11,5.75,1008.39
14.85,-0.41,0.55,0.21,-9.24,8.95,2.44,0.83,-0.11,5.75,1008.39
14.866,-0.41,0.55,0.21,-9.24,8.95,2.44,0.87,1.35,-1.39,1008.39
14.867,-0.63,0.58,0.04,-9.24,8.95,2.44,0.87,1.35,-1.39,1008.39
14.887,-0.63,0.58,0.04,2.96,2.26,3.86,0.87,1.35,-1.39,1008.39
14.888,-0.28,0.56,0.14,2.96,2.26,3.86,0.87,1.35,-1.39,1008.39
14.892,-0.28,0.56,0.14,2.96,2.26,3.86,0.87,1.35,-1.39,1008.88
14.937,-0.28,0.56,0.14,2.96,2.26,3.86,0.62,1.17,-2.90,1008.88
14.939,0.19,0.52,0.24,2.96,2.26,3.86,0.62,1.17,-2.90,1008.88
14.939,0.35,0.53,0.24,2.96,2.26,3.86,0.62,1.17,-2.90,1008.88
14.956,0.35,0.53,0.24,-9.02,-1.68,0.91,0.62,1.17,-2.90,1008.88
14.957,0.13,0.54,0.18,-9.02,-1.68,0.91,0.62,1.17,-2.90,1008.88
14.959,-0.01,0.62,0.14,-9.02,-1.68,0.91,0.62,1.17,-2.90,1008.88
14.972,-0.01,0.62,0.14,-9.02,-1.68,0.91,0.62,1.17,-2.90,1009.04
15.007,-0.01,0.62,0.14,-9.02,-1.68,0.91,0.90,0.80,-4.45,1009.04
15.009,0.14,0.72,0.16,-9.02,-1.68,0.91,0.90,0.80,-4.45,1009.04
15.009,0.29,0.83,0.19,-9.02,-1.68,0.91,0.90,0.80,-4.45,1009.04
15.012,0.29,0.83,0.19,-9.02,-1.68,0.91,0.90,0.80,-4.45,1009.19
15.026,0.32,0.95,0.15,-9.02,-1.68,0.91,0.90,0.80,-4.45,1009.19
15.028,0.32,0.95,0.15,-1.12,-3.02,1.67,0.90,0.80,-4.45,1009.19
15.076,0.32,0.95,0.15,-1.12,-3.02,1.67,0.88,1.03,-4.68,1009.19
15.078,0.28,1.12,0.09,-1.12,-3.02,1.67,0.88,1.03,-4.68,1009.19
15.079,0.25,1.28,0.06,-1.12,-3.02,1.67,0.88,1.03,-4.68,1009.19
15.092,0.20,1.47,0.04,-1.12,-3.02,1.67,0.88,1.03,-4.68,1009.19
15.093,0.20,1.47,0.04,-1.12,-3.02,1.67,0.88,1.03,-4.68,1009.23
15.096,0.39,1.63,0.06,-1.12,-3.02,1.67,0.88,1.03,-4.68,1009.23
15.096,0.39,1.63,0.06,2.31,-0.42,1.61,0.88,1.03,-4.68,1009.23
15.147,0.39,1.63,0.06,2.31,-0.42,1.61,1.12,2.42,-3.24,1009.23
15.149,1.02,1.55,0.31,2.31,-0.42,1.61,1.12,2.42,-3.24,1009.23
15.15,1.63,1.36,0.52,2.31,-0.42,1.61,1.12,2.42,-3.24,1009.23
15.156,1.92,1.08,0.56,2.31,-0.42,1.61,1.12,2.42,-3.24,1009.23
15.167,1.92,1.08,0.56,4.21,5.05,1.63,1.12,2.42,-3.24,1009.23
15.172,1.92,1.08,0.56,4.21,5.05,1.63,1.12,2.42,-3.24,1009.26
15.213,1.92,1.08,0.56,4.21,5.05,1.63,1.12,2.42,-3.24,1009.36
15.216,1.69,1.00,0.33,4.21,5.05,1.63,1.12,2.42,-3.24,1009.36
15.217,1.72,0.77,0.57,4.21,5.05,1.63,1.12,2.42,-3.24,1009.36
15.217,1.72,0.77,0.57,4.21,5.05,1.63,0.25,1.89,-1.40,1009.36
15.227,1.77,0.50,0.56,4.21,5.05,1.63,0.25,1.89,-1.40,1009.36
15.238,1.77,0.50,0.56,16.38,3.60,5.08,0.25,1.89,-1.40,1009.36
15.239,0.40,1.41,0.64,16.38,3.60,5.08,0.25,1.89,-1.40,1009.36
15.287,0.40,1.41,0.64,16.38,3.60,5.08,-0.76,0.85,2.56,1009.36
15.288,-0.92,0.93,-0.79,16.38,3.60,5.08,-0.76,0.85,2.56,1009.36
15.288,1.42,1.08,-0.10,16.38,3.60,5.08,-0.76,0.85,2.56,1009.36
15.293,1.42,1.08,-0.10,16.38,3.60,5.08,-0.76,0.85,2.56,1009.35
15.307,1.42,1.08,-0.10,12.64,-0.05,5.97,-0.76,0.85,2.56,1009.35
15.308,1.66,1.51,0.49,12.64,-0.05,5.97,-0.76,0.85,2.56,1009.35
15.358,1.66,1.51,0.49,12.64,-0.05,5.97,-0.43,0.32,0.48,1009.35
15.359,-0.12,1.06,-0.57,12.64,-0.05,5.97,-0.43,0.32,0.48,1009.35
15.36,0.10,1.03,-0.36,12.64,-0.05,5.97,-0.43,0.32,0.48,1009.35
15.36,0.17,1.00,0.27,12.64,-0.05,5.97,-0.43,0.32,0.48,1009.35
15.372,0.17,1.00,0.27,12.64,-0.05,5.97,-0.43,0.32,0.48,1009.50
15.377,0.10,0.94,0.13,12.64,-0.05,5.97,-0.43,0.32,0.48,1009.50
15.378,0.10,0.94,0.13,2.41,1.80,-1.73,-0.43,0.32,0.48,1009.50
15.412,0.19,0.95,0.05,2.41,1.80,-1.73,-0.43,0.32,0.48,1009.50
15.413,0.19,0.95,0.05,2.41,1.80,-1.73,-0.43,0.32,0.48,1009.27
15.427,0.16,0.97,-0.00,2.41,1.80,-1.73,-0.43,0.32,0.48,1009.27
15.428,0.16,0.97,-0.00,2.41,1.80,-1.73,-0.19,0.04,0.26,1009.27
15.447,0.16,0.97,-0.00,2.57,1.30,-0.66,-0.19,0.04,0.26,1009.27
15.449,0.15,0.98,0.02,2.57,1.30,-0.66,-0.19,0.04,0.26,1009.27
15.492,0.13,0.98,0.03,2.57,1.30,-0.66,-0.19,0.04,0.26,1009.27
15.493,0.10,0.98,0.03,2.57,1.30,-0.66,-0.19,0.04,0.26,1009.27
15.494,0.10,0.98,0.03,2.57,1.30,-0.66,-0.19,0.04,0.26,1009.22
15.496,0.10,0.98,0.03,2.57,1.30,-0.66,-0.05,-0.02,0.10,1009.22
15.517,0.12,0.98,0.01,2.57,1.30,-0.66,-0.05,-0.02,0.10,1009.22
15.518,0.13,0.98,-0.01,2.57,1.30,-0.66,-0.05,-0.02,0.10,1009.22
15.518,0.13,0.98,-0.01,0.56,0.47,0.26,-0.05,-0.02,0.10,1009.22
15.559,0.11,0.99,0.01,0.56,0.47,0.26,-0.05,-0.02,0.10,1009.22
15.56,0.13,0.99,-0.02,0.56,0.47,0.26,-0.05,-0.02,0.10,1009.22
15.567,0.13,0.99,-0.02,0.56,0.47,0.26,0.04,-0.03,0.11,1009.22
15.572,0.13,0.99,-0.02,0.56,0.47,0.26,0.04,-0.03,0.11,1009.23
15.587,0.13,0.99,-0.02,0.03,0.55,0.25,0.04,-0.03,0.11,1009.23
15.588,0.11,0.97,0.01,0.03,0.55,0.25,0.04,-0.03,0.11,1009.23
15.612,0.11,0.97,0.01,0.03,0.55,0.25,0.04,-0.03,0.11,1009.23
15.614,0.11,0.97,0.01,0.03,0.55,0.25,0.04,-0.03,0.11,1009.20
15.626,0.10,0.98,-0.01,0.03,0.55,0.25,0.04,-0.03,0.11,1009.20
15.636,0.10,0.98,-0.01,0.03,0.55,0.25,0.10,-0.06,0.18,1009.20
15.657,0.10,0.98,-0.01,-0.10,0.58,0.18,0.10,-0.06,0.18,1009.20
15.658,0.13,0.96,0.01,-0.10,0.58,0.18,0.10,-0.06,0.18,1009.20
15.659,0.14,0.96,-0.02,-0.10,0.58,0.18,0.10,-0.06,0.18,1009.20
15.692,0.14,0.98,-0.02,-0.10,0.58,0.18,0.10,-0.06,0.18,1009.20
15.693,0.14,0.98,-0.02,-0.10,0.58,0.18,0.10,-0.06,0.18,1009.20
15.708,0.13,0.99,-0.02,-0.10,0.58,0.18,0.10,-0.06,0.18,1009.20
15.708,0.13,0.99,-0.02,-0.10,0.58,0.18,0.11,-0.03,0.25,1009.20
15.727,0.13,0.99,-0.02,-0.22,0.49,0.19,0.11,-0.03,0.25,1009.20
15.729,0.16,0.97,-0.01,-0.22,0.49,0.19,0.11,-0.03,0.25,1009.20
15.759,0.14,0.97,0.02,-0.22,0.49,0.19,0.11,-0.03,0.25,1009.20
15.76,0.12,0.97,0.01,-0.22,0.49,0.19,0.11,-0.03,0.25,1009.20
15.772,0.12,0.97,0.01,-0.22,0.49,0.19,0.11,-0.03,0.25,1009.29
15.776,0.12,0.97,0.01,-0.22,0.49,0.19,0.21,0.05,0.37,1009.29
15.797,0.12,0.97,0.01,-0.28,0.61,0.23,0.21,0.05,0.37,1009.29
15.798,0.13,0.99,-0.03,-0.28,0.61,0.23,0.21,0.05,0.37,1009.29
15.799,0.10,1.02,-0.05,-0.28,0.61,0.23,0.21,0.05,0.37,1009.29
15.812,0.10,1.02,-0.05,-0.28,0.61,0.23,0.21,0.05,0.37,1009.39
15.826,0.09,1.03,-0.05,-0.28,0.61,0.23,0.21,0.05,0.37,1009.39
15.847,0.09,1.03,-0.05,-0.28,0.61,0.23,0.29,0.05,0.79,1009.39
15.848,0.05,1.06,-0.04,-0.28,0.61,0.23,0.29,0.05,0.79,1009.39
15.867,0.08,1.10,-0.07,-0.28,0.61,0.23,0.29,0.05,0.79,1009.39
15.868,0.08,1.10,-0.07,-1.13,0.92,0.39,0.29,0.05,0.79,1009.39
15.892,0.11,1.13,-0.13,-1.13,0.92,0.39,0.29,0.05,0.79,1009.39
15.893,0.11,1.13,-0.13,-1.13,0.92,0.39,0.29,0.05,0.79,1009.45
15.909,0.04,1.24,-0.15,-1.13,0.92,0.39,0.29,0.05,0.79,1009.45
15.921,-0.09,1.38,-0.15,-1.13,0.92,0.39,0.29,0.05,0.79,1009.45
15.922,-0.09,1.38,-0.15,-1.13,0.92,0.39,0.36,0.17,1.72,1009.45
15.938,-0.25,1.47,-0.13,-1.13,0.92,0.39,0.36,0.17,1.72,1009.45
15.939,-0.25,1.47,-0.13,-2.80,2.08,0.12,0.36,0.17,1.72,1009.45
15.959,-0.41,1.53,-0.11,-2.80,2.08,0.12,0.36,0.17,1.72,1009.45
15.972,-0.41,1.53,-0.11,-2.80,2.08,0.12,0.36,0.17,1.72,1009.57
15.988,-0.43,1.52,0.03,-2.80,2.08,0.12,0.36,0.17,1.72,1009.57
15.989,-0.43,1.52,0.03,-2.80,2.08,0.12,0.27,-0.07,3.88,1009.57
16.008,-0.43,1.52,0.03,-6.57,6.11,-0.39,0.27,-0.07,3.88,1009.57
16.01,-0.09,1.45,0.16,-6.57,6.11,-0.39,0.27,-0.07,3.88,1009.57
16.012,-0.09,1.45,0.16,-6.57,6.11,-0.39,0.27,-0.07,3.88,1009.41
16.026,-0.13,1.18,0.54,-6.57,6.11,-0.39,0.27,-0.07,3.88,1009.41
16.057,-0.13,1.18,0.54,-6.57,6.11,-0.39,1.30,-0.19,6.03,1009.41
16.059,0.19,1.05,0.90,-6.57,6.11,-0.39,1.30,-0.19,6.03,1009.41
16.077,0.19,1.05,0.90,-10.61,10.24,2.29,1.30,-0.19,6.03,1009.41
16.078,0.57,0.68,0.65,-10.61,10.24,2.29,1.30,-0.19,6.03,1009.41
16.079,2.28,0.60,0.03,-10.61,10.24,2.29,1.30,-0.19,6.03,1009.41
16.093,2.28,0.60,0.03,-10.61,10.24,2.29,1.30,-0.19,6.03,1008.91
16.127,2.28,0.60,0.03,-10.61,10.24,2.29,1.75,2.71,-0.37,1008.91
16.129,2.00,1.13,0.17,-10.61,10.24,2.29,1.75,2.71,-0.37,1008.91
16.132,-0.42,0.55,0.08,-10.61,10.24,2.29,1.75,2.71,-0.37,1008.91
16.147,-0.42,0.55,0.08,0.71,2.85,5.42,1.75,2.71,-0.37,1008.91
16.149,-0.67,0.67,0.02,0.71,2.85,5.42,1.75,2.71,-0.37,1008.91
16.159,-0.40,0.54,0.32,0.71,2.85,5.42,1.75,2.71,-0.37,1008.91
16.172,-0.40,0.54,0.32,0.71,2.85,5.42,1.75,2.71,-0.37,1009.07
16.197,-0.40,0.54,0.32,0.71,2.85,5.42,0.84,1.56,-1.89,1009.07
16.198,0.12,0.48,0.49,0.71,2.85,5.42,0.84,1.56,-1.89,1009.07
16.212,0.12,0.48,0.49,0.71,2.85,5.42,0.84,1.56,-1.89,1009.10
16.213,0.44,0.52,0.39,0.71,2.85,5.42,0.84,1.56,-1.89,1009.10
16.216,0.41,0.51,0.39,0.71,2.85,5.42,0.84,1.56,-1.89,1009.10
16.218,0.41,0.51,0.39,-4.66,1.00,0.99,0.84,1.56,-1.89,1009.10
16.267,0.41,0.51,0.39,-4.66,1.00,0.99,1.06,0.71,-3.79,1009.10
16.269,0.31,0.54,0.35,-4.66,1.00,0.99,1.06,0.71,-3.79,1009.10
16.27,0.37,0.67,0.28,-4.66,1.00,0.99,1.06,0.71,-3.79,1009.10
16.287,0.46,0.73,0.36,-4.66,1.00,0.99,1.06,0.71,-3.79,1009.10
16.288,0.46,0.73,0.36,-2.06,-2.95,4.17,1.06,0.71,-3.79,1009.10
16.293,0.46,0.73,0.36,-2.06,-2.95,4.17,1.06,0.71,-3.79,1009.22
16.31,0.48,0.81,0.38,-2.06,-2.95,4.17,1.06,0.71,-3.79,1009.22
16.337,0.48,0.81,0.38,-2.06,-2.95,4.17,0.69,1.85,-4.31,1009.22
16.338,0.48,0.97,0.28,-2.06,-2.95,4.17,0.69,1.85,-4.31,1009.22
16.358,0.48,0.97,0.28,1.94,-2.27,3.11,0.69,1.85,-4.31,1009.22
16.359,0.37,1.10,0.22,1.94,-2.27,3.11,0.69,1.85,-4.31,1009.22
16.36,0.28,1.23,0.17,1.94,-2.27,3.11,0.69,1.85,-4.31,1009.22
16.372,0.28,1.23,0.17,1.94,-2.27,3.11,0.69,1.85,-4.31,1009.27
16.408,0.29,1.32,0.16,1.94,-2.27,3.11,0.69,1.85,-4.31,1009.27
16.409,0.41,1.33,0.25,1.94,-2.27,3.11,0.69,1.85,-4.31,1009.27
16.409,0.41,1.33,0.25,1.94,-2.27,3.11,0.03,1.88,-3.90,1009.27
16.412,0.41,1.33,0.25,1.94,-2.27,3.11,0.03,1.88,-3.90,1009.18
16.426,0.64,1.33,0.28,1.94,-2.27,3.11,0.03,1.88,-3.90,1009.18
16.427,0.64,1.33,0.28,4.24,1.42,2.13,0.03,1.88,-3.90,1009.18
16.478,0.64,1.33,0.28,4.24,1.42,2.13,0.63,0.96,-3.30,1009.18
16.479,0.91,1.31,0.27,4.24,1.42,2.13,0.63,0.96,-3.30,1009.18
16.48,1.19,1.25,0.21,4.24,1.42,2.13,0.63,0.96,-3.30,1009.18
16.481,1.47,1.16,0.06,4.24,1.42,2.13,0.63,0.96,-3.30,1009.18
16.493,1.47,1.16,0.06,4.24,1.42,2.13,0.63,0.96,-3.30,1009.20
16.497,1.58,0.83,0.23,4.24,1.42,2.13,0.63,0.96,-3.30,1009.20
16.498,1.58,0.83,0.23,6.99,4.22,2.35,0.63,0.96,-3.30,1009.20
16.548,1.58,0.83,0.23,6.99,4.22,2.35,0.06,0.04,0.21,1009.20
16.549,1.66,0.44,0.32,6.99,4.22,2.35,0.06,0.04,0.21,1009.20
16.549,1.66,0.45,0.15,6.99,4.22,2.35,0.06,0.04,0.21,1009.20
16.558,1.45,0.70,-0.03,6.99,4.22,2.35,0.06,0.04,0.21,1009.20
16.567,1.45,0.70,-0.03,13.84,1.85,1.74,0.06,0.04,0.21,1009.20
16.573,1.45,0.70,-0.03,13.84,1.85,1.74,0.06,0.04,0.21,1009.33
16.612,1.45,0.70,-0.03,13.84,1.85,1.74,0.06,0.04,0.21,1009.58
16.614,-0.88,1.90,-0.05,13.84,1.85,1.74,0.06,0.04,0.21,1009.58
16.614,0.29,1.98,-0.70,13.84,1.85,1.74,0.06,0.04,0.21,1009.58
16.617,0.29,1.98,-0.70,13.84,1.85,1.74,-0.48,0.80,2.99,1009.58
16.625,2.98,0.74,1.08,13.84,1.85,1.74,-0.48,0.80,2.99,1009.58
16.637,-1.88,1.01,-1.10,13.84,1.85,1.74,-0.48,0.80,2.99,1009.58
16.638,-1.88,1.01,-1.10,9.77,-0.71,1.58,-0.48,0.80,2.99,1009.58
16.688,-1.88,1.01,-1.10,9.77,-0.71,1.58,-0.22,0.25,-0.00,1009.58
16.69,1.35,1.09,0.11,9.77,-0.71,1.58,-0.22,0.25,-0.00,1009.58
16.691,-0.15,0.91,0.00,9.77,-0.71,1.58,-0.22,0.25,-0.00,1009.58
16.692,-0.15,0.91,0.00,9.77,-0.71,1.58,-0.22,0.25,-0.00,1009.87
16.707,0.11,1.02,0.03,9.77,-0.71,1.58,-0.22,0.25,-0.00,1009.87
16.708,0.11,1.02,0.03,3.53,2.80,-3.04,-0.22,0.25,-0.00,1009.87
16.757,0.10,0.99,0.19,3.53,2.80,-3.04,-0.22,0.25,-0.00,1009.87
16.759,0.12,0.99,0.05,3.53,2.80,-3.04,-0.22,0.25,-0.00,1009.87
16.759,0.12,0.99,0.05,3.53,2.80,-3.04,-0.23,0.13,0.05,1009.87
16.76,0.13,0.99,0.10,3.53,2.80,-3.04,-0.23,0.13,0.05,1009.87
16.772,0.13,0.99,0.10,3.53,2.80,-3.04,-0.23,0.13,0.05,1009.45
16.777,0.11,1.02,-0.02,3.53,2.80,-3.04,-0.23,0.13,0.05,1009.45
16.778,0.11,1.02,-0.02,2.88,0.80,0.13,-0.23,0.13,0.05,1009.45
16.813,0.09,1.01,0.02,2.88,0.80,0.13,-0.23,0.13,0.05,1009.45
16.814,0.09,1.01,0.02,2.88,0.80,0.13,-0.23,0.13,0.05,1009.42
16.826,0.10,0.98,0.09,2.88,0.80,0.13,-0.23,0.13,0.05,1009.42
16.827,0.10,0.98,0.09,2.88,0.80,0.13,-0.19,-0.03,-0.00,1009.42
16.848,0.10,0.98,0.09,0.30,0.72,-0.01,-0.19,-0.03,-0.00,1009.42
16.85,0.08,0.97,0.11,0.30,0.72,-0.01,-0.19,-0.03,-0.00,1009.42
16.893,0.08,0.97,0.11,0.30,0.72,-0.01,-0.19,-0.03,-0.00,1009.29
16.894,0.08,0.96,0.12,0.30,0.72,-0.01,-0.19,-0.03,-0.00,1009.29
16.895,0.08,0.96,0.11,0.30,0.72,-0.01,-0.19,-0.03,-0.00,1009.29
16.897,0.08,0.96,0.11,0.30,0.72,-0.01,-0.06,-0.08,0.04,1009.29
16.91,0.08,0.97,0.08,0.30,0.72,-0.01,-0.06,-0.08,0.04,1009.29
16.917,0.07,0.97,0.08,0.30,0.72,-0.01,-0.06,-0.08,0.04,1009.29
16.918,0.07,0.97,0.08,-0.02,0.56,0.11,-0.06,-0.08,0.04,1009.29
16.959,0.10,0.96,0.09,-0.02,0.56,0.11,-0.06,-0.08,0.04,1009.29
16.96,0.06,0.96,0.12,-0.02,0.56,0.11,-0.06,-0.08,0.04,1009.29
16.967,0.06,0.96,0.12,-0.02,0.56,0.11,0.05,-0.10,0.12,1009.29
16.972,0.06,0.96,0.12,-0.02,0.56,0.11,0.05,-0.10,0.12,1009.27
16.987,0.08,0.95,0.14,-0.02,0.56,0.11,0.05,-0.10,0.12,1009.27
16.988,0.08,0.95,0.14,-0.24,0.39,0.36,0.05,-0.10,0.12,1009.27
17.012,0.11,0.97,0.09,-0.24,0.39,0.36,0.05,-0.10,0.12,1009.27
17.013,0.11,0.97,0.09,-0.24,0.39,0.36,0.05,-0.10,0.12,1009.34
17.028,0.11,0.99,0.02,-0.24,0.39,0.36,0.05,-0.10,0.12,1009.34
17.039,0.11,0.99,0.02,-0.24,0.39,0.36,0.20,-0.13,0.21,1009.34
17.057,0.11,0.99,0.02,-0.34,0.33,0.68,0.20,-0.13,0.21,1009.34
17.058,0.09,0.99,0.04,-0.34,0.33,0.68,0.20,-0.13,0.21,1009.34
17.058,0.13,1.00,0.02,-0.34,0.33,0.68,0.20,-0.13,0.21,1009.34
17.092,0.13,1.00,0.04,-0.34,0.33,0.68,0.20,-0.13,0.21,1009.34
17.094,0.13,1.00,0.04,-0.34,0.33,0.68,0.20,-0.13,0.21,1009.38
17.111,0.07,1.00,0.06,-0.34,0.33,0.68,0.20,-0.13,0.21,1009.38
17.113,0.07,1.00,0.06,-0.34,0.33,0.68,0.18,-0.18,0.28,1009.38
17.128,0.03,1.02,0.05,-0.34,0.33,0.68,0.18,-0.18,0.28,1009.38
17.129,0.03,1.02,0.05,-0.26,0.67,-0.01,0.18,-0.18,0.28,1009.38
17.159,-0.02,1.08,-0.01,-0.26,0.67,-0.01,0.18,-0.18,0.28,1009.38
17.16,-0.01,1.12,-0.08,-0.26,0.67,-0.01,0.18,-0.18,0.28,1009.38
17.173,-0.01,1.12,-0.08,-0.26,0.67,-0.01,0.18,-0.18,0.28,1009.38
17.178,-0.01,1.12,-0.08,-0.26,0.67,-0.01,0.01,-0.33,0.78,1009.38
17.199,-0.01,1.12,-0.08,-1.36,1.02,0.06,0.01,-0.33,0.78,1009.38
17.199,-0.02,1.15,-0.11,-1.36,1.02,0.06,0.01,-0.33,0.78,1009.38
17.2,-0.05,1.22,-0.11,-1.36,1.02,0.06,0.01,-0.33,0.78,1009.38
17.216,-0.05,1.22,-0.11,-1.36,1.02,0.06,0.01,-0.33,0.78,1009.55
17.218,-0.15,1.37,-0.17,-1.36,1.02,0.06,0.01,-0.33,0.78,1009.55
17.249,-0.25,1.50,-0.15,-1.36,1.02,0.06,0.01,-0.33,0.78,1009.55
17.25,-0.25,1.50,-0.15,-1.36,1.02,0.06,-0.54,-0.16,2.19,1009.55
17.268,-0.25,1.50,-0.15,-4.02,2.94,-1.58,-0.54,-0.16,2.19,1009.55
17.27,-0.45,1.61,-0.09,-4.02,2.94,-1.58,-0.54,-0.16,2.19,1009.55
17.292,-0.73,1.66,0.10,-4.02,2.94,-1.58,-0.54,-0.16,2.19,1009.55
17.293,-0.73,1.66,0.10,-4.02,2.94,-1.58,-0.54,-0.16,2.19,1009.73
17.318,-0.73,1.66,0.10,-4.02,2.94,-1.58,-0.82,-0.85,5.11,1009.73
17.319,-0.72,1.66,0.05,-4.02,2.94,-1.58,-0.82,-0.85,5.11,1009.73
17.338,-0.19,1.65,0.11,-4.02,2.94,-1.58,-0.82,-0.85,5.11,1009.73
17.339,0.03,1.27,0.62,-4.02,2.94,-1.58,-0.82,-0.85,5.11,1009.73
17.34,0.03,1.27,0.62,-9.97,8.53,-1.71,-0.82,-0.85,5.11,1009.73
17.359,-0.18,1.21,0.93,-9.97,8.53,-1.71,-0.82,-0.85,5.11,1009.73
17.372,-0.18,1.21,0.93,-9.97,8.53,-1.71,-0.82,-0.85,5.11,1009.08
17.39,-0.18,1.21,0.93,-9.97,8.53,-1.71,-0.02,-0.84,6.19,1009.08
17.391,0.19,0.44,0.30,-9.97,8.53,-1.71,-0.02,-0.84,6.19,1009.08
17.408,0.19,0.44,0.30,-11.46,10.82,1.96,-0.02,-0.84,6.19,1009.08
17.409,2.81,1.00,0.21,-11.46,10.82,1.96,-0.02,-0.84,6.19,1009.08
17.412,2.81,1.00,0.21,-11.46,10.82,1.96,-0.02,-0.84,6.19,1008.37
17.431,0.27,0.54,0.32,-11.46,10.82,1.96,-0.02,-0.84,6.19,1008.37
17.458,0.27,0.54,0.32,-11.46,10.82,1.96,-0.04,0.48,-1.71,1008.37
17.459,-0.70,0.52,0.09,-11.46,10.82,1.96,-0.04,0.48,-1.71,1008.37
17.477,-0.70,0.52,0.09,2.04,2.87,3.75,-0.04,0.48,-1.71,1008.37
17.478,-0.67,0.43,-0.05,2.04,2.87,3.75,-0.04,0.48,-1.71,1008.37
17.479,-0.11,0.39,0.09,2.04,2.87,3.75,-0.04,0.48,-1.71,1008.37
17.499,-0.11,0.39,0.09,2.04,2.87,3.75,-0.04,0.48,-1.71,1008.84
17.511,0.32,0.43,0.12,2.04,2.87,3.75,-0.04,0.48,-1.71,1008.84
17.527,0.32,0.43,0.12,2.04,2.87,3.75,-0.15,0.50,-3.47,1008.84
17.528,0.24,0.49,-0.01,2.04,2.87,3.75,-0.15,0.50,-3.47,1008.84
17.549,0.24,0.49,-0.01,-9.90,-3.07,-0.41,-0.15,0.50,-3.47,1008.84
17.551,-0.09,0.57,-0.04,-9.90,-3.07,-0.41,-0.15,0.50,-3.47,1008.84
17.558,-0.08,0.69,-0.01,-9.90,-3.07,-0.41,-0.15,0.50,-3.47,1008.84
17.573,-0.08,0.69,-0.01,-9.90,-3.07,-0.41,-0.15,0.50,-3.47,1009.03
17.598,-0.08,0.69,-0.01,-9.90,-3.07,-0.41,0.26,-0.16,-5.11,1009.03
17.599,0.19,0.87,-0.06,-9.90,-3.07,-0.41,0.26,-0.16,-5.11,1009.03
17.612,0.32,1.07,-0.10,-9.90,-3.07,-0.41,0.26,-0.16,-5.11,1009.03
17.613,0.32,1.07,-0.10,-9.90,-3.07,-0.41,0.26,-0.16,-5.11,1009.15
17.618,0.33,1.21,-0.08,-9.90,-3.07,-0.41,0.26,-0.16,-5.11,1009.15
17.618,0.33,1.21,-0.08,-1.01,-3.55,-0.61,0.26,-0.16,-5.11,1009.15
17.668,0.33,1.21,-0.08,-1.01,-3.55,-0.61,0.43,0.33,-4.96,1009.15
17.67,0.25,1.42,-0.15,-1.01,-3.55,-0.61,0.43,0.33,-4.96,1009.15
17.671,0.26,1.71,-0.31,-1.01,-3.55,-0.61,0.43,0.33,-4.96,1009.15
17.688,0.26,1.71,-0.31,2.84,0.91,-1.25,0.43,0.33,-4.96,1009.15
17.689,0.44,1.90,-0.26,2.84,0.91,-1.25,0.43,0.33,-4.96,1009.15
17.692,0.44,1.90,-0.26,2.84,0.91,-1.25,0.43,0.33,-4.96,1009.23
17.738,0.44,1.90,-0.26,2.84,0.91,-1.25,0.79,1.27,-2.83,1009.23
17.74,1.50,1.77,0.24,2.84,0.91,-1.25,0.79,1.27,-2.83,1009.23
17.74,2.66,1.19,0.59,2.84,0.91,-1.25,0.79,1.27,-2.83,1009.23
17.741,2.61,0.69,0.44,2.84,0.91,-1.25,0.79,1.27,-2.83,1009.23
17.759,2.00,0.55,0.35,2.84,0.91,-1.25,0.79,1.27,-2.83,1009.23
17.76,2.00,0.55,0.35,6.23,7.83,-1.69,0.79,1.27,-2.83,1009.23
17.773,2.00,0.55,0.35,6.23,7.83,-1.69,0.79,1.27,-2.83,1009.22
17.813,2.00,0.55,0.35,6.23,7.83,-1.69,-0.42,-0.05,0.78,1009.22
17.816,1.81,0.64,0.02,6.23,7.83,-1.69,-0.42,-0.05,0.78,1009.22
17.817,0.89,0.44,0.27,6.23,7.83,-1.69,-0.42,-0.05,0.78,1009.22
17.817,0.89,0.44,0.27,6.23,7.83,-1.69,-0.42,-0.05,0.78,1009.33
17.826,-1.55,1.76,-0.38,6.23,7.83,-1.69,-0.42,-0.05,0.78,1009.33
17.828,-1.55,1.76,-0.38,22.91,0.11,3.94,-0.42,-0.05,0.78,1009.33
17.849,0.64,1.04,-0.11,22.91,0.11,3.94,-0.42,-0.05,0.78,1009.33
17.878,0.64,1.04,-0.11,22.91,0.11,3.94,-0.05,0.65,2.17,1009.33
17.879,4.12,1.59,1.78,22.91,0.11,3.94,-0.05,0.65,2.17,1009.33
17.892,-1.38,0.94,-1.92,22.91,0.11,3.94,-0.05,0.65,2.17,1009.33
17.893,-1.38,0.94,-1.92,22.91,0.11,3.94,-0.05,0.65,2.17,1009.87
17.898,0.46,1.03,0.20,22.91,0.11,3.94,-0.05,0.65,2.17,1009.87
17.898,0.46,1.03,0.20,1.96,0.77,-1.11,-0.05,0.65,2.17,1009.87
17.949,0.46,1.03,0.20,1.96,0.77,-1.11,-0.36,0.19,0.17,1009.87
17.95,0.23,1.01,0.07,1.96,0.77,-1.11,-0.36,0.19,0.17,1009.87
17.951,0.07,1.00,0.17,1.96,0.77,-1.11,-0.36,0.19,0.17,1009.87
17.962,0.10,1.02,0.01,1.96,0.77,-1.11,-0.36,0.19,0.17,1009.87
17.968,0.10,1.02,0.01,10.40,1.99,-0.26,-0.36,0.19,0.17,1009.87
17.972,0.10,1.02,0.01,10.40,1.99,-0.26,-0.36,0.19,0.17,1009.68
18.014,0.12,0.92,0.26,10.40,1.99,-0.26,-0.36,0.19,0.17,1009.68
18.017,0.14,0.96,0.12,10.40,1.99,-0.26,-0.36,0.19,0.17,1009.68
18.018,0.14,0.96,0.12,10.40,1.99,-0.26,-0.36,0.19,0.17,1009.36
18.018,0.14,0.96,0.12,10.40,1.99,-0.26,-0.06,0.02,0.13,1009.36
18.025,0.12,1.01,0.03,10.40,1.99,-0.26,-0.06,0.02,0.13,1009.36
18.038,0.12,1.00,0.01,10.40,1.99,-0.26,-0.06,0.02,0.13,1009.36
18.038,0.12,1.00,0.01,0.26,0.73,0.54,-0.06,0.02,0.13,1009.36
18.088,0.12,1.00,0.01,0.26,0.73,0.54,-0.01,-0.04,0.08,1009.36
18.09,0.13,0.97,0.06,0.26,0.73,0.54,-0.01,-0.04,0.08,1009.36
18.09,0.12,0.95,0.11,0.26,0.73,0.54,-0.01,-0.04,0.08,1009.36
18.094,0.12,0.95,0.11,0.26,0.73,0.54,-0.01,-0.04,0.08,1009.31
18.108,0.12,0.95,0.11,0.15,0.56,0.20,-0.01,-0.04,0.08,1009.31
18.109,0.12,0.94,0.12,0.15,0.56,0.20,-0.01,-0.04,0.08,1009.31
18.158,0.12,0.94,0.12,0.15,0.56,0.20,0.12,-0.13,0.06,1009.31
18.159,0.14,0.95,0.09,0.15,0.56,0.20,0.12,-0.13,0.06,1009.31
18.16,0.09,0.97,0.08,0.15,0.56,0.20,0.12,-0.13,0.06,1009.31
18.16,0.11,0.99,0.05,0.15,0.56,0.20,0.12,-0.13,0.06,1009.31
18.172,0.11,0.99,0.05,0.15,0.56,0.20,0.12,-0.13,0.06,1009.27
18.178,0.10,0.98,0.06,0.15,0.56,0.20,0.12,-0.13,0.06,1009.27
18.179,0.10,0.98,0.06,0.13,0.31,0.44,0.12,-0.13,0.06,1009.27
18.215,0.10,0.97,0.05,0.13,0.31,0.44,0.12,-0.13,0.06,1009.27
18.216,0.10,0.97,0.05,0.13,0.31,0.44,0.12,-0.13,0.06,1009.30
18.226,0.12,0.97,0.06,0.13,0.31,0.44,0.12,-0.13,0.06,1009.30
18.227,0.12,0.97,0.06,0.13,0.31,0.44,0.16,-0.15,0.13,1009.30
18.248,0.12,0.97,0.06,-0.20,0.50,0.26,0.16,-0.15,0.13,1009.30
18.249,0.12,0.99,0.04,-0.20,0.50,0.26,0.16,-0.15,0.13,1009.30
18.293,0.12,0.99,0.04,-0.20,0.50,0.26,0.16,-0.15,0.13,1009.30
18.294,0.09,1.00,0.04,-0.20,0.50,0.26,0.16,-0.15,0.13,1009.30
18.295,0.09,1.00,0.04,-0.20,0.50,0.26,0.16,-0.15,0.13,1009.34
18.298,0.09,1.00,0.04,-0.20,0.50,0.26,0.20,-0.22,0.23,1009.34
18.309,0.09,1.02,0.02,-0.20,0.50,0.26,0.20,-0.22,0.23,1009.34
18.318,0.01,1.06,-0.01,-0.20,0.50,0.26,0.20,-0.22,0.23,1009.34
18.318,0.01,1.06,-0.01,-0.31,0.51,0.26,0.20,-0.22,0.23,1009.34
18.359,-0.07,1.11,-0.04,-0.31,0.51,0.26,0.20,-0.22,0.23,1009.34
18.361,-0.04,1.14,-0.08,-0.31,0.51,0.26,0.20,-0.22,0.23,1009.34
18.368,-0.04,1.14,-0.08,-0.31,0.51,0.26,0.00,-0.29,0.79,1009.34
18.372,-0.04,1.14,-0.08,-0.31,0.51,0.26,0.00,-0.29,0.79,1009.35
18.388,0.01,1.19,-0.14,-0.31,0.51,0.26,0.00,-0.29,0.79,1009.35
18.389,0.01,1.19,-0.14,-1.39,1.06,-0.09,0.00,-0.29,0.79,1009.35
18.416,-0.01,1.25,-0.12,-1.39,1.06,-0.09,0.00,-0.29,0.79,1009.35
18.417,-0.01,1.25,-0.12,-1.39,1.06,-0.09,0.00,-0.29,0.79,1009.60
18.419,-0.14,1.40,-0.16,-1.39,1.06,-0.09,0.00,-0.29,0.79,1009.60
18.438,-0.14,1.40,-0.16,-1.39,1.06,-0.09,-0.45,-0.04,2.11,1009.60
18.458,-0.14,1.40,-0.16,-3.95,2.93,-1.48,-0.45,-0.04,2.11,1009.60
18.459,-0.36,1.56,-0.13,-3.95,2.93,-1.48,-0.45,-0.04,2.11,1009.60
18.46,-0.70,1.68,-0.05,-3.95,2.93,-1.48,-0.45,-0.04,2.11,1009.60
18.492,-0.96,1.69,-0.02,-3.95,2.93,-1.48,-0.45,-0.04,2.11,1009.60
18.494,-0.96,1.69,-0.02,-3.95,2.93,-1.48,-0.45,-0.04,2.11,1009.72
18.509,-0.96,1.69,-0.02,-3.95,2.93,-1.48,-0.99,-0.93,5.31,1009.72
18.51,-0.62,1.71,0.03,-3.95,2.93,-1.48,-0.99,-0.93,5.31,1009.72
18.528,-0.62,1.71,0.03,-10.13,8.61,-1.71,-0.99,-0.93,5.31,1009.72
18.53,0.13,1.58,0.50,-10.13,8.61,-1.71,-0.99,-0.93,5.31,1009.72
18.563,-0.19,1.13,0.89,-10.13,8.61,-1.71,-0.99,-0.93,5.31,1009.72
18.564,0.00,0.97,0.54,-10.13,8.61,-1.71,-0.99,-0.93,5.31,1009.72
18.572,0.00,0.97,0.54,-10.13,8.61,-1.71,-0.99,-0.93,5.31,1009.05
18.577,0.00,0.97,0.54,-10.13,8.61,-1.71,-0.17,-1.17,6.34,1009.05
18.598,0.00,0.97,0.54,-12.28,11.37,2.40,-0.17,-1.17,6.34,1009.05
18.6,1.42,0.24,0.02,-12.28,11.37,2.40,-0.17,-1.17,6.34,1009.05
18.601,2.56,1.03,0.58,-12.28,11.37,2.40,-0.17,-1.17,6.34,1009.05
18.612,2.56,1.03,0.58,-12.28,11.37,2.40,-0.17,-1.17,6.34,1008.42
18.633,-0.30,0.40,0.30,-12.28,11.37,2.40,-0.17,-1.17,6.34,1008.42
18.648,-0.30,0.40,0.30,-12.28,11.37,2.40,-0.06,0.67,-1.88,1008.42
18.649,-0.71,0.47,-0.11,-12.28,11.37,2.40,-0.06,0.67,-1.88,1008.42
18.668,-0.51,0.44,-0.05,-12.28,11.37,2.40,-0.06,0.67,-1.88,1008.42
18.669,-0.51,0.44,-0.05,3.45,2.49,3.60,-0.06,0.67,-1.88,1008.42
18.694,0.08,0.37,0.14,3.45,2.49,3.60,-0.06,0.67,-1.88,1008.42
18.695,0.08,0.37,0.14,3.45,2.49,3.60,-0.06,0.67,-1.88,1008.89
18.709,0.40,0.42,0.11,3.45,2.49,3.60,-0.06,0.67,-1.88,1008.89
18.718,0.40,0.42,0.11,3.45,2.49,3.60,-0.16,0.79,-3.10,1008.89
18.738,0.40,0.42,0.11,-9.74,-2.93,-0.58,-0.16,0.79,-3.10,1008.89
18.739,0.20,0.50,-0.05,-9.74,-2.93,-0.58,-0.16,0.79,-3.10,1008.89
18.74,0.00,0.60,-0.11,-9.74,-2.93,-0.58,-0.16,0.79,-3.10,1008.89
18.759,0.16,0.72,-0.07,-9.74,-2.93,-0.58,-0.16,0.79,-3.10,1008.89
18.772,0.16,0.72,-0.07,-9.74,-2.93,-0.58,-0.16,0.79,-3.10,1009.07
18.788,0.16,0.72,-0.07,-9.74,-2.93,-0.58,0.33,0.14,-5.11,1009.07
18.789,0.28,0.85,-0.04,-9.74,-2.93,-0.58,0.33,0.14,-5.11,1009.07
18.821,0.40,1.06,-0.13,-9.74,-2.93,-0.58,0.33,0.14,-5.11,1009.07
18.823,0.40,1.06,-0.13,-0.42,-3.76,-0.84,0.33,0.14,-5.11,1009.07
18.824,0.40,1.06,-0.13,-0.42,-3.76,-0.84,0.33,0.14,-5.11,1009.20
18.834,0.35,1.20,-0.21,-0.42,-3.76,-0.84,0.33,0.14,-5.11,1009.20
18.849,0.33,1.37,-0.23,-0.42,-3.76,-0.84,0.33,0.14,-5.11,1009.20
18.858,0.33,1.37,-0.23,-0.42,-3.76,-0.84,0.58,0.54,-5.26,1009.20
18.878,0.48,1.54,-0.22,-0.42,-3.76,-0.84,0.58,0.54,-5.26,1009.20
18.879,0.58,1.69,-0.23,-0.42,-3.76,-0.84,0.58,0.54,-5.26,1009.20
18.879,0.58,1.69,-0.23,3.49,0.11,-1.49,0.58,0.54,-5.26,1009.20
18.893,0.58,1.69,-0.23,3.49,0.11,-1.49,0.58,0.54,-5.26,1009.20
18.916,1.04,1.77,-0.12,3.49,0.11,-1.49,0.58,0.54,-5.26,1009.20
18.929,1.04,1.77,-0.12,3.49,0.11,-1.49,0.76,0.83,-3.44,1009.20
18.93,1.73,1.49,0.16,3.49,0.11,-1.49,0.76,0.83,-3.44,1009.20
18.939,2.17,0.75,0.57,3.49,0.11,-1.49,0.76,0.83,-3.44,1009.20
18.949,2.17,0.75,0.57,6.44,5.87,-2.09,0.76,0.83,-3.44,1009.20
18.961,2.28,0.59,0.58,6.44,5.87,-2.09,0.76,0.83,-3.44,1009.20
18.973,2.28,0.59,0.58,6.44,5.87,-2.09,0.76,0.83,-3.44,1009.23
18.998,1.92,0.77,0.20,6.44,5.87,-2.09,0.76,0.83,-3.44,1009.23
19.0,1.92,0.77,0.20,6.44,5.87,-2.09,0.36,-0.52,-0.29,1009.23
19.012,1.60,0.71,0.09,6.44,5.87,-2.09,0.36,-0.52,-0.29,1009.23
19.013,1.60,0.71,0.09,6.44,5.87,-2.09,0.36,-0.52,-0.29,1009.36
19.018,-0.96,0.90,0.02,6.44,5.87,-2.09,0.36,-0.52,-0.29,1009.36
19.018,-0.96,0.90,0.02,18.25,3.03,2.44,0.36,-0.52,-0.29,1009.36
19.068,-0.96,0.90,0.02,18.25,3.03,2.44,-0.76,0.43,3.06,1009.36
19.07,-1.55,1.28,-0.44,18.25,3.03,2.44,-0.76,0.43,3.06,1009.36
19.071,2.50,0.85,1.55,18.25,3.03,2.44,-0.76,0.43,3.06,1009.36
19.088,2.50,0.85,1.55,9.80,-1.41,1.26,-0.76,0.43,3.06,1009.36
19.089,1.00,1.57,-0.24,9.80,-1.41,1.26,-0.76,0.43,3.06,1009.36
19.093,1.00,1.57,-0.24,9.80,-1.41,1.26,-0.76,0.43,3.06,1009.79
19.139,1.00,1.57,-0.24,9.80,-1.41,1.26,-0.07,0.28,0.27,1009.79
19.14,0.66,1.13,-0.79,9.80,-1.41,1.26,-0.07,0.28,0.27,1009.79
19.141,-0.14,0.91,-0.06,9.80,-1.41,1.26,-0.07,0.28,0.27,1009.79
19.159,-0.14,0.91,-0.06,3.94,2.66,-0.64,-0.07,0.28,0.27,1009.79
19.16,0.25,1.07,-0.08,3.94,2.66,-0.64,-0.07,0.28,0.27,1009.79
19.16,0.05,1.03,0.12,3.94,2.66,-0.64,-0.07,0.28,0.27,1009.79
19.172,0.05,1.03,0.12,3.94,2.66,-0.64,-0.07,0.28,0.27,1009.79
19.209,0.05,1.03,0.12,3.94,2.66,-0.64,-0.28,0.08,0.08,1009.79
19.21,0.09,0.98,0.05,3.94,2.66,-0.64,-0.28,0.08,0.08,1009.79
19.21,0.03,0.91,0.31,3.94,2.66,-0.64,-0.28,0.08,0.08,1009.79
19.22,0.03,0.91,0.31,3.94,2.66,-0.64,-0.28,0.08,0.08,1009.38
19.226,0.07,0.99,0.07,3.94,2.66,-0.64,-0.28,0.08,0.08,1009.38
19.232,0.07,0.99,0.07,2.51,1.27,-0.44,-0.28,0.08,0.08,1009.38
19.278,0.07,0.99,0.07,2.51,1.27,-0.44,-0.07,-0.01,0.09,1009.38
19.28,0.08,1.02,0.03,2.51,1.27,-0.44,-0.07,-0.01,0.09,1009.38
19.281,0.07,0.99,0.06,2.51,1.27,-0.44,-0.07,-0.01,0.09,1009.38
19.292,0.08,0.97,0.08,2.51,1.27,-0.44,-0.07,-0.01,0.09,1009.38
19.293,0.08,0.97,0.08,2.51,1.27,-0.44,-0.07,-0.01,0.09,1009.28
19.298,0.09,0.96,0.10,2.51,1.27,-0.44,-0.07,-0.01,0.09,1009.28
19.299,0.09,0.96,0.10,-0.11,0.48,0.52,-0.07,-0.01,0.09,1009.28
19.348,0.09,0.96,0.10,-0.11,0.48,0.52,0.01,-0.07,0.07,1009.28
19.35,0.08,0.96,0.10,-0.11,0.48,0.52,0.01,-0.07,0.07,1009.28
19.35,0.08,0.96,0.10,-0.11,0.48,0.52,0.01,-0.07,0.07,1009.28
19.358,0.07,0.97,0.10,-0.11,0.48,0.52,0.01,-0.07,0.07,1009.28
19.368,0.07,0.97,0.10,0.01,0.60,0.05,0.01,-0.07,0.07,1009.28
19.372,0.07,0.97,0.10,0.01,0.60,0.05,0.01,-0.07,0.07,1009.22
19.419,0.07,0.97,0.10,0.01,0.60,0.05,0.01,-0.07,0.07,1009.30
19.423,0.07,0.97,0.09,0.01,0.60,0.05,0.01,-0.07,0.07,1009.30
19.423,0.07,0.97,0.08,0.01,0.60,0.05,0.01,-0.07,0.07,1009.30
19.424,0.07,0.97,0.08,0.01,0.60,0.05,0.12,-0.13,0.11,1009.30
19.425,0.08,0.98,0.06,0.01,0.60,0.05,0.12,-0.13,0.11,1009.30
19.438,0.08,0.98,0.06,-0.13,0.44,0.39,0.12,-0.13,0.11,1009.30
19.439,0.07,0.99,0.04,-0.13,0.44,0.39,0.12,-0.13,0.11,1009.30
19.489,0.07,0.99,0.04,-0.13,0.44,0.39,0.12,-0.13,0.11,1009.30
19.491,0.10,0.99,0.03,-0.13,0.44,0.39,0.12,-0.13,0.11,1009.30
19.491,0.10,0.99,0.03,-0.13,0.44,0.39,0.13,-0.15,0.18,1009.30
19.492,0.10,0.99,0.03,-0.13,0.44,0.39,0.13,-0.15,0.18,1009.30
19.509,0.10,0.99,0.03,-0.28,0.60,0.11,0.13,-0.15,0.18,1009.30
19.51,0.11,0.98,0.04,-0.28,0.60,0.11,0.13,-0.15,0.18,1009.30
19.559,0.11,0.98,0.04,-0.28,0.60,0.11,0.09,-0.21,0.24,1009.30
19.561,0.07,0.99,0.05,-0.28,0.60,0.11,0.09,-0.21,0.24,1009.30
19.562,0.09,1.01,0.02,-0.28,0.60,0.11,0.09,-0.21,0.24,1009.30
19.562,0.05,1.04,0.01,-0.28,0.60,0.11,0.09,-0.21,0.24,1009.30
19.572,0.05,1.04,0.01,-0.28,0.60,0.11,0.09,-0.21,0.24,1009.30
19.578,-0.03,1.06,0.02,-0.28,0.60,0.11,0.09,-0.21,0.24,1009.30
19.579,-0.03,1.06,0.02,-0.29,0.66,-0.06,0.09,-0.21,0.24,1009.30
19.62,-0.02,1.09,-0.02,-0.29,0.66,-0.06,0.09,-0.21,0.24,1009.30
19.621,-0.02,1.09,-0.02,-0.29,0.66,-0.06,0.09,-0.21,0.24,1009.38
19.626,-0.05,1.11,-0.00,-0.29,0.66,-0.06,0.09,-0.21,0.24,1009.38
19.631,-0.05,1.11,-0.00,-0.29,0.66,-0.06,-0.12,-0.22,0.76,1009.38
19.649,-0.05,1.11,-0.00,-1.44,1.17,-0.38,-0.12,-0.22,0.76,1009.38
19.65,-0.05,1.15,-0.02,-1.44,1.17,-0.38,-0.12,-0.22,0.76,1009.38
19.679,-0.07,1.24,-0.08,-1.44,1.17,-0.38,-0.12,-0.22,0.76,1009.38
19.68,-0.13,1.36,-0.12,-1.44,1.17,-0.38,-0.12,-0.22,0.76,1009.38
19.692,-0.13,1.36,-0.12,-1.44,1.17,-0.38,-0.12,-0.22,0.76,1009.58
19.698,-0.13,1.36,-0.12,-1.44,1.17,-0.38,-0.46,-0.14,1.99,1009.58
19.709,-0.27,1.42,-0.03,-1.44,1.17,-0.38,-0.46,-0.14,1.99,1009.58
19.718,-0.44,1.54,-0.03,-1.44,1.17,-0.38,-0.46,-0.14,1.99,1009.58
19.72,-0.44,1.54,-0.03,-3.75,2.58,-1.08,-0.46,-0.14,1.99,1009.58
19.759,-0.64,1.61,0.04,-3.75,2.58,-1.08,-0.46,-0.14,1.99,1009.58
19.76,-0.66,1.62,0.03,-3.75,2.58,-1.08,-0.46,-0.14,1.99,1009.58
19.768,-0.66,1.62,0.03,-3.75,2.58,-1.08,-0.73,-0.74,4.53,1009.58
19.772,-0.66,1.62,0.03,-3.75,2.58,-1.08,-0.73,-0.74,4.53,1009.72
19.789,-0.66,1.62,0.03,-8.54,7.17,-1.58,-0.73,-0.74,4.53,1009.72
19.79,-0.11,1.61,0.18,-8.54,7.17,-1.58,-0.73,-0.74,4.53,1009.72
19.82,-0.00,1.28,0.57,-8.54,7.17,-1.58,-0.73,-0.74,4.53,1009.72
19.821,-0.00,1.28,0.57,-8.54,7.17,-1.58,-0.73,-0.74,4.53,1008.97
19.825,-0.28,1.11,0.76,-8.54,7.17,-1.58,-0.73,-0.74,4.53,1008.97
19.838,-0.28,1.11,0.76,-8.54,7.17,-1.58,-0.29,-1.10,6.41,1008.97
19.85,-0.15,0.59,0.28,-8.54,7.17,-1.58,-0.29,-1.10,6.41,1008.97
19.859,2.27,0.63,0.25,-8.54,7.17,-1.58,-0.29,-1.10,6.41,1008.97
19.859,2.27,0.63,0.25,-11.90,11.52,0.83,-0.29,-1.10,6.41,1008.97
19.892,1.48,0.63,0.47,-11.90,11.52,0.83,-0.29,-1.10,6.41,1008.97
19.894,1.48,0.63,0.47,-11.90,11.52,0.83,-0.29,-1.10,6.41,1008.42
19.909,-0.29,0.50,0.15,-11.90,11.52,0.83,-0.29,-1.10,6.41,1008.42
19.91,-0.29,0.50,0.15,-11.90,11.52,0.83,0.10,0.02,-0.52,1008.42
19.929,-0.29,0.50,0.15,-2.31,2.92,3.77,0.10,0.02,-0.52,1008.42
19.93,-0.73,0.47,-0.17,-2.31,2.92,3.77,0.10,0.02,-0.52,1008.42
19.959,-0.27,0.46,0.01,-2.31,2.92,3.77,0.10,0.02,-0.52,1008.42
19.96,0.29,0.42,0.14,-2.31,2.92,3.77,0.10,0.02,-0.52,1008.42
19.972,0.29,0.42,0.14,-2.31,2.92,3.77,0.10,0.02,-0.52,1008.92
19.979,0.29,0.42,0.14,-2.31,2.92,3.77,-0.19,0.80,-2.85,1008.92
19.998,0.29,0.42,0.14,-4.99,-1.70,0.07,-0.19,0.80,-2.85,1008.92
20.0,0.29,0.45,0.09,-4.99,-1.70,0.07,-0.19,0.80,-2.85,1008.92
20.0,0.05,0.56,-0.05,-4.99,-1.70,0.07,-0.19,0.80,-2.85,1008.92
20.013,0.05,0.56,-0.05,-4.99,-1.70,0.07,-0.19,0.80,-2.85,1009.09
20.026,-0.02,0.67,-0.10,-4.99,-1.70,0.07,-0.19,0.80,-2.85,1009.09
20.053,0.11,0.80,-0.08,-4.99,-1.70,0.07,-0.19,0.80,-2.85,1009.09
20.054,0.11,0.80,-0.08,-4.99,-1.70,0.07,0.25,0.24,-4.89,1009.09
20.069,0.11,0.80,-0.08,-1.34,-3.74,-0.34,0.25,0.24,-4.89,1009.09
20.07,0.23,0.95,-0.06,-1.34,-3.74,-0.34,0.25,0.24,-4.89,1009.09
20.092,0.26,1.13,-0.15,-1.34,-3.74,-0.34,0.25,0.24,-4.89,1009.09
20.093,0.26,1.13,-0.15,-1.34,-3.74,-0.34,0.25,0.24,-4.89,1009.20
20.119,0.26,1.13,-0.15,-1.34,-3.74,-0.34,0.61,-0.04,-4.97,1009.20
20.12,0.27,1.29,-0.23,-1.34,-3.74,-0.34,0.61,-0.04,-4.97,1009.20
20.139,0.27,1.29,-0.23,1.22,-0.54,-1.42,0.61,-0.04,-4.97,1009.20
20.14,0.34,1.49,-0.23,1.22,-0.54,-1.42,0.61,-0.04,-4.97,1009.20
20.141,0.49,1.62,-0.19,1.22,-0.54,-1.42,0.61,-0.04,-4.97,1009.20
20.159,0.85,1.77,-0.13,1.22,-0.54,-1.42,0.61,-0.04,-4.97,1009.20
20.172,0.85,1.77,-0.13,1.22,-0.54,-1.42,0.61,-0.04,-4.97,1009.23
20.189,0.85,1.77,-0.13,1.22,-0.54,-1.42,0.59,0.76,-4.41,1009.23
20.19,1.58,1.71,0.07,1.22,-0.54,-1.42,0.59,0.76,-4.41,1009.23
20.199,2.08,1.38,0.18,1.22,-0.54,-1.42,0.59,0.76,-4.41,1009.23
20.209,2.08,1.38,0.18,5.91,5.37,-2.06,0.59,0.76,-4.41,1009.23
20.213,2.08,1.38,0.18,5.91,5.37,-2.06,0.59,0.76,-4.41,1009.22
20.226,2.31,0.60,0.77,5.91,5.37,-2.06,0.59,0.76,-4.41,1009.22
20.259,2.31,0.60,0.77,5.91,5.37,-2.06,0.93,0.17,-1.70,1009.22
20.26,2.19,0.67,0.45,5.91,5.37,-2.06,0.93,0.17,-1.70,1009.22
20.279,2.19,0.67,0.45,17.86,5.98,1.31,0.93,0.17,-1.70,1009.22
20.28,1.33,1.10,-0.29,17.86,5.98,1.31,0.93,0.17,-1.70,1009.22
20.281,-0.65,1.96,-0.45,17.86,5.98,1.31,0.93,0.17,-1.70,1009.22
20.293,-0.65,1.96,-0.45,17.86,5.98,1.31,0.93,0.17,-1.70,1009.38
20.329,-0.65,1.96,-0.45,17.86,5.98,1.31,-1.35,0.14,3.78,1009.38
20.331,-1.09,0.86,-0.01,17.86,5.98,1.31,-1.35,0.14,3.78,1009.38
20.332,-0.15,0.98,0.17,17.86,5.98,1.31,-1.35,0.14,3.78,1009.38
20.349,-0.15,0.98,0.17,11.03,2.00,0.08,-1.35,0.14,3.78,1009.38
20.35,2.14,1.04,1.52,11.03,2.00,0.08,-1.35,0.14,3.78,1009.38
20.36,0.44,1.36,-0.23,11.03,2.00,0.08,-1.35,0.14,3.78,1009.38
20.373,0.44,1.36,-0.23,11.03,2.00,0.08,-1.35,0.14,3.78,1009.83
20.4,0.73,1.19,-0.65,11.03,2.00,0.08,-1.35,0.14,3.78,1009.83
20.401,0.73,1.19,-0.65,11.03,2.00,0.08,0.05,0.58,0.92,1009.83
20.415,0.73,1.19,-0.65,11.03,2.00,0.08,0.05,0.58,0.92,1009.69
20.416,0.11,1.05,-0.12,11.03,2.00,0.08,0.05,0.58,0.92,1009.69
20.419,0.14,1.02,0.09,11.03,2.00,0.08,0.05,0.58,0.92,1009.69
20.42,0.14,1.02,0.09,3.89,1.15,5.03,0.05,0.58,0.92,1009.69
20.469,0.14,1.02,0.09,3.89,1.15,5.03,-0.34,0.08,0.22,1009.69
20.47,0.12,1.03,0.02,3.89,1.15,5.03,-0.34,0.08,0.22,1009.69
20.471,0.09,0.96,0.16,3.89,1.15,5.03,-0.34,0.08,0.22,1009.69
20.489,0.09,0.96,0.16,1.14,1.87,-4.19,-0.34,0.08,0.22,1009.69
20.49,0.08,0.92,0.24,1.14,1.87,-4.19,-0.34,0.08,0.22,1009.69
20.492,0.08,0.92,0.24,1.14,1.87,-4.19,-0.34,0.08,0.22,1009.45
