time,gFx,gFy,gFz,ax,ay,az,wx,wy,wz,P
0.03,-0.11,0.97,0.01,0.01,-0.02,-0.01,0.02,-0.00,-0.02,1009.22
0.031,-0.11,0.98,0.00,0.01,-0.02,-0.01,0.02,-0.00,-0.02,1009.22
0.031,-0.11,0.98,0.00,0.01,-0.02,-0.01,0.02,-0.00,-0.02,1009.22
0.048,-0.11,0.97,-0.00,0.01,-0.02,-0.01,0.02,-0.00,-0.02,1009.22
0.049,-0.11,0.97,-0.00,0.05,0.01,0.03,0.02,-0.00,-0.02,1009.22
0.06,-0.11,0.98,-0.00,0.05,0.01,0.03,0.02,-0.00,-0.02,1009.22
0.061,-0.11,0.98,-0.00,0.05,0.01,0.03,0.02,-0.00,-0.02,1009.22
0.099,-0.11,0.98,-0.00,0.05,0.01,0.03,0.02,0.00,-0.01,1009.22
0.1,-0.12,0.98,-0.01,0.05,0.01,0.03,0.02,0.00,-0.01,1009.22
0.119,-0.12,0.98,-0.01,0.04,-0.00,0.01,0.02,0.00,-0.01,1009.22
0.12,-0.10,0.98,-0.00,0.04,-0.00,0.01,0.02,0.00,-0.01,1009.22
0.12,-0.11,0.98,-0.00,0.04,-0.00,0.01,0.02,0.00,-0.01,1009.22
0.142,-0.11,0.97,0.00,0.04,-0.00,0.01,0.02,0.00,-0.01,1009.22
0.143,-0.11,0.97,0.00,0.04,-0.00,0.01,0.02,0.00,-0.01,1009.23
0.169,-0.11,0.97,0.00,0.04,-0.00,0.01,0.01,0.00,-0.01,1009.23
0.17,-0.11,0.98,-0.01,0.04,-0.00,0.01,0.01,0.00,-0.01,1009.23
0.182,-0.11,0.98,0.00,0.04,-0.00,0.01,0.01,0.00,-0.01,1009.23
0.183,-0.11,0.98,0.00,0.04,-0.00,0.01,0.01,0.00,-0.01,1009.23
0.189,-0.11,0.98,0.00,0.03,0.01,-0.01,0.01,0.00,-0.01,1009.23
0.239,-0.11,0.98,0.00,0.03,0.01,-0.01,0.01,-0.00,-0.01,1009.23
0.24,-0.11,0.98,-0.00,0.03,0.01,-0.01,0.01,-0.00,-0.01,1009.23
0.24,-0.12,0.97,-0.00,0.03,0.01,-0.01,0.01,-0.00,-0.01,1009.23
0.258,-0.12,0.97,-0.00,0.03,-0.01,0.02,0.01,-0.00,-0.01,1009.23
0.259,-0.11,0.98,-0.01,0.03,-0.01,0.02,0.01,-0.00,-0.01,1009.23
0.259,-0.11,0.97,-0.01,0.03,-0.01,0.02,0.01,-0.00,-0.01,1009.23
0.262,-0.11,0.97,-0.01,0.03,-0.01,0.02,0.01,-0.00,-0.01,1009.24
0.308,-0.11,0.97,-0.01,0.03,-0.01,0.02,-0.01,-0.01,0.01,1009.24
0.309,-0.11,0.97,-0.00,0.03,-0.01,0.02,-0.01,-0.01,0.01,1009.24
0.309,-0.12,0.97,-0.04,0.03,-0.01,0.02,-0.01,-0.01,0.01,1009.24
0.327,-0.11,0.98,-0.01,0.03,-0.01,0.02,-0.01,-0.01,0.01,1009.24
0.328,-0.11,0.98,-0.01,0.00,-0.00,-0.04,-0.01,-0.01,0.01,1009.24
0.341,-0.10,0.98,0.01,0.00,-0.00,-0.04,-0.01,-0.01,0.01,1009.24
0.342,-0.10,0.98,0.01,0.00,-0.00,-0.04,-0.01,-0.01,0.01,1009.26
0.378,-0.10,0.98,0.01,0.00,-0.00,-0.04,-0.01,-0.01,0.01,1009.26
0.378,-0.10,0.98,0.01,0.00,-0.00,-0.04,-0.02,-0.01,0.01,1009.26
0.381,-0.12,0.97,-0.00,0.00,-0.00,-0.04,-0.02,-0.01,0.01,1009.26
0.381,-0.12,0.97,-0.00,0.00,-0.00,-0.04,-0.02,-0.01,0.01,1009.22
0.399,-0.10,0.98,0.01,0.00,-0.00,-0.04,-0.02,-0.01,0.01,1009.22
0.4,-0.10,0.98,0.01,-0.01,0.00,-0.11,-0.02,-0.01,0.01,1009.22
0.449,-0.11,0.98,0.00,-0.01,0.00,-0.11,-0.02,-0.01,0.01,1009.22
0.45,-0.11,0.98,0.01,-0.01,0.00,-0.11,-0.02,-0.01,0.01,1009.22
0.45,-0.11,0.98,0.01,-0.01,0.00,-0.11,0.02,-0.02,0.01,1009.22
0.461,-0.10,0.97,0.03,-0.01,0.00,-0.11,0.02,-0.02,0.01,1009.22
0.462,-0.10,0.97,0.03,-0.01,0.00,-0.11,0.02,-0.02,0.01,1009.24
0.469,-0.10,0.97,0.03,0.06,0.00,0.11,0.02,-0.02,0.01,1009.24
0.519,-0.10,0.97,0.03,0.06,0.00,0.11,0.12,-0.02,0.03,1009.24
0.52,-0.12,0.96,0.01,0.06,0.00,0.11,0.12,-0.02,0.03,1009.24
0.521,-0.12,0.98,0.00,0.06,0.00,0.11,0.12,-0.02,0.03,1009.24
0.527,-0.10,0.98,0.01,0.06,0.00,0.11,0.12,-0.02,0.03,1009.24
0.539,-0.10,0.98,-0.00,0.06,0.00,0.11,0.12,-0.02,0.03,1009.24
0.54,-0.10,0.98,-0.00,0.01,0.00,0.23,0.12,-0.02,0.03,1009.24
0.541,-0.10,0.98,-0.00,0.01,0.00,0.23,0.12,-0.02,0.03,1009.29
0.581,-0.13,0.97,-0.01,0.01,0.00,0.23,0.12,-0.02,0.03,1009.29
0.583,-0.09,0.99,-0.00,0.01,0.00,0.23,0.12,-0.02,0.03,1009.29
0.584,-0.09,0.99,-0.00,0.01,0.00,0.23,0.12,-0.02,0.03,1009.29
0.588,-0.09,0.99,-0.00,0.01,0.00,0.23,0.22,0.02,0.06,1009.29
0.614,-0.10,0.98,-0.01,0.01,0.00,0.23,0.22,0.02,0.06,1009.29
0.617,-0.10,0.98,-0.01,-0.06,0.01,0.29,0.22,0.02,0.06,1009.29
0.658,-0.10,0.98,-0.01,-0.06,0.01,0.29,0.36,0.02,0.06,1009.29
0.66,-0.08,0.97,0.02,-0.06,0.01,0.29,0.36,0.02,0.06,1009.29
0.661,-0.11,0.97,-0.02,-0.06,0.01,0.29,0.36,0.02,0.06,1009.29
0.661,-0.08,0.98,-0.04,-0.06,0.01,0.29,0.36,0.02,0.06,1009.29
0.662,-0.08,0.98,-0.04,-0.06,0.01,0.29,0.36,0.02,0.06,1009.25
0.678,-0.07,0.98,-0.05,-0.06,0.01,0.29,0.36,0.02,0.06,1009.25
0.679,-0.07,0.98,-0.05,0.00,0.04,0.42,0.36,0.02,0.06,1009.25
0.727,-0.08,0.98,-0.08,0.00,0.04,0.42,0.36,0.02,0.06,1009.25
0.729,-0.09,0.98,-0.07,0.00,0.04,0.42,0.36,0.02,0.06,1009.25
0.729,-0.09,0.98,-0.07,0.00,0.04,0.42,0.43,-0.02,0.02,1009.25
0.741,-0.06,0.99,-0.07,0.00,0.04,0.42,0.43,-0.02,0.02,1009.25
0.742,-0.06,0.99,-0.07,0.00,0.04,0.42,0.43,-0.02,0.02,1009.15
0.748,-0.06,0.99,-0.07,0.12,0.02,0.41,0.43,-0.02,0.02,1009.15
0.781,-0.06,0.99,-0.07,0.12,0.02,0.41,0.43,-0.02,0.02,1009.04
0.783,-0.04,1.00,-0.04,0.12,0.02,0.41,0.43,-0.02,0.02,1009.04
0.783,-0.02,0.99,-0.03,0.12,0.02,0.41,0.43,-0.02,0.02,1009.04
0.798,-0.02,0.99,-0.03,0.12,0.02,0.41,0.47,0.12,-0.14,1009.04
0.818,-0.02,0.99,-0.03,0.38,0.15,0.27,0.47,0.12,-0.14,1009.04
0.82,-0.04,0.99,-0.10,0.38,0.15,0.27,0.47,0.12,-0.14,1009.04
0.82,-0.02,1.01,-0.08,0.38,0.15,0.27,0.47,0.12,-0.14,1009.04
0.861,0.03,1.03,-0.06,0.38,0.15,0.27,0.47,0.12,-0.14,1009.04
0.862,-0.01,1.06,-0.08,0.38,0.15,0.27,0.47,0.12,-0.14,1009.04
0.863,-0.01,1.06,-0.08,0.38,0.15,0.27,0.47,0.12,-0.14,1009.03
0.868,-0.01,1.06,-0.08,0.38,0.15,0.27,0.39,0.46,-0.53,1009.03
0.888,-0.01,1.06,-0.08,1.08,0.26,0.57,0.39,0.46,-0.53,1009.03
0.89,-0.01,1.21,-0.08,1.08,0.26,0.57,0.39,0.46,-0.53,1009.03
0.927,0.02,1.16,-0.06,1.08,0.26,0.57,0.39,0.46,-0.53,1009.03
0.929,0.04,1.20,0.06,1.08,0.26,0.57,0.39,0.46,-0.53,1009.03
0.938,0.04,1.20,0.06,1.08,0.26,0.57,0.02,0.87,-1.13,1009.03
0.941,0.15,1.23,0.25,1.08,0.26,0.57,0.02,0.87,-1.13,1009.03
0.942,0.15,1.23,0.25,1.08,0.26,0.57,0.02,0.87,-1.13,1009.23
0.96,0.04,1.16,0.30,1.08,0.26,0.57,0.02,0.87,-1.13,1009.23
0.961,0.04,1.16,0.30,2.11,1.47,0.51,0.02,0.87,-1.13,1009.23
0.981,-0.21,0.98,0.23,2.11,1.47,0.51,0.02,0.87,-1.13,1009.23
0.982,-0.21,0.98,0.23,2.11,1.47,0.51,0.02,0.87,-1.13,1009.16
1.008,-0.21,0.98,0.23,2.11,1.47,0.51,0.02,1.57,-1.81,1009.16
1.009,-0.77,0.90,-0.11,2.11,1.47,0.51,0.02,1.57,-1.81,1009.16
1.028,-0.77,0.90,-0.11,3.52,2.51,3.05,0.02,1.57,-1.81,1009.16
1.03,-1.34,0.84,-0.25,3.52,2.51,3.05,0.02,1.57,-1.81,1009.16
1.06,-0.66,0.96,-0.10,3.52,2.51,3.05,0.02,1.57,-1.81,1009.16
1.062,0.13,1.18,-0.24,3.52,2.51,3.05,0.02,1.57,-1.81,1009.16
1.063,0.13,1.18,-0.24,3.52,2.51,3.05,0.02,1.57,-1.81,1009.08
1.078,0.13,1.18,-0.24,3.52,2.51,3.05,0.36,-2.04,-0.47,1009.08
1.099,0.13,1.18,-0.24,-4.47,-0.22,0.50,0.36,-2.04,-0.47,1009.08
1.1,0.28,1.11,-0.15,-4.47,-0.22,0.50,0.36,-2.04,-0.47,1009.08
1.1,0.25,0.89,0.01,-4.47,-0.22,0.50,0.36,-2.04,-0.47,1009.08
1.127,0.25,0.78,-0.05,-4.47,-0.22,0.50,0.36,-2.04,-0.47,1009.08
1.14,0.48,0.76,-0.09,-4.47,-0.22,0.50,0.36,-2.04,-0.47,1009.08
1.141,0.48,0.76,-0.09,-4.47,-0.22,0.50,0.36,-2.04,-0.47,1009.14
1.148,0.48,0.76,-0.09,-4.47,-0.22,0.50,-0.17,-2.04,0.20,1009.14
1.169,0.48,0.76,-0.09,4.45,1.13,-0.80,-0.17,-2.04,0.20,1009.14
1.17,0.60,0.78,-0.16,4.45,1.13,-0.80,-0.17,-2.04,0.20,1009.14
1.181,0.60,0.78,-0.16,4.45,1.13,-0.80,-0.17,-2.04,0.20,1009.15
1.182,0.50,0.77,-0.13,4.45,1.13,-0.80,-0.17,-2.04,0.20,1009.15
1.219,0.50,0.77,-0.13,4.45,1.13,-0.80,-0.14,-0.39,1.49,1009.15
1.22,0.42,0.83,-0.13,4.45,1.13,-0.80,-0.14,-0.39,1.49,1009.15
1.239,0.42,0.83,-0.13,6.08,-1.91,-0.60,-0.14,-0.39,1.49,1009.15
1.24,0.31,0.91,-0.16,6.08,-1.91,-0.60,-0.14,-0.39,1.49,1009.15
1.241,0.17,1.00,-0.18,6.08,-1.91,-0.60,-0.14,-0.39,1.49,1009.15
1.26,0.08,1.07,-0.18,6.08,-1.91,-0.60,-0.14,-0.39,1.49,1009.15
1.262,0.08,1.07,-0.18,6.08,-1.91,-0.60,-0.14,-0.39,1.49,1009.23
1.288,0.08,1.07,-0.18,6.08,-1.91,-0.60,-0.02,-0.42,2.09,1009.23
1.29,-0.01,1.11,-0.21,6.08,-1.91,-0.60,-0.02,-0.42,2.09,1009.23
1.309,-0.08,1.12,-0.26,6.08,-1.91,-0.60,-0.02,-0.42,2.09,1009.23
1.31,-0.08,1.12,-0.26,3.29,-0.82,-1.11,-0.02,-0.42,2.09,1009.23
1.328,-0.06,1.13,-0.25,3.29,-0.82,-1.11,-0.02,-0.42,2.09,1009.23
1.341,-0.06,1.11,-0.16,3.29,-0.82,-1.11,-0.02,-0.42,2.09,1009.23
1.342,-0.06,1.11,-0.16,3.29,-0.82,-1.11,-0.02,-0.42,2.09,1009.19
1.359,-0.06,1.11,-0.16,3.29,-0.82,-1.11,-0.06,-1.11,1.80,1009.19
1.379,-0.11,1.06,-0.08,3.29,-0.82,-1.11,-0.06,-1.11,1.80,1009.19
1.38,-0.24,0.98,-0.04,3.29,-0.82,-1.11,-0.06,-1.11,1.80,1009.19
1.381,-0.24,0.98,-0.04,-1.01,1.23,-1.76,-0.06,-1.11,1.80,1009.19
1.382,-0.24,0.98,-0.04,-1.01,1.23,-1.76,-0.06,-1.11,1.80,1009.20
1.428,-0.24,0.98,-0.04,-1.01,1.23,-1.76,-0.23,0.34,1.06,1009.20
1.43,-0.37,0.92,0.01,-1.01,1.23,-1.76,-0.23,0.34,1.06,1009.20
1.43,-0.55,0.90,0.00,-1.01,1.23,-1.76,-0.23,0.34,1.06,1009.20
1.449,-0.70,0.89,-0.02,-1.01,1.23,-1.76,-0.23,0.34,1.06,1009.20
1.45,-0.70,0.89,-0.02,-2.64,0.83,-1.00,-0.23,0.34,1.06,1009.20
1.46,-0.80,0.87,-0.03,-2.64,0.83,-1.00,-0.23,0.34,1.06,1009.20
1.462,-0.80,0.87,-0.03,-2.64,0.83,-1.00,-0.23,0.34,1.06,1009.23
1.5,-0.80,0.87,-0.03,-2.64,0.83,-1.00,-0.52,1.42,-0.03,1009.23
1.501,-0.80,0.89,-0.02,-2.64,0.83,-1.00,-0.52,1.42,-0.03,1009.23
1.519,-0.80,0.89,-0.02,-6.37,-0.81,-0.47,-0.52,1.42,-0.03,1009.23
1.52,-0.90,0.91,-0.11,-6.37,-0.81,-0.47,-0.52,1.42,-0.03,1009.23
1.521,-1.14,0.85,-0.19,-6.37,-0.81,-0.47,-0.52,1.42,-0.03,1009.23
1.541,-1.26,0.69,-0.20,-6.37,-0.81,-0.47,-0.52,1.42,-0.03,1009.23
1.542,-1.26,0.69,-0.20,-6.37,-0.81,-0.47,-0.52,1.42,-0.03,1009.26
1.569,-1.26,0.69,-0.20,-6.37,-0.81,-0.47,-0.02,-0.86,-2.02,1009.26
1.57,-0.21,1.73,0.79,-6.37,-0.81,-0.47,-0.02,-0.86,-2.02,1009.26
1.581,1.97,1.43,-0.83,-6.37,-0.81,-0.47,-0.02,-0.86,-2.02,1009.26
1.582,1.97,1.43,-0.83,-6.37,-0.81,-0.47,-0.02,-0.86,-2.02,1009.29
1.588,1.97,1.43,-0.83,-8.21,-0.95,-1.12,-0.02,-0.86,-2.02,1009.29
1.639,1.97,1.43,-0.83,-8.21,-0.95,-1.12,0.04,-0.26,-0.72,1009.29
1.64,-2.76,0.85,0.01,-8.21,-0.95,-1.12,0.04,-0.26,-0.72,1009.29
1.641,0.59,1.27,-0.93,-8.21,-0.95,-1.12,0.04,-0.26,-0.72,1009.29
1.66,0.59,1.27,-0.93,-1.83,2.17,-3.76,0.04,-0.26,-0.72,1009.29
1.661,-0.19,0.97,-0.23,-1.83,2.17,-3.76,0.04,-0.26,-0.72,1009.29
1.661,-0.18,0.95,0.21,-1.83,2.17,-3.76,0.04,-0.26,-0.72,1009.29
1.662,-0.18,0.95,0.21,-1.83,2.17,-3.76,0.04,-0.26,-0.72,1009.63
1.708,-0.18,0.95,0.21,-1.83,2.17,-3.76,-0.10,-0.12,-0.27,1009.63
1.71,-0.12,0.96,0.16,-1.83,2.17,-3.76,-0.10,-0.12,-0.27,1009.63
1.71,-0.17,0.97,0.04,-1.83,2.17,-3.76,-0.10,-0.12,-0.27,1009.63
1.727,-0.18,1.01,-0.05,-1.83,2.17,-3.76,-0.10,-0.12,-0.27,1009.63
1.728,-0.18,1.01,-0.05,-1.48,0.68,0.17,-0.10,-0.12,-0.27,1009.63
1.739,-0.17,0.99,-0.02,-1.48,0.68,0.17,-0.10,-0.12,-0.27,1009.63
1.741,-0.17,0.99,-0.02,-1.48,0.68,0.17,-0.10,-0.12,-0.27,1009.37
1.779,-0.11,1.00,0.07,-1.48,0.68,0.17,-0.10,-0.12,-0.27,1009.37
1.78,-0.11,1.00,0.07,-1.48,0.68,0.17,-0.04,-0.03,-0.20,1009.37
1.781,-0.14,1.00,0.01,-1.48,0.68,0.17,-0.04,-0.03,-0.20,1009.37
1.781,-0.14,1.00,0.01,-1.48,0.68,0.17,-0.04,-0.03,-0.20,1009.24
1.799,-0.11,0.99,0.05,-1.48,0.68,0.17,-0.04,-0.03,-0.20,1009.24
1.8,-0.11,0.99,0.05,-0.10,0.02,0.14,-0.04,-0.03,-0.20,1009.24
1.849,-0.11,0.99,0.05,-0.10,0.02,0.14,0.02,0.11,-0.35,1009.24
1.85,-0.12,0.99,0.04,-0.10,0.02,0.14,0.02,0.11,-0.35,1009.24
1.851,-0.12,1.00,-0.00,-0.10,0.02,0.14,0.02,0.11,-0.35,1009.24
1.86,-0.20,0.98,-0.03,-0.10,0.02,0.14,0.02,0.11,-0.35,1009.24
1.863,-0.20,0.98,-0.03,-0.10,0.02,0.14,0.02,0.11,-0.35,1009.11
1.869,-0.20,0.98,-0.03,0.51,0.23,0.22,0.02,0.11,-0.35,1009.11
1.919,-0.20,0.98,-0.03,0.51,0.23,0.22,-0.08,0.15,-0.45,1009.11
1.921,-0.17,0.98,0.01,0.51,0.23,0.22,-0.08,0.15,-0.45,1009.11
1.921,-0.12,1.00,0.04,0.51,0.23,0.22,-0.08,0.15,-0.45,1009.11
1.926,-0.12,1.00,0.06,0.51,0.23,0.22,-0.08,0.15,-0.45,1009.11
1.939,-0.17,0.99,0.04,0.51,0.23,0.22,-0.08,0.15,-0.45,1009.11
1.94,-0.17,0.99,0.04,0.54,0.19,-0.21,-0.08,0.15,-0.45,1009.11
1.941,-0.17,0.99,0.04,0.54,0.19,-0.21,-0.08,0.15,-0.45,1009.20
1.982,-0.17,0.99,0.04,0.54,0.19,-0.21,-0.08,0.15,-0.45,1009.35
1.983,-0.22,0.96,0.02,0.54,0.19,-0.21,-0.08,0.15,-0.45,1009.35
1.984,-0.25,0.92,0.05,0.54,0.19,-0.21,-0.08,0.15,-0.45,1009.35
1.989,-0.25,0.92,0.05,0.54,0.19,-0.21,-0.08,0.23,-0.60,1009.35
2.009,-0.22,0.94,0.08,0.54,0.19,-0.21,-0.08,0.23,-0.60,1009.35
2.01,-0.22,0.94,0.08,1.00,0.32,0.22,-0.08,0.23,-0.60,1009.35
2.059,-0.22,0.94,0.08,1.00,0.32,0.22,0.03,0.28,-0.64,1009.35
2.06,-0.22,0.97,0.07,1.00,0.32,0.22,0.03,0.28,-0.64,1009.35
2.061,-0.26,0.97,0.00,1.00,0.32,0.22,0.03,0.28,-0.64,1009.35
2.061,-0.26,0.98,-0.03,1.00,0.32,0.22,0.03,0.28,-0.64,1009.35
2.061,-0.26,0.98,-0.03,1.00,0.32,0.22,0.03,0.28,-0.64,1009.41
2.08,-0.25,1.01,-0.04,1.00,0.32,0.22,0.03,0.28,-0.64,1009.41
2.082,-0.25,1.01,-0.04,0.60,-0.03,0.41,0.03,0.28,-0.64,1009.41
2.127,-0.23,1.04,-0.00,0.60,-0.03,0.41,0.03,0.28,-0.64,1009.41
2.129,-0.22,1.06,-0.00,0.60,-0.03,0.41,0.03,0.28,-0.64,1009.41
2.129,-0.22,1.06,-0.00,0.60,-0.03,0.41,-0.08,0.25,-0.85,1009.41
2.14,-0.19,1.10,-0.00,0.60,-0.03,0.41,-0.08,0.25,-0.85,1009.41
2.141,-0.19,1.10,-0.00,0.60,-0.03,0.41,-0.08,0.25,-0.85,1009.45
2.15,-0.19,1.10,-0.00,0.97,0.59,-0.30,-0.08,0.25,-0.85,1009.45
2.182,-0.19,1.10,-0.00,0.97,0.59,-0.30,-0.08,0.25,-0.85,1009.44
2.183,-0.20,1.14,-0.05,0.97,0.59,-0.30,-0.08,0.25,-0.85,1009.44
2.183,-0.22,1.16,-0.10,0.97,0.59,-0.30,-0.08,0.25,-0.85,1009.44
2.199,-0.22,1.16,-0.10,0.97,0.59,-0.30,-0.27,0.21,-1.53,1009.44
2.22,-0.22,1.16,-0.10,2.47,1.94,-0.40,-0.27,0.21,-1.53,1009.44
2.221,-0.13,1.25,-0.10,2.47,1.94,-0.40,-0.27,0.21,-1.53,1009.44
2.222,-0.06,1.38,-0.12,2.47,1.94,-0.40,-0.27,0.21,-1.53,1009.44
2.261,0.09,1.50,0.00,2.47,1.94,-0.40,-0.27,0.21,-1.53,1009.44
2.262,0.30,1.68,0.12,2.47,1.94,-0.40,-0.27,0.21,-1.53,1009.44
2.262,0.30,1.68,0.12,2.47,1.94,-0.40,-0.27,0.21,-1.53,1009.38
2.268,0.30,1.68,0.12,2.47,1.94,-0.40,-0.63,0.18,-3.23,1009.38
2.289,0.36,1.74,0.13,2.47,1.94,-0.40,-0.63,0.18,-3.23,1009.38
2.29,0.36,1.74,0.13,5.22,5.15,-1.62,-0.63,0.18,-3.23,1009.38
2.327,-0.03,1.65,0.15,5.22,5.15,-1.62,-0.63,0.18,-3.23,1009.38
2.328,-0.30,1.51,0.23,5.22,5.15,-1.62,-0.63,0.18,-3.23,1009.38
2.339,-0.30,1.51,0.23,5.22,5.15,-1.62,-1.25,1.15,-5.62,1009.38
2.341,-0.34,1.25,0.21,5.22,5.15,-1.62,-1.25,1.15,-5.62,1009.38
2.341,-0.34,1.25,0.21,5.22,5.15,-1.62,-1.25,1.15,-5.62,1009.20
2.359,-1.20,-0.03,0.02,5.22,5.15,-1.62,-1.25,1.15,-5.62,1009.20
2.36,-1.20,-0.03,0.02,10.78,11.64,0.53,-1.25,1.15,-5.62,1009.20
2.381,-0.94,0.53,0.22,10.78,11.64,0.53,-1.25,1.15,-5.62,1009.20
2.383,-0.94,0.53,0.22,10.78,11.64,0.53,-1.25,1.15,-5.62,1008.66
2.409,0.25,0.72,-0.31,10.78,11.64,0.53,-1.25,1.15,-5.62,1008.66
2.41,0.25,0.72,-0.31,10.78,11.64,0.53,-0.76,0.74,-0.78,1008.66
2.429,-0.04,0.44,-0.20,10.78,11.64,0.53,-0.76,0.74,-0.78,1008.66
2.431,-0.04,0.44,-0.20,2.86,5.04,0.99,-0.76,0.74,-0.78,1008.66
2.461,-0.03,0.27,-0.00,2.86,5.04,0.99,-0.76,0.74,-0.78,1008.66
2.462,-0.13,0.21,-0.02,2.86,5.04,0.99,-0.76,0.74,-0.78,1008.66
2.462,-0.13,0.21,-0.02,2.86,5.04,0.99,-0.76,0.74,-0.78,1008.85
2.479,-0.13,0.21,-0.02,2.86,5.04,0.99,-0.11,-0.68,2.45,1008.85
2.5,0.06,0.29,-0.07,2.86,5.04,0.99,-0.11,-0.68,2.45,1008.85
2.5,0.16,0.45,-0.05,2.86,5.04,0.99,-0.11,-0.68,2.45,1008.85
2.501,0.16,0.45,-0.05,4.72,-1.50,-1.42,-0.11,-0.68,2.45,1008.85
2.527,0.05,0.58,-0.10,4.72,-1.50,-1.42,-0.11,-0.68,2.45,1008.85
2.541,-0.22,0.70,-0.27,4.72,-1.50,-1.42,-0.11,-0.68,2.45,1008.85
2.543,-0.22,0.70,-0.27,4.72,-1.50,-1.42,-0.11,-0.68,2.45,1009.08
2.55,-0.22,0.70,-0.27,4.72,-1.50,-1.42,0.34,0.86,4.61,1009.08
2.569,-0.22,0.70,-0.27,4.34,-5.46,-0.38,0.34,0.86,4.61,1009.08
2.571,-0.21,0.84,-0.31,4.34,-5.46,-0.38,0.34,0.86,4.61,1009.08
2.581,-0.11,1.04,-0.34,4.34,-5.46,-0.38,0.34,0.86,4.61,1009.08
2.583,-0.11,1.04,-0.34,4.34,-5.46,-0.38,0.34,0.86,4.61,1009.17
2.62,-0.11,1.04,-0.34,4.34,-5.46,-0.38,0.45,0.55,5.01,1009.17
2.621,-0.24,1.16,-0.32,4.34,-5.46,-0.38,0.45,0.55,5.01,1009.17
2.64,-0.24,1.16,-0.32,-0.09,-1.96,-2.07,0.45,0.55,5.01,1009.17
2.641,-0.28,1.38,-0.41,-0.09,-1.96,-2.07,0.45,0.55,5.01,1009.17
2.642,-0.32,1.59,-0.34,-0.09,-1.96,-2.07,0.45,0.55,5.01,1009.17
2.66,-0.50,1.64,-0.25,-0.09,-1.96,-2.07,0.45,0.55,5.01,1009.17
2.661,-0.50,1.64,-0.25,-0.09,-1.96,-2.07,0.45,0.55,5.01,1009.26
2.689,-0.54,1.72,-0.31,-0.09,-1.96,-2.07,0.45,0.55,5.01,1009.26
2.691,-0.54,1.72,-0.31,-0.09,-1.96,-2.07,-0.09,0.11,3.93,1009.26
2.709,-0.85,1.66,-0.24,-0.09,-1.96,-2.07,-0.09,0.11,3.93,1009.26
2.71,-0.85,1.66,-0.24,-3.61,3.71,-3.17,-0.09,0.11,3.93,1009.26
2.727,-1.10,1.47,-0.01,-3.61,3.71,-3.17,-0.09,0.11,3.93,1009.26
2.74,-1.55,1.18,0.00,-3.61,3.71,-3.17,-0.09,0.11,3.93,1009.26
2.741,-1.55,1.18,0.00,-3.61,3.71,-3.17,-0.09,0.11,3.93,1009.22
2.759,-1.55,1.18,0.00,-3.61,3.71,-3.17,-0.02,0.96,1.96,1009.22
2.78,-1.55,1.18,0.00,-8.50,6.84,-2.12,-0.02,0.96,1.96,1009.22
2.781,-2.28,0.75,-0.13,-8.50,6.84,-2.12,-0.02,0.96,1.96,1009.22
2.782,-2.44,0.42,-0.00,-8.50,6.84,-2.12,-0.02,0.96,1.96,1009.22
2.783,-2.44,0.42,-0.00,-8.50,6.84,-2.12,-0.02,0.96,1.96,1009.22
2.829,-2.44,0.42,-0.00,-8.50,6.84,-2.12,-0.26,-0.26,-1.34,1009.22
2.831,-1.25,0.91,-0.25,-8.50,6.84,-2.12,-0.26,-0.26,-1.34,1009.22
2.831,-1.17,0.90,-0.16,-8.50,6.84,-2.12,-0.26,-0.26,-1.34,1009.22
2.851,0.44,2.31,-0.20,-8.50,6.84,-2.12,-0.26,-0.26,-1.34,1009.22
2.852,0.44,2.31,-0.20,-19.07,-0.91,-0.46,-0.26,-0.26,-1.34,1009.22
2.86,1.70,1.45,0.31,-19.07,-0.91,-0.46,-0.26,-0.26,-1.34,1009.22
2.861,1.70,1.45,0.31,-19.07,-0.91,-0.46,-0.26,-0.26,-1.34,1009.29
2.903,-1.96,0.61,0.86,-19.07,-0.91,-0.46,-0.26,-0.26,-1.34,1009.29
2.905,-1.96,0.61,0.86,-19.07,-0.91,-0.46,-0.21,-0.15,-2.36,1009.29
2.92,-0.95,0.99,0.22,-19.07,-0.91,-0.46,-0.21,-0.15,-2.36,1009.29
2.921,-0.33,1.05,-0.68,-19.07,-0.91,-0.46,-0.21,-0.15,-2.36,1009.29
2.922,-0.33,1.05,-0.68,-1.61,4.36,-1.17,-0.21,-0.15,-2.36,1009.29
2.94,-0.23,1.00,-0.27,-1.61,4.36,-1.17,-0.21,-0.15,-2.36,1009.29
2.941,-0.23,1.00,-0.27,-1.61,4.36,-1.17,-0.21,-0.15,-2.36,1009.32
2.969,-0.23,1.00,-0.27,-1.61,4.36,-1.17,-0.14,-0.24,-0.38,1009.32
2.971,-0.24,1.01,-0.15,-1.61,4.36,-1.17,-0.14,-0.24,-0.38,1009.32
2.983,-0.07,0.97,0.22,-1.61,4.36,-1.17,-0.14,-0.24,-0.38,1009.32
2.984,-0.07,0.97,0.22,-1.61,4.36,-1.17,-0.14,-0.24,-0.38,1009.43
2.99,-0.07,0.97,0.22,-5.39,-0.31,1.25,-0.14,-0.24,-0.38,1009.43
3.04,-0.07,0.97,0.22,-5.39,-0.31,1.25,-0.11,-0.08,-0.26,1009.43
3.041,-0.17,0.98,0.12,-5.39,-0.31,1.25,-0.11,-0.08,-0.26,1009.43
3.042,-0.21,0.95,0.08,-5.39,-0.31,1.25,-0.11,-0.08,-0.26,1009.43
3.06,-0.21,0.95,0.08,-0.11,0.30,-0.63,-0.11,-0.08,-0.26,1009.43
3.061,-0.19,0.95,0.07,-0.11,0.30,-0.63,-0.11,-0.08,-0.26,1009.43
3.061,-0.18,0.97,0.07,-0.11,0.30,-0.63,-0.11,-0.08,-0.26,1009.43
3.062,-0.18,0.97,0.07,-0.11,0.30,-0.63,-0.11,-0.08,-0.26,1009.35
3.112,-0.18,0.97,0.07,-0.11,0.30,-0.63,0.03,0.03,-0.18,1009.35
3.113,-0.20,0.98,0.00,-0.11,0.30,-0.63,0.03,0.03,-0.18,1009.35
3.115,-0.19,0.98,0.02,-0.11,0.30,-0.63,0.03,0.03,-0.18,1009.35
3.127,-0.18,0.98,0.03,-0.11,0.30,-0.63,0.03,0.03,-0.18,1009.35
3.129,-0.18,0.98,0.03,0.07,-0.00,0.58,0.03,0.03,-0.18,1009.35
3.14,-0.17,0.98,0.05,0.07,-0.00,0.58,0.03,0.03,-0.18,1009.35
3.141,-0.17,0.98,0.05,0.07,-0.00,0.58,0.03,0.03,-0.18,1009.29
3.18,-0.17,0.98,0.05,0.07,-0.00,0.58,0.06,0.12,-0.18,1009.29
3.181,-0.16,0.99,0.03,0.07,-0.00,0.58,0.06,0.12,-0.18,1009.29
3.184,-0.16,0.98,0.05,0.07,-0.00,0.58,0.06,0.12,-0.18,1009.29
3.184,-0.16,0.98,0.05,0.07,-0.00,0.58,0.06,0.12,-0.18,1009.17
3.2,-0.16,0.98,0.05,0.13,0.21,0.06,0.06,0.12,-0.18,1009.17
3.202,-0.17,0.97,0.05,0.13,0.21,0.06,0.06,0.12,-0.18,1009.17
3.25,-0.17,0.97,0.05,0.13,0.21,0.06,0.10,0.24,-0.32,1009.17
3.251,-0.16,0.98,0.02,0.13,0.21,0.06,0.10,0.24,-0.32,1009.17
3.251,-0.18,0.98,-0.00,0.13,0.21,0.06,0.10,0.24,-0.32,1009.17
3.26,-0.20,0.98,-0.02,0.13,0.21,0.06,0.10,0.24,-0.32,1009.17
3.261,-0.20,0.98,-0.02,0.13,0.21,0.06,0.10,0.24,-0.32,1009.11
3.269,-0.20,0.98,-0.02,0.59,0.25,0.39,0.10,0.24,-0.32,1009.11
3.319,-0.20,0.98,-0.02,0.59,0.25,0.39,-0.01,0.18,-0.42,1009.11
3.321,-0.22,0.98,-0.02,0.59,0.25,0.39,-0.01,0.18,-0.42,1009.11
3.321,-0.21,0.99,-0.02,0.59,0.25,0.39,-0.01,0.18,-0.42,1009.11
3.326,-0.21,0.98,-0.00,0.59,0.25,0.39,-0.01,0.18,-0.42,1009.11
3.34,-0.21,0.99,-0.02,0.59,0.25,0.39,-0.01,0.18,-0.42,1009.11
3.341,-0.21,0.99,-0.02,0.66,0.33,-0.08,-0.01,0.18,-0.42,1009.11
3.342,-0.21,0.99,-0.02,0.66,0.33,-0.08,-0.01,0.18,-0.42,1009.22
3.381,-0.21,0.99,-0.02,0.66,0.33,-0.08,-0.01,0.18,-0.42,1009.35
3.383,-0.23,1.00,-0.03,0.66,0.33,-0.08,-0.01,0.18,-0.42,1009.35
3.384,-0.23,1.01,-0.03,0.66,0.33,-0.08,-0.01,0.18,-0.42,1009.35
3.389,-0.23,1.01,-0.03,0.66,0.33,-0.08,-0.10,0.11,-0.59,1009.35
3.41,-0.20,1.04,-0.02,0.66,0.33,-0.08,-0.10,0.11,-0.59,1009.35
3.41,-0.20,1.04,-0.02,0.83,0.50,-0.28,-0.10,0.11,-0.59,1009.35
3.46,-0.20,1.04,-0.02,0.83,0.50,-0.28,-0.21,0.09,-0.99,1009.35
3.463,-0.21,1.05,-0.01,0.83,0.50,-0.28,-0.21,0.09,-0.99,1009.35
3.463,-0.20,1.06,0.03,0.83,0.50,-0.28,-0.21,0.09,-0.99,1009.35
3.464,-0.23,1.06,0.01,0.83,0.50,-0.28,-0.21,0.09,-0.99,1009.35
3.465,-0.23,1.06,0.01,0.83,0.50,-0.28,-0.21,0.09,-0.99,1009.42
3.48,-0.22,1.12,-0.04,0.83,0.50,-0.28,-0.21,0.09,-0.99,1009.42
3.482,-0.22,1.12,-0.04,1.47,1.10,-0.50,-0.21,0.09,-0.99,1009.42
3.527,-0.16,1.25,-0.07,1.47,1.10,-0.50,-0.21,0.09,-0.99,1009.42
3.528,-0.10,1.34,-0.08,1.47,1.10,-0.50,-0.21,0.09,-0.99,1009.42
3.529,-0.10,1.34,-0.08,1.47,1.10,-0.50,-0.44,0.08,-1.75,1009.42
3.54,-0.00,1.42,-0.07,1.47,1.10,-0.50,-0.44,0.08,-1.75,1009.42
3.541,-0.00,1.42,-0.07,1.47,1.10,-0.50,-0.44,0.08,-1.75,1009.48
3.552,-0.00,1.42,-0.07,2.76,2.26,-0.58,-0.44,0.08,-1.75,1009.48
3.581,-0.00,1.42,-0.07,2.76,2.26,-0.58,-0.44,0.08,-1.75,1009.35
3.583,0.12,1.53,-0.10,2.76,2.26,-0.58,-0.44,0.08,-1.75,1009.35
3.584,0.32,1.61,0.07,2.76,2.26,-0.58,-0.44,0.08,-1.75,1009.35
3.601,0.32,1.61,0.07,2.76,2.26,-0.58,-1.02,0.25,-3.83,1009.35
3.621,0.32,1.61,0.07,6.54,6.96,-1.76,-1.02,0.25,-3.83,1009.35
3.622,0.31,1.62,0.11,6.54,6.96,-1.76,-1.02,0.25,-3.83,1009.35
3.622,-0.15,1.53,0.17,6.54,6.96,-1.76,-1.02,0.25,-3.83,1009.35
3.662,-0.50,1.30,0.38,6.54,6.96,-1.76,-1.02,0.25,-3.83,1009.35
3.662,-0.47,1.15,0.43,6.54,6.96,-1.76,-1.02,0.25,-3.83,1009.35
3.663,-0.47,1.15,0.43,6.54,6.96,-1.76,-1.02,0.25,-3.83,1009.07
3.669,-0.47,1.15,0.43,6.54,6.96,-1.76,-1.20,1.04,-5.55,1009.07
3.69,-0.93,0.05,-0.01,6.54,6.96,-1.76,-1.20,1.04,-5.55,1009.07
3.691,-0.93,0.05,-0.01,10.21,11.58,0.13,-1.20,1.04,-5.55,1009.07
3.727,-1.30,0.40,0.41,10.21,11.58,0.13,-1.20,1.04,-5.55,1009.07
3.728,0.26,0.62,-0.09,10.21,11.58,0.13,-1.20,1.04,-5.55,1009.07
3.741,0.26,0.62,-0.09,10.21,11.58,0.13,-0.58,0.79,0.02,1009.07
3.742,0.17,0.56,-0.28,10.21,11.58,0.13,-0.58,0.79,0.02,1009.07
3.743,0.17,0.56,-0.28,10.21,11.58,0.13,-0.58,0.79,0.02,1008.53
3.761,0.17,0.56,-0.28,0.82,3.01,1.95,-0.58,0.79,0.02,1008.53
3.762,-0.02,0.30,-0.04,0.82,3.01,1.95,-0.58,0.79,0.02,1008.53
3.781,-0.22,0.17,-0.00,0.82,3.01,1.95,-0.58,0.79,0.02,1008.53
3.783,-0.22,0.17,-0.00,0.82,3.01,1.95,-0.58,0.79,0.02,1008.89
3.81,-0.22,0.17,-0.00,0.82,3.01,1.95,-0.42,-0.33,2.69,1008.89
3.811,-0.24,0.22,-0.14,0.82,3.01,1.95,-0.42,-0.33,2.69,1008.89
3.83,-0.24,0.22,-0.14,6.63,-1.73,-1.21,-0.42,-0.33,2.69,1008.89
3.831,0.02,0.34,-0.16,6.63,-1.73,-1.21,-0.42,-0.33,2.69,1008.89
3.862,0.10,0.46,-0.15,6.63,-1.73,-1.21,-0.42,-0.33,2.69,1008.89
3.864,-0.08,0.58,-0.20,6.63,-1.73,-1.21,-0.42,-0.33,2.69,1008.89
3.864,-0.08,0.58,-0.20,6.63,-1.73,-1.21,-0.42,-0.33,2.69,1009.07
3.88,-0.08,0.58,-0.20,6.63,-1.73,-1.21,-0.03,0.66,5.10,1009.07
3.907,-0.08,0.58,-0.20,2.89,-5.81,-1.40,-0.03,0.66,5.10,1009.07
3.908,-0.26,0.74,-0.32,2.89,-5.81,-1.40,-0.03,0.66,5.10,1009.07
3.909,-0.17,0.96,-0.44,2.89,-5.81,-1.40,-0.03,0.66,5.10,1009.07
3.927,-0.05,1.28,-0.55,2.89,-5.81,-1.40,-0.03,0.66,5.10,1009.07
3.941,-0.04,1.69,-0.59,2.89,-5.81,-1.40,-0.03,0.66,5.10,1009.07
3.942,-0.04,1.69,-0.59,2.89,-5.81,-1.40,-0.03,0.66,5.10,1009.18
3.949,-0.04,1.69,-0.59,2.89,-5.81,-1.40,0.30,1.21,5.07,1009.18
3.97,-0.55,1.74,-0.35,2.89,-5.81,-1.40,0.30,1.21,5.07,1009.18
3.971,-0.55,1.74,-0.35,-0.14,-2.15,-2.90,0.30,1.21,5.07,1009.18
3.981,-0.76,1.81,-0.36,-0.14,-2.15,-2.90,0.30,1.21,5.07,1009.18
3.982,-0.76,1.81,-0.36,-0.14,-2.15,-2.90,0.30,1.21,5.07,1009.31
4.02,-1.13,1.71,-0.45,-0.14,-2.15,-2.90,0.30,1.21,5.07,1009.31
4.021,-1.13,1.71,-0.45,-0.14,-2.15,-2.90,-0.20,1.45,3.60,1009.31
4.04,-1.13,1.71,-0.45,-3.94,6.27,-4.52,-0.20,1.45,3.60,1009.31
4.041,-1.23,1.50,-0.44,-3.94,6.27,-4.52,-0.20,1.45,3.60,1009.31
4.042,-1.27,1.20,-0.15,-3.94,6.27,-4.52,-0.20,1.45,3.60,1009.31
4.06,-1.52,0.96,-0.08,-3.94,6.27,-4.52,-0.20,1.45,3.60,1009.31
4.061,-1.52,0.96,-0.08,-3.94,6.27,-4.52,-0.20,1.45,3.60,1009.23
4.09,-1.69,0.91,-0.09,-3.94,6.27,-4.52,-0.20,1.45,3.60,1009.23
4.091,-1.69,0.91,-0.09,-3.94,6.27,-4.52,0.06,1.30,1.90,1009.23
4.11,-1.40,0.75,-0.09,-3.94,6.27,-4.52,0.06,1.30,1.90,1009.23
4.111,-1.40,0.75,-0.09,-12.21,5.58,-3.63,0.06,1.30,1.90,1009.23
4.127,-1.56,0.61,0.02,-12.21,5.58,-3.63,0.06,1.30,1.90,1009.23
4.141,-1.56,0.61,0.02,-12.21,5.58,-3.63,0.06,1.30,1.90,1009.26
4.142,-0.24,1.81,0.12,-12.21,5.58,-3.63,0.06,1.30,1.90,1009.26
4.159,-0.24,1.81,0.12,-12.21,5.58,-3.63,-0.18,0.49,-2.17,1009.26
4.18,-0.24,1.81,0.12,-14.29,-1.23,-1.03,-0.18,0.49,-2.17,1009.26
4.182,0.77,1.00,0.13,-14.29,-1.23,-1.03,-0.18,0.49,-2.17,1009.26
4.183,0.30,1.15,-0.08,-14.29,-1.23,-1.03,-0.18,0.49,-2.17,1009.26
4.183,0.30,1.15,-0.08,-14.29,-1.23,-1.03,-0.18,0.49,-2.17,1009.28
4.23,0.30,1.15,-0.08,-14.29,-1.23,-1.03,0.16,-0.07,-2.06,1009.28
4.232,-1.27,0.79,0.54,-14.29,-1.23,-1.03,0.16,-0.07,-2.06,1009.28
4.233,-0.80,0.88,0.36,-14.29,-1.23,-1.03,0.16,-0.07,-2.06,1009.28
4.25,-0.80,0.88,0.36,1.87,2.56,0.51,0.16,-0.07,-2.06,1009.28
4.252,-0.43,1.05,-0.66,1.87,2.56,0.51,0.16,-0.07,-2.06,1009.28
4.26,-0.48,1.02,-0.20,1.87,2.56,0.51,0.16,-0.07,-2.06,1009.28
4.261,-0.48,1.02,-0.20,1.87,2.56,0.51,0.16,-0.07,-2.06,1009.45
4.3,-0.48,1.02,-0.20,1.87,2.56,0.51,-0.18,-0.25,-0.38,1009.45
4.301,-0.25,1.01,-0.13,1.87,2.56,0.51,-0.18,-0.25,-0.38,1009.45
4.32,-0.25,1.01,-0.13,-5.99,-0.35,0.20,-0.18,-0.25,-0.38,1009.45
4.322,-0.11,0.97,0.11,-5.99,-0.35,0.20,-0.18,-0.25,-0.38,1009.45
4.322,-0.21,0.97,0.06,-5.99,-0.35,0.20,-0.18,-0.25,-0.38,1009.45
4.341,-0.21,0.96,0.08,-5.99,-0.35,0.20,-0.18,-0.25,-0.38,1009.45
4.342,-0.21,0.96,0.08,-5.99,-0.35,0.20,-0.18,-0.25,-0.38,1009.44
4.371,-0.21,0.96,0.08,-5.99,-0.35,0.20,-0.18,-0.09,-0.24,1009.44
4.372,-0.18,0.96,0.11,-5.99,-0.35,0.20,-0.18,-0.09,-0.24,1009.44
4.381,-0.23,0.96,0.10,-5.99,-0.35,0.20,-0.18,-0.09,-0.24,1009.44
4.382,-0.23,0.96,0.10,-5.99,-0.35,0.20,-0.18,-0.09,-0.24,1009.28
4.39,-0.23,0.96,0.10,0.12,0.48,-0.63,-0.18,-0.09,-0.24,1009.28
4.44,-0.23,0.96,0.10,0.12,0.48,-0.63,-0.02,0.05,-0.17,1009.28
4.441,-0.19,0.98,0.08,0.12,0.48,-0.63,-0.02,0.05,-0.17,1009.28
4.442,-0.21,0.97,0.05,0.12,0.48,-0.63,-0.02,0.05,-0.17,1009.28
4.462,-0.22,0.97,0.02,0.12,0.48,-0.63,-0.02,0.05,-0.17,1009.28
4.463,-0.21,0.97,0.04,0.12,0.48,-0.63,-0.02,0.05,-0.17,1009.28
4.463,-0.21,0.97,0.04,0.20,0.16,0.53,-0.02,0.05,-0.17,1009.28
4.464,-0.21,0.97,0.04,0.20,0.16,0.53,-0.02,0.05,-0.17,1009.18
4.511,-0.21,0.97,0.04,0.20,0.16,0.53,-0.04,0.13,-0.13,1009.18
4.512,-0.22,0.96,0.04,0.20,0.16,0.53,-0.04,0.13,-0.13,1009.18
4.513,-0.20,0.96,0.06,0.20,0.16,0.53,-0.04,0.13,-0.13,1009.18
4.527,-0.20,0.95,0.08,0.20,0.16,0.53,-0.04,0.13,-0.13,1009.18
4.53,-0.20,0.95,0.08,0.22,0.30,0.03,-0.04,0.13,-0.13,1009.18
4.542,-0.20,0.96,0.07,0.22,0.30,0.03,-0.04,0.13,-0.13,1009.18
4.543,-0.20,0.96,0.07,0.22,0.30,0.03,-0.04,0.13,-0.13,1009.12
4.58,-0.20,0.96,0.07,0.22,0.30,0.03,-0.03,0.25,-0.16,1009.12
4.582,-0.19,0.96,0.06,0.22,0.30,0.03,-0.03,0.25,-0.16,1009.12
4.583,-0.22,0.95,0.04,0.22,0.30,0.03,-0.03,0.25,-0.16,1009.12
4.583,-0.22,0.95,0.04,0.22,0.30,0.03,-0.03,0.25,-0.16,1009.20
4.6,-0.22,0.95,0.04,0.40,0.16,0.25,-0.03,0.25,-0.16,1009.20
4.602,-0.23,0.96,0.04,0.40,0.16,0.25,-0.03,0.25,-0.16,1009.20
4.65,-0.23,0.96,0.04,0.40,0.16,0.25,-0.02,0.23,-0.20,1009.20
4.652,-0.21,0.96,0.06,0.40,0.16,0.25,-0.02,0.23,-0.20,1009.20
4.653,-0.19,0.98,0.08,0.40,0.16,0.25,-0.02,0.23,-0.20,1009.20
4.66,-0.20,0.98,0.07,0.40,0.16,0.25,-0.02,0.23,-0.20,1009.20
4.661,-0.20,0.98,0.07,0.40,0.16,0.25,-0.02,0.23,-0.20,1009.30
4.67,-0.20,0.98,0.07,0.49,0.18,0.15,-0.02,0.23,-0.20,1009.30
4.72,-0.20,0.98,0.07,0.49,0.18,0.15,0.01,0.23,-0.34,1009.30
4.722,-0.23,0.97,0.03,0.49,0.18,0.15,0.01,0.23,-0.34,1009.30
4.722,-0.22,0.99,0.01,0.49,0.18,0.15,0.01,0.23,-0.34,1009.30
4.726,-0.21,1.01,-0.01,0.49,0.18,0.15,0.01,0.23,-0.34,1009.30
4.74,-0.22,1.02,-0.02,0.49,0.18,0.15,0.01,0.23,-0.34,1009.30
4.741,-0.22,1.02,-0.02,0.79,0.45,0.31,0.01,0.23,-0.34,1009.30
4.743,-0.22,1.02,-0.02,0.79,0.45,0.31,0.01,0.23,-0.34,1009.38
4.782,-0.22,1.02,-0.02,0.79,0.45,0.31,0.01,0.23,-0.34,1009.42
4.783,-0.18,1.04,0.03,0.79,0.45,0.31,0.01,0.23,-0.34,1009.42
4.784,-0.20,1.03,0.03,0.79,0.45,0.31,0.01,0.23,-0.34,1009.42
4.79,-0.20,1.03,0.03,0.79,0.45,0.31,-0.13,0.17,-0.63,1009.42
4.81,-0.22,1.03,0.01,0.79,0.45,0.31,-0.13,0.17,-0.63,1009.42
4.811,-0.22,1.03,0.01,1.13,0.83,-0.35,-0.13,0.17,-0.63,1009.42
4.861,-0.22,1.03,0.01,1.13,0.83,-0.35,-0.25,0.11,-1.11,1009.42
4.863,-0.24,1.06,-0.03,1.13,0.83,-0.35,-0.25,0.11,-1.11,1009.42
4.864,-0.21,1.10,0.03,1.13,0.83,-0.35,-0.25,0.11,-1.11,1009.42
4.864,-0.18,1.17,-0.01,1.13,0.83,-0.35,-0.25,0.11,-1.11,1009.42
4.865,-0.18,1.17,-0.01,1.13,0.83,-0.35,-0.25,0.11,-1.11,1009.45
4.88,-0.16,1.25,-0.06,1.13,0.83,-0.35,-0.25,0.11,-1.11,1009.45
4.881,-0.16,1.25,-0.06,1.82,1.36,-0.33,-0.25,0.11,-1.11,1009.45
4.927,-0.12,1.31,-0.04,1.82,1.36,-0.33,-0.25,0.11,-1.11,1009.45
4.928,-0.02,1.42,-0.07,1.82,1.36,-0.33,-0.25,0.11,-1.11,1009.45
4.93,-0.02,1.42,-0.07,1.82,1.36,-0.33,-0.62,0.08,-2.17,1009.45
4.941,0.11,1.51,-0.05,1.82,1.36,-0.33,-0.62,0.08,-2.17,1009.45
4.942,0.11,1.51,-0.05,1.82,1.36,-0.33,-0.62,0.08,-2.17,1009.42
4.95,0.11,1.51,-0.05,3.47,3.41,-1.06,-0.62,0.08,-2.17,1009.42
4.981,0.11,1.51,-0.05,3.47,3.41,-1.06,-0.62,0.08,-2.17,1009.29
4.983,0.20,1.56,0.12,3.47,3.41,-1.06,-0.62,0.08,-2.17,1009.29
4.983,0.15,1.52,0.14,3.47,3.41,-1.06,-0.62,0.08,-2.17,1009.29
5.0,0.15,1.52,0.14,3.47,3.41,-1.06,-1.36,0.53,-4.38,1009.29
5.021,-0.20,1.37,0.23,3.47,3.41,-1.06,-1.36,0.53,-4.38,1009.29
5.022,-0.54,1.20,0.39,3.47,3.41,-1.06,-1.36,0.53,-4.38,1009.29
5.023,-0.54,1.20,0.39,7.79,8.36,-1.56,-1.36,0.53,-4.38,1009.29
5.061,-0.66,1.05,0.35,7.79,8.36,-1.56,-1.36,0.53,-4.38,1009.29
5.062,-0.78,-0.04,0.19,7.79,8.36,-1.56,-1.36,0.53,-4.38,1009.29
5.063,-0.78,-0.04,0.19,7.79,8.36,-1.56,-1.36,0.53,-4.38,1008.75
5.071,-0.78,-0.04,0.19,7.79,8.36,-1.56,-1.17,1.20,-3.73,1008.75
5.09,-0.78,0.42,0.39,7.79,8.36,-1.56,-1.17,1.20,-3.73,1008.75
5.092,-0.78,0.42,0.39,6.99,9.01,1.54,-1.17,1.20,-3.73,1008.75
5.127,0.31,0.56,-0.05,6.99,9.01,1.54,-1.17,1.20,-3.73,1008.75
5.129,-0.01,0.40,-0.15,6.99,9.01,1.54,-1.17,1.20,-3.73,1008.75
5.14,-0.01,0.40,-0.15,6.99,9.01,1.54,-0.55,0.80,0.95,1008.75
5.141,-0.08,0.27,-0.10,6.99,9.01,1.54,-0.55,0.80,0.95,1008.75
5.142,-0.08,0.27,-0.10,6.99,9.01,1.54,-0.55,0.80,0.95,1008.65
5.163,-0.08,0.23,-0.10,6.99,9.01,1.54,-0.55,0.80,0.95,1008.65
5.164,-0.08,0.23,-0.10,2.15,-0.61,1.73,-0.55,0.80,0.95,1008.65
5.181,-0.27,0.23,-0.21,2.15,-0.61,1.73,-0.55,0.80,0.95,1008.65
5.182,-0.27,0.23,-0.21,2.15,-0.61,1.73,-0.55,0.80,0.95,1008.99
5.21,-0.27,0.23,-0.21,2.15,-0.61,1.73,-0.20,-0.08,3.41,1008.99
5.215,-0.08,0.37,-0.14,2.15,-0.61,1.73,-0.20,-0.08,3.41,1008.99
5.231,-0.05,0.51,-0.08,2.15,-0.61,1.73,-0.20,-0.08,3.41,1008.99
5.232,-0.05,0.51,-0.08,5.70,-3.98,-1.82,-0.20,-0.08,3.41,1008.99
5.262,-0.14,0.72,-0.22,5.70,-3.98,-1.82,-0.20,-0.08,3.41,1008.99
5.263,-0.20,0.87,-0.20,5.70,-3.98,-1.82,-0.20,-0.08,3.41,1008.99
5.263,-0.20,0.87,-0.20,5.70,-3.98,-1.82,-0.20,-0.08,3.41,1009.12
5.281,-0.20,0.87,-0.20,5.70,-3.98,-1.82,0.47,0.71,4.87,1009.12
5.301,-0.20,0.87,-0.20,1.79,-4.75,-1.55,0.47,0.71,4.87,1009.12
5.302,-0.17,1.00,-0.23,1.79,-4.75,-1.55,0.47,0.71,4.87,1009.12
5.303,-0.29,1.19,-0.37,1.79,-4.75,-1.55,0.47,0.71,4.87,1009.12
5.327,-0.24,1.39,-0.39,1.79,-4.75,-1.55,0.47,0.71,4.87,1009.12
5.341,-0.09,1.67,-0.25,1.79,-4.75,-1.55,0.47,0.71,4.87,1009.12
5.342,-0.09,1.67,-0.25,1.79,-4.75,-1.55,0.47,0.71,4.87,1009.20
5.35,-0.09,1.67,-0.25,1.79,-4.75,-1.55,0.71,0.79,4.39,1009.20
5.371,-0.17,1.85,-0.07,1.79,-4.75,-1.55,0.71,0.79,4.39,1009.20
5.372,-0.17,1.85,-0.07,-1.51,0.34,-2.21,0.71,0.79,4.39,1009.20
5.381,-0.45,1.91,-0.13,-1.51,0.34,-2.21,0.71,0.79,4.39,1009.20
5.382,-0.45,1.91,-0.13,-1.51,0.34,-2.21,0.71,0.79,4.39,1009.28
5.42,-0.45,1.91,-0.13,-1.51,0.34,-2.21,-0.34,1.59,2.52,1009.28
5.422,-0.89,1.78,-0.47,-1.51,0.34,-2.21,-0.34,1.59,2.52,1009.28
5.442,-1.42,1.41,-0.51,-1.51,0.34,-2.21,-0.34,1.59,2.52,1009.28
5.444,-1.76,0.67,0.25,-1.51,0.34,-2.21,-0.34,1.59,2.52,1009.28
5.445,-1.76,0.67,0.25,-2.73,7.04,-2.03,-0.34,1.59,2.52,1009.28
5.461,-1.88,0.57,0.24,-2.73,7.04,-2.03,-0.34,1.59,2.52,1009.28
5.462,-1.88,0.57,0.24,-2.73,7.04,-2.03,-0.34,1.59,2.52,1009.22
5.49,-1.88,0.57,0.24,-2.73,7.04,-2.03,-0.35,1.33,1.02,1009.22
5.492,-1.24,0.86,-0.12,-2.73,7.04,-2.03,-0.35,1.33,1.02,1009.22
5.51,-1.24,0.86,-0.12,-12.76,3.97,-2.54,-0.35,1.33,1.02,1009.22
5.511,-1.08,0.72,-0.14,-12.76,3.97,-2.54,-0.35,1.33,1.02,1009.22
5.527,-1.26,0.69,-0.20,-12.76,3.97,-2.54,-0.35,1.33,1.02,1009.22
5.543,-0.17,1.24,0.28,-12.76,3.97,-2.54,-0.35,1.33,1.02,1009.22
5.544,-0.17,1.24,0.28,-12.76,3.97,-2.54,-0.35,1.33,1.02,1009.24
5.561,-0.17,1.24,0.28,-12.76,3.97,-2.54,-0.17,-0.45,-2.10,1009.24
5.581,-0.17,1.24,0.28,-12.23,-2.43,-0.58,-0.17,-0.45,-2.10,1009.24
5.582,0.84,1.53,-0.24,-12.23,-2.43,-0.58,-0.17,-0.45,-2.10,1009.24
5.583,-0.01,1.04,-0.34,-12.23,-2.43,-0.58,-0.17,-0.45,-2.10,1009.24
5.583,-0.01,1.04,-0.34,-12.23,-2.43,-0.58,-0.17,-0.45,-2.10,1009.41
5.631,-0.01,1.04,-0.34,-12.23,-2.43,-0.58,0.37,-0.44,-1.79,1009.41
5.633,-1.60,0.61,0.67,-12.23,-2.43,-0.58,0.37,-0.44,-1.79,1009.41
5.633,-0.34,1.11,-0.27,-12.23,-2.43,-0.58,0.37,-0.44,-1.79,1009.41
5.651,-0.34,1.11,-0.27,2.00,2.30,-1.11,0.37,-0.44,-1.79,1009.41
5.652,-0.72,0.96,-0.35,2.00,2.30,-1.11,0.37,-0.44,-1.79,1009.41
5.663,-0.21,1.04,-0.25,2.00,2.30,-1.11,0.37,-0.44,-1.79,1009.41
5.664,-0.21,1.04,-0.25,2.00,2.30,-1.11,0.37,-0.44,-1.79,1009.51
5.7,-0.21,1.04,-0.25,2.00,2.30,-1.11,-0.06,-0.21,-0.34,1009.51
5.701,-0.22,0.96,-0.00,2.00,2.30,-1.11,-0.06,-0.21,-0.34,1009.51
5.721,-0.22,0.96,-0.00,-5.40,-0.22,-0.54,-0.06,-0.21,-0.34,1009.51
5.722,-0.23,0.91,0.17,-5.40,-0.22,-0.54,-0.06,-0.21,-0.34,1009.51
5.722,-0.25,0.96,0.05,-5.40,-0.22,-0.54,-0.06,-0.21,-0.34,1009.51
5.742,-0.26,0.96,0.01,-5.40,-0.22,-0.54,-0.06,-0.21,-0.34,1009.51
5.744,-0.26,0.96,0.01,-5.40,-0.22,-0.54,-0.06,-0.21,-0.34,1009.45
5.77,-0.24,0.95,0.10,-5.40,-0.22,-0.54,-0.06,-0.21,-0.34,1009.45
5.772,-0.24,0.95,0.10,-5.40,-0.22,-0.54,0.03,-0.06,-0.20,1009.45
5.781,-0.22,0.99,0.04,-5.40,-0.22,-0.54,0.03,-0.06,-0.20,1009.45
5.782,-0.22,0.99,0.04,-5.40,-0.22,-0.54,0.03,-0.06,-0.20,1009.36
5.79,-0.22,0.99,0.04,-0.08,0.05,0.41,0.03,-0.06,-0.20,1009.36
5.841,-0.22,0.99,0.04,-0.08,0.05,0.41,0.10,0.03,-0.15,1009.36
5.842,-0.21,0.99,0.02,-0.08,0.05,0.41,0.10,0.03,-0.15,1009.36
5.843,-0.23,0.97,-0.00,-0.08,0.05,0.41,0.10,0.03,-0.15,1009.36
5.861,-0.25,0.96,-0.01,-0.08,0.05,0.41,0.10,0.03,-0.15,1009.36
5.863,-0.24,0.96,0.01,-0.08,0.05,0.41,0.10,0.03,-0.15,1009.36
5.863,-0.24,0.96,0.01,0.08,0.28,0.42,0.10,0.03,-0.15,1009.36
5.864,-0.24,0.96,0.01,0.08,0.28,0.42,0.10,0.03,-0.15,1009.28
5.913,-0.24,0.96,0.01,0.08,0.28,0.42,0.08,0.07,-0.11,1009.28
5.914,-0.23,0.96,0.01,0.08,0.28,0.42,0.08,0.07,-0.11,1009.28
5.915,-0.23,0.95,0.02,0.08,0.28,0.42,0.08,0.07,-0.11,1009.28
5.927,-0.23,0.95,0.02,0.08,0.28,0.42,0.08,0.07,-0.11,1009.28
5.93,-0.23,0.95,0.02,0.15,0.28,0.09,0.08,0.07,-0.11,1009.28
5.942,-0.21,0.94,0.03,0.15,0.28,0.09,0.08,0.07,-0.11,1009.28
5.944,-0.21,0.94,0.03,0.15,0.28,0.09,0.08,0.07,-0.11,1009.18
5.981,-0.21,0.94,0.03,0.15,0.28,0.09,0.11,0.14,-0.16,1009.18
5.982,-0.23,0.95,-0.01,0.15,0.28,0.09,0.11,0.14,-0.16,1009.18
5.983,-0.23,0.95,0.01,0.15,0.28,0.09,0.11,0.14,-0.16,1009.18
5.984,-0.23,0.95,0.01,0.15,0.28,0.09,0.11,0.14,-0.16,1009.15
6.001,-0.23,0.95,0.01,0.33,0.15,0.36,0.11,0.14,-0.16,1009.15
6.002,-0.25,0.95,-0.01,0.33,0.15,0.36,0.11,0.14,-0.16,1009.15
6.051,-0.25,0.95,-0.01,0.33,0.15,0.36,0.10,0.18,-0.22,1009.15
6.053,-0.24,0.97,-0.02,0.33,0.15,0.36,0.10,0.18,-0.22,1009.15
6.054,-0.23,0.97,-0.01,0.33,0.15,0.36,0.10,0.18,-0.22,1009.15
6.061,-0.23,0.97,-0.00,0.33,0.15,0.36,0.10,0.18,-0.22,1009.15
6.063,-0.23,0.97,-0.00,0.33,0.15,0.36,0.10,0.18,-0.22,1009.20
6.071,-0.23,0.97,-0.00,0.42,0.17,0.26,0.10,0.18,-0.22,1009.20
6.121,-0.23,0.97,-0.00,0.42,0.17,0.26,0.04,0.25,-0.41,1009.20
6.123,-0.24,0.99,-0.04,0.42,0.17,0.26,0.04,0.25,-0.41,1009.20
6.123,-0.21,1.02,-0.05,0.42,0.17,0.26,0.04,0.25,-0.41,1009.20
6.128,-0.18,1.06,-0.07,0.42,0.17,0.26,0.04,0.25,-0.41,1009.20
6.141,-0.18,1.06,-0.07,0.77,0.47,0.18,0.04,0.25,-0.41,1009.20
6.142,-0.18,1.06,-0.07,0.77,0.47,0.18,0.04,0.25,-0.41,1009.31
6.142,-0.17,1.08,-0.07,0.77,0.47,0.18,0.04,0.25,-0.41,1009.31
6.182,-0.17,1.08,-0.07,0.77,0.47,0.18,0.04,0.25,-0.41,1009.45
6.183,-0.23,1.06,-0.08,0.77,0.47,0.18,0.04,0.25,-0.41,1009.45
6.184,-0.22,1.10,-0.06,0.77,0.47,0.18,0.04,0.25,-0.41,1009.45
6.191,-0.22,1.10,-0.06,0.77,0.47,0.18,-0.14,0.18,-0.93,1009.45
6.211,-0.22,1.10,-0.06,1.81,1.46,-0.37,-0.14,0.18,-0.93,1009.45
6.212,-0.16,1.20,-0.07,1.81,1.46,-0.37,-0.14,0.18,-0.93,1009.45
6.262,-0.15,1.31,-0.15,1.81,1.46,-0.37,-0.14,0.18,-0.93,1009.45
6.264,-0.13,1.34,-0.17,1.81,1.46,-0.37,-0.14,0.18,-0.93,1009.45
6.264,-0.06,1.41,-0.18,1.81,1.46,-0.37,-0.14,0.18,-0.93,1009.45
6.265,-0.06,1.41,-0.18,1.81,1.46,-0.37,-0.53,0.16,-1.89,1009.45
6.266,-0.06,1.41,-0.18,1.81,1.46,-0.37,-0.53,0.16,-1.89,1009.52
6.281,0.07,1.47,-0.12,1.81,1.46,-0.37,-0.53,0.16,-1.89,1009.52
6.282,0.07,1.47,-0.12,3.13,3.05,-0.85,-0.53,0.16,-1.89,1009.52
6.328,0.24,1.50,-0.02,3.13,3.05,-0.85,-0.53,0.16,-1.89,1009.52
6.329,0.24,1.48,0.05,3.13,3.05,-0.85,-0.53,0.16,-1.89,1009.52
6.331,0.24,1.48,0.05,3.13,3.05,-0.85,-1.34,0.37,-3.94,1009.52
6.341,-0.01,1.38,0.12,3.13,3.05,-0.85,-1.34,0.37,-3.94,1009.52
6.342,-0.01,1.38,0.12,3.13,3.05,-0.85,-1.34,0.37,-3.94,1009.33
6.351,-0.01,1.38,0.12,6.71,7.48,-2.20,-1.34,0.37,-3.94,1009.33
6.382,-0.01,1.38,0.12,6.71,7.48,-2.20,-1.34,0.37,-3.94,1008.80
6.383,-0.47,1.17,0.35,6.71,7.48,-2.20,-1.34,0.37,-3.94,1008.80
6.383,-0.49,1.06,0.49,6.71,7.48,-2.20,-1.34,0.37,-3.94,1008.80
6.402,-0.49,1.06,0.49,6.71,7.48,-2.20,-1.50,1.33,-4.86,1008.80
6.422,-1.04,0.01,-0.00,6.71,7.48,-2.20,-1.50,1.33,-4.86,1008.80
6.424,-1.00,0.50,0.28,6.71,7.48,-2.20,-1.50,1.33,-4.86,1008.80
6.424,-1.00,0.50,0.28,9.13,9.52,0.51,-1.50,1.33,-4.86,1008.80
6.462,0.44,0.67,0.00,9.13,9.52,0.51,-1.50,1.33,-4.86,1008.80
6.463,0.44,0.67,0.00,9.13,9.52,0.51,-1.50,1.33,-4.86,1008.78
6.464,0.16,0.55,-0.15,9.13,9.52,0.51,-1.50,1.33,-4.86,1008.78
6.472,0.16,0.55,-0.15,9.13,9.52,0.51,-1.36,1.04,0.69,1008.78
6.492,-0.03,0.35,-0.06,9.13,9.52,0.51,-1.36,1.04,0.69,1008.78
6.493,-0.03,0.35,-0.06,0.17,0.78,2.32,-1.36,1.04,0.69,1008.78
6.53,-0.15,0.33,-0.14,0.17,0.78,2.32,-1.36,1.04,0.69,1008.78
6.531,-0.29,0.39,-0.32,0.17,0.78,2.32,-1.36,1.04,0.69,1008.78
6.543,-0.29,0.39,-0.32,0.17,0.78,2.32,-1.19,0.21,3.35,1008.78
6.544,-0.12,0.45,-0.29,0.17,0.78,2.32,-1.19,0.21,3.35,1008.78
6.544,-0.12,0.45,-0.29,0.17,0.78,2.32,-1.19,0.21,3.35,1009.00
6.562,0.06,0.65,-0.41,0.17,0.78,2.32,-1.19,0.21,3.35,1009.00
6.563,0.06,0.65,-0.41,7.46,-2.35,-1.28,-1.19,0.21,3.35,1009.00
6.582,-0.06,0.82,-0.59,7.46,-2.35,-1.28,-1.19,0.21,3.35,1009.00
6.584,-0.06,0.82,-0.59,7.46,-2.35,-1.28,-1.19,0.21,3.35,1009.07
6.613,-0.06,0.82,-0.59,7.46,-2.35,-1.28,-0.42,1.15,4.74,1009.07
6.615,-0.22,0.91,-0.60,7.46,-2.35,-1.28,-0.42,1.15,4.74,1009.07
6.631,-0.22,0.91,-0.60,2.18,-4.01,-3.30,-0.42,1.15,4.74,1009.07
6.632,-0.24,1.08,-0.64,2.18,-4.01,-3.30,-0.42,1.15,4.74,1009.07
6.661,-0.23,1.25,-0.63,2.18,-4.01,-3.30,-0.42,1.15,4.74,1009.07
6.662,-0.21,1.44,-0.65,2.18,-4.01,-3.30,-0.42,1.15,4.74,1009.07
6.663,-0.21,1.44,-0.65,2.18,-4.01,-3.30,-0.42,1.15,4.74,1009.20
6.681,-0.21,1.44,-0.65,2.18,-4.01,-3.30,0.27,2.09,4.38,1009.20
6.701,-0.21,1.44,-0.65,-0.70,0.34,-5.66,0.27,2.09,4.38,1009.20
6.702,0.05,1.84,-0.71,-0.70,0.34,-5.66,0.27,2.09,4.38,1009.20
6.703,-0.06,2.02,-0.50,-0.70,0.34,-5.66,0.27,2.09,4.38,1009.20
6.73,-0.77,1.85,-0.62,-0.70,0.34,-5.66,0.27,2.09,4.38,1009.20
6.743,-1.48,1.58,-0.87,-0.70,0.34,-5.66,0.27,2.09,4.38,1009.20
6.744,-1.48,1.58,-0.87,-0.70,0.34,-5.66,0.27,2.09,4.38,1009.31
6.75,-1.48,1.58,-0.87,-0.70,0.34,-5.66,-0.74,2.57,1.65,1009.31
6.771,-1.48,1.58,-0.87,-0.82,7.19,-6.14,-0.74,2.57,1.65,1009.31
6.772,-1.77,0.82,-0.03,-0.82,7.19,-6.14,-0.74,2.57,1.65,1009.31
6.781,-1.77,0.82,-0.03,-0.82,7.19,-6.14,-0.74,2.57,1.65,1009.25
6.782,-1.95,0.50,-0.11,-0.82,7.19,-6.14,-0.74,2.57,1.65,1009.25
6.821,-1.95,0.50,-0.11,-0.82,7.19,-6.14,-0.47,1.20,1.16,1009.25
6.822,-2.29,0.02,0.12,-0.82,7.19,-6.14,-0.47,1.20,1.16,1009.25
6.841,-2.29,0.02,0.12,-13.65,3.30,-4.55,-0.47,1.20,1.16,1009.25
6.842,-1.44,0.42,0.01,-13.65,3.30,-4.55,-0.47,1.20,1.16,1009.25
6.843,-0.94,0.73,-0.12,-13.65,3.30,-4.55,-0.47,1.20,1.16,1009.25
6.868,-1.08,0.69,-0.07,-13.65,3.30,-4.55,-0.47,1.20,1.16,1009.25
6.869,-1.08,0.69,-0.07,-13.65,3.30,-4.55,-0.47,1.20,1.16,1009.18
6.891,-1.08,0.69,-0.07,-13.65,3.30,-4.55,-0.18,-0.38,-0.82,1009.18
6.892,-0.72,0.88,-0.06,-13.65,3.30,-4.55,-0.18,-0.38,-0.82,1009.18
6.911,-0.72,0.88,-0.06,-14.98,-5.55,-0.33,-0.18,-0.38,-0.82,1009.18
6.912,1.68,1.97,0.22,-14.98,-5.55,-0.33,-0.18,-0.38,-0.82,1009.18
6.932,0.89,1.37,-0.47,-14.98,-5.55,-0.33,-0.18,-0.38,-0.82,1009.18
6.942,-1.99,0.49,0.93,-14.98,-5.55,-0.33,-0.18,-0.38,-0.82,1009.18
6.942,-1.99,0.49,0.93,-14.98,-5.55,-0.33,-0.18,-0.38,-0.82,1009.17
6.962,-1.99,0.49,0.93,-14.98,-5.55,-0.33,0.50,-0.48,-2.05,1009.17
6.982,-1.99,0.49,0.93,-14.98,-5.55,-0.33,0.50,-0.48,-2.05,1009.71
6.983,-1.99,0.49,0.93,4.20,3.14,0.24,0.50,-0.48,-2.05,1009.71
6.984,-0.39,1.15,-0.14,4.20,3.14,0.24,0.50,-0.48,-2.05,1009.71
6.984,-0.81,0.98,-0.40,4.20,3.14,0.24,0.50,-0.48,-2.05,1009.71
7.031,-0.81,0.98,-0.40,4.20,3.14,0.24,0.12,-0.27,-0.39,1009.71
7.032,-0.19,1.07,-0.50,4.20,3.14,0.24,0.12,-0.27,-0.39,1009.71
7.033,-0.24,0.94,0.04,4.20,3.14,0.24,0.12,-0.27,-0.39,1009.71
7.051,-0.24,0.94,0.04,-6.53,-0.49,-0.02,0.12,-0.27,-0.39,1009.71
7.052,-0.24,0.91,0.17,-6.53,-0.49,-0.02,0.12,-0.27,-0.39,1009.71
7.063,-0.21,0.97,0.01,-6.53,-0.49,-0.02,0.12,-0.27,-0.39,1009.71
7.064,-0.21,0.97,0.01,-6.53,-0.49,-0.02,0.12,-0.27,-0.39,1009.54
7.101,-0.21,0.97,0.01,-6.53,-0.49,-0.02,0.05,-0.07,-0.22,1009.54
7.103,-0.24,0.94,0.06,-6.53,-0.49,-0.02,0.05,-0.07,-0.22,1009.54
7.122,-0.24,0.95,0.08,-6.53,-0.49,-0.02,0.05,-0.07,-0.22,1009.54
7.123,-0.25,0.98,-0.01,-6.53,-0.49,-0.02,0.05,-0.07,-0.22,1009.54
7.123,-0.25,0.98,-0.01,0.39,0.41,-0.66,0.05,-0.07,-0.22,1009.54
7.141,-0.24,0.98,-0.02,0.39,0.41,-0.66,0.05,-0.07,-0.22,1009.54
7.142,-0.24,0.98,-0.02,0.39,0.41,-0.66,0.05,-0.07,-0.22,1009.39
7.171,-0.24,0.98,-0.02,0.39,0.41,-0.66,0.09,0.02,-0.15,1009.39
7.172,-0.26,0.96,-0.01,0.39,0.41,-0.66,0.09,0.02,-0.15,1009.39
7.181,-0.27,0.95,-0.01,0.39,0.41,-0.66,0.09,0.02,-0.15,1009.39
7.182,-0.27,0.95,-0.01,0.39,0.41,-0.66,0.09,0.02,-0.15,1009.31
7.191,-0.27,0.95,-0.01,0.20,0.25,0.59,0.09,0.02,-0.15,1009.31
7.242,-0.27,0.95,-0.01,0.20,0.25,0.59,0.04,0.08,-0.06,1009.31
7.244,-0.26,0.95,0.00,0.20,0.25,0.59,0.04,0.08,-0.06,1009.31
7.244,-0.25,0.94,0.01,0.20,0.25,0.59,0.04,0.08,-0.06,1009.31
7.26,-0.23,0.95,0.02,0.20,0.25,0.59,0.04,0.08,-0.06,1009.31
7.262,-0.23,0.96,0.00,0.20,0.25,0.59,0.04,0.08,-0.06,1009.31
7.263,-0.23,0.96,0.00,0.20,0.25,0.59,0.04,0.08,-0.06,1009.23
7.263,-0.23,0.96,0.00,0.10,0.30,0.09,0.04,0.08,-0.06,1009.23
7.317,-0.23,0.96,0.00,0.10,0.30,0.09,0.07,0.13,-0.08,1009.23
7.321,-0.24,0.95,0.01,0.10,0.30,0.09,0.07,0.13,-0.08,1009.23
7.322,-0.22,0.95,0.02,0.10,0.30,0.09,0.07,0.13,-0.08,1009.23
7.33,-0.23,0.95,0.02,0.10,0.30,0.09,0.07,0.13,-0.08,1009.23
7.331,-0.23,0.95,0.02,0.31,0.21,0.39,0.07,0.13,-0.08,1009.23
7.341,-0.24,0.95,-0.00,0.31,0.21,0.39,0.07,0.13,-0.08,1009.23
7.342,-0.24,0.95,-0.00,0.31,0.21,0.39,0.07,0.13,-0.08,1009.22
7.382,-0.24,0.95,-0.00,0.31,0.21,0.39,0.13,0.14,-0.13,1009.22
7.383,-0.23,0.97,-0.01,0.31,0.21,0.39,0.13,0.14,-0.13,1009.22
7.384,-0.23,0.97,-0.01,0.31,0.21,0.39,0.13,0.14,-0.13,1009.26
7.385,-0.22,0.98,0.00,0.31,0.21,0.39,0.13,0.14,-0.13,1009.26
7.401,-0.22,0.99,0.01,0.31,0.21,0.39,0.13,0.14,-0.13,1009.26
7.402,-0.22,0.99,0.01,0.47,0.20,0.54,0.13,0.14,-0.13,1009.26
7.451,-0.22,0.99,0.01,0.47,0.20,0.54,0.15,0.28,-0.29,1009.26
7.453,-0.21,0.99,-0.02,0.47,0.20,0.54,0.15,0.28,-0.29,1009.26
7.453,-0.22,0.99,-0.03,0.47,0.20,0.54,0.15,0.28,-0.29,1009.26
7.461,-0.21,1.01,-0.02,0.47,0.20,0.54,0.15,0.28,-0.29,1009.26
7.462,-0.21,1.01,-0.02,0.47,0.20,0.54,0.15,0.28,-0.29,1009.24
7.471,-0.21,1.01,-0.02,0.74,0.52,0.54,0.15,0.28,-0.29,1009.24
7.521,-0.22,1.01,-0.03,0.74,0.52,0.54,0.15,0.28,-0.29,1009.24
7.523,-0.14,1.12,-0.12,0.74,0.52,0.54,0.15,0.28,-0.29,1009.24
7.523,-0.14,1.12,-0.12,0.74,0.52,0.54,0.00,0.45,-0.63,1009.24
7.534,-0.13,1.21,-0.19,0.74,0.52,0.54,0.00,0.45,-0.63,1009.24
7.541,-0.17,1.30,-0.27,0.74,0.52,0.54,0.00,0.45,-0.63,1009.24
7.542,-0.17,1.30,-0.27,0.74,0.52,0.54,0.00,0.45,-0.63,1009.21
7.543,-0.17,1.30,-0.27,1.33,0.91,0.33,0.00,0.45,-0.63,1009.21
7.582,-0.17,1.30,-0.27,1.33,0.91,0.33,0.00,0.45,-0.63,1009.30
7.583,-0.14,1.36,-0.09,1.33,0.91,0.33,0.00,0.45,-0.63,1009.30
7.584,0.05,1.52,-0.14,1.33,0.91,0.33,0.00,0.45,-0.63,1009.30
7.591,0.05,1.52,-0.14,1.33,0.91,0.33,-0.55,0.20,-1.69,1009.30
7.618,0.19,1.65,-0.15,1.33,0.91,0.33,-0.55,0.20,-1.69,1009.30
7.62,0.19,1.65,-0.15,3.19,3.33,-1.53,-0.55,0.20,-1.69,1009.30
7.661,0.28,1.67,0.06,3.19,3.33,-1.53,-0.55,0.20,-1.69,1009.30
7.663,0.26,1.52,0.14,3.19,3.33,-1.53,-0.55,0.20,-1.69,1009.30
7.663,-0.12,1.29,0.07,3.19,3.33,-1.53,-0.55,0.20,-1.69,1009.30
7.664,-0.12,1.29,0.07,3.19,3.33,-1.53,-1.54,0.83,-3.88,1009.30
7.665,-0.12,1.29,0.07,3.19,3.33,-1.53,-1.54,0.83,-3.88,1008.94
7.682,-0.54,0.81,0.34,3.19,3.33,-1.53,-1.54,0.83,-3.88,1008.94
7.683,-0.54,0.81,0.34,7.41,8.40,-1.27,-1.54,0.83,-3.88,1008.94
7.732,-0.54,0.81,0.34,7.41,8.40,-1.27,-1.27,1.78,-2.04,1008.94
7.733,-0.45,0.37,0.37,7.41,8.40,-1.27,-1.27,1.78,-2.04,1008.94
7.734,-0.11,0.65,-0.13,7.41,8.40,-1.27,-1.27,1.78,-2.04,1008.94
7.742,-0.11,0.65,-0.13,7.41,8.40,-1.27,-1.27,1.78,-2.04,1008.76
7.743,0.07,0.51,-0.10,7.41,8.40,-1.27,-1.27,1.78,-2.04,1008.76
7.752,0.07,0.51,-0.10,6.36,6.00,1.85,-1.27,1.78,-2.04,1008.76
7.763,-0.09,0.41,-0.21,6.36,6.00,1.85,-1.27,1.78,-2.04,1008.76
7.782,0.02,0.40,-0.26,6.36,6.00,1.85,-1.27,1.78,-2.04,1008.76
7.782,0.02,0.40,-0.26,6.36,6.00,1.85,-1.27,1.78,-2.04,1009.06
7.802,0.02,0.40,-0.26,6.36,6.00,1.85,-1.06,0.65,1.17,1009.06
7.822,0.02,0.40,-0.26,4.50,-2.38,-0.05,-1.06,0.65,1.17,1009.06
7.823,-0.03,0.38,-0.27,4.50,-2.38,-0.05,-1.06,0.65,1.17,1009.06
7.824,-0.07,0.46,-0.34,4.50,-2.38,-0.05,-1.06,0.65,1.17,1009.06
7.861,-0.07,0.46,-0.34,4.50,-2.38,-0.05,-1.06,0.65,1.17,1009.09
7.862,-0.09,0.55,-0.41,4.50,-2.38,-0.05,-1.06,0.65,1.17,1009.09
7.862,-0.11,0.65,-0.46,4.50,-2.38,-0.05,-1.06,0.65,1.17,1009.09
7.871,-0.11,0.65,-0.46,4.50,-2.38,-0.05,-0.65,0.56,2.96,1009.09
7.891,-0.11,0.65,-0.46,4.02,-4.25,-2.85,-0.65,0.56,2.96,1009.09
7.892,-0.22,0.78,-0.56,4.02,-4.25,-2.85,-0.65,0.56,2.96,1009.09
7.942,-0.22,0.78,-0.56,4.02,-4.25,-2.85,-0.65,0.56,2.96,1009.13
7.942,-0.22,0.78,-0.56,4.02,-4.25,-2.85,0.47,1.21,3.58,1009.13
7.943,-0.31,0.90,-0.59,4.02,-4.25,-2.85,0.47,1.21,3.58,1009.13
7.943,-0.26,1.04,-0.62,4.02,-4.25,-2.85,0.47,1.21,3.58,1009.13
7.963,-0.24,1.15,-0.54,4.02,-4.25,-2.85,0.47,1.21,3.58,1009.13
7.964,-0.21,1.27,-0.47,4.02,-4.25,-2.85,0.47,1.21,3.58,1009.13
7.965,-0.21,1.27,-0.47,0.43,-2.32,-4.09,0.47,1.21,3.58,1009.13
7.982,-0.21,1.27,-0.47,0.43,-2.32,-4.09,0.47,1.21,3.58,1009.22
8.017,-0.21,1.27,-0.47,0.43,-2.32,-4.09,0.66,1.55,2.96,1009.22
8.018,-0.16,1.42,-0.43,0.43,-2.32,-4.09,0.66,1.55,2.96,1009.22
8.019,-0.12,1.61,-0.49,0.43,-2.32,-4.09,0.66,1.55,2.96,1009.22
8.032,-0.27,1.73,-0.56,0.43,-2.32,-4.09,0.66,1.55,2.96,1009.22
8.033,-0.27,1.73,-0.56,-1.97,1.70,-4.24,0.66,1.55,2.96,1009.22
8.062,-0.77,1.38,-0.38,-1.97,1.70,-4.24,0.66,1.55,2.96,1009.22
8.063,-0.77,1.38,-0.38,-1.97,1.70,-4.24,0.66,1.55,2.96,1009.20
8.082,-0.77,1.38,-0.38,-1.97,1.70,-4.24,-0.23,1.54,1.26,1009.20
8.083,-1.09,1.41,-0.19,-1.97,1.70,-4.24,-0.23,1.54,1.26,1009.20
8.097,-1.57,0.72,0.26,-1.97,1.70,-4.24,-0.23,1.54,1.26,1009.20
8.102,-1.56,0.52,0.34,-1.97,1.70,-4.24,-0.23,1.54,1.26,1009.20
8.102,-1.56,0.52,0.34,-2.66,6.76,-4.34,-0.23,1.54,1.26,1009.20
8.127,-1.20,0.73,0.15,-2.66,6.76,-4.34,-0.23,1.54,1.26,1009.20
8.142,-1.20,0.73,0.15,-2.66,6.76,-4.34,-0.23,1.54,1.26,1009.24
8.151,-1.20,0.73,0.15,-2.66,6.76,-4.34,-0.22,1.51,0.34,1009.24
8.152,-0.66,0.92,-0.03,-2.66,6.76,-4.34,-0.22,1.51,0.34,1009.24
8.162,-0.92,0.87,-0.08,-2.66,6.76,-4.34,-0.22,1.51,0.34,1009.24
8.173,-0.92,0.87,-0.08,-13.26,-0.92,2.18,-0.22,1.51,0.34,1009.24
8.186,-0.92,0.87,-0.08,-13.26,-0.92,2.18,-0.22,1.51,0.34,1009.22
8.222,-0.92,0.87,-0.08,-13.26,-0.92,2.18,-0.38,-0.63,-2.18,1009.22
8.223,-0.34,1.23,-0.15,-13.26,-0.92,2.18,-0.38,-0.63,-2.18,1009.22
8.223,0.33,1.13,0.08,-13.26,-0.92,2.18,-0.38,-0.63,-2.18,1009.22
8.229,-0.19,0.96,0.05,-13.26,-0.92,2.18,-0.38,-0.63,-2.18,1009.22
8.243,-0.19,0.96,0.05,-6.54,0.32,0.46,-0.38,-0.63,-2.18,1009.22
8.244,-0.68,0.93,-0.02,-6.54,0.32,0.46,-0.38,-0.63,-2.18,1009.22
8.262,-0.68,0.93,-0.02,-6.54,0.32,0.46,-0.38,-0.63,-2.18,1009.46
8.292,-0.68,0.93,-0.02,-6.54,0.32,0.46,-0.02,-0.32,-1.02,1009.46
8.293,-0.78,0.86,0.37,-6.54,0.32,0.46,-0.02,-0.32,-1.02,1009.46
8.294,-0.20,1.05,-0.31,-6.54,0.32,0.46,-0.02,-0.32,-1.02,1009.46
8.319,-0.41,0.93,0.03,-6.54,0.32,0.46,-0.02,-0.32,-1.02,1009.46
8.32,-0.41,0.93,0.03,-0.06,0.08,0.57,-0.02,-0.32,-1.02,1009.46
8.34,-0.15,0.96,-0.02,-0.06,0.08,0.57,-0.02,-0.32,-1.02,1009.46
8.341,-0.15,0.96,-0.02,-0.06,0.08,0.57,-0.02,-0.32,-1.02,1009.49
8.363,-0.24,0.93,0.03,-0.06,0.08,0.57,-0.02,-0.32,-1.02,1009.49
8.365,-0.24,0.93,0.03,-0.06,0.08,0.57,0.05,-0.16,-0.41,1009.49
8.366,-0.26,0.93,-0.03,-0.06,0.08,0.57,0.05,-0.16,-0.41,1009.49
8.382,-0.26,0.93,-0.03,-0.06,0.08,0.57,0.05,-0.16,-0.41,1009.43
8.383,-0.29,0.95,-0.08,-0.06,0.08,0.57,0.05,-0.16,-0.41,1009.43
8.383,-0.29,0.95,-0.08,-1.69,0.11,0.75,0.05,-0.16,-0.41,1009.43
8.428,-0.27,0.98,-0.06,-1.69,0.11,0.75,0.05,-0.16,-0.41,1009.43
8.429,-0.25,0.98,-0.01,-1.69,0.11,0.75,0.05,-0.16,-0.41,1009.43
8.431,-0.25,0.98,-0.01,-1.69,0.11,0.75,-0.06,-0.07,-0.22,1009.43
8.452,-0.25,0.98,-0.01,-0.05,0.03,0.20,-0.06,-0.07,-0.22,1009.43
8.453,-0.22,0.98,0.02,-0.05,0.03,0.20,-0.06,-0.07,-0.22,1009.43
8.461,-0.22,0.98,0.02,-0.05,0.03,0.20,-0.06,-0.07,-0.22,1009.45
8.495,-0.23,0.97,-0.00,-0.05,0.03,0.20,-0.06,-0.07,-0.22,1009.45
8.497,-0.26,0.96,-0.01,-0.05,0.03,0.20,-0.06,-0.07,-0.22,1009.45
8.502,-0.26,0.96,-0.01,-0.05,0.03,0.20,0.00,0.03,-0.15,1009.45
8.522,-0.24,0.98,0.00,-0.05,0.03,0.20,0.00,0.03,-0.15,1009.45
8.522,-0.23,0.97,0.01,-0.05,0.03,0.20,0.00,0.03,-0.15,1009.45
8.523,-0.23,0.97,0.01,0.15,0.47,0.36,0.00,0.03,-0.15,1009.45
8.541,-0.23,0.97,0.01,0.15,0.47,0.36,0.00,0.03,-0.15,1009.35
8.565,-0.24,0.96,0.00,0.15,0.47,0.36,0.00,0.03,-0.15,1009.35
8.568,-0.25,0.95,-0.02,0.15,0.47,0.36,0.00,0.03,-0.15,1009.35
8.571,-0.25,0.95,-0.02,0.15,0.47,0.36,0.09,0.10,-0.13,1009.35
8.582,-0.25,0.95,-0.02,0.15,0.47,0.36,0.09,0.10,-0.13,1009.26
8.592,-0.25,0.95,-0.02,0.24,0.39,0.57,0.09,0.10,-0.13,1009.26
8.593,-0.24,0.95,-0.01,0.24,0.39,0.57,0.09,0.10,-0.13,1009.26
8.629,-0.23,0.96,-0.01,0.24,0.39,0.57,0.09,0.10,-0.13,1009.26
8.631,-0.21,0.96,0.01,0.24,0.39,0.57,0.09,0.10,-0.13,1009.26
8.643,-0.21,0.96,0.01,0.24,0.39,0.57,0.14,0.17,-0.19,1009.26
8.663,-0.21,0.96,0.01,0.41,0.26,0.58,0.14,0.17,-0.19,1009.26
8.663,-0.21,0.96,0.01,0.41,0.26,0.58,0.14,0.17,-0.19,1009.22
8.664,-0.22,0.96,-0.01,0.41,0.26,0.58,0.14,0.17,-0.19,1009.22
8.664,-0.24,0.96,-0.05,0.41,0.26,0.58,0.14,0.17,-0.19,1009.22
8.695,-0.26,0.95,-0.05,0.41,0.26,0.58,0.14,0.17,-0.19,1009.22
8.712,-0.25,0.96,-0.05,0.41,0.26,0.58,0.14,0.17,-0.19,1009.22
8.713,-0.25,0.96,-0.05,0.41,0.26,0.58,0.15,0.23,-0.29,1009.22
8.738,-0.22,0.97,-0.03,0.41,0.26,0.58,0.15,0.23,-0.29,1009.22
8.739,-0.22,0.97,-0.03,0.74,0.41,0.67,0.15,0.23,-0.29,1009.22
8.741,-0.22,0.97,-0.03,0.74,0.41,0.67,0.15,0.23,-0.29,1009.17
8.762,-0.22,1.00,-0.05,0.74,0.41,0.67,0.15,0.23,-0.29,1009.17
8.782,-0.19,1.04,-0.05,0.74,0.41,0.67,0.15,0.23,-0.29,1009.17
8.783,-0.19,1.04,-0.05,0.74,0.41,0.67,0.15,0.23,-0.29,1009.27
8.784,-0.19,1.04,-0.05,0.74,0.41,0.67,0.09,0.31,-0.55,1009.27
8.802,-0.19,1.04,-0.05,0.94,0.58,0.49,0.09,0.31,-0.55,1009.27
8.803,-0.17,1.10,-0.08,0.94,0.58,0.49,0.09,0.31,-0.55,1009.27
8.804,-0.19,1.09,-0.10,0.94,0.58,0.49,0.09,0.31,-0.55,1009.27
8.828,-0.26,1.08,-0.15,0.94,0.58,0.49,0.09,0.31,-0.55,1009.27
8.852,-0.26,1.08,-0.15,0.94,0.58,0.49,-0.11,0.24,-1.13,1009.27
8.853,-0.27,1.11,-0.16,0.94,0.58,0.49,-0.11,0.24,-1.13,1009.27
8.862,-0.27,1.11,-0.16,0.94,0.58,0.49,-0.11,0.24,-1.13,1009.43
8.872,-0.27,1.11,-0.16,2.25,1.89,0.10,-0.11,0.24,-1.13,1009.43
8.872,-0.22,1.21,-0.25,2.25,1.89,0.10,-0.11,0.24,-1.13,1009.43
8.896,-0.21,1.39,-0.37,2.25,1.89,0.10,-0.11,0.24,-1.13,1009.43
8.923,0.00,1.54,-0.22,2.25,1.89,0.10,-0.11,0.24,-1.13,1009.43
8.924,0.00,1.54,-0.22,2.25,1.89,0.10,-0.58,-0.11,-2.21,1009.43
8.943,0.28,1.69,0.01,2.25,1.89,0.10,-0.58,-0.11,-2.21,1009.43
8.944,0.28,1.69,0.01,2.25,1.89,0.10,-0.58,-0.11,-2.21,1009.38
8.944,0.43,1.71,0.09,2.25,1.89,0.10,-0.58,-0.11,-2.21,1009.38
8.945,0.43,1.71,0.09,3.26,3.75,-1.65,-0.58,-0.11,-2.21,1009.38
8.983,0.44,1.59,-0.05,3.26,3.75,-1.65,-0.58,-0.11,-2.21,1009.38
8.984,0.44,1.59,-0.05,3.26,3.75,-1.65,-0.58,-0.11,-2.21,1009.04
8.992,0.44,1.59,-0.05,3.26,3.75,-1.65,-1.23,0.45,-5.20,1009.04
8.993,-0.00,1.43,-0.09,3.26,3.75,-1.65,-1.23,0.45,-5.20,1009.04
9.012,-0.35,1.14,0.39,3.26,3.75,-1.65,-1.23,0.45,-5.20,1009.04
9.013,-0.35,1.14,0.39,9.80,10.83,-0.63,-1.23,0.45,-5.20,1009.04
9.028,-0.43,0.97,0.35,9.80,10.83,-0.63,-1.23,0.45,-5.20,1009.04
9.062,-0.89,0.04,-0.16,9.80,10.83,-0.63,-1.23,0.45,-5.20,1009.04
9.063,-0.89,0.04,-0.16,9.80,10.83,-0.63,-1.23,0.45,-5.20,1008.79
9.064,-0.89,0.04,-0.16,9.80,10.83,-0.63,-0.47,0.64,-4.38,1008.79
9.082,-0.89,0.04,-0.16,8.28,9.27,1.65,-0.47,0.64,-4.38,1008.79
9.083,-2.20,0.22,-0.10,8.28,9.27,1.65,-0.47,0.64,-4.38,1008.79
9.084,0.09,0.46,0.01,8.28,9.27,1.65,-0.47,0.64,-4.38,1008.79
9.128,0.30,0.56,-0.10,8.28,9.27,1.65,-0.47,0.64,-4.38,1008.79
9.129,0.08,0.34,-0.06,8.28,9.27,1.65,-0.47,0.64,-4.38,1008.79
9.136,0.08,0.34,-0.06,8.28,9.27,1.65,-0.15,-0.89,1.31,1008.79
9.141,0.08,0.34,-0.06,8.28,9.27,1.65,-0.15,-0.89,1.31,1008.93
9.153,-0.11,0.18,0.03,8.28,9.27,1.65,-0.15,-0.89,1.31,1008.93
9.154,-0.11,0.18,0.03,-0.89,-1.48,-0.70,-0.15,-0.89,1.31,1008.93
9.182,-0.20,0.20,-0.06,-0.89,-1.48,-0.70,-0.15,-0.89,1.31,1008.93
9.184,-0.20,0.20,-0.06,-0.89,-1.48,-0.70,-0.15,-0.89,1.31,1009.04
9.202,-0.07,0.32,-0.11,-0.89,-1.48,-0.70,-0.15,-0.89,1.31,1009.04
9.203,-0.07,0.32,-0.11,-0.89,-1.48,-0.70,0.29,-0.18,3.71,1009.04
9.222,0.01,0.45,-0.14,-0.89,-1.48,-0.70,0.29,-0.18,3.71,1009.04
9.223,-0.27,0.52,-0.23,-0.89,-1.48,-0.70,0.29,-0.18,3.71,1009.04
9.224,-0.27,0.52,-0.23,6.78,-3.67,-0.42,0.29,-0.18,3.71,1009.04
9.262,-0.42,0.63,-0.30,6.78,-3.67,-0.42,0.29,-0.18,3.71,1009.04
9.264,-0.42,0.63,-0.30,6.78,-3.67,-0.42,0.29,-0.18,3.71,1009.12
9.272,-0.42,0.63,-0.30,6.78,-3.67,-0.42,0.96,0.21,5.11,1009.12
9.273,-0.22,0.83,-0.38,6.78,-3.67,-0.42,0.96,0.21,5.11,1009.12
9.292,-0.22,0.83,-0.38,2.08,-4.65,-0.92,0.96,0.21,5.11,1009.12
9.293,-0.12,1.20,-0.36,2.08,-4.65,-0.92,0.96,0.21,5.11,1009.12
9.342,-0.12,1.20,-0.36,2.08,-4.65,-0.92,1.10,-0.17,4.11,1009.12
9.344,-0.12,1.20,-0.36,2.08,-4.65,-0.92,1.10,-0.17,4.11,1009.28
9.344,-0.25,1.47,-0.27,2.08,-4.65,-0.92,1.10,-0.17,4.11,1009.28
9.345,-0.52,1.59,-0.12,2.08,-4.65,-0.92,1.10,-0.17,4.11,1009.28
9.362,-0.96,1.57,-0.07,2.08,-4.65,-0.92,1.10,-0.17,4.11,1009.28
9.363,-1.00,1.45,0.00,2.08,-4.65,-0.92,1.10,-0.17,4.11,1009.28
9.363,-1.00,1.45,0.00,-1.47,0.34,-2.09,1.10,-0.17,4.11,1009.28
9.381,-1.00,1.45,0.00,-1.47,0.34,-2.09,1.10,-0.17,4.11,1009.29
9.402,-1.02,1.34,-0.06,-1.47,0.34,-2.09,1.10,-0.17,4.11,1009.29
9.404,-0.59,1.46,-0.11,-1.47,0.34,-2.09,1.10,-0.17,4.11,1009.29
9.413,-0.59,1.46,-0.11,-1.47,0.34,-2.09,0.78,0.03,3.60,1009.29
9.428,-0.96,1.17,0.08,-1.47,0.34,-2.09,0.78,0.03,3.60,1009.29
9.438,-0.96,1.17,0.08,-8.17,5.91,0.75,0.78,0.03,3.60,1009.29
9.461,-1.28,0.94,-0.01,-8.17,5.91,0.75,0.78,0.03,3.60,1009.29
9.463,-1.28,0.94,-0.01,-8.17,5.91,0.75,0.78,0.03,3.60,1009.21
9.482,-1.28,0.94,-0.01,-8.17,5.91,0.75,0.13,-0.14,0.92,1009.21
9.483,-1.48,0.71,0.04,-8.17,5.91,0.75,0.13,-0.14,0.92,1009.21
9.495,-1.56,0.61,0.14,-8.17,5.91,0.75,0.13,-0.14,0.92,1009.21
9.502,-1.14,0.77,0.12,-8.17,5.91,0.75,0.13,-0.14,0.92,1009.21
9.503,-1.14,0.77,0.12,-9.61,3.34,1.37,0.13,-0.14,0.92,1009.21
9.54,-0.89,0.88,0.13,-9.61,3.34,1.37,0.13,-0.14,0.92,1009.21
9.543,-0.89,0.88,0.13,-9.61,3.34,1.37,0.13,-0.14,0.92,1009.19
9.56,-0.17,2.00,-0.41,-9.61,3.34,1.37,0.13,-0.14,0.92,1009.19
9.561,-0.17,2.00,-0.41,-9.61,3.34,1.37,-0.67,-0.41,-1.45,1009.19
9.572,-0.17,2.00,-0.41,-12.81,-2.12,1.76,-0.67,-0.41,-1.45,1009.19
9.574,1.26,0.87,0.10,-12.81,-2.12,1.76,-0.67,-0.41,-1.45,1009.19
9.581,1.26,0.87,0.10,-12.81,-2.12,1.76,-0.67,-0.41,-1.45,1009.48
9.623,1.26,0.87,0.10,-12.81,-2.12,1.76,-0.70,-0.07,-2.28,1009.48
9.624,0.81,1.13,0.16,-12.81,-2.12,1.76,-0.70,-0.07,-2.28,1009.48
9.624,-1.43,0.83,0.50,-12.81,-2.12,1.76,-0.70,-0.07,-2.28,1009.48
9.628,-0.71,0.94,0.32,-12.81,-2.12,1.76,-0.70,-0.07,-2.28,1009.48
9.644,-0.71,0.94,0.32,5.11,3.31,0.14,-0.70,-0.07,-2.28,1009.48
9.644,-0.47,1.02,-0.35,5.11,3.31,0.14,-0.70,-0.07,-2.28,1009.48
9.661,-0.47,1.02,-0.35,5.11,3.31,0.14,-0.70,-0.07,-2.28,1009.50
9.694,-0.47,1.02,-0.35,5.11,3.31,0.14,-0.40,-0.28,-0.60,1009.50
9.695,-0.55,0.98,-0.42,5.11,3.31,0.14,-0.40,-0.28,-0.60,1009.50
9.696,-0.27,0.96,0.01,5.11,3.31,0.14,-0.40,-0.28,-0.60,1009.50
9.713,-0.27,0.96,0.01,-5.48,-0.04,2.11,-0.40,-0.28,-0.60,1009.50
9.714,-0.18,0.93,0.20,-5.48,-0.04,2.11,-0.40,-0.28,-0.60,1009.50
9.742,-0.28,0.91,0.08,-5.48,-0.04,2.11,-0.40,-0.28,-0.60,1009.50
9.744,-0.28,0.91,0.08,-5.48,-0.04,2.11,-0.40,-0.28,-0.60,1009.38
9.762,-0.28,0.91,0.08,-5.48,-0.04,2.11,-0.26,-0.07,-0.25,1009.38
9.763,-0.28,0.93,0.06,-5.48,-0.04,2.11,-0.26,-0.07,-0.25,1009.38
9.764,-0.21,0.97,0.05,-5.48,-0.04,2.11,-0.26,-0.07,-0.25,1009.38
9.781,-0.21,0.97,0.05,-5.48,-0.04,2.11,-0.26,-0.07,-0.25,1009.31
9.782,-0.24,0.99,-0.00,-5.48,-0.04,2.11,-0.26,-0.07,-0.25,1009.31
9.783,-0.24,0.99,-0.00,-0.81,0.23,-0.25,-0.26,-0.07,-0.25,1009.31
9.829,-0.25,0.99,-0.00,-0.81,0.23,-0.25,-0.26,-0.07,-0.25,1009.31
9.83,-0.24,0.98,0.02,-0.81,0.23,-0.25,-0.26,-0.07,-0.25,1009.31
9.832,-0.24,0.98,0.02,-0.81,0.23,-0.25,-0.17,0.04,-0.13,1009.31
9.853,-0.24,0.98,0.02,0.02,0.28,0.42,-0.17,0.04,-0.13,1009.31
9.854,-0.24,0.97,0.02,0.02,0.28,0.42,-0.17,0.04,-0.13,1009.31
9.861,-0.24,0.97,0.02,0.02,0.28,0.42,-0.17,0.04,-0.13,1009.24
9.895,-0.22,0.97,0.03,0.02,0.28,0.42,-0.17,0.04,-0.13,1009.24
9.896,-0.22,0.96,0.04,0.02,0.28,0.42,-0.17,0.04,-0.13,1009.24
9.902,-0.22,0.96,0.04,0.02,0.28,0.42,-0.13,0.12,-0.12,1009.24
9.923,-0.22,0.96,0.04,0.21,0.50,0.17,-0.13,0.12,-0.12,1009.24
9.924,-0.21,0.95,0.06,0.21,0.50,0.17,-0.13,0.12,-0.12,1009.24
9.924,-0.22,0.95,0.06,0.21,0.50,0.17,-0.13,0.12,-0.12,1009.24
9.941,-0.22,0.95,0.06,0.21,0.50,0.17,-0.13,0.12,-0.12,1009.18
9.963,-0.22,0.96,0.05,0.21,0.50,0.17,-0.13,0.12,-0.12,1009.18
9.972,-0.22,0.96,0.05,0.21,0.50,0.17,-0.03,0.19,-0.21,1009.18
9.974,-0.21,0.97,0.03,0.21,0.50,0.17,-0.03,0.19,-0.21,1009.18
9.981,-0.21,0.97,0.03,0.21,0.50,0.17,-0.03,0.19,-0.21,1009.17
9.992,-0.23,0.96,0.04,0.21,0.50,0.17,-0.03,0.19,-0.21,1009.17
9.993,-0.23,0.96,0.04,0.55,0.37,0.54,-0.03,0.19,-0.21,1009.17
10.029,-0.26,0.96,0.01,0.55,0.37,0.54,-0.03,0.19,-0.21,1009.17
10.03,-0.25,0.97,0.03,0.55,0.37,0.54,-0.03,0.19,-0.21,1009.17
10.042,-0.25,0.97,0.03,0.55,0.37,0.54,-0.02,0.22,-0.29,1009.17
10.061,-0.26,0.97,0.03,0.55,0.37,0.54,-0.02,0.22,-0.29,1009.17
10.062,-0.26,0.97,0.03,0.55,0.37,0.54,-0.02,0.22,-0.29,1009.17
10.063,-0.24,0.98,0.02,0.55,0.37,0.54,-0.02,0.22,-0.29,1009.17
10.063,-0.24,0.98,0.02,0.67,0.48,0.41,-0.02,0.22,-0.29,1009.17
10.095,-0.23,0.98,0.01,0.67,0.48,0.41,-0.02,0.22,-0.29,1009.17
10.112,-0.23,0.98,0.01,0.67,0.48,0.41,-0.07,0.22,-0.42,1009.17
10.113,-0.24,1.00,-0.03,0.67,0.48,0.41,-0.07,0.22,-0.42,1009.17
10.128,-0.22,1.03,-0.03,0.67,0.48,0.41,-0.07,0.22,-0.42,1009.17
10.132,-0.22,1.03,-0.03,0.72,0.66,0.28,-0.07,0.22,-0.42,1009.17
10.141,-0.22,1.03,-0.03,0.72,0.66,0.28,-0.07,0.22,-0.42,1009.21
10.161,-0.19,1.05,0.02,0.72,0.66,0.28,-0.07,0.22,-0.42,1009.21
10.182,-0.20,1.04,0.05,0.72,0.66,0.28,-0.07,0.22,-0.42,1009.21
10.183,-0.20,1.04,0.05,0.72,0.66,0.28,-0.07,0.22,-0.42,1009.30
10.184,-0.20,1.04,0.05,0.72,0.66,0.28,-0.17,0.11,-0.86,1009.30
10.203,-0.21,1.04,0.03,0.72,0.66,0.28,-0.17,0.11,-0.86,1009.30
10.204,-0.27,1.06,-0.03,0.72,0.66,0.28,-0.17,0.11,-0.86,1009.30
10.205,-0.27,1.06,-0.03,1.54,1.28,-0.18,-0.17,0.11,-0.86,1009.30
10.228,-0.24,1.12,-0.03,1.54,1.28,-0.18,-0.17,0.11,-0.86,1009.30
10.252,-0.24,1.12,-0.03,1.54,1.28,-0.18,-0.34,0.09,-1.52,1009.30
10.254,-0.23,1.17,-0.07,1.54,1.28,-0.18,-0.34,0.09,-1.52,1009.30
10.261,-0.23,1.17,-0.07,1.54,1.28,-0.18,-0.34,0.09,-1.52,1009.45
10.262,-0.23,1.27,-0.13,1.54,1.28,-0.18,-0.34,0.09,-1.52,1009.45
10.274,-0.23,1.27,-0.13,2.60,2.16,-0.11,-0.34,0.09,-1.52,1009.45
10.295,-0.14,1.36,-0.07,2.60,2.16,-0.11,-0.34,0.09,-1.52,1009.45
10.324,-0.14,1.36,-0.07,2.60,2.16,-0.11,-0.63,0.14,-2.85,1009.45
10.326,-0.03,1.47,-0.02,2.60,2.16,-0.11,-0.63,0.14,-2.85,1009.45
10.344,0.12,1.56,0.01,2.60,2.16,-0.11,-0.63,0.14,-2.85,1009.45
10.345,0.12,1.56,0.01,2.60,2.16,-0.11,-0.63,0.14,-2.85,1009.46
10.346,0.12,1.56,0.01,4.31,5.04,-1.29,-0.63,0.14,-2.85,1009.46
10.346,0.22,1.61,0.03,4.31,5.04,-1.29,-0.63,0.14,-2.85,1009.46
10.382,0.11,1.52,0.01,4.31,5.04,-1.29,-0.63,0.14,-2.85,1009.46
10.383,0.11,1.52,0.01,4.31,5.04,-1.29,-0.63,0.14,-2.85,1008.94
10.392,0.11,1.52,0.01,4.31,5.04,-1.29,-1.10,0.31,-5.27,1008.94
10.393,-0.37,1.32,0.19,4.31,5.04,-1.29,-1.10,0.31,-5.27,1008.94
10.413,-0.37,1.32,0.19,9.23,11.10,-0.73,-1.10,0.31,-5.27,1008.94
10.414,-0.58,1.17,0.46,9.23,11.10,-0.73,-1.10,0.31,-5.27,1008.94
10.428,-0.38,0.89,0.41,9.23,11.10,-0.73,-1.10,0.31,-5.27,1008.94
10.462,-1.23,0.00,-0.00,9.23,11.10,-0.73,-1.10,0.31,-5.27,1008.94
10.463,-1.23,0.00,-0.00,9.23,11.10,-0.73,-1.10,0.31,-5.27,1008.65
10.464,-1.23,0.00,-0.00,9.23,11.10,-0.73,-0.33,0.71,-3.31,1008.65
10.483,-1.36,0.40,0.35,9.23,11.10,-0.73,-0.33,0.71,-3.31,1008.65
10.485,0.26,0.65,-0.06,9.23,11.10,-0.73,-0.33,0.71,-3.31,1008.65
10.485,0.26,0.65,-0.06,5.87,9.54,2.49,-0.33,0.71,-3.31,1008.65
10.533,0.26,0.65,-0.06,5.87,9.54,2.49,0.27,0.32,1.53,1008.65
10.534,0.26,0.52,-0.18,5.87,9.54,2.49,0.27,0.32,1.53,1008.65
10.534,-0.12,0.26,-0.01,5.87,9.54,2.49,0.27,0.32,1.53,1008.65
10.542,-0.12,0.26,-0.01,5.87,9.54,2.49,0.27,0.32,1.53,1009.07
10.553,-0.37,0.13,0.02,5.87,9.54,2.49,0.27,0.32,1.53,1009.07
10.554,-0.37,0.13,0.02,1.09,-0.68,0.87,0.27,0.32,1.53,1009.07
10.581,-0.14,0.28,0.01,1.09,-0.68,0.87,0.27,0.32,1.53,1009.07
10.583,-0.14,0.28,0.01,1.09,-0.68,0.87,0.27,0.32,1.53,1009.16
10.604,0.00,0.35,0.14,1.09,-0.68,0.87,0.27,0.32,1.53,1009.16
10.605,0.00,0.35,0.14,1.09,-0.68,0.87,0.89,0.25,4.40,1009.16
10.623,0.00,0.35,0.14,5.10,-4.01,0.03,0.89,0.25,4.40,1009.16
10.624,-0.00,0.47,0.16,5.10,-4.01,0.03,0.89,0.25,4.40,1009.16
10.624,-0.05,0.65,0.08,5.10,-4.01,0.03,0.89,0.25,4.40,1009.16
10.661,-0.05,0.65,0.08,5.10,-4.01,0.03,0.89,0.25,4.40,1009.22
10.663,-0.15,0.88,-0.04,5.10,-4.01,0.03,0.89,0.25,4.40,1009.22
10.674,-0.25,1.08,-0.07,5.10,-4.01,0.03,0.89,0.25,4.40,1009.22
10.675,-0.25,1.08,-0.07,5.10,-4.01,0.03,1.11,0.24,5.33,1009.22
10.693,-0.25,1.08,-0.07,2.98,-3.96,2.02,1.11,0.24,5.33,1009.22
10.695,-0.17,1.43,-0.06,2.98,-3.96,2.02,1.11,0.24,5.33,1009.22
10.742,-0.17,1.43,-0.06,2.98,-3.96,2.02,1.11,0.24,5.33,1009.29
10.743,-0.37,1.67,0.11,2.98,-3.96,2.02,1.11,0.24,5.33,1009.29
10.744,-0.94,1.53,0.39,2.98,-3.96,2.02,1.11,0.24,5.33,1009.29
10.744,-0.94,1.53,0.39,2.98,-3.96,2.02,0.46,-0.78,4.35,1009.29
10.762,-0.75,1.62,0.28,2.98,-3.96,2.02,0.46,-0.78,4.35,1009.29
10.763,-0.84,1.58,0.10,2.98,-3.96,2.02,0.46,-0.78,4.35,1009.29
10.764,-0.84,1.58,0.10,-1.28,2.74,0.53,0.46,-0.78,4.35,1009.29
10.781,-0.84,1.58,0.10,-1.28,2.74,0.53,0.46,-0.78,4.35,1009.19
10.782,-0.88,1.49,0.11,-1.28,2.74,0.53,0.46,-0.78,4.35,1009.19
10.813,-0.88,1.49,0.11,-1.28,2.74,0.53,-0.03,-0.40,4.03,1009.19
10.814,-0.96,1.34,0.24,-1.28,2.74,0.53,-0.03,-0.40,4.03,1009.19
10.828,-1.01,1.43,0.04,-1.28,2.74,0.53,-0.03,-0.40,4.03,1009.19
10.832,-1.01,1.43,0.04,-9.15,6.44,3.26,-0.03,-0.40,4.03,1009.19
10.861,-1.91,0.83,0.16,-9.15,6.44,3.26,-0.03,-0.40,4.03,1009.19
10.862,-1.91,0.83,0.16,-9.15,6.44,3.26,-0.03,-0.40,4.03,1009.20
10.883,-1.91,0.83,0.16,-9.15,6.44,3.26,-0.64,-0.13,0.11,1009.20
10.884,-2.44,0.29,0.09,-9.15,6.44,3.26,-0.64,-0.13,0.11,1009.20
10.895,-1.54,0.65,-0.13,-9.15,6.44,3.26,-0.64,-0.13,0.11,1009.20
10.905,-0.35,1.41,-0.01,-9.15,6.44,3.26,-0.64,-0.13,0.11,1009.20
10.906,-0.35,1.41,-0.01,-10.50,4.17,1.84,-0.64,-0.13,0.11,1009.20
10.947,0.30,1.18,-0.97,-10.50,4.17,1.84,-0.64,-0.13,0.11,1009.20
10.948,0.30,1.18,-0.97,-10.50,4.17,1.84,-0.64,-0.13,0.11,1009.24
10.96,0.30,1.18,-0.97,-10.50,4.17,1.84,-0.24,-1.35,-3.36,1009.24
10.961,-0.19,1.00,-0.36,-10.50,4.17,1.84,-0.24,-1.35,-3.36,1009.24
10.975,-1.75,0.66,0.43,-10.50,4.17,1.84,-0.24,-1.35,-3.36,1009.24
10.976,-1.75,0.66,0.43,-13.43,-1.77,0.42,-0.24,-1.35,-3.36,1009.24
10.981,-1.75,0.66,0.43,-13.43,-1.77,0.42,-0.24,-1.35,-3.36,1009.44
11.024,-1.75,0.66,0.43,-13.43,-1.77,0.42,0.00,-0.56,-0.98,1009.44
11.025,-0.67,1.05,0.50,-13.43,-1.77,0.42,0.00,-0.56,-0.98,1009.44
11.026,-0.55,1.00,-0.74,-13.43,-1.77,0.42,0.00,-0.56,-0.98,1009.44
11.029,-0.33,0.95,0.04,-13.43,-1.77,0.42,0.00,-0.56,-0.98,1009.44
11.043,-0.27,0.93,0.11,-13.43,-1.77,0.42,0.00,-0.56,-0.98,1009.44
11.044,-0.27,0.93,0.11,-3.82,0.17,-0.87,0.00,-0.56,-0.98,1009.44
11.067,-0.27,0.93,0.11,-3.82,0.17,-0.87,0.00,-0.56,-0.98,1009.52
11.093,-0.27,0.93,0.11,-3.82,0.17,-0.87,-0.04,-0.08,-0.35,1009.52
11.093,-0.31,0.93,0.12,-3.82,0.17,-0.87,-0.04,-0.08,-0.35,1009.52
11.094,-0.28,0.95,-0.01,-3.82,0.17,-0.87,-0.04,-0.08,-0.35,1009.52
11.114,-0.28,0.95,-0.01,-0.98,0.77,-1.35,-0.04,-0.08,-0.35,1009.52
11.115,-0.23,0.95,0.08,-0.98,0.77,-1.35,-0.04,-0.08,-0.35,1009.52
11.128,-0.28,0.98,-0.04,-0.98,0.77,-1.35,-0.04,-0.08,-0.35,1009.52
11.143,-0.28,0.98,-0.04,-0.98,0.77,-1.35,-0.04,-0.08,-0.35,1009.36
11.162,-0.29,0.99,-0.06,-0.98,0.77,-1.35,-0.04,-0.08,-0.35,1009.36
11.163,-0.29,0.99,-0.06,-0.98,0.77,-1.35,0.05,0.03,-0.19,1009.36
11.182,-0.26,0.97,-0.01,-0.98,0.77,-1.35,0.05,0.03,-0.19,1009.36
11.183,-0.26,0.97,-0.01,-0.98,0.77,-1.35,0.05,0.03,-0.19,1009.27
11.183,-0.26,0.95,0.02,-0.98,0.77,-1.35,0.05,0.03,-0.19,1009.27
11.184,-0.26,0.95,0.02,-0.02,0.31,0.87,0.05,0.03,-0.19,1009.27
11.228,-0.25,0.95,0.02,-0.02,0.31,0.87,0.05,0.03,-0.19,1009.27
11.23,-0.24,0.95,0.02,-0.02,0.31,0.87,0.05,0.03,-0.19,1009.27
11.233,-0.24,0.95,0.02,-0.02,0.31,0.87,0.04,0.13,-0.13,1009.27
11.253,-0.24,0.95,0.02,0.10,0.57,0.12,0.04,0.13,-0.13,1009.27
11.255,-0.24,0.96,-0.02,0.10,0.57,0.12,0.04,0.13,-0.13,1009.27
11.261,-0.24,0.96,-0.02,0.10,0.57,0.12,0.04,0.13,-0.13,1009.19
11.295,-0.23,0.96,0.02,0.10,0.57,0.12,0.04,0.13,-0.13,1009.19
11.297,-0.24,0.94,0.01,0.10,0.57,0.12,0.04,0.13,-0.13,1009.19
11.303,-0.24,0.94,0.01,0.10,0.57,0.12,0.08,0.22,-0.20,1009.19
11.328,-0.26,0.94,-0.01,0.10,0.57,0.12,0.08,0.22,-0.20,1009.19
11.329,-0.26,0.95,-0.01,0.10,0.57,0.12,0.08,0.22,-0.20,1009.19
11.33,-0.26,0.95,-0.01,0.51,0.45,0.54,0.08,0.22,-0.20,1009.19
11.346,-0.26,0.95,-0.01,0.51,0.45,0.54,0.08,0.22,-0.20,1009.18
11.362,-0.25,0.96,-0.01,0.51,0.45,0.54,0.08,0.22,-0.20,1009.18
11.373,-0.25,0.96,-0.01,0.51,0.45,0.54,0.11,0.26,-0.27,1009.18
11.374,-0.25,0.97,-0.05,0.51,0.45,0.54,0.11,0.26,-0.27,1009.18
11.382,-0.25,0.97,-0.05,0.51,0.45,0.54,0.11,0.26,-0.27,1009.20
11.394,-0.26,0.98,-0.06,0.51,0.45,0.54,0.11,0.26,-0.27,1009.20
11.394,-0.26,0.98,-0.06,0.60,0.42,0.59,0.11,0.26,-0.27,1009.20
11.429,-0.25,0.99,-0.08,0.60,0.42,0.59,0.11,0.26,-0.27,1009.20
11.43,-0.24,1.02,-0.07,0.60,0.42,0.59,0.11,0.26,-0.27,1009.20
11.444,-0.24,1.02,-0.07,0.60,0.42,0.59,0.02,0.20,-0.48,1009.20
11.461,-0.21,1.05,-0.09,0.60,0.42,0.59,0.02,0.20,-0.48,1009.20
11.462,-0.21,1.05,-0.09,0.60,0.42,0.59,0.02,0.20,-0.48,1009.22
11.463,-0.21,1.05,-0.09,0.91,0.79,0.15,0.02,0.20,-0.48,1009.22
11.463,-0.22,1.06,-0.10,0.91,0.79,0.15,0.02,0.20,-0.48,1009.22
11.495,-0.20,1.09,-0.08,0.91,0.79,0.15,0.02,0.20,-0.48,1009.22
11.513,-0.20,1.09,-0.08,0.91,0.79,0.15,-0.15,0.06,-1.04,1009.22
11.514,-0.22,1.09,-0.06,0.91,0.79,0.15,-0.15,0.06,-1.04,1009.22
11.533,-0.22,1.09,-0.06,1.87,1.71,-0.35,-0.15,0.06,-1.04,1009.22
11.534,-0.25,1.14,-0.12,1.87,1.71,-0.35,-0.15,0.06,-1.04,1009.22
11.544,-0.25,1.14,-0.12,1.87,1.71,-0.35,-0.15,0.06,-1.04,1009.37
11.545,-0.22,1.21,-0.12,1.87,1.71,-0.35,-0.15,0.06,-1.04,1009.37
11.581,-0.22,1.28,-0.18,1.87,1.71,-0.35,-0.15,0.06,-1.04,1009.37
11.583,-0.22,1.28,-0.18,1.87,1.71,-0.35,-0.15,0.06,-1.04,1009.38
11.583,-0.22,1.28,-0.18,1.87,1.71,-0.35,-0.41,-0.06,-1.92,1009.38
11.603,-0.22,1.28,-0.18,3.14,3.21,-0.69,-0.41,-0.06,-1.92,1009.38
11.605,-0.12,1.35,-0.16,3.14,3.21,-0.69,-0.41,-0.06,-1.92,1009.38
11.605,-0.02,1.43,-0.18,3.14,3.21,-0.69,-0.41,-0.06,-1.92,1009.38
11.628,0.13,1.47,-0.09,3.14,3.21,-0.69,-0.41,-0.06,-1.92,1009.38
11.655,0.21,1.48,0.13,3.14,3.21,-0.69,-0.41,-0.06,-1.92,1009.38
11.656,0.21,1.48,0.13,3.14,3.21,-0.69,-0.97,0.10,-3.84,1009.38
11.661,0.21,1.48,0.13,3.14,3.21,-0.69,-0.97,0.10,-3.84,1009.17
11.673,0.05,1.44,0.19,3.14,3.21,-0.69,-0.97,0.10,-3.84,1009.17
11.675,0.05,1.44,0.19,6.11,7.33,-1.83,-0.97,0.10,-3.84,1009.17
11.695,-0.34,1.29,0.21,6.11,7.33,-1.83,-0.97,0.10,-3.84,1009.17
11.731,-0.53,1.20,0.50,6.11,7.33,-1.83,-0.97,0.10,-3.84,1009.17
11.732,-0.53,1.20,0.50,6.11,7.33,-1.83,-0.67,0.64,-5.66,1009.17
11.749,-0.47,0.77,0.33,6.11,7.33,-1.83,-0.67,0.64,-5.66,1009.17
11.75,-0.47,0.77,0.33,6.11,7.33,-1.83,-0.67,0.64,-5.66,1008.87
11.751,-1.78,0.08,-0.13,6.11,7.33,-1.83,-0.67,0.64,-5.66,1008.87
11.751,-1.78,0.08,-0.13,9.55,11.04,0.95,-0.67,0.64,-5.66,1008.87
11.782,-1.02,0.60,0.13,9.55,11.04,0.95,-0.67,0.64,-5.66,1008.87
11.784,-1.02,0.60,0.13,9.55,11.04,0.95,-0.67,0.64,-5.66,1009.02
11.794,0.45,0.80,-0.08,9.55,11.04,0.95,-0.67,0.64,-5.66,1009.02
11.795,0.45,0.80,-0.08,9.55,11.04,0.95,-0.13,0.21,-0.28,1009.02
11.813,0.45,0.80,-0.08,0.16,3.84,2.16,-0.13,0.21,-0.28,1009.02
11.814,0.14,0.52,-0.13,0.16,3.84,2.16,-0.13,0.21,-0.28,1009.02
11.828,-0.21,0.26,0.03,0.16,3.84,2.16,-0.13,0.21,-0.28,1009.02
11.862,-0.36,0.20,0.00,0.16,3.84,2.16,-0.13,0.21,-0.28,1009.02
11.863,-0.36,0.20,0.00,0.16,3.84,2.16,-0.13,0.21,-0.28,1009.09
11.864,-0.36,0.20,0.00,0.16,3.84,2.16,0.05,-0.43,2.46,1009.09
11.883,-0.36,0.20,0.00,5.91,0.16,-0.34,0.05,-0.43,2.46,1009.09
11.884,-0.11,0.30,-0.04,5.91,0.16,-0.34,0.05,-0.43,2.46,1009.09
11.885,0.11,0.46,-0.00,5.91,0.16,-0.34,0.05,-0.43,2.46,1009.09
11.934,0.11,0.46,-0.00,5.91,0.16,-0.34,0.31,0.66,4.86,1009.09
11.935,-0.06,0.52,-0.01,5.91,0.16,-0.34,0.31,0.66,4.86,1009.09
11.936,-0.22,0.66,-0.22,5.91,0.16,-0.34,0.31,0.66,4.86,1009.09
11.946,-0.22,0.66,-0.22,5.91,0.16,-0.34,0.31,0.66,4.86,1009.11
11.953,-0.22,0.84,-0.37,5.91,0.16,-0.34,0.31,0.66,4.86,1009.11
11.954,-0.22,0.84,-0.37,3.44,-4.76,0.32,0.31,0.66,4.86,1009.11
11.981,-0.22,0.92,-0.28,3.44,-4.76,0.32,0.31,0.66,4.86,1009.11
11.983,-0.22,0.92,-0.28,3.44,-4.76,0.32,0.31,0.66,4.86,1009.20
12.003,-0.22,0.92,-0.28,3.44,-4.76,0.32,0.59,0.25,5.05,1009.20
12.005,-0.30,1.07,-0.30,3.44,-4.76,0.32,0.59,0.25,5.05,1009.20
12.03,-0.21,1.37,-0.35,3.44,-4.76,0.32,0.59,0.25,5.05,1009.20
12.031,-0.35,1.56,-0.19,3.44,-4.76,0.32,0.59,0.25,5.05,1009.20
12.032,-0.35,1.56,-0.19,0.33,-1.94,-1.30,0.59,0.25,5.05,1009.20
12.061,-0.76,1.63,-0.18,0.33,-1.94,-1.30,0.59,0.25,5.05,1009.20
12.063,-0.76,1.63,-0.18,0.33,-1.94,-1.30,0.59,0.25,5.05,1009.23
12.073,-0.86,1.76,-0.32,0.33,-1.94,-1.30,0.59,0.25,5.05,1009.23
12.074,-0.86,1.76,-0.32,0.33,-1.94,-1.30,0.32,0.07,4.41,1009.23
12.083,-0.96,1.65,-0.10,0.33,-1.94,-1.30,0.32,0.07,4.41,1009.23
12.093,-0.96,1.65,-0.10,-3.39,3.41,-1.79,0.32,0.07,4.41,1009.23
12.128,-1.10,1.38,0.27,-3.39,3.41,-1.79,0.32,0.07,4.41,1009.23
12.129,-1.58,1.11,0.31,-3.39,3.41,-1.79,0.32,0.07,4.41,1009.23
12.147,-1.58,1.11,0.31,-3.39,3.41,-1.79,0.32,0.07,4.41,1009.17
12.148,-1.58,1.11,0.31,-3.39,3.41,-1.79,0.23,0.48,2.59,1009.17
12.168,-2.57,0.67,0.24,-3.39,3.41,-1.79,0.23,0.48,2.59,1009.17
12.17,-1.91,0.65,-0.02,-3.39,3.41,-1.79,0.23,0.48,2.59,1009.17
12.17,-1.91,0.65,-0.02,-10.02,7.08,-0.44,0.23,0.48,2.59,1009.17
12.182,-1.91,0.65,-0.02,-10.02,7.08,-0.44,0.23,0.48,2.59,1009.24
12.214,-1.91,0.65,-0.02,-10.02,7.08,-0.44,-0.41,-1.20,-2.34,1009.24
12.216,-0.59,2.12,-0.30,-10.02,7.08,-0.44,-0.41,-1.20,-2.34,1009.24
12.216,0.28,0.64,-0.18,-10.02,7.08,-0.44,-0.41,-1.20,-2.34,1009.24
12.229,0.58,0.90,0.08,-10.02,7.08,-0.44,-0.41,-1.20,-2.34,1009.24
12.234,0.58,0.90,0.08,-17.42,-0.60,2.65,-0.41,-1.20,-2.34,1009.24
12.262,-1.01,0.90,-0.09,-17.42,-0.60,2.65,-0.41,-1.20,-2.34,1009.24
12.263,-1.01,0.90,-0.09,-17.42,-0.60,2.65,-0.41,-1.20,-2.34,1009.50
12.284,-1.01,0.90,-0.09,-17.42,-0.60,2.65,-0.35,-0.55,-2.49,1009.50
12.285,-1.00,0.83,0.28,-17.42,-0.60,2.65,-0.35,-0.55,-2.49,1009.50
12.295,-0.67,0.89,0.38,-17.42,-0.60,2.65,-0.35,-0.55,-2.49,1009.50
12.304,-0.51,0.98,-0.33,-17.42,-0.60,2.65,-0.35,-0.55,-2.49,1009.50
12.305,-0.51,0.98,-0.33,1.81,2.45,-0.61,-0.35,-0.55,-2.49,1009.50
12.347,-0.51,0.98,-0.33,1.81,2.45,-0.61,-0.35,-0.55,-2.49,1009.56
12.348,-0.51,0.97,-0.19,1.81,2.45,-0.61,-0.35,-0.55,-2.49,1009.56
12.353,-0.51,0.97,-0.19,1.81,2.45,-0.61,-0.16,-0.28,-0.65,1009.56
12.354,-0.34,0.92,0.06,1.81,2.45,-0.61,-0.16,-0.28,-0.65,1009.56
12.374,-0.34,0.92,0.06,-5.13,-0.12,0.98,-0.16,-0.28,-0.65,1009.56
12.375,-0.32,0.95,0.06,-5.13,-0.12,0.98,-0.16,-0.28,-0.65,1009.56
12.381,-0.32,0.95,0.06,-5.13,-0.12,0.98,-0.16,-0.28,-0.65,1009.47
12.424,-0.32,0.95,0.06,-5.13,-0.12,0.98,-0.09,-0.05,-0.29,1009.47
12.425,-0.26,0.96,-0.00,-5.13,-0.12,0.98,-0.09,-0.05,-0.29,1009.47
12.426,-0.27,0.93,0.10,-5.13,-0.12,0.98,-0.09,-0.05,-0.29,1009.47
12.428,-0.30,0.95,0.05,-5.13,-0.12,0.98,-0.09,-0.05,-0.29,1009.47
12.449,-0.32,0.96,-0.05,-5.13,-0.12,0.98,-0.09,-0.05,-0.29,1009.47
12.45,-0.32,0.96,-0.05,-0.85,0.36,0.02,-0.09,-0.05,-0.29,1009.47
12.468,-0.32,0.96,-0.05,-0.85,0.36,0.02,-0.09,-0.05,-0.29,1009.34
12.494,-0.32,0.96,-0.05,-0.85,0.36,0.02,-0.07,0.06,-0.14,1009.34
12.495,-0.30,0.99,-0.06,-0.85,0.36,0.02,-0.07,0.06,-0.14,1009.34
12.496,-0.27,0.98,-0.01,-0.85,0.36,0.02,-0.07,0.06,-0.14,1009.34
12.514,-0.27,0.98,-0.01,-0.02,0.40,0.54,-0.07,0.06,-0.14,1009.34
12.515,-0.28,0.96,-0.00,-0.02,0.40,0.54,-0.07,0.06,-0.14,1009.34
12.549,-0.27,0.95,0.02,-0.02,0.40,0.54,-0.07,0.06,-0.14,1009.34
12.55,-0.27,0.95,0.02,-0.02,0.40,0.54,-0.07,0.06,-0.14,1009.21
12.568,-0.26,0.94,0.04,-0.02,0.40,0.54,-0.07,0.06,-0.14,1009.21
12.57,-0.26,0.94,0.04,-0.02,0.40,0.54,-0.06,0.15,-0.10,1009.21
12.581,-0.26,0.94,0.02,-0.02,0.40,0.54,-0.06,0.15,-0.10,1009.21
12.582,-0.26,0.94,0.02,-0.02,0.40,0.54,-0.06,0.15,-0.10,1009.14
12.583,-0.26,0.94,0.02,-0.02,0.40,0.54,-0.06,0.15,-0.10,1009.14
12.584,-0.26,0.94,0.02,0.15,0.61,0.06,-0.06,0.15,-0.10,1009.14
12.628,-0.24,0.95,0.03,0.15,0.61,0.06,-0.06,0.15,-0.10,1009.14
12.63,-0.26,0.94,0.01,0.15,0.61,0.06,-0.06,0.15,-0.10,1009.14
12.633,-0.26,0.94,0.01,0.15,0.61,0.06,-0.01,0.24,-0.15,1009.14
12.653,-0.26,0.94,0.01,0.48,0.37,0.52,-0.01,0.24,-0.15,1009.14
12.654,-0.28,0.94,-0.00,0.48,0.37,0.52,-0.01,0.24,-0.15,1009.14
12.669,-0.28,0.94,-0.00,0.48,0.37,0.52,-0.01,0.24,-0.15,1009.17
12.696,-0.28,0.95,0.01,0.48,0.37,0.52,-0.01,0.24,-0.15,1009.17
12.698,-0.26,0.96,0.01,0.48,0.37,0.52,-0.01,0.24,-0.15,1009.17
12.703,-0.26,0.96,0.01,0.48,0.37,0.52,0.03,0.23,-0.22,1009.17
12.725,-0.25,0.97,0.00,0.48,0.37,0.52,0.03,0.23,-0.22,1009.17
12.726,-0.27,0.97,-0.03,0.48,0.37,0.52,0.03,0.23,-0.22,1009.17
12.727,-0.27,0.97,-0.03,0.58,0.40,0.45,0.03,0.23,-0.22,1009.17
12.751,-0.27,0.97,-0.03,0.58,0.40,0.45,0.03,0.23,-0.22,1009.18
12.768,-0.27,0.99,-0.07,0.58,0.40,0.45,0.03,0.23,-0.22,1009.18
12.774,-0.27,0.99,-0.07,0.58,0.40,0.45,-0.04,0.23,-0.41,1009.18
12.774,-0.25,1.03,-0.06,0.58,0.40,0.45,-0.04,0.23,-0.41,1009.18
12.782,-0.25,1.03,-0.06,0.58,0.40,0.45,-0.04,0.23,-0.41,1009.23
12.795,-0.23,1.04,-0.06,0.58,0.40,0.45,-0.04,0.23,-0.41,1009.23
12.796,-0.23,1.04,-0.06,0.86,0.76,0.30,-0.04,0.23,-0.41,1009.23
12.828,-0.21,1.07,-0.05,0.86,0.76,0.30,-0.04,0.23,-0.41,1009.23
12.83,-0.25,1.05,-0.05,0.86,0.76,0.30,-0.04,0.23,-0.41,1009.23
12.849,-0.25,1.05,-0.05,0.86,0.76,0.30,-0.21,0.07,-0.90,1009.23
12.871,-0.27,1.07,-0.04,0.86,0.76,0.30,-0.21,0.07,-0.90,1009.23
12.872,-0.27,1.07,-0.04,0.86,0.76,0.30,-0.21,0.07,-0.90,1009.33
12.872,-0.22,1.11,0.02,0.86,0.76,0.30,-0.21,0.07,-0.90,1009.33
12.873,-0.22,1.11,0.02,1.66,1.59,-0.42,-0.21,0.07,-0.90,1009.33
12.896,-0.24,1.18,-0.07,1.66,1.59,-0.42,-0.21,0.07,-0.90,1009.33
12.905,-0.24,1.25,-0.15,1.66,1.59,-0.42,-0.21,0.07,-0.90,1009.33
12.914,-0.24,1.25,-0.15,1.66,1.59,-0.42,-0.41,0.05,-1.68,1009.33
12.934,-0.24,1.25,-0.15,2.81,2.69,-0.37,-0.41,0.05,-1.68,1009.33
12.935,-0.18,1.31,-0.17,2.81,2.69,-0.37,-0.41,0.05,-1.68,1009.33
12.949,-0.18,1.31,-0.17,2.81,2.69,-0.37,-0.41,0.05,-1.68,1009.35
12.968,-0.12,1.37,-0.19,2.81,2.69,-0.37,-0.41,0.05,-1.68,1009.35
12.981,-0.02,1.40,-0.04,2.81,2.69,-0.37,-0.41,0.05,-1.68,1009.35
12.982,-0.02,1.40,-0.04,2.81,2.69,-0.37,-0.41,0.05,-1.68,1009.26
12.983,-0.02,1.40,-0.04,2.81,2.69,-0.37,-0.90,0.11,-3.18,1009.26
13.004,-0.02,1.40,-0.04,4.93,6.05,-1.83,-0.90,0.11,-3.18,1009.26
13.005,0.08,1.44,0.12,4.93,6.05,-1.83,-0.90,0.11,-3.18,1009.26
13.006,0.04,1.44,0.03,4.93,6.05,-1.83,-0.90,0.11,-3.18,1009.26
13.028,-0.22,1.30,0.10,4.93,6.05,-1.83,-0.90,0.11,-3.18,1009.26
13.056,-0.22,1.30,0.10,4.93,6.05,-1.83,-1.09,0.38,-5.22,1009.26
13.057,-0.51,1.10,0.33,4.93,6.05,-1.83,-1.09,0.38,-5.22,1009.26
13.066,-0.51,1.10,0.33,4.93,6.05,-1.83,-1.09,0.38,-5.22,1008.93
13.075,-0.51,1.10,0.33,8.84,10.52,-0.49,-1.09,0.38,-5.22,1008.93
13.076,-0.43,1.04,0.50,8.84,10.52,-0.49,-1.09,0.38,-5.22,1008.93
13.096,-0.51,0.36,0.07,8.84,10.52,-0.49,-1.09,0.38,-5.22,1008.93
13.124,-0.51,0.36,0.07,8.84,10.52,-0.49,-0.24,0.57,-2.45,1008.93
13.125,-1.85,0.05,0.20,8.84,10.52,-0.49,-0.24,0.57,-2.45,1008.93
13.128,-0.75,0.37,0.15,8.84,10.52,-0.49,-0.24,0.57,-2.45,1008.93
13.141,-0.75,0.37,0.15,8.84,10.52,-0.49,-0.24,0.57,-2.45,1008.97
13.144,0.33,0.65,-0.09,8.84,10.52,-0.49,-0.24,0.57,-2.45,1008.97
13.145,0.33,0.65,-0.09,4.97,7.47,2.55,-0.24,0.57,-2.45,1008.97
13.181,0.30,0.47,-0.10,4.97,7.47,2.55,-0.24,0.57,-2.45,1008.97
13.183,0.30,0.47,-0.10,4.97,7.47,2.55,-0.24,0.57,-2.45,1009.13
13.194,0.30,0.47,-0.10,4.97,7.47,2.55,0.16,0.07,1.91,1009.13
13.194,-0.22,0.21,0.07,4.97,7.47,2.55,0.16,0.07,1.91,1009.13
13.214,-0.22,0.21,0.07,0.68,-1.84,0.56,0.16,0.07,1.91,1009.13
13.216,-0.49,0.16,0.06,0.68,-1.84,0.56,0.16,0.07,1.91,1009.13
13.228,-0.13,0.35,0.03,0.68,-1.84,0.56,0.16,0.07,1.91,1009.13
13.261,-0.02,0.49,0.04,0.68,-1.84,0.56,0.16,0.07,1.91,1009.13
13.263,-0.02,0.49,0.04,0.68,-1.84,0.56,0.16,0.07,1.91,1009.17
13.264,-0.02,0.49,0.04,0.68,-1.84,0.56,0.74,0.44,4.71,1009.17
13.284,-0.16,0.55,0.02,0.68,-1.84,0.56,0.74,0.44,4.71,1009.17
13.286,-0.24,0.73,-0.08,0.68,-1.84,0.56,0.74,0.44,4.71,1009.17
13.286,-0.24,0.73,-0.08,4.22,-4.43,0.57,0.74,0.44,4.71,1009.17
13.335,-0.24,0.73,-0.08,4.22,-4.43,0.57,1.00,0.08,5.31,1009.17
13.336,-0.31,0.89,-0.08,4.22,-4.43,0.57,1.00,0.08,5.31,1009.17
13.336,-0.20,1.18,-0.13,4.22,-4.43,0.57,1.00,0.08,5.31,1009.17
13.342,-0.20,1.18,-0.13,4.22,-4.43,0.57,1.00,0.08,5.31,1009.24
13.354,-0.20,1.18,-0.13,1.73,-3.05,0.82,1.00,0.08,5.31,1009.24
13.355,-0.21,1.53,-0.20,1.73,-3.05,0.82,1.00,0.08,5.31,1009.24
13.383,-0.59,1.55,0.04,1.73,-3.05,0.82,1.00,0.08,5.31,1009.24
13.383,-0.59,1.55,0.04,1.73,-3.05,0.82,1.00,0.08,5.31,1009.21
13.404,-0.59,1.55,0.04,1.73,-3.05,0.82,0.73,-0.85,4.36,1009.21
13.406,-0.89,1.49,0.15,1.73,-3.05,0.82,0.73,-0.85,4.36,1009.21
13.424,-0.76,1.58,0.00,1.73,-3.05,0.82,0.73,-0.85,4.36,1009.21
13.425,-0.63,1.59,-0.02,1.73,-3.05,0.82,0.73,-0.85,4.36,1009.21
13.426,-0.63,1.59,-0.02,-2.24,3.24,-0.07,0.73,-0.85,4.36,1009.21
13.45,-0.67,1.51,-0.01,-2.24,3.24,-0.07,0.73,-0.85,4.36,1009.21
13.474,-0.67,1.51,-0.01,-2.24,3.24,-0.07,0.73,-0.85,4.36,1009.17
13.475,-0.67,1.51,-0.01,-2.24,3.24,-0.07,0.00,0.18,3.47,1009.17
13.477,-1.01,1.28,0.14,-2.24,3.24,-0.07,0.00,0.18,3.47,1009.17
13.494,-1.61,0.87,0.21,-2.24,3.24,-0.07,0.00,0.18,3.47,1009.17
13.495,-1.61,0.87,0.21,-8.83,6.05,1.57,0.00,0.18,3.47,1009.17
13.542,-1.61,0.87,0.21,-8.83,6.05,1.57,0.00,0.18,3.47,1009.21
13.543,-1.99,0.59,0.23,-8.83,6.05,1.57,0.00,0.18,3.47,1009.21
13.544,-1.33,0.76,-0.05,-8.83,6.05,1.57,0.00,0.18,3.47,1009.21
13.544,-1.33,0.76,-0.05,-8.83,6.05,1.57,-0.42,0.26,-0.17,1009.21
13.561,-1.31,0.74,-0.08,-8.83,6.05,1.57,-0.42,0.26,-0.17,1009.21
13.564,-0.20,1.79,-0.03,-8.83,6.05,1.57,-0.42,0.26,-0.17,1009.21
13.565,-0.20,1.79,-0.03,-12.41,1.81,2.04,-0.42,0.26,-0.17,1009.21
13.583,-0.20,1.79,-0.03,-12.41,1.81,2.04,-0.42,0.26,-0.17,1009.28
13.615,-0.20,1.79,-0.03,-12.41,1.81,2.04,-0.29,-1.42,-3.07,1009.28
13.616,0.83,0.94,-0.61,-12.41,1.81,2.04,-0.29,-1.42,-3.07,1009.28
13.617,0.54,1.08,-0.22,-12.41,1.81,2.04,-0.29,-1.42,-3.07,1009.28
13.629,-1.01,0.98,-0.20,-12.41,1.81,2.04,-0.29,-1.42,-3.07,1009.28
13.634,-1.01,0.98,-0.20,-8.57,0.96,0.20,-0.29,-1.42,-3.07,1009.28
13.67,-0.76,0.83,0.20,-8.57,0.96,0.20,-0.29,-1.42,-3.07,1009.28
13.671,-0.76,0.83,0.20,-8.57,0.96,0.20,-0.29,-1.42,-3.07,1009.51
13.691,-0.76,0.83,0.20,-8.57,0.96,0.20,-0.19,-0.61,-1.69,1009.51
13.694,-0.75,0.84,0.64,-8.57,0.96,0.20,-0.19,-0.61,-1.69,1009.51
13.695,-0.96,0.95,-0.49,-8.57,0.96,0.20,-0.19,-0.61,-1.69,1009.51
13.705,-0.96,0.95,-0.49,2.24,0.58,-2.18,-0.19,-0.61,-1.69,1009.51
13.706,-0.37,1.00,-0.20,2.24,0.58,-2.18,-0.19,-0.61,-1.69,1009.51
13.742,-0.43,0.90,0.06,2.24,0.58,-2.18,-0.19,-0.61,-1.69,1009.51
13.743,-0.43,0.90,0.06,2.24,0.58,-2.18,-0.19,-0.61,-1.69,1009.58
13.757,-0.43,0.90,0.06,2.24,0.58,-2.18,-0.24,-0.15,-0.28,1009.58
13.758,-0.20,0.95,0.12,2.24,0.58,-2.18,-0.24,-0.15,-0.28,1009.58
13.775,-0.29,0.95,-0.00,2.24,0.58,-2.18,-0.24,-0.15,-0.28,1009.58
13.776,-0.29,0.95,-0.00,-3.68,0.13,0.12,-0.24,-0.15,-0.28,1009.58
13.781,-0.29,0.95,-0.00,-3.68,0.13,0.12,-0.24,-0.15,-0.28,1009.36
13.824,-0.29,0.95,-0.00,-3.68,0.13,0.12,-0.07,-0.02,-0.19,1009.36
13.826,-0.25,0.95,0.08,-3.68,0.13,0.12,-0.07,-0.02,-0.19,1009.36
13.826,-0.25,0.96,0.09,-3.68,0.13,0.12,-0.07,-0.02,-0.19,1009.36
13.829,-0.30,0.97,-0.02,-3.68,0.13,0.12,-0.07,-0.02,-0.19,1009.36
13.846,-0.31,0.97,-0.04,-3.68,0.13,0.12,-0.07,-0.02,-0.19,1009.36
13.847,-0.31,0.97,-0.04,-0.02,0.31,0.66,-0.07,-0.02,-0.19,1009.36
13.869,-0.31,0.97,-0.04,-0.02,0.31,0.66,-0.07,-0.02,-0.19,1009.31
13.895,-0.31,0.97,-0.04,-0.02,0.31,0.66,-0.08,0.08,-0.13,1009.31
13.896,-0.29,0.97,0.01,-0.02,0.31,0.66,-0.08,0.08,-0.13,1009.31
13.897,-0.28,0.96,0.01,-0.02,0.31,0.66,-0.08,0.08,-0.13,1009.31
13.916,-0.27,0.95,0.03,-0.02,0.31,0.66,-0.08,0.08,-0.13,1009.31
13.917,-0.27,0.95,0.03,0.26,0.59,0.31,-0.08,0.08,-0.13,1009.31
13.943,-0.27,0.95,0.04,0.26,0.59,0.31,-0.08,0.08,-0.13,1009.31
13.943,-0.27,0.95,0.04,0.26,0.59,0.31,-0.08,0.08,-0.13,1009.20
13.962,-0.26,0.95,0.05,0.26,0.59,0.31,-0.08,0.08,-0.13,1009.20
13.964,-0.26,0.95,0.05,0.26,0.59,0.31,-0.02,0.14,-0.16,1009.20
13.981,-0.26,0.95,0.04,0.26,0.59,0.31,-0.02,0.14,-0.16,1009.20
13.982,-0.26,0.95,0.04,0.26,0.59,0.31,-0.02,0.14,-0.16,1009.16
13.986,-0.29,0.94,0.02,0.26,0.59,0.31,-0.02,0.14,-0.16,1009.16
13.986,-0.29,0.94,0.02,0.39,0.56,0.30,-0.02,0.14,-0.16,1009.16
14.03,-0.31,0.92,0.02,0.39,0.56,0.30,-0.02,0.14,-0.16,1009.16
14.031,-0.27,0.94,0.03,0.39,0.56,0.30,-0.02,0.14,-0.16,1009.16
14.035,-0.27,0.94,0.03,0.39,0.56,0.30,0.04,0.21,-0.21,1009.16
14.055,-0.27,0.94,0.03,0.61,0.49,0.51,0.04,0.21,-0.21,1009.16
14.056,-0.29,0.95,0.03,0.61,0.49,0.51,0.04,0.21,-0.21,1009.16
14.069,-0.29,0.95,0.03,0.61,0.49,0.51,0.04,0.21,-0.21,1009.14
14.096,-0.31,0.95,0.01,0.61,0.49,0.51,0.04,0.21,-0.21,1009.14
14.097,-0.29,0.94,-0.01,0.61,0.49,0.51,0.04,0.21,-0.21,1009.14
14.105,-0.29,0.94,-0.01,0.61,0.49,0.51,0.05,0.26,-0.27,1009.14
14.125,-0.29,0.94,-0.01,0.56,0.48,0.49,0.05,0.26,-0.27,1009.14
14.126,-0.28,0.97,-0.02,0.56,0.48,0.49,0.05,0.26,-0.27,1009.14
14.126,-0.26,0.98,-0.00,0.56,0.48,0.49,0.05,0.26,-0.27,1009.14
14.143,-0.26,0.98,-0.00,0.56,0.48,0.49,0.05,0.26,-0.27,1009.17
14.162,-0.26,1.02,-0.04,0.56,0.48,0.49,0.05,0.26,-0.27,1009.17
14.175,-0.26,1.02,-0.04,0.56,0.48,0.49,-0.04,0.22,-0.54,1009.17
14.176,-0.26,1.04,-0.07,0.56,0.48,0.49,-0.04,0.22,-0.54,1009.17
14.182,-0.26,1.04,-0.07,0.56,0.48,0.49,-0.04,0.22,-0.54,1009.25
14.197,-0.26,1.04,-0.07,1.05,0.90,0.15,-0.04,0.22,-0.54,1009.25
14.198,-0.25,1.05,-0.06,1.05,0.90,0.15,-0.04,0.22,-0.54,1009.25
14.229,-0.28,1.04,-0.05,1.05,0.90,0.15,-0.04,0.22,-0.54,1009.25
14.23,-0.31,1.06,-0.05,1.05,0.90,0.15,-0.04,0.22,-0.54,1009.25
14.245,-0.31,1.06,-0.05,1.05,0.90,0.15,-0.21,0.08,-1.09,1009.25
14.262,-0.22,1.16,-0.02,1.05,0.90,0.15,-0.21,0.08,-1.09,1009.25
14.263,-0.22,1.16,-0.02,1.05,0.90,0.15,-0.21,0.08,-1.09,1009.35
14.271,-0.22,1.23,-0.05,1.05,0.90,0.15,-0.21,0.08,-1.09,1009.35
14.272,-0.22,1.23,-0.05,2.04,1.95,-0.41,-0.21,0.08,-1.09,1009.35
14.29,-0.21,1.29,-0.11,2.04,1.95,-0.41,-0.21,0.08,-1.09,1009.35
14.314,-0.21,1.29,-0.11,2.04,1.95,-0.41,-0.48,0.07,-2.13,1009.35
14.315,-0.16,1.36,-0.15,2.04,1.95,-0.41,-0.48,0.07,-2.13,1009.35
14.335,-0.16,1.36,-0.15,3.36,3.80,-0.61,-0.48,0.07,-2.13,1009.35
14.336,-0.04,1.43,-0.12,3.36,3.80,-0.61,-0.48,0.07,-2.13,1009.35
14.341,-0.04,1.43,-0.12,3.36,3.80,-0.61,-0.48,0.07,-2.13,1009.31
14.363,0.15,1.47,0.01,3.36,3.80,-0.61,-0.48,0.07,-2.13,1009.31
14.381,0.14,1.44,0.03,3.36,3.80,-0.61,-0.48,0.07,-2.13,1009.31
14.382,0.14,1.44,0.03,3.36,3.80,-0.61,-0.48,0.07,-2.13,1009.11
14.385,0.14,1.44,0.03,3.36,3.80,-0.61,-1.19,0.29,-4.31,1009.11
14.406,0.14,1.44,0.03,6.92,8.49,-1.61,-1.19,0.29,-4.31,1009.11
14.407,-0.14,1.37,-0.00,6.92,8.49,-1.61,-1.19,0.29,-4.31,1009.11
14.407,-0.49,1.17,0.25,6.92,8.49,-1.61,-1.19,0.29,-4.31,1009.11
14.429,-0.61,1.08,0.51,6.92,8.49,-1.61,-1.19,0.29,-4.31,1009.11
14.455,-0.61,1.08,0.51,6.92,8.49,-1.61,-1.00,0.78,-4.87,1009.11
14.456,-0.87,0.44,0.10,6.92,8.49,-1.61,-1.00,0.78,-4.87,1009.11
14.461,-0.87,0.44,0.10,6.92,8.49,-1.61,-1.00,0.78,-4.87,1008.92
14.475,-1.62,0.20,0.11,6.92,8.49,-1.61,-1.00,0.78,-4.87,1008.92
14.476,-1.62,0.20,0.11,7.64,10.05,0.58,-1.00,0.78,-4.87,1008.92
14.495,-0.33,0.51,0.24,7.64,10.05,0.58,-1.00,0.78,-4.87,1008.92
14.525,-0.33,0.51,0.24,7.64,10.05,0.58,-0.57,0.49,0.72,1008.92
14.526,0.32,0.69,-0.12,7.64,10.05,0.58,-0.57,0.49,0.72,1008.92
14.542,0.32,0.69,-0.12,7.64,10.05,0.58,-0.57,0.49,0.72,1009.11
14.543,0.04,0.42,-0.11,7.64,10.05,0.58,-0.57,0.49,0.72,1009.11
14.545,-0.19,0.24,0.07,7.64,10.05,0.58,-0.57,0.49,0.72,1009.11
14.546,-0.19,0.24,0.07,-1.56,1.50,2.44,-0.57,0.49,0.72,1009.11
14.583,-0.39,0.19,-0.02,-1.56,1.50,2.44,-0.57,0.49,0.72,1009.11
14.584,-0.39,0.19,-0.02,-1.56,1.50,2.44,-0.57,0.49,0.72,1009.16
14.595,-0.22,0.30,-0.20,-1.56,1.50,2.44,-0.57,0.49,0.72,1009.16
14.596,-0.22,0.30,-0.20,-1.56,1.50,2.44,-0.33,-0.18,3.24,1009.16
14.616,-0.22,0.30,-0.20,7.73,-1.57,-0.93,-0.33,-0.18,3.24,1009.16
14.617,-0.01,0.42,-0.19,7.73,-1.57,-0.93,-0.33,-0.18,3.24,1009.16
14.629,-0.09,0.52,-0.13,7.73,-1.57,-0.93,-0.33,-0.18,3.24,1009.16
14.661,-0.09,0.52,-0.13,7.73,-1.57,-0.93,-0.33,-0.18,3.24,1009.13
14.663,-0.26,0.71,-0.26,7.73,-1.57,-0.93,-0.33,-0.18,3.24,1009.13
14.664,-0.26,0.71,-0.26,7.73,-1.57,-0.93,0.09,0.67,5.29,1009.13
14.685,-0.26,0.71,-0.26,2.25,-4.95,-1.23,0.09,0.67,5.29,1009.13
14.686,-0.36,0.88,-0.38,2.25,-4.95,-1.23,0.09,0.67,5.29,1009.13
14.687,-0.15,1.16,-0.48,2.25,-4.95,-1.23,0.09,0.67,5.29,1009.13
14.735,-0.15,1.16,-0.48,2.25,-4.95,-1.23,0.20,0.85,4.41,1009.13
14.735,-0.06,1.56,-0.54,2.25,-4.95,-1.23,0.20,0.85,4.41,1009.13
14.736,-0.56,1.60,-0.28,2.25,-4.95,-1.23,0.20,0.85,4.41,1009.13
14.742,-0.56,1.60,-0.28,2.25,-4.95,-1.23,0.20,0.85,4.41,1009.24
14.759,-0.56,1.60,-0.28,-0.72,-0.48,-2.90,0.20,0.85,4.41,1009.24
14.76,-1.01,1.56,-0.16,-0.72,-0.48,-2.90,0.20,0.85,4.41,1009.24
14.782,-0.96,1.61,-0.31,-0.72,-0.48,-2.90,0.20,0.85,4.41,1009.24
14.783,-0.96,1.61,-0.31,-0.72,-0.48,-2.90,0.20,0.85,4.41,1009.25
14.785,-1.11,1.46,-0.41,-0.72,-0.48,-2.90,0.20,0.85,4.41,1009.25
14.805,-1.11,1.46,-0.41,-0.72,-0.48,-2.90,-0.20,1.86,3.56,1009.25
14.826,-1.11,1.46,-0.41,-6.15,6.32,-2.73,-0.20,1.86,3.56,1009.25
14.827,-1.18,1.26,-0.31,-6.15,6.32,-2.73,-0.20,1.86,3.56,1009.25
14.827,-1.16,0.90,0.07,-6.15,6.32,-2.73,-0.20,1.86,3.56,1009.25
14.862,-1.05,0.94,-0.10,-6.15,6.32,-2.73,-0.20,1.86,3.56,1009.25
14.863,-1.05,0.94,-0.10,-6.15,6.32,-2.73,-0.20,1.86,3.56,1009.21
14.875,-1.05,0.94,-0.10,-6.15,6.32,-2.73,-0.07,1.89,1.34,1009.21
14.876,-1.38,0.87,-0.31,-6.15,6.32,-2.73,-0.07,1.89,1.34,1009.21
14.896,-1.52,0.46,0.00,-6.15,6.32,-2.73,-0.07,1.89,1.34,1009.21
14.897,-1.52,0.46,0.00,-11.45,3.07,-2.01,-0.07,1.89,1.34,1009.21
14.942,-1.52,0.46,0.00,-11.45,3.07,-2.01,-0.07,1.89,1.34,1009.23
14.942,-1.41,0.57,-0.09,-11.45,3.07,-2.01,-0.07,1.89,1.34,1009.23
14.943,-0.06,1.34,0.13,-11.45,3.07,-2.01,-0.07,1.89,1.34,1009.23
14.945,-0.06,1.34,0.13,-11.45,3.07,-2.01,-0.18,0.03,-2.04,1009.23
14.961,0.56,1.15,-0.08,-11.45,3.07,-2.01,-0.18,0.03,-2.04,1009.23
14.964,0.05,1.04,-0.17,-11.45,3.07,-2.01,-0.18,0.03,-2.04,1009.23
14.965,0.05,1.04,-0.17,-11.61,-2.09,-1.03,-0.18,0.03,-2.04,1009.23
14.983,0.05,1.04,-0.17,-11.61,-2.09,-1.03,-0.18,0.03,-2.04,1009.48
15.016,0.05,1.04,-0.17,-11.61,-2.09,-1.03,0.16,-0.57,-2.27,1009.48
15.017,-1.05,0.85,-0.07,-11.61,-2.09,-1.03,0.16,-0.57,-2.27,1009.48
15.018,-0.87,0.83,0.46,-11.61,-2.09,-1.03,0.16,-0.57,-2.27,1009.48
15.029,-0.75,0.99,-0.08,-11.61,-2.09,-1.03,0.16,-0.57,-2.27,1009.48
15.035,-0.75,0.99,-0.08,2.23,1.88,-0.24,0.16,-0.57,-2.27,1009.48
15.061,-0.43,1.01,-0.49,2.23,1.88,-0.24,0.16,-0.57,-2.27,1009.48
15.062,-0.43,1.01,-0.49,2.23,1.88,-0.24,0.16,-0.57,-2.27,1009.58
15.086,-0.43,0.94,-0.08,2.23,1.88,-0.24,0.16,-0.57,-2.27,1009.58
15.087,-0.43,0.94,-0.08,2.23,1.88,-0.24,-0.04,-0.32,-0.54,1009.58
15.096,-0.29,0.92,0.11,2.23,1.88,-0.24,-0.04,-0.32,-0.54,1009.58
15.105,-0.29,0.92,0.11,-5.43,0.05,-0.17,-0.04,-0.32,-0.54,1009.58
15.106,-0.33,0.91,0.16,-5.43,0.05,-0.17,-0.04,-0.32,-0.54,1009.58
15.129,-0.30,0.95,-0.01,-5.43,0.05,-0.17,-0.04,-0.32,-0.54,1009.58
15.142,-0.30,0.95,-0.01,-5.43,0.05,-0.17,-0.04,-0.32,-0.54,1009.38
15.155,-0.31,0.95,0.02,-5.43,0.05,-0.17,-0.04,-0.32,-0.54,1009.38
15.155,-0.31,0.95,0.02,-5.43,0.05,-0.17,-0.08,-0.08,-0.25,1009.38
15.178,-0.30,0.94,0.10,-5.43,0.05,-0.17,-0.08,-0.08,-0.25,1009.38
15.179,-0.30,0.94,0.10,-0.32,0.36,0.33,-0.08,-0.08,-0.25,1009.38
15.183,-0.30,0.94,0.10,-0.32,0.36,0.33,-0.08,-0.08,-0.25,1009.26
15.226,-0.30,0.94,0.10,-0.32,0.36,0.33,-0.03,0.01,-0.14,1009.26
15.227,-0.31,0.96,0.00,-0.32,0.36,0.33,-0.03,0.01,-0.14,1009.26
15.228,-0.32,0.96,-0.02,-0.32,0.36,0.33,-0.03,0.01,-0.14,1009.26
15.228,-0.32,0.95,0.03,-0.32,0.36,0.33,-0.03,0.01,-0.14,1009.26
15.246,-0.32,0.95,0.03,0.10,0.51,0.40,-0.03,0.01,-0.14,1009.26
15.246,-0.32,0.94,-0.01,0.10,0.51,0.40,-0.03,0.01,-0.14,1009.26
15.261,-0.32,0.94,-0.01,0.10,0.51,0.40,-0.03,0.01,-0.14,1009.16
15.297,-0.32,0.94,-0.01,0.10,0.51,0.40,-0.09,0.07,-0.07,1009.16
15.298,-0.30,0.95,0.03,0.10,0.51,0.40,-0.09,0.07,-0.07,1009.16
15.3,-0.27,0.95,0.06,0.10,0.51,0.40,-0.09,0.07,-0.07,1009.16
15.315,-0.29,0.94,0.04,0.10,0.51,0.40,-0.09,0.07,-0.07,1009.16
15.316,-0.29,0.94,0.04,-0.00,0.53,-0.04,-0.09,0.07,-0.07,1009.16
15.342,-0.27,0.93,0.08,-0.00,0.53,-0.04,-0.09,0.07,-0.07,1009.16
15.343,-0.27,0.93,0.08,-0.00,0.53,-0.04,-0.09,0.07,-0.07,1009.12
15.361,-0.27,0.92,0.07,-0.00,0.53,-0.04,-0.09,0.07,-0.07,1009.12
15.364,-0.27,0.92,0.07,-0.00,0.53,-0.04,-0.02,0.17,-0.11,1009.12
15.382,-0.31,0.92,0.04,-0.00,0.53,-0.04,-0.02,0.17,-0.11,1009.12
15.382,-0.31,0.92,0.04,-0.00,0.53,-0.04,-0.02,0.17,-0.11,1009.17
15.386,-0.28,0.93,0.06,-0.00,0.53,-0.04,-0.02,0.17,-0.11,1009.17
15.386,-0.28,0.93,0.06,0.40,0.46,0.50,-0.02,0.17,-0.11,1009.17
15.429,-0.29,0.94,0.05,0.40,0.46,0.50,-0.02,0.17,-0.11,1009.17
15.43,-0.31,0.94,0.01,0.40,0.46,0.50,-0.02,0.17,-0.11,1009.17
15.435,-0.31,0.94,0.01,0.40,0.46,0.50,0.06,0.20,-0.15,1009.17
15.455,-0.31,0.94,0.01,0.47,0.31,0.72,0.06,0.20,-0.15,1009.17
15.456,-0.30,0.95,0.03,0.47,0.31,0.72,0.06,0.20,-0.15,1009.17
15.461,-0.30,0.95,0.03,0.47,0.31,0.72,0.06,0.20,-0.15,1009.23
15.496,-0.31,0.95,-0.00,0.47,0.31,0.72,0.06,0.20,-0.15,1009.23
15.496,-0.31,0.95,-0.02,0.47,0.31,0.72,0.06,0.20,-0.15,1009.23
15.505,-0.31,0.95,-0.02,0.47,0.31,0.72,0.03,0.27,-0.21,1009.23
15.526,-0.31,0.95,-0.02,0.48,0.55,0.46,0.03,0.27,-0.21,1009.23
15.527,-0.29,0.98,0.02,0.48,0.55,0.46,0.03,0.27,-0.21,1009.23
15.527,-0.27,1.00,-0.02,0.48,0.55,0.46,0.03,0.27,-0.21,1009.23
15.542,-0.27,1.00,-0.02,0.48,0.55,0.46,0.03,0.27,-0.21,1009.24
15.561,-0.24,1.02,-0.02,0.48,0.55,0.46,0.03,0.27,-0.21,1009.24
15.575,-0.24,1.02,-0.02,0.48,0.55,0.46,-0.11,0.31,-0.48,1009.24
15.576,-0.26,1.02,-0.04,0.48,0.55,0.46,-0.11,0.31,-0.48,1009.24
15.582,-0.26,1.02,-0.04,0.48,0.55,0.46,-0.11,0.31,-0.48,1009.25
15.596,-0.26,1.02,-0.04,0.91,1.00,0.06,-0.11,0.31,-0.48,1009.25
15.596,-0.27,1.03,-0.04,0.91,1.00,0.06,-0.11,0.31,-0.48,1009.25
15.629,-0.28,1.04,-0.01,0.91,1.00,0.06,-0.11,0.31,-0.48,1009.25
15.63,-0.23,1.11,-0.02,0.91,1.00,0.06,-0.11,0.31,-0.48,1009.25
15.646,-0.23,1.11,-0.02,0.91,1.00,0.06,-0.33,0.21,-1.03,1009.25
15.661,-0.27,1.16,-0.05,0.91,1.00,0.06,-0.33,0.21,-1.03,1009.25
15.662,-0.27,1.16,-0.05,0.91,1.00,0.06,-0.33,0.21,-1.03,1009.36
15.665,-0.27,1.23,-0.14,0.91,1.00,0.06,-0.33,0.21,-1.03,1009.36
15.665,-0.27,1.23,-0.14,1.90,1.81,-0.36,-0.33,0.21,-1.03,1009.36
15.697,-0.27,1.30,-0.15,1.90,1.81,-0.36,-0.33,0.21,-1.03,1009.36
15.716,-0.27,1.30,-0.15,1.90,1.81,-0.36,-0.81,0.13,-2.02,1009.36
15.717,-0.11,1.43,-0.14,1.90,1.81,-0.36,-0.81,0.13,-2.02,1009.36
15.735,-0.11,1.43,-0.14,3.25,3.90,-1.17,-0.81,0.13,-2.02,1009.36
15.736,0.05,1.53,-0.12,3.25,3.90,-1.17,-0.81,0.13,-2.02,1009.36
15.742,0.05,1.53,-0.12,3.25,3.90,-1.17,-0.81,0.13,-2.02,1009.34
15.763,0.15,1.52,0.01,3.25,3.90,-1.17,-0.81,0.13,-2.02,1009.34
15.782,0.02,1.43,0.02,3.25,3.90,-1.17,-0.81,0.13,-2.02,1009.34
15.783,0.02,1.43,0.02,3.25,3.90,-1.17,-0.81,0.13,-2.02,1008.96
15.785,0.02,1.43,0.02,3.25,3.90,-1.17,-1.85,0.47,-4.14,1008.96
15.805,0.02,1.43,0.02,7.00,8.86,-2.22,-1.85,0.47,-4.14,1008.96
15.807,-0.26,1.24,0.26,7.00,8.86,-2.22,-1.85,0.47,-4.14,1008.96
15.807,-0.77,1.02,0.25,7.00,8.86,-2.22,-1.85,0.47,-4.14,1008.96
15.828,-1.04,0.31,0.26,7.00,8.86,-2.22,-1.85,0.47,-4.14,1008.96
15.858,-1.04,0.31,0.26,7.00,8.86,-2.22,-1.65,1.53,-2.49,1008.96
15.86,-0.24,0.51,0.42,7.00,8.86,-2.22,-1.65,1.53,-2.49,1008.96
15.861,-0.24,0.51,0.42,7.00,8.86,-2.22,-1.65,1.53,-2.49,1008.97
15.88,-0.24,0.51,0.42,5.45,7.75,1.02,-1.65,1.53,-2.49,1008.97
15.882,0.16,0.59,-0.01,5.45,7.75,1.02,-1.65,1.53,-2.49,1008.97
15.895,-0.21,0.46,-0.26,5.45,7.75,1.02,-1.65,1.53,-2.49,1008.97
15.926,-0.21,0.46,-0.26,5.45,7.75,1.02,-0.97,1.01,1.30,1008.97
15.927,-0.16,0.39,-0.30,5.45,7.75,1.02,-0.97,1.01,1.30,1008.97
15.942,-0.15,0.36,-0.23,5.45,7.75,1.02,-0.97,1.01,1.30,1008.97
15.943,-0.15,0.36,-0.23,5.45,7.75,1.02,-0.97,1.01,1.30,1009.17
15.946,-0.31,0.34,-0.22,5.45,7.75,1.02,-0.97,1.01,1.30,1009.17
15.947,-0.31,0.34,-0.22,3.99,-1.11,0.94,-0.97,1.01,1.30,1009.17
15.982,-0.07,0.48,-0.26,3.99,-1.11,0.94,-0.97,1.01,1.30,1009.17
15.983,-0.07,0.48,-0.26,3.99,-1.11,0.94,-0.97,1.01,1.30,1009.13
15.995,-0.07,0.48,-0.26,3.99,-1.11,0.94,-0.49,0.70,3.87,1009.13
15.996,0.05,0.67,-0.32,3.99,-1.11,0.94,-0.49,0.70,3.87,1009.13
16.015,-0.14,0.80,-0.45,3.99,-1.11,0.94,-0.49,0.70,3.87,1009.13
16.016,-0.14,0.80,-0.45,3.08,-3.93,-2.62,-0.49,0.70,3.87,1009.13
16.028,-0.37,0.91,-0.54,3.08,-3.93,-2.62,-0.49,0.70,3.87,1009.13
16.062,-0.41,1.02,-0.62,3.08,-3.93,-2.62,-0.49,0.70,3.87,1009.13
16.063,-0.41,1.02,-0.62,3.08,-3.93,-2.62,-0.49,0.70,3.87,1009.21
16.065,-0.41,1.02,-0.62,3.08,-3.93,-2.62,0.33,1.67,4.12,1009.21
16.086,-0.41,1.02,-0.62,1.96,-1.98,-2.98,0.33,1.67,4.12,1009.21
16.087,-0.38,1.16,-0.69,1.96,-1.98,-2.98,0.33,1.67,4.12,1009.21
16.088,-0.34,1.27,-0.60,1.96,-1.98,-2.98,0.33,1.67,4.12,1009.21
16.129,-0.27,1.40,-0.46,1.96,-1.98,-2.98,0.33,1.67,4.12,1009.21
16.13,-0.17,1.59,-0.43,1.96,-1.98,-2.98,0.33,1.67,4.12,1009.21
16.135,-0.17,1.59,-0.43,1.96,-1.98,-2.98,0.49,1.81,3.35,1009.21
16.141,-0.17,1.59,-0.43,1.96,-1.98,-2.98,0.49,1.81,3.35,1009.22
16.156,-0.40,1.68,-0.52,1.96,-1.98,-2.98,0.49,1.81,3.35,1009.22
16.157,-0.40,1.68,-0.52,-2.70,1.90,-4.96,0.49,1.81,3.35,1009.22
16.166,-0.95,1.51,-0.59,-2.70,1.90,-4.96,0.49,1.81,3.35,1009.22
16.181,-0.95,1.51,-0.59,-2.70,1.90,-4.96,0.49,1.81,3.35,1009.24
16.205,-0.95,1.51,-0.59,-2.70,1.90,-4.96,-0.51,2.41,1.84,1009.24
16.206,-1.33,1.26,-0.56,-2.70,1.90,-4.96,-0.51,2.41,1.84,1009.24
16.226,-1.33,1.26,-0.56,-3.63,6.03,-3.82,-0.51,2.41,1.84,1009.24
16.227,-1.67,0.85,-0.27,-3.63,6.03,-3.82,-0.51,2.41,1.84,1009.24
16.227,-2.32,0.29,0.20,-3.63,6.03,-3.82,-0.51,2.41,1.84,1009.24
16.262,-1.95,0.26,0.29,-3.63,6.03,-3.82,-0.51,2.41,1.84,1009.24
16.263,-1.95,0.26,0.29,-3.63,6.03,-3.82,-0.51,2.41,1.84,1009.20
16.275,-1.95,0.26,0.29,-3.63,6.03,-3.82,0.03,0.78,0.60,1009.20
16.276,-1.01,0.74,-0.10,-3.63,6.03,-3.82,0.03,0.78,0.60,1009.20
16.297,-1.01,0.74,-0.10,-15.96,-0.53,-1.66,0.03,0.78,0.60,1009.20
16.298,-0.92,1.01,-0.12,-15.96,-0.53,-1.66,0.03,0.78,0.60,1009.20
16.342,-0.92,1.01,-0.12,-15.96,-0.53,-1.66,0.03,0.78,0.60,1009.27
16.343,0.71,0.98,-0.09,-15.96,-0.53,-1.66,0.03,0.78,0.60,1009.27
16.343,0.62,1.12,0.24,-15.96,-0.53,-1.66,0.03,0.78,0.60,1009.27
16.345,0.62,1.12,0.24,-15.96,-0.53,-1.66,-0.71,-0.48,-2.66,1009.27
16.363,-0.98,0.86,0.14,-15.96,-0.53,-1.66,-0.71,-0.48,-2.66,1009.27
16.366,-0.86,0.81,0.50,-15.96,-0.53,-1.66,-0.71,-0.48,-2.66,1009.27
16.367,-0.86,0.81,0.50,-7.77,-2.03,-0.38,-0.71,-0.48,-2.66,1009.27
16.381,-0.86,0.81,0.50,-7.77,-2.03,-0.38,-0.71,-0.48,-2.66,1009.51
16.416,-0.86,0.81,0.50,-7.77,-2.03,-0.38,0.16,-0.53,-1.09,1009.51
16.417,-0.84,0.89,0.29,-7.77,-2.03,-0.38,0.16,-0.53,-1.09,1009.51
16.418,-0.54,0.99,-0.52,-7.77,-2.03,-0.38,0.16,-0.53,-1.09,1009.51
16.428,-0.58,0.98,-0.33,-7.77,-2.03,-0.38,0.16,-0.53,-1.09,1009.51
16.436,-0.58,0.98,-0.33,0.36,0.27,3.77,0.16,-0.53,-1.09,1009.51
16.461,-0.31,0.95,0.02,0.36,0.27,3.77,0.16,-0.53,-1.09,1009.51
16.462,-0.31,0.95,0.02,0.36,0.27,3.77,0.16,-0.53,-1.09,1009.56
16.486,-0.31,0.95,0.02,0.36,0.27,3.77,-0.29,-0.14,-0.15,1009.56
16.487,-0.25,0.94,0.05,0.36,0.27,3.77,-0.29,-0.14,-0.15,1009.56
16.495,-0.28,0.93,0.08,0.36,0.27,3.77,-0.29,-0.14,-0.15,1009.56
16.505,-0.28,0.93,0.08,-3.14,0.42,-1.18,-0.29,-0.14,-0.15,1009.56
16.506,-0.27,0.93,0.08,-3.14,0.42,-1.18,-0.29,-0.14,-0.15,1009.56
16.542,-0.27,0.94,0.09,-3.14,0.42,-1.18,-0.29,-0.14,-0.15,1009.56
16.543,-0.27,0.94,0.09,-3.14,0.42,-1.18,-0.29,-0.14,-0.15,1009.37
16.556,-0.30,0.96,0.01,-3.14,0.42,-1.18,-0.29,-0.14,-0.15,1009.37
16.556,-0.30,0.96,0.01,-3.14,0.42,-1.18,-0.09,-0.06,-0.11,1009.37
16.576,-0.30,0.97,-0.02,-3.14,0.42,-1.18,-0.09,-0.06,-0.11,1009.37
16.585,-0.30,0.97,-0.02,0.15,0.26,0.82,-0.09,-0.06,-0.11,1009.37
16.585,-0.30,0.97,-0.02,0.15,0.26,0.82,-0.09,-0.06,-0.11,1009.35
16.627,-0.30,0.97,-0.02,0.15,0.26,0.82,-0.11,0.02,-0.05,1009.35
16.628,-0.29,0.97,-0.00,0.15,0.26,0.82,-0.11,0.02,-0.05,1009.35
16.628,-0.28,0.97,0.01,0.15,0.26,0.82,-0.11,0.02,-0.05,1009.35
16.629,-0.28,0.96,0.00,0.15,0.26,0.82,-0.11,0.02,-0.05,1009.35
16.646,-0.28,0.96,0.00,0.02,0.48,0.39,-0.11,0.02,-0.05,1009.35
16.647,-0.25,0.96,0.04,0.02,0.48,0.39,-0.11,0.02,-0.05,1009.35
16.664,-0.25,0.96,0.04,0.02,0.48,0.39,-0.11,0.02,-0.05,1009.24
16.696,-0.25,0.95,0.05,0.02,0.48,0.39,-0.11,0.02,-0.05,1009.24
16.697,-0.26,0.95,0.05,0.02,0.48,0.39,-0.11,0.02,-0.05,1009.24
16.697,-0.26,0.95,0.05,0.02,0.48,0.39,-0.11,0.09,-0.12,1009.24
16.716,-0.26,0.95,0.05,0.27,0.56,0.27,-0.11,0.09,-0.12,1009.24
16.717,-0.26,0.95,0.04,0.27,0.56,0.27,-0.11,0.09,-0.12,1009.24
16.742,-0.26,0.95,0.04,0.27,0.56,0.27,-0.11,0.09,-0.12,1009.17
16.743,-0.26,0.95,0.04,0.27,0.56,0.27,-0.11,0.09,-0.12,1009.17
16.763,-0.30,0.94,0.04,0.27,0.56,0.27,-0.11,0.09,-0.12,1009.17
16.766,-0.30,0.94,0.04,0.27,0.56,0.27,-0.05,0.16,-0.20,1009.17
16.784,-0.31,0.93,0.04,0.27,0.56,0.27,-0.05,0.16,-0.20,1009.17
16.785,-0.31,0.93,0.04,0.27,0.56,0.27,-0.05,0.16,-0.20,1009.14
16.785,-0.30,0.94,0.04,0.27,0.56,0.27,-0.05,0.16,-0.20,1009.14
16.786,-0.30,0.94,0.04,0.58,0.49,0.58,-0.05,0.16,-0.20,1009.14
16.829,-0.30,0.95,0.05,0.58,0.49,0.58,-0.05,0.16,-0.20,1009.14
16.83,-0.29,0.95,0.05,0.58,0.49,0.58,-0.05,0.16,-0.20,1009.14
16.835,-0.29,0.95,0.05,0.58,0.49,0.58,0.00,0.25,-0.21,1009.14
16.859,-0.30,0.94,0.05,0.58,0.49,0.58,0.00,0.25,-0.21,1009.14
16.86,-0.30,0.94,0.05,0.29,0.40,0.61,0.00,0.25,-0.21,1009.14
16.861,-0.30,0.94,0.05,0.29,0.40,0.61,0.00,0.25,-0.21,1009.13
16.895,-0.27,0.97,0.02,0.29,0.40,0.61,0.00,0.25,-0.21,1009.13
16.897,-0.29,0.98,0.00,0.29,0.40,0.61,0.00,0.25,-0.21,1009.13
16.905,-0.29,0.98,0.00,0.29,0.40,0.61,0.01,0.35,-0.34,1009.13
16.927,-0.29,0.98,0.00,0.62,0.60,0.72,0.01,0.35,-0.34,1009.13
16.928,-0.24,1.01,-0.00,0.62,0.60,0.72,0.01,0.35,-0.34,1009.13
16.929,-0.25,1.03,-0.04,0.62,0.60,0.72,0.01,0.35,-0.34,1009.13
16.942,-0.25,1.03,-0.04,0.62,0.60,0.72,0.01,0.35,-0.34,1009.15
16.963,-0.26,1.04,-0.07,0.62,0.60,0.72,0.01,0.35,-0.34,1009.15
16.981,-0.26,1.04,-0.07,0.62,0.60,0.72,-0.17,0.23,-0.77,1009.15
16.983,-0.28,1.03,-0.05,0.62,0.60,0.72,-0.17,0.23,-0.77,1009.15
16.983,-0.28,1.03,-0.05,0.62,0.60,0.72,-0.17,0.23,-0.77,1009.26
16.997,-0.33,1.00,-0.00,0.62,0.60,0.72,-0.17,0.23,-0.77,1009.26
16.998,-0.33,1.00,-0.00,1.38,1.29,0.07,-0.17,0.23,-0.77,1009.26
17.03,-0.28,1.06,0.01,1.38,1.29,0.07,-0.17,0.23,-0.77,1009.26
17.031,-0.25,1.15,-0.01,1.38,1.29,0.07,-0.17,0.23,-0.77,1009.26
17.046,-0.25,1.15,-0.01,1.38,1.29,0.07,-0.34,0.10,-1.35,1009.26
17.061,-0.25,1.15,-0.01,1.38,1.29,0.07,-0.34,0.10,-1.35,1009.32
17.062,-0.27,1.21,-0.07,1.38,1.29,0.07,-0.34,0.10,-1.35,1009.32
17.066,-0.24,1.26,-0.09,1.38,1.29,0.07,-0.34,0.10,-1.35,1009.32
17.066,-0.24,1.26,-0.09,1.84,1.83,-0.32,-0.34,0.10,-1.35,1009.32
17.096,-0.21,1.32,-0.13,1.84,1.83,-0.32,-0.34,0.10,-1.35,1009.32
17.117,-0.21,1.32,-0.13,1.84,1.83,-0.32,-0.77,0.06,-2.56,1009.32
17.118,-0.08,1.39,-0.08,1.84,1.83,-0.32,-0.77,0.06,-2.56,1009.32
17.128,0.10,1.44,0.11,1.84,1.83,-0.32,-0.77,0.06,-2.56,1009.32
17.136,0.10,1.44,0.11,3.79,4.54,-0.96,-0.77,0.06,-2.56,1009.32
17.142,0.10,1.44,0.11,3.79,4.54,-0.96,-0.77,0.06,-2.56,1009.23
17.161,0.02,1.43,0.03,3.79,4.54,-0.96,-0.77,0.06,-2.56,1009.23
17.182,-0.23,1.34,0.01,3.79,4.54,-0.96,-0.77,0.06,-2.56,1009.23
17.183,-0.23,1.34,0.01,3.79,4.54,-0.96,-0.77,0.06,-2.56,1008.90
17.185,-0.23,1.34,0.01,3.79,4.54,-0.96,-1.35,0.35,-4.71,1008.90
17.207,-0.23,1.34,0.01,7.81,9.08,-0.88,-1.35,0.35,-4.71,1008.90
17.208,-0.54,1.15,0.32,7.81,9.08,-0.88,-1.35,0.35,-4.71,1008.90
17.208,-0.65,0.97,0.41,7.81,9.08,-0.88,-1.35,0.35,-4.71,1008.90
17.229,-1.24,0.03,0.12,7.81,9.08,-0.88,-1.35,0.35,-4.71,1008.90
17.274,-0.73,0.55,0.33,7.81,9.08,-0.88,-1.35,0.35,-4.71,1008.90
17.275,-0.73,0.55,0.33,7.81,9.08,-0.88,-0.84,1.00,-2.41,1008.90
17.276,-0.73,0.55,0.33,7.81,9.08,-0.88,-0.84,1.00,-2.41,1009.05
17.276,-0.73,0.55,0.33,4.38,7.43,1.73,-0.84,1.00,-2.41,1009.05
17.277,0.36,0.59,-0.04,4.38,7.43,1.73,-0.84,1.00,-2.41,1009.05
17.296,-0.04,0.45,-0.17,4.38,7.43,1.73,-0.84,1.00,-2.41,1009.05
17.327,-0.04,0.45,-0.17,4.38,7.43,1.73,-0.46,0.39,1.54,1009.05
17.328,-0.19,0.33,-0.15,4.38,7.43,1.73,-0.46,0.39,1.54,1009.05
17.342,-0.36,0.28,-0.06,4.38,7.43,1.73,-0.46,0.39,1.54,1009.05
17.343,-0.36,0.28,-0.06,4.38,7.43,1.73,-0.46,0.39,1.54,1009.15
17.346,-0.31,0.39,-0.08,4.38,7.43,1.73,-0.46,0.39,1.54,1009.15
17.346,-0.31,0.39,-0.08,3.14,-1.57,0.59,-0.46,0.39,1.54,1009.15
17.388,-0.11,0.52,-0.08,3.14,-1.57,0.59,-0.46,0.39,1.54,1009.15
17.389,-0.11,0.52,-0.08,3.14,-1.57,0.59,-0.46,0.39,1.54,1009.16
17.397,-0.11,0.52,-0.08,3.14,-1.57,0.59,-0.12,0.44,4.35,1009.16
17.397,-0.10,0.64,-0.14,3.14,-1.57,0.59,-0.12,0.44,4.35,1009.16
17.417,-0.10,0.64,-0.14,2.76,-4.28,-1.11,-0.12,0.44,4.35,1009.16
17.418,-0.13,0.80,-0.25,2.76,-4.28,-1.11,-0.12,0.44,4.35,1009.16
17.428,-0.19,0.92,-0.21,2.76,-4.28,-1.11,-0.12,0.44,4.35,1009.16
17.462,-0.19,0.92,-0.21,2.76,-4.28,-1.11,-0.12,0.44,4.35,1009.17
17.463,-0.26,1.00,-0.26,2.76,-4.28,-1.11,-0.12,0.44,4.35,1009.17
17.465,-0.26,1.00,-0.26,2.76,-4.28,-1.11,0.01,1.71,4.63,1009.17
17.488,-0.26,1.00,-0.26,1.46,-2.06,-1.10,0.01,1.71,4.63,1009.17
17.489,-0.39,1.15,-0.43,1.46,-2.06,-1.10,0.01,1.71,4.63,1009.17
17.491,-0.28,1.39,-0.50,1.46,-2.06,-1.10,0.01,1.71,4.63,1009.17
17.537,-0.28,1.39,-0.50,1.46,-2.06,-1.10,-0.09,1.57,3.32,1009.17
17.538,-0.27,1.66,-0.49,1.46,-2.06,-1.10,-0.09,1.57,3.32,1009.17
17.539,-0.45,1.68,-0.35,1.46,-2.06,-1.10,-0.09,1.57,3.32,1009.17
17.542,-0.45,1.68,-0.35,1.46,-2.06,-1.10,-0.09,1.57,3.32,1009.25
17.557,-0.80,1.71,-0.58,1.46,-2.06,-1.10,-0.09,1.57,3.32,1009.25
17.558,-0.80,1.71,-0.58,-1.93,2.02,-3.01,-0.09,1.57,3.32,1009.25
17.566,-1.62,1.33,-0.50,-1.93,2.02,-3.01,-0.09,1.57,3.32,1009.25
17.581,-1.62,1.33,-0.50,-1.93,2.02,-3.01,-0.09,1.57,3.32,1009.22
17.606,-1.62,0.89,-0.04,-1.93,2.02,-3.01,-0.09,1.57,3.32,1009.22
17.607,-1.62,0.89,-0.04,-1.93,2.02,-3.01,-0.43,1.18,2.37,1009.22
17.626,-1.62,0.89,-0.04,-6.84,6.80,-4.36,-0.43,1.18,2.37,1009.22
17.627,-1.30,0.83,0.02,-6.84,6.80,-4.36,-0.43,1.18,2.37,1009.22
17.628,-1.81,0.52,0.03,-6.84,6.80,-4.36,-0.43,1.18,2.37,1009.22
17.661,-1.70,0.37,0.11,-6.84,6.80,-4.36,-0.43,1.18,2.37,1009.22
17.662,-1.70,0.37,0.11,-6.84,6.80,-4.36,-0.43,1.18,2.37,1009.23
17.682,-1.70,0.37,0.11,-6.84,6.80,-4.36,-0.18,0.33,0.59,1009.23
17.683,-0.96,0.69,-0.12,-6.84,6.80,-4.36,-0.18,0.33,0.59,1009.23
17.695,-1.16,0.67,-0.10,-6.84,6.80,-4.36,-0.18,0.33,0.59,1009.23
17.696,-1.16,0.67,-0.10,-15.72,-1.37,-0.18,-0.18,0.33,0.59,1009.23
17.74,0.04,1.34,0.34,-15.72,-1.37,-0.18,-0.18,0.33,0.59,1009.23
17.741,0.79,1.26,-0.14,-15.72,-1.37,-0.18,-0.18,0.33,0.59,1009.23
17.741,0.79,1.26,-0.14,-15.72,-1.37,-0.18,-0.18,0.33,0.59,1009.19
17.746,0.79,1.26,-0.14,-15.72,-1.37,-0.18,0.10,-0.93,-2.30,1009.19
17.762,-0.08,1.08,-0.20,-15.72,-1.37,-0.18,0.10,-0.93,-2.30,1009.19
17.766,-0.94,0.87,-0.16,-15.72,-1.37,-0.18,0.10,-0.93,-2.30,1009.19
17.767,-0.94,0.87,-0.16,-10.18,-3.05,0.32,0.10,-0.93,-2.30,1009.19
17.781,-0.94,0.87,-0.16,-10.18,-3.05,0.32,0.10,-0.93,-2.30,1009.52
17.817,-0.94,0.87,-0.16,-10.18,-3.05,0.32,0.17,-0.58,-1.46,1009.52
17.818,-0.63,0.86,0.25,-10.18,-3.05,0.32,0.17,-0.58,-1.46,1009.52
17.819,-0.89,0.93,-0.01,-10.18,-3.05,0.32,0.17,-0.58,-1.46,1009.52
17.83,-0.47,1.01,-0.47,-10.18,-3.05,0.32,0.17,-0.58,-1.46,1009.52
17.838,-0.47,1.01,-0.47,3.27,2.42,-0.29,0.17,-0.58,-1.46,1009.52
17.869,-0.43,0.95,-0.20,3.27,2.42,-0.29,0.17,-0.58,-1.46,1009.52
17.87,-0.43,0.95,-0.20,3.27,2.42,-0.29,0.17,-0.58,-1.46,1009.58
17.886,-0.43,0.95,-0.20,3.27,2.42,-0.29,-0.28,-0.19,-0.32,1009.58
17.887,-0.27,0.91,0.16,3.27,2.42,-0.29,-0.28,-0.19,-0.32,1009.58
17.896,-0.29,0.91,0.13,3.27,2.42,-0.29,-0.28,-0.19,-0.32,1009.58
17.919,-0.32,0.92,0.05,3.27,2.42,-0.29,-0.28,-0.19,-0.32,1009.58
17.92,-0.32,0.92,0.05,-3.65,0.21,-0.85,-0.28,-0.19,-0.32,1009.58
17.941,-0.31,0.93,0.05,-3.65,0.21,-0.85,-0.28,-0.19,-0.32,1009.58
17.942,-0.31,0.93,0.05,-3.65,0.21,-0.85,-0.28,-0.19,-0.32,1009.32
17.957,-0.29,0.95,0.09,-3.65,0.21,-0.85,-0.28,-0.19,-0.32,1009.32
17.958,-0.29,0.95,0.09,-3.65,0.21,-0.85,-0.04,-0.09,-0.20,1009.32
17.977,-0.33,0.96,-0.02,-3.65,0.21,-0.85,-0.04,-0.09,-0.20,1009.32
17.978,-0.33,0.96,-0.02,-0.19,-0.01,1.06,-0.04,-0.09,-0.20,1009.32
17.981,-0.33,0.96,-0.02,-0.19,-0.01,1.06,-0.04,-0.09,-0.20,1009.28
18.028,-0.33,0.96,-0.05,-0.19,-0.01,1.06,-0.04,-0.09,-0.20,1009.28
18.029,-0.33,0.96,-0.01,-0.19,-0.01,1.06,-0.04,-0.09,-0.20,1009.28
18.029,-0.33,0.96,-0.01,-0.19,-0.01,1.06,-0.06,0.02,-0.10,1009.28
18.03,-0.32,0.96,0.01,-0.19,-0.01,1.06,-0.06,0.02,-0.10,1009.28
18.047,-0.30,0.96,0.00,-0.19,-0.01,1.06,-0.06,0.02,-0.10,1009.28
18.048,-0.30,0.96,0.00,-0.24,0.35,0.38,-0.06,0.02,-0.10,1009.28
18.061,-0.30,0.96,0.00,-0.24,0.35,0.38,-0.06,0.02,-0.10,1009.18
18.095,-0.28,0.95,0.04,-0.24,0.35,0.38,-0.06,0.02,-0.10,1009.18
18.096,-0.28,0.94,0.04,-0.24,0.35,0.38,-0.06,0.02,-0.10,1009.18
18.097,-0.28,0.94,0.04,-0.24,0.35,0.38,-0.09,0.08,-0.07,1009.18
18.117,-0.30,0.93,0.05,-0.24,0.35,0.38,-0.09,0.08,-0.07,1009.18
18.118,-0.30,0.93,0.05,-0.24,0.42,0.08,-0.09,0.08,-0.07,1009.18
18.127,-0.28,0.93,0.04,-0.24,0.42,0.08,-0.09,0.08,-0.07,1009.18
18.142,-0.28,0.93,0.04,-0.24,0.42,0.08,-0.09,0.08,-0.07,1009.11
18.162,-0.30,0.93,0.03,-0.24,0.42,0.08,-0.09,0.08,-0.07,1009.11
18.166,-0.30,0.93,0.03,-0.24,0.42,0.08,-0.04,0.14,-0.12,1009.11
18.181,-0.31,0.93,0.02,-0.24,0.42,0.08,-0.04,0.14,-0.12,1009.11
18.183,-0.31,0.93,0.02,-0.24,0.42,0.08,-0.04,0.14,-0.12,1009.15
18.186,-0.32,0.93,0.02,-0.24,0.42,0.08,-0.04,0.14,-0.12,1009.15
18.186,-0.32,0.93,0.02,0.16,0.25,0.52,-0.04,0.14,-0.12,1009.15
18.229,-0.31,0.94,0.05,0.16,0.25,0.52,-0.04,0.14,-0.12,1009.15
18.23,-0.29,0.95,0.03,0.16,0.25,0.52,-0.04,0.14,-0.12,1009.15
18.237,-0.29,0.95,0.03,0.16,0.25,0.52,-0.00,0.16,-0.12,1009.15
18.264,-0.29,0.95,0.03,0.03,0.18,0.41,-0.00,0.16,-0.12,1009.15
18.265,-0.32,0.95,0.00,0.03,0.18,0.41,-0.00,0.16,-0.12,1009.15
18.266,-0.32,0.95,0.00,0.03,0.18,0.41,-0.00,0.16,-0.12,1009.20
18.295,-0.31,0.95,0.01,0.03,0.18,0.41,-0.00,0.16,-0.12,1009.20
18.296,-0.31,0.96,-0.00,0.03,0.18,0.41,-0.00,0.16,-0.12,1009.20
18.306,-0.31,0.96,-0.00,0.03,0.18,0.41,-0.01,0.25,-0.18,1009.20
18.327,-0.31,0.96,-0.00,0.18,0.40,0.44,-0.01,0.25,-0.18,1009.20
18.328,-0.29,0.97,0.01,0.18,0.40,0.44,-0.01,0.25,-0.18,1009.20
18.329,-0.29,0.98,-0.02,0.18,0.40,0.44,-0.01,0.25,-0.18,1009.20
18.342,-0.29,0.98,-0.02,0.18,0.40,0.44,-0.01,0.25,-0.18,1009.18
18.362,-0.26,1.00,-0.01,0.18,0.40,0.44,-0.01,0.25,-0.18,1009.18
18.383,-0.26,1.01,0.02,0.18,0.40,0.44,-0.01,0.25,-0.18,1009.18
18.384,-0.26,1.01,0.02,0.18,0.40,0.44,-0.08,0.23,-0.44,1009.18
18.385,-0.26,1.01,0.02,0.18,0.40,0.44,-0.08,0.23,-0.44,1009.21
18.405,-0.26,1.01,0.02,0.57,0.73,0.13,-0.08,0.23,-0.44,1009.21
18.407,-0.26,1.03,-0.02,0.57,0.73,0.13,-0.08,0.23,-0.44,1009.21
18.428,-0.28,1.04,-0.02,0.57,0.73,0.13,-0.08,0.23,-0.44,1009.21
18.43,-0.29,1.05,-0.01,0.57,0.73,0.13,-0.08,0.23,-0.44,1009.21
18.446,-0.29,1.05,-0.01,0.57,0.73,0.13,-0.24,0.19,-0.95,1009.21
18.461,-0.29,1.08,-0.01,0.57,0.73,0.13,-0.24,0.19,-0.95,1009.21
18.463,-0.29,1.08,-0.01,0.57,0.73,0.13,-0.24,0.19,-0.95,1009.29
18.466,-0.28,1.16,-0.09,0.57,0.73,0.13,-0.24,0.19,-0.95,1009.29
18.467,-0.28,1.16,-0.09,1.59,1.50,-0.04,-0.24,0.19,-0.95,1009.29
18.486,-0.26,1.21,-0.05,1.59,1.50,-0.04,-0.24,0.19,-0.95,1009.29
18.517,-0.26,1.21,-0.05,1.59,1.50,-0.04,-0.56,0.16,-1.75,1009.29
18.518,-0.26,1.27,-0.17,1.59,1.50,-0.04,-0.56,0.16,-1.75,1009.29
18.537,-0.26,1.27,-0.17,2.50,2.86,-0.65,-0.56,0.16,-1.75,1009.29
18.539,-0.19,1.33,-0.16,2.50,2.86,-0.65,-0.56,0.16,-1.75,1009.29
18.542,-0.19,1.33,-0.16,2.50,2.86,-0.65,-0.56,0.16,-1.75,1009.34
18.562,-0.03,1.40,-0.08,2.50,2.86,-0.65,-0.56,0.16,-1.75,1009.34
18.581,0.03,1.41,0.00,2.50,2.86,-0.65,-0.56,0.16,-1.75,1009.34
18.582,0.03,1.41,0.00,2.50,2.86,-0.65,-0.56,0.16,-1.75,1009.04
18.586,0.03,1.41,0.00,2.50,2.86,-0.65,-1.40,0.22,-3.42,1009.04
18.607,0.03,1.41,0.00,5.10,6.53,-2.17,-1.40,0.22,-3.42,1009.04
18.608,-0.07,1.37,0.01,5.10,6.53,-2.17,-1.40,0.22,-3.42,1009.04
18.608,-0.34,1.18,0.27,5.10,6.53,-2.17,-1.40,0.22,-3.42,1009.04
18.629,-0.58,1.04,0.44,5.10,6.53,-2.17,-1.40,0.22,-3.42,1009.04
18.658,-0.58,1.04,0.44,5.10,6.53,-2.17,-1.46,0.75,-4.23,1009.04
18.659,-0.93,0.68,0.20,5.10,6.53,-2.17,-1.46,0.75,-4.23,1009.04
18.666,-0.93,0.68,0.20,5.10,6.53,-2.17,-1.46,0.75,-4.23,1008.93
18.689,-0.93,0.68,0.20,7.17,8.58,-0.10,-1.46,0.75,-4.23,1008.93
18.696,-0.90,0.12,0.37,7.17,8.58,-0.10,-1.46,0.75,-4.23,1008.93
18.696,-0.25,0.56,0.20,7.17,8.58,-0.10,-1.46,0.75,-4.23,1008.93
18.727,0.12,0.56,-0.18,7.17,8.58,-0.10,-1.46,0.75,-4.23,1008.93
18.729,0.12,0.56,-0.18,7.17,8.58,-0.10,-0.97,1.32,0.37,1008.93
18.742,-0.24,0.41,-0.21,7.17,8.58,-0.10,-0.97,1.32,0.37,1008.93
18.743,-0.24,0.41,-0.21,7.17,8.58,-0.10,-0.97,1.32,0.37,1009.17
18.746,-0.23,0.37,-0.16,7.17,8.58,-0.10,-0.97,1.32,0.37,1009.17
18.747,-0.23,0.37,-0.16,0.43,0.88,2.46,-0.97,1.32,0.37,1009.17
18.782,-0.30,0.36,-0.16,0.43,0.88,2.46,-0.97,1.32,0.37,1009.17
18.783,-0.30,0.36,-0.16,0.43,0.88,2.46,-0.97,1.32,0.37,1009.20
18.805,-0.30,0.36,-0.16,0.43,0.88,2.46,-0.68,0.35,2.99,1009.20
18.806,-0.16,0.47,-0.23,0.43,0.88,2.46,-0.68,0.35,2.99,1009.20
18.817,-0.16,0.47,-0.23,5.39,-2.30,-1.72,-0.68,0.35,2.99,1009.20
18.818,-0.00,0.60,-0.20,5.39,-2.30,-1.72,-0.68,0.35,2.99,1009.20
18.828,-0.13,0.73,-0.29,5.39,-2.30,-1.72,-0.68,0.35,2.99,1009.20
18.865,-0.35,0.85,-0.46,5.39,-2.30,-1.72,-0.68,0.35,2.99,1009.20
18.867,-0.35,0.85,-0.46,5.39,-2.30,-1.72,-0.68,0.35,2.99,1009.19
18.867,-0.35,0.85,-0.46,5.39,-2.30,-1.72,-0.34,1.69,4.19,1009.19
18.891,-0.35,0.85,-0.46,2.64,-3.35,-1.84,-0.34,1.69,4.19,1009.19
18.893,-0.38,0.93,-0.49,2.64,-3.35,-1.84,-0.34,1.69,4.19,1009.19
18.895,-0.34,1.04,-0.55,2.64,-3.35,-1.84,-0.34,1.69,4.19,1009.19
18.937,-0.34,1.04,-0.55,2.64,-3.35,-1.84,-0.06,2.13,3.94,1009.19
18.939,-0.34,1.17,-0.57,2.64,-3.35,-1.84,-0.06,2.13,3.94,1009.19
18.939,-0.30,1.31,-0.54,2.64,-3.35,-1.84,-0.06,2.13,3.94,1009.19
18.941,-0.30,1.31,-0.54,2.64,-3.35,-1.84,-0.06,2.13,3.94,1009.23
18.957,-0.26,1.47,-0.48,2.64,-3.35,-1.84,-0.06,2.13,3.94,1009.23
18.958,-0.26,1.47,-0.48,-1.42,-0.09,-4.12,-0.06,2.13,3.94,1009.23
18.981,-0.38,1.54,-0.44,-1.42,-0.09,-4.12,-0.06,2.13,3.94,1009.23
18.983,-0.38,1.54,-0.44,-1.42,-0.09,-4.12,-0.06,2.13,3.94,1009.26
18.986,-0.66,1.55,-0.58,-1.42,-0.09,-4.12,-0.06,2.13,3.94,1009.26
19.007,-0.66,1.55,-0.58,-1.42,-0.09,-4.12,-0.65,2.48,2.33,1009.26
19.028,-0.66,1.55,-0.58,-2.47,3.90,-4.75,-0.65,2.48,2.33,1009.26
19.029,-1.10,1.40,-0.75,-2.47,3.90,-4.75,-0.65,2.48,2.33,1009.26
19.03,-1.36,1.11,-0.62,-2.47,3.90,-4.75,-0.65,2.48,2.33,1009.26
19.067,-1.60,0.62,0.09,-2.47,3.90,-4.75,-0.65,2.48,2.33,1009.26
19.074,-1.60,0.62,0.09,-2.47,3.90,-4.75,-0.65,2.48,2.33,1009.16
19.089,-1.60,0.62,0.09,-2.47,3.90,-4.75,-0.16,1.89,1.77,1009.16
19.09,-1.45,0.41,0.32,-2.47,3.90,-4.75,-0.16,1.89,1.77,1009.16
19.096,-1.49,0.80,-0.35,-2.47,3.90,-4.75,-0.16,1.89,1.77,1009.16
19.097,-1.49,0.80,-0.35,-9.59,4.17,-5.74,-0.16,1.89,1.77,1009.16
19.127,-0.87,0.66,0.01,-9.59,4.17,-5.74,-0.16,1.89,1.77,1009.16
19.128,-1.44,0.46,0.06,-9.59,4.17,-5.74,-0.16,1.89,1.77,1009.16
19.142,-1.44,0.46,0.06,-9.59,4.17,-5.74,-0.16,1.89,1.77,1009.25
19.147,-1.44,0.46,0.06,-9.59,4.17,-5.74,-0.30,0.39,-1.11,1009.25
19.161,0.17,1.54,0.18,-9.59,4.17,-5.74,-0.30,0.39,-1.11,1009.25
19.167,0.56,1.24,-0.01,-9.59,4.17,-5.74,-0.30,0.39,-1.11,1009.25
19.167,0.56,1.24,-0.01,-12.67,-3.13,0.35,-0.30,0.39,-1.11,1009.25
19.184,0.56,1.24,-0.01,-12.67,-3.13,0.35,-0.30,0.39,-1.11,1009.47
19.217,0.56,1.24,-0.01,-12.67,-3.13,0.35,0.18,-0.79,-2.22,1009.47
19.218,-0.21,0.97,-0.14,-12.67,-3.13,0.35,0.18,-0.79,-2.22,1009.47
19.219,-0.80,0.89,-0.18,-12.67,-3.13,0.35,0.18,-0.79,-2.22,1009.47
19.228,-0.70,0.84,0.22,-12.67,-3.13,0.35,0.18,-0.79,-2.22,1009.47
19.238,-0.70,0.84,0.22,-0.79,0.84,1.07,0.18,-0.79,-2.22,1009.47
19.27,-0.81,0.94,-0.07,-0.79,0.84,1.07,0.18,-0.79,-2.22,1009.47
19.271,-0.81,0.94,-0.07,-0.79,0.84,1.07,0.18,-0.79,-2.22,1009.53
19.287,-0.81,0.94,-0.07,-0.79,0.84,1.07,0.15,-0.43,-0.69,1009.53
19.288,-0.40,0.99,-0.14,-0.79,0.84,1.07,0.15,-0.43,-0.69,1009.53
19.3,-0.38,0.94,-0.19,-0.79,0.84,1.07,0.15,-0.43,-0.69,1009.53
19.307,-0.38,0.94,-0.19,-3.17,-0.14,0.41,0.15,-0.43,-0.69,1009.53
19.307,-0.35,0.90,0.04,-3.17,-0.14,0.41,0.15,-0.43,-0.69,1009.53
19.343,-0.30,0.93,0.04,-3.17,-0.14,0.41,0.15,-0.43,-0.69,1009.53
19.344,-0.30,0.93,0.04,-3.17,-0.14,0.41,0.15,-0.43,-0.69,1009.41
19.358,-0.30,0.93,0.04,-3.17,-0.14,0.41,-0.07,-0.13,-0.26,1009.41
19.358,-0.36,0.94,-0.03,-3.17,-0.14,0.41,-0.07,-0.13,-0.26,1009.41
19.385,-0.34,0.94,0.01,-3.17,-0.14,0.41,-0.07,-0.13,-0.26,1009.41
19.386,-0.34,0.94,0.01,-1.25,0.30,-1.16,-0.07,-0.13,-0.26,1009.41
19.387,-0.34,0.94,0.01,-1.25,0.30,-1.16,-0.07,-0.13,-0.26,1009.35
19.427,-0.34,0.94,0.01,-1.25,0.30,-1.16,0.01,-0.03,-0.16,1009.35
19.428,-0.30,0.95,0.07,-1.25,0.30,-1.16,0.01,-0.03,-0.16,1009.35
19.429,-0.32,0.96,0.01,-1.25,0.30,-1.16,0.01,-0.03,-0.16,1009.35
19.43,-0.34,0.95,-0.03,-1.25,0.30,-1.16,0.01,-0.03,-0.16,1009.35
19.447,-0.33,0.95,-0.01,-1.25,0.30,-1.16,0.01,-0.03,-0.16,1009.35
19.448,-0.33,0.95,-0.01,-0.14,0.29,0.40,0.01,-0.03,-0.16,1009.35
19.462,-0.33,0.95,-0.01,-0.14,0.29,0.40,0.01,-0.03,-0.16,1009.33
19.501,-0.34,0.94,-0.03,-0.14,0.29,0.40,0.01,-0.03,-0.16,1009.33
19.503,-0.33,0.94,-0.01,-0.14,0.29,0.40,0.01,-0.03,-0.16,1009.33
19.503,-0.33,0.94,-0.01,-0.14,0.29,0.40,-0.02,0.06,-0.07,1009.33
19.525,-0.33,0.94,-0.01,-0.09,0.45,0.25,-0.02,0.06,-0.07,1009.33
19.526,-0.30,0.93,0.03,-0.09,0.45,0.25,-0.02,0.06,-0.07,1009.33
19.541,-0.31,0.93,0.01,-0.09,0.45,0.25,-0.02,0.06,-0.07,1009.33
19.543,-0.31,0.93,0.01,-0.09,0.45,0.25,-0.02,0.06,-0.07,1009.23
19.57,-0.32,0.92,0.01,-0.09,0.45,0.25,-0.02,0.06,-0.07,1009.23
19.571,-0.32,0.92,0.01,-0.09,0.45,0.25,0.01,0.12,-0.05,1009.23
19.593,-0.31,0.92,0.01,-0.09,0.45,0.25,0.01,0.12,-0.05,1009.23
19.594,-0.31,0.92,0.01,-0.09,0.45,0.25,0.01,0.12,-0.05,1009.20
19.594,-0.32,0.92,0.01,-0.09,0.45,0.25,0.01,0.12,-0.05,1009.20
19.595,-0.32,0.92,0.01,-0.06,0.28,0.27,0.01,0.12,-0.05,1009.20
19.629,-0.31,0.93,0.00,-0.06,0.28,0.27,0.01,0.12,-0.05,1009.20
19.63,-0.30,0.94,0.00,-0.06,0.28,0.27,0.01,0.12,-0.05,1009.20
19.638,-0.30,0.94,0.00,-0.06,0.28,0.27,0.04,0.14,-0.06,1009.20
19.657,-0.31,0.94,-0.01,-0.06,0.28,0.27,0.04,0.14,-0.06,1009.20
19.658,-0.31,0.94,-0.01,0.09,0.14,0.41,0.04,0.14,-0.06,1009.20
19.662,-0.31,0.94,-0.01,0.09,0.14,0.41,0.04,0.14,-0.06,1009.24
19.695,-0.31,0.94,-0.01,0.09,0.14,0.41,0.04,0.14,-0.06,1009.24
19.696,-0.29,0.95,0.01,0.09,0.14,0.41,0.04,0.14,-0.06,1009.24
19.706,-0.29,0.95,0.01,0.09,0.14,0.41,0.08,0.18,-0.14,1009.24
19.727,-0.25,0.97,0.02,0.09,0.14,0.41,0.08,0.18,-0.14,1009.24
19.728,-0.25,0.99,-0.00,0.09,0.14,0.41,0.08,0.18,-0.14,1009.24
19.729,-0.25,0.99,-0.00,0.29,0.32,0.43,0.08,0.18,-0.14,1009.24
19.741,-0.25,0.99,-0.00,0.29,0.32,0.43,0.08,0.18,-0.14,1009.27
19.771,-0.29,1.00,-0.03,0.29,0.32,0.43,0.08,0.18,-0.14,1009.27
19.791,-0.29,1.00,-0.03,0.29,0.32,0.43,0.13,0.40,-0.43,1009.27
19.791,-0.28,1.02,-0.02,0.29,0.32,0.43,0.13,0.40,-0.43,1009.27
19.792,-0.28,1.02,-0.02,0.29,0.32,0.43,0.13,0.40,-0.43,1009.13
19.798,-0.27,1.04,-0.06,0.29,0.32,0.43,0.13,0.40,-0.43,1009.13
19.799,-0.27,1.04,-0.06,0.91,0.76,0.67,0.13,0.40,-0.43,1009.13
19.83,-0.23,1.16,-0.23,0.91,0.76,0.67,0.13,0.40,-0.43,1009.13
19.831,-0.23,1.19,-0.36,0.91,0.76,0.67,0.13,0.40,-0.43,1009.13
19.847,-0.23,1.19,-0.36,0.91,0.76,0.67,-0.23,0.37,-1.05,1009.13
19.848,-0.20,1.27,-0.13,0.91,0.76,0.67,-0.23,0.37,-1.05,1009.13
19.862,-0.20,1.27,-0.13,0.91,0.76,0.67,-0.23,0.37,-1.05,1009.11
19.867,-0.20,1.27,-0.13,1.70,1.74,-0.08,-0.23,0.37,-1.05,1009.11
19.868,-0.17,1.34,-0.10,1.70,1.74,-0.08,-0.23,0.37,-1.05,1009.11
19.895,-0.21,1.39,-0.32,1.70,1.74,-0.08,-0.23,0.37,-1.05,1009.11
19.917,-0.21,1.39,-0.32,1.70,1.74,-0.08,-0.84,-0.01,-2.41,1009.11
19.919,-0.14,1.43,-0.27,1.70,1.74,-0.08,-0.84,-0.01,-2.41,1009.11
19.938,0.09,1.45,-0.09,1.70,1.74,-0.08,-0.84,-0.01,-2.41,1009.11
19.939,0.09,1.45,-0.09,3.96,4.92,-2.22,-0.84,-0.01,-2.41,1009.11
19.941,0.09,1.45,-0.09,3.96,4.92,-2.22,-0.84,-0.01,-2.41,1009.13
19.97,0.11,1.44,-0.09,3.96,4.92,-2.22,-0.84,-0.01,-2.41,1009.13
19.997,0.04,1.37,-0.02,3.96,4.92,-2.22,-0.84,-0.01,-2.41,1009.13
19.998,0.04,1.37,-0.02,3.96,4.92,-2.22,-0.84,-0.01,-2.41,1008.87
19.999,0.04,1.37,-0.02,3.96,4.92,-2.22,-1.48,0.08,-4.57,1008.87
20.008,0.04,1.37,-0.02,7.43,8.96,-2.56,-1.48,0.08,-4.57,1008.87
20.008,-0.35,1.13,0.32,7.43,8.96,-2.56,-1.48,0.08,-4.57,1008.87
20.009,-0.59,0.97,0.52,7.43,8.96,-2.56,-1.48,0.08,-4.57,1008.87
20.029,-1.14,0.10,0.14,7.43,8.96,-2.56,-1.48,0.08,-4.57,1008.87
20.058,-0.87,0.57,0.10,7.43,8.96,-2.56,-1.48,0.08,-4.57,1008.87
20.06,-0.87,0.57,0.10,7.43,8.96,-2.56,-0.90,0.94,-2.67,1008.87
20.061,-0.87,0.57,0.10,7.43,8.96,-2.56,-0.90,0.94,-2.67,1009.06
20.078,0.36,0.62,0.05,7.43,8.96,-2.56,-0.90,0.94,-2.67,1009.06
20.079,0.36,0.62,0.05,5.84,7.16,1.97,-0.90,0.94,-2.67,1009.06
20.095,0.14,0.51,-0.13,5.84,7.16,1.97,-0.90,0.94,-2.67,1009.06
20.128,0.14,0.51,-0.13,5.84,7.16,1.97,-0.68,0.64,1.34,1009.06
20.129,-0.07,0.38,-0.17,5.84,7.16,1.97,-0.68,0.64,1.34,1009.06
20.129,-0.18,0.32,-0.10,5.84,7.16,1.97,-0.68,0.64,1.34,1009.06
20.142,-0.18,0.32,-0.10,5.84,7.16,1.97,-0.68,0.64,1.34,1009.21
