time,gFx,gFy,gFz,ax,ay,az,wx,wy,wz,P
0.001,0.01,0.98,0.12,0.01,-0.01,-0.01,-0.02,0.01,0.00,1009.25
0.023,0.01,0.98,0.12,0.01,-0.01,-0.01,-0.02,0.02,0.00,1009.25
0.024,0.01,0.98,0.12,0.01,-0.01,-0.01,-0.02,0.02,0.00,1009.25
0.037,0.01,0.98,0.12,0.01,-0.01,-0.01,-0.02,0.02,0.00,1009.25
0.037,0.01,0.98,0.12,0.01,-0.01,-0.01,-0.02,0.02,0.00,1009.26
0.043,0.00,0.97,0.12,0.01,-0.01,-0.01,-0.02,0.02,0.00,1009.26
0.043,0.00,0.97,0.12,0.02,0.00,0.04,-0.02,0.02,0.00,1009.26
0.063,0.01,0.97,0.13,0.02,0.00,0.04,-0.02,0.02,0.00,1009.26
0.101,0.01,0.97,0.13,0.02,0.00,0.04,-0.02,0.02,0.01,1009.26
0.101,0.01,0.97,0.13,0.02,0.00,0.04,-0.02,0.02,0.01,1009.26
0.114,0.01,0.97,0.13,0.01,0.02,-0.03,-0.02,0.02,0.01,1009.26
0.114,0.01,0.97,0.13,0.01,0.02,-0.03,-0.02,0.02,0.01,1009.26
0.115,0.01,0.97,0.13,0.01,0.02,-0.03,-0.02,0.02,0.01,1009.24
0.129,0.01,0.97,0.12,0.01,0.02,-0.03,-0.02,0.02,0.01,1009.24
0.157,0.01,0.98,0.13,0.01,0.02,-0.03,-0.02,0.02,0.01,1009.24
0.157,0.01,0.98,0.13,0.01,0.02,-0.03,-0.02,0.02,0.01,1009.25
0.163,0.01,0.98,0.13,0.01,0.02,-0.03,-0.01,0.02,0.01,1009.25
0.183,0.01,0.98,0.13,0.02,-0.02,0.03,-0.01,0.02,0.01,1009.25
0.184,0.01,0.97,0.12,0.02,-0.02,0.03,-0.01,0.02,0.01,1009.25
0.184,0.01,0.97,0.13,0.02,-0.02,0.03,-0.01,0.02,0.01,1009.25
0.234,0.01,0.97,0.13,0.02,-0.02,0.03,-0.01,0.02,0.01,1009.25
0.235,0.01,0.97,0.13,0.02,-0.02,0.03,-0.01,0.02,0.01,1009.25
0.235,0.01,0.98,0.12,0.02,-0.02,0.03,-0.01,0.02,0.01,1009.25
0.235,0.01,0.98,0.12,0.02,-0.02,0.03,-0.01,0.02,0.01,1009.28
0.253,0.01,0.98,0.12,0.01,-0.01,-0.01,-0.01,0.02,0.01,1009.28
0.254,0.02,0.97,0.13,0.01,-0.01,-0.01,-0.01,0.02,0.01,1009.28
0.303,0.02,0.97,0.13,0.01,-0.01,-0.01,-0.04,0.02,0.02,1009.28
0.303,0.01,0.97,0.12,0.01,-0.01,-0.01,-0.04,0.02,0.02,1009.28
0.304,0.00,0.97,0.12,0.01,-0.01,-0.01,-0.04,0.02,0.02,1009.28
0.316,0.01,0.97,0.12,0.01,-0.01,-0.01,-0.04,0.02,0.02,1009.28
0.316,0.01,0.97,0.12,0.01,-0.01,-0.01,-0.04,0.02,0.02,1009.27
0.324,0.02,0.98,0.13,0.01,-0.01,-0.01,-0.04,0.02,0.02,1009.27
0.324,0.02,0.98,0.13,0.00,0.01,-0.04,-0.04,0.02,0.02,1009.27
0.356,0.01,0.98,0.13,0.00,0.01,-0.04,-0.04,0.02,0.02,1009.27
0.357,0.01,0.98,0.13,0.00,0.01,-0.04,-0.04,0.02,0.02,1009.24
0.374,0.01,0.98,0.13,0.00,0.01,-0.04,-0.03,0.02,0.03,1009.24
0.374,0.02,0.97,0.16,0.00,0.01,-0.04,-0.03,0.02,0.03,1009.24
0.396,0.01,0.97,0.14,0.00,0.01,-0.04,-0.03,0.02,0.03,1009.24
0.396,0.01,0.97,0.14,-0.03,0.01,-0.08,-0.03,0.02,0.03,1009.24
0.436,0.01,0.97,0.14,-0.03,0.01,-0.08,-0.03,0.02,0.03,1009.23
0.436,0.01,0.97,0.14,-0.03,0.01,-0.08,-0.03,0.02,0.03,1009.23
0.437,0.02,0.97,0.13,-0.03,0.01,-0.08,-0.03,0.02,0.03,1009.23
0.445,0.02,0.97,0.13,-0.03,0.01,-0.08,0.01,0.03,0.04,1009.23
0.461,0.03,0.98,0.13,-0.03,0.01,-0.08,0.01,0.03,0.04,1009.23
0.463,0.03,0.98,0.12,-0.03,0.01,-0.08,0.01,0.03,0.04,1009.23
0.463,0.03,0.98,0.12,-0.02,-0.00,0.12,0.01,0.03,0.04,1009.23
0.514,0.01,0.97,0.13,-0.02,-0.00,0.12,0.01,0.03,0.04,1009.23
0.515,0.01,0.96,0.16,-0.02,-0.00,0.12,0.01,0.03,0.04,1009.23
0.515,0.01,0.96,0.16,-0.02,-0.00,0.12,0.02,0.03,0.03,1009.23
0.516,0.01,0.96,0.16,-0.02,-0.00,0.12,0.02,0.03,0.03,1009.24
0.527,0.02,0.97,0.13,-0.02,-0.00,0.12,0.02,0.03,0.03,1009.24
0.534,0.02,0.97,0.13,0.07,0.03,0.01,0.02,0.03,0.03,1009.24
0.557,0.03,0.97,0.12,0.07,0.03,0.01,0.02,0.03,0.03,1009.24
0.557,0.03,0.97,0.12,0.07,0.03,0.01,0.02,0.03,0.03,1009.19
0.584,0.01,0.97,0.12,0.07,0.03,0.01,0.02,0.03,0.03,1009.19
0.585,0.01,0.97,0.12,0.07,0.03,0.01,0.04,0.04,0.05,1009.19
0.594,0.03,0.98,0.13,0.07,0.03,0.01,0.04,0.04,0.05,1009.19
0.604,0.02,0.97,0.14,0.07,0.03,0.01,0.04,0.04,0.05,1009.19
0.605,0.02,0.97,0.14,-0.04,-0.06,0.12,0.04,0.04,0.05,1009.19
0.636,0.02,0.97,0.14,-0.04,-0.06,0.12,0.04,0.04,0.05,1009.19
0.637,0.02,0.97,0.14,-0.04,-0.06,0.12,0.04,0.04,0.05,1009.24
0.653,0.02,0.97,0.14,-0.04,-0.06,0.12,0.12,0.02,0.06,1009.24
0.654,0.02,0.98,0.14,-0.04,-0.06,0.12,0.12,0.02,0.06,1009.24
0.674,0.03,0.98,0.13,-0.04,-0.06,0.12,0.12,0.02,0.06,1009.24
0.675,0.03,0.98,0.13,-0.04,-0.01,0.15,0.12,0.02,0.06,1009.24
0.717,0.03,0.97,0.13,-0.04,-0.01,0.15,0.12,0.02,0.06,1009.24
0.719,0.03,0.98,0.12,-0.04,-0.01,0.15,0.12,0.02,0.06,1009.24
0.72,0.03,0.98,0.12,-0.04,-0.01,0.15,0.12,0.02,0.06,1009.26
0.723,0.03,0.98,0.12,-0.04,-0.01,0.15,0.21,0.02,0.08,1009.26
0.728,0.04,0.98,0.12,-0.04,-0.01,0.15,0.21,0.02,0.08,1009.26
0.746,0.03,0.98,0.10,-0.04,-0.01,0.15,0.21,0.02,0.08,1009.26
0.747,0.03,0.98,0.10,-0.06,-0.02,0.30,0.21,0.02,0.08,1009.26
0.756,0.03,0.98,0.10,-0.06,-0.02,0.30,0.21,0.02,0.08,1009.25
0.795,0.03,0.98,0.10,-0.06,-0.02,0.30,0.25,-0.01,0.08,1009.25
0.796,0.04,0.97,0.10,-0.06,-0.02,0.30,0.25,-0.01,0.08,1009.25
0.797,0.04,0.99,0.06,-0.06,-0.02,0.30,0.25,-0.01,0.08,1009.25
0.814,0.04,0.99,0.06,0.00,-0.01,0.23,0.25,-0.01,0.08,1009.25
0.815,0.05,0.98,0.09,0.00,-0.01,0.23,0.25,-0.01,0.08,1009.25
0.836,0.06,0.98,0.11,0.00,-0.01,0.23,0.25,-0.01,0.08,1009.25
0.837,0.06,0.98,0.11,0.00,-0.01,0.23,0.25,-0.01,0.08,1009.19
0.861,0.04,0.99,0.09,0.00,-0.01,0.23,0.25,-0.01,0.08,1009.19
0.869,0.04,0.99,0.09,0.00,-0.01,0.23,0.31,-0.04,0.06,1009.19
0.883,0.04,0.99,0.09,0.07,0.02,0.20,0.31,-0.04,0.06,1009.19
0.884,0.06,0.98,0.11,0.07,0.02,0.20,0.31,-0.04,0.06,1009.19
0.885,0.10,0.98,0.12,0.07,0.02,0.20,0.31,-0.04,0.06,1009.19
0.916,0.08,0.98,0.11,0.07,0.02,0.20,0.31,-0.04,0.06,1009.19
0.917,0.08,0.98,0.11,0.07,0.02,0.20,0.31,-0.04,0.06,1009.09
0.927,0.07,0.98,0.08,0.07,0.02,0.20,0.31,-0.04,0.06,1009.09
0.934,0.07,0.98,0.08,0.07,0.02,0.20,0.56,-0.16,-0.06,1009.09
0.954,0.05,0.97,0.07,0.07,0.02,0.20,0.56,-0.16,-0.06,1009.09
0.955,0.05,0.97,0.07,0.28,-0.01,0.71,0.56,-0.16,-0.06,1009.09
0.955,0.05,0.97,0.07,0.28,-0.01,0.71,0.56,-0.16,-0.06,1009.03
0.995,0.01,0.95,0.08,0.28,-0.01,0.71,0.56,-0.16,-0.06,1009.03
0.997,-0.05,0.98,-0.04,0.28,-0.01,0.71,0.56,-0.16,-0.06,1009.03
1.003,-0.05,0.98,-0.04,0.28,-0.01,0.71,0.73,-0.25,-0.04,1009.03
1.024,-0.05,0.98,-0.04,0.17,-0.08,0.94,0.73,-0.25,-0.04,1009.03
1.025,-0.03,0.99,-0.08,0.17,-0.08,0.94,0.73,-0.25,-0.04,1009.03
1.026,-0.05,1.00,-0.02,0.17,-0.08,0.94,0.73,-0.25,-0.04,1009.03
1.036,-0.05,1.00,-0.02,0.17,-0.08,0.94,0.73,-0.25,-0.04,1009.10
1.071,-0.10,1.01,0.08,0.17,-0.08,0.94,0.73,-0.25,-0.04,1009.10
1.073,-0.10,1.01,0.08,0.17,-0.08,0.94,0.83,-1.17,0.26,1009.10
1.074,0.21,1.06,0.14,0.17,-0.08,0.94,0.83,-1.17,0.26,1009.10
1.095,0.49,1.09,0.10,0.17,-0.08,0.94,0.83,-1.17,0.26,1009.10
1.096,0.49,1.09,0.10,-0.76,0.08,0.43,0.83,-1.17,0.26,1009.10
1.116,0.30,1.08,-0.16,-0.76,0.08,0.43,0.83,-1.17,0.26,1009.10
1.118,0.30,1.08,-0.16,-0.76,0.08,0.43,0.83,-1.17,0.26,1008.95
1.127,0.43,1.33,-0.58,-0.76,0.08,0.43,0.83,-1.17,0.26,1008.95
1.144,0.43,1.33,-0.58,-0.76,0.08,0.43,0.38,-3.29,-0.20,1008.95
1.157,0.72,0.94,0.03,-0.76,0.08,0.43,0.38,-3.29,-0.20,1008.95
1.157,0.72,0.94,0.03,-0.76,0.08,0.43,0.38,-3.29,-0.20,1009.12
1.164,0.67,0.85,0.06,-0.76,0.08,0.43,0.38,-3.29,-0.20,1009.12
1.165,0.67,0.85,0.06,1.90,0.67,1.49,0.38,-3.29,-0.20,1009.12
1.199,0.78,0.85,-0.02,1.90,0.67,1.49,0.38,-3.29,-0.20,1009.12
1.215,0.78,0.85,-0.02,1.90,0.67,1.49,-0.36,-2.95,0.38,1009.12
1.216,0.83,0.82,-0.04,1.90,0.67,1.49,-0.36,-2.95,0.38,1009.12
1.235,0.75,0.82,-0.02,1.90,0.67,1.49,-0.36,-2.95,0.38,1009.12
1.236,0.75,0.82,-0.02,4.85,0.64,-1.09,-0.36,-2.95,0.38,1009.12
1.237,0.75,0.82,-0.02,4.85,0.64,-1.09,-0.36,-2.95,0.38,1009.15
1.261,0.60,0.82,-0.00,4.85,0.64,-1.09,-0.36,-2.95,0.38,1009.15
1.284,0.60,0.82,-0.00,4.85,0.64,-1.09,0.09,-1.15,0.89,1009.15
1.285,0.47,0.86,-0.01,4.85,0.64,-1.09,0.09,-1.15,0.89,1009.15
1.304,0.47,0.86,-0.01,5.94,-1.41,0.51,0.09,-1.15,0.89,1009.15
1.305,0.44,0.91,-0.02,5.94,-1.41,0.51,0.09,-1.15,0.89,1009.15
1.305,0.38,0.97,-0.04,5.94,-1.41,0.51,0.09,-1.15,0.89,1009.15
1.316,0.38,0.97,-0.04,5.94,-1.41,0.51,0.09,-1.15,0.89,1009.16
1.327,0.31,1.00,-0.05,5.94,-1.41,0.51,0.09,-1.15,0.89,1009.16
1.354,0.31,1.00,-0.05,5.94,-1.41,0.51,0.01,-0.37,1.33,1009.16
1.355,0.26,1.03,-0.09,5.94,-1.41,0.51,0.01,-0.37,1.33,1009.16
1.356,0.26,1.03,-0.09,5.94,-1.41,0.51,0.01,-0.37,1.33,1009.16
1.374,0.24,1.03,-0.12,5.94,-1.41,0.51,0.01,-0.37,1.33,1009.16
1.375,0.24,1.03,-0.12,1.98,-0.51,0.51,0.01,-0.37,1.33,1009.16
1.395,0.06,1.01,-0.13,1.98,-0.51,0.51,0.01,-0.37,1.33,1009.16
1.423,0.06,1.01,-0.13,1.98,-0.51,0.51,-0.11,0.01,0.92,1009.16
1.425,-0.14,0.95,-0.06,1.98,-0.51,0.51,-0.11,0.01,0.92,1009.16
1.436,-0.19,0.94,-0.05,1.98,-0.51,0.51,-0.11,0.01,0.92,1009.16
1.437,-0.19,0.94,-0.05,1.98,-0.51,0.51,-0.11,0.01,0.92,1009.24
1.443,-0.16,0.98,-0.07,1.98,-0.51,0.51,-0.11,0.01,0.92,1009.24
1.444,-0.16,0.98,-0.07,-0.55,0.83,-0.24,-0.11,0.01,0.92,1009.24
1.494,-0.16,0.98,-0.07,-0.55,0.83,-0.24,-0.03,0.41,0.66,1009.24
1.496,-0.22,1.02,-0.07,-0.55,0.83,-0.24,-0.03,0.41,0.66,1009.24
1.496,-0.38,1.01,-0.04,-0.55,0.83,-0.24,-0.03,0.41,0.66,1009.24
1.514,-0.56,0.96,0.01,-0.55,0.83,-0.24,-0.03,0.41,0.66,1009.24
1.515,-0.56,0.96,0.01,-4.58,0.37,-0.17,-0.03,0.41,0.66,1009.24
1.516,-0.56,0.96,0.01,-4.58,0.37,-0.17,-0.03,0.41,0.66,1009.16
1.527,-0.48,1.00,0.07,-4.58,0.37,-0.17,-0.03,0.41,0.66,1009.16
1.556,-0.37,1.07,0.02,-4.58,0.37,-0.17,-0.03,0.41,0.66,1009.16
1.557,-0.37,1.07,0.02,-4.58,0.37,-0.17,-0.03,0.41,0.66,1009.16
1.569,-0.37,1.07,0.02,-4.58,0.37,-0.17,-0.34,0.39,0.06,1009.16
1.584,-0.37,1.07,0.02,-6.49,0.47,0.15,-0.34,0.39,0.06,1009.16
1.585,-0.42,1.05,-0.01,-6.49,0.47,0.15,-0.34,0.39,0.06,1009.16
1.585,-0.02,1.36,-0.67,-6.49,0.47,0.15,-0.34,0.39,0.06,1009.16
1.635,-0.02,1.36,-0.67,-6.49,0.47,0.15,-0.52,-0.77,-2.14,1009.16
1.636,0.32,1.15,-0.43,-6.49,0.47,0.15,-0.52,-0.77,-2.14,1009.16
1.637,0.27,1.03,-0.06,-6.49,0.47,0.15,-0.52,-0.77,-2.14,1009.16
1.637,0.27,1.03,-0.06,-6.49,0.47,0.15,-0.52,-0.77,-2.14,1009.51
1.654,-0.32,1.01,-0.05,-6.49,0.47,0.15,-0.52,-0.77,-2.14,1009.51
1.655,-0.32,1.01,-0.05,-4.01,1.58,-1.84,-0.52,-0.77,-2.14,1009.51
1.704,-0.32,1.01,-0.05,-4.01,1.58,-1.84,-0.47,-0.15,-1.04,1009.51
1.706,-0.67,0.87,0.39,-4.01,1.58,-1.84,-0.47,-0.15,-1.04,1009.51
1.706,0.02,1.09,0.16,-4.01,1.58,-1.84,-0.47,-0.15,-1.04,1009.51
1.718,0.11,0.97,0.06,-4.01,1.58,-1.84,-0.47,-0.15,-1.04,1009.51
1.719,0.11,0.97,0.06,-4.01,1.58,-1.84,-0.47,-0.15,-1.04,1009.43
1.723,-0.04,0.92,0.08,-4.01,1.58,-1.84,-0.47,-0.15,-1.04,1009.43
1.725,-0.04,0.92,0.08,-0.78,0.52,-1.33,-0.47,-0.15,-1.04,1009.43
1.756,-0.11,0.96,-0.04,-0.78,0.52,-1.33,-0.47,-0.15,-1.04,1009.43
1.758,-0.11,0.96,-0.04,-0.78,0.52,-1.33,-0.47,-0.15,-1.04,1009.48
1.774,-0.11,0.96,-0.04,-0.78,0.52,-1.33,-0.05,-0.17,-0.56,1009.48
1.775,-0.10,1.01,-0.10,-0.78,0.52,-1.33,-0.05,-0.17,-0.56,1009.48
1.796,-0.10,1.01,-0.10,-0.90,-0.13,1.31,-0.05,-0.17,-0.56,1009.48
1.797,-0.10,1.03,-0.09,-0.90,-0.13,1.31,-0.05,-0.17,-0.56,1009.48
1.836,-0.10,1.03,-0.09,-0.90,-0.13,1.31,-0.05,-0.17,-0.56,1009.46
1.838,-0.02,1.02,0.00,-0.90,-0.13,1.31,-0.05,-0.17,-0.56,1009.46
1.838,-0.01,1.00,0.06,-0.90,-0.13,1.31,-0.05,-0.17,-0.56,1009.46
1.843,-0.01,1.00,0.06,-0.90,-0.13,1.31,-0.14,-0.03,-0.20,1009.46
1.86,0.01,0.99,0.09,-0.90,-0.13,1.31,-0.14,-0.03,-0.20,1009.46
1.87,0.01,0.99,0.08,-0.90,-0.13,1.31,-0.14,-0.03,-0.20,1009.46
1.874,0.01,0.99,0.08,-1.03,0.16,-0.95,-0.14,-0.03,-0.20,1009.46
1.914,0.01,0.99,0.08,-1.03,0.16,-0.95,0.13,0.02,-0.23,1009.46
1.916,0.00,1.01,0.02,-1.03,0.16,-0.95,0.13,0.02,-0.23,1009.46
1.917,0.04,1.01,0.05,-1.03,0.16,-0.95,0.13,0.02,-0.23,1009.46
1.918,0.04,1.01,0.05,-1.03,0.16,-0.95,0.13,0.02,-0.23,1009.30
1.927,0.02,1.00,0.03,-1.03,0.16,-0.95,0.13,0.02,-0.23,1009.30
1.934,0.02,1.00,0.03,0.09,0.11,0.49,0.13,0.02,-0.23,1009.30
1.956,-0.00,0.99,0.02,0.09,0.11,0.49,0.13,0.02,-0.23,1009.30
1.957,-0.00,0.99,0.02,0.09,0.11,0.49,0.13,0.02,-0.23,1009.15
1.985,-0.01,1.00,0.00,0.09,0.11,0.49,0.13,0.02,-0.23,1009.15
1.986,-0.01,1.00,0.00,0.09,0.11,0.49,0.24,0.08,-0.39,1009.15
1.995,-0.02,1.00,-0.02,0.09,0.11,0.49,0.24,0.08,-0.39,1009.15
2.004,-0.03,1.00,-0.02,0.09,0.11,0.49,0.24,0.08,-0.39,1009.15
2.005,-0.03,1.00,-0.02,0.53,0.18,0.30,0.24,0.08,-0.39,1009.15
2.036,-0.02,1.00,-0.03,0.53,0.18,0.30,0.24,0.08,-0.39,1009.15
2.037,-0.02,1.00,-0.03,0.53,0.18,0.30,0.24,0.08,-0.39,1009.05
2.054,-0.06,1.00,-0.06,0.53,0.18,0.30,0.24,0.08,-0.39,1009.05
2.055,-0.06,1.00,-0.06,0.53,0.18,0.30,0.18,0.13,-0.53,1009.05
2.075,-0.06,1.00,-0.06,0.56,0.13,-0.01,0.18,0.13,-0.53,1009.05
2.076,-0.06,1.02,-0.08,0.56,0.13,-0.01,0.18,0.13,-0.53,1009.05
2.116,-0.05,1.03,-0.08,0.56,0.13,-0.01,0.18,0.13,-0.53,1009.05
2.118,-0.07,1.03,-0.06,0.56,0.13,-0.01,0.18,0.13,-0.53,1009.05
2.118,-0.07,1.03,-0.06,0.56,0.13,-0.01,0.18,0.13,-0.53,1009.14
2.123,-0.07,1.03,-0.06,0.56,0.13,-0.01,0.01,0.02,-0.70,1009.14
2.127,-0.07,1.04,-0.07,0.56,0.13,-0.01,0.01,0.02,-0.70,1009.14
2.144,-0.07,1.04,-0.07,0.76,0.34,-0.52,0.01,0.02,-0.70,1009.14
2.145,-0.08,1.05,-0.07,0.76,0.34,-0.52,0.01,0.02,-0.70,1009.14
2.156,-0.08,1.05,-0.07,0.76,0.34,-0.52,0.01,0.02,-0.70,1009.22
2.196,-0.08,1.05,-0.07,0.76,0.34,-0.52,-0.10,-0.04,-0.98,1009.22
2.197,-0.07,1.06,-0.05,0.76,0.34,-0.52,-0.10,-0.04,-0.98,1009.22
2.198,-0.09,1.05,-0.04,0.76,0.34,-0.52,-0.10,-0.04,-0.98,1009.22
2.215,-0.07,1.08,-0.04,0.76,0.34,-0.52,-0.10,-0.04,-0.98,1009.22
2.217,-0.07,1.08,-0.04,1.24,0.70,-0.64,-0.10,-0.04,-0.98,1009.22
2.236,-0.06,1.13,-0.08,1.24,0.70,-0.64,-0.10,-0.04,-0.98,1009.22
2.237,-0.06,1.13,-0.08,1.24,0.70,-0.64,-0.10,-0.04,-0.98,1009.28
2.261,-0.04,1.17,-0.04,1.24,0.70,-0.64,-0.10,-0.04,-0.98,1009.28
2.263,-0.04,1.17,-0.04,1.24,0.70,-0.64,-0.21,-0.05,-1.54,1009.28
2.284,-0.04,1.17,-0.04,2.36,1.34,-0.63,-0.21,-0.05,-1.54,1009.28
2.285,0.02,1.26,-0.05,2.36,1.34,-0.63,-0.21,-0.05,-1.54,1009.28
2.285,0.17,1.40,0.00,2.36,1.34,-0.63,-0.21,-0.05,-1.54,1009.28
2.317,0.33,1.50,0.10,2.36,1.34,-0.63,-0.21,-0.05,-1.54,1009.28
2.318,0.33,1.50,0.10,2.36,1.34,-0.63,-0.21,-0.05,-1.54,1009.24
2.328,0.42,1.56,0.07,2.36,1.34,-0.63,-0.21,-0.05,-1.54,1009.24
2.334,0.42,1.56,0.07,2.36,1.34,-0.63,-0.43,0.32,-3.15,1009.24
2.355,0.49,1.57,0.17,2.36,1.34,-0.63,-0.43,0.32,-3.15,1009.24
2.355,0.49,1.57,0.17,5.64,4.21,-0.66,-0.43,0.32,-3.15,1009.24
2.356,0.49,1.57,0.17,5.64,4.21,-0.66,-0.43,0.32,-3.15,1009.24
2.396,0.16,1.58,0.15,5.64,4.21,-0.66,-0.43,0.32,-3.15,1009.24
2.398,-0.10,1.52,0.13,5.64,4.21,-0.66,-0.43,0.32,-3.15,1009.24
2.404,-0.10,1.52,0.13,5.64,4.21,-0.66,-0.56,1.13,-5.35,1009.24
2.424,-0.10,1.52,0.13,11.54,9.31,1.28,-0.56,1.13,-5.35,1009.24
2.426,-0.13,1.33,0.41,11.54,9.31,1.28,-0.56,1.13,-5.35,1009.24
2.426,-0.76,0.24,-0.15,11.54,9.31,1.28,-0.56,1.13,-5.35,1009.24
2.436,-0.76,0.24,-0.15,11.54,9.31,1.28,-0.56,1.13,-5.35,1008.82
2.461,-1.61,0.76,-0.20,11.54,9.31,1.28,-0.56,1.13,-5.35,1008.82
2.475,0.53,0.62,-0.00,11.54,9.31,1.28,-0.56,1.13,-5.35,1008.82
2.477,0.53,0.62,-0.00,11.54,9.31,1.28,-0.08,-0.34,-1.47,1008.82
2.495,0.17,0.54,-0.03,11.54,9.31,1.28,-0.08,-0.34,-1.47,1008.82
2.496,0.17,0.54,-0.03,4.68,4.89,0.67,-0.08,-0.34,-1.47,1008.82
2.517,0.23,0.37,0.14,4.68,4.89,0.67,-0.08,-0.34,-1.47,1008.82
2.518,0.23,0.37,0.14,4.68,4.89,0.67,-0.08,-0.34,-1.47,1008.90
2.527,0.21,0.27,0.16,4.68,4.89,0.67,-0.08,-0.34,-1.47,1008.90
2.544,0.21,0.27,0.16,4.68,4.89,0.67,-0.39,-0.84,1.88,1008.90
2.556,-0.02,0.26,0.01,4.68,4.89,0.67,-0.39,-0.84,1.88,1008.90
2.556,-0.02,0.26,0.01,4.68,4.89,0.67,-0.39,-0.84,1.88,1009.04
2.565,0.08,0.33,-0.09,4.68,4.89,0.67,-0.39,-0.84,1.88,1009.04
2.565,0.08,0.33,-0.09,3.81,-1.33,-1.46,-0.39,-0.84,1.88,1009.04
2.595,0.13,0.44,-0.18,3.81,-1.33,-1.46,-0.39,-0.84,1.88,1009.04
2.616,0.09,0.57,-0.26,3.81,-1.33,-1.46,-0.39,-0.84,1.88,1009.04
2.617,0.09,0.57,-0.26,3.81,-1.33,-1.46,-0.12,0.47,4.52,1009.04
2.635,0.05,0.72,-0.32,3.81,-1.33,-1.46,-0.12,0.47,4.52,1009.04
2.636,0.05,0.72,-0.32,4.30,-5.92,-0.18,-0.12,0.47,4.52,1009.04
2.636,0.05,0.72,-0.32,4.30,-5.92,-0.18,-0.12,0.47,4.52,1009.11
2.661,0.07,0.91,-0.37,4.30,-5.92,-0.18,-0.12,0.47,4.52,1009.11
2.685,0.07,0.91,-0.37,4.30,-5.92,-0.18,0.53,1.05,5.33,1009.11
2.686,0.13,1.12,-0.45,4.30,-5.92,-0.18,0.53,1.05,5.33,1009.11
2.705,0.13,1.12,-0.45,0.76,-3.27,-2.77,0.53,1.05,5.33,1009.11
2.706,0.06,1.37,-0.54,0.76,-3.27,-2.77,0.53,1.05,5.33,1009.11
2.707,0.10,1.76,-0.66,0.76,-3.27,-2.77,0.53,1.05,5.33,1009.11
2.717,0.10,1.76,-0.66,0.76,-3.27,-2.77,0.53,1.05,5.33,1009.22
2.727,-0.33,1.83,-0.40,0.76,-3.27,-2.77,0.53,1.05,5.33,1009.22
2.755,-0.33,1.83,-0.40,0.76,-3.27,-2.77,0.14,0.78,4.54,1009.22
2.756,-0.44,1.94,-0.38,0.76,-3.27,-2.77,0.14,0.78,4.54,1009.22
2.757,-0.44,1.94,-0.38,0.76,-3.27,-2.77,0.14,0.78,4.54,1009.25
2.775,-0.44,1.94,-0.38,-1.77,4.25,-5.29,0.14,0.78,4.54,1009.25
2.776,-0.06,2.99,-0.47,-1.77,4.25,-5.29,0.14,0.78,4.54,1009.25
2.795,-1.84,1.04,0.41,-1.77,4.25,-5.29,0.14,0.78,4.54,1009.25
2.825,-1.84,1.04,0.41,-1.77,4.25,-5.29,-0.02,1.37,2.40,1009.25
2.826,-1.88,1.65,0.02,-1.77,4.25,-5.29,-0.02,1.37,2.40,1009.25
2.837,-1.92,1.48,0.09,-1.77,4.25,-5.29,-0.02,1.37,2.40,1009.25
2.838,-1.92,1.48,0.09,-1.77,4.25,-5.29,-0.02,1.37,2.40,1009.28
2.844,-1.65,1.39,-0.08,-1.77,4.25,-5.29,-0.02,1.37,2.40,1009.28
2.845,-1.65,1.39,-0.08,-8.04,10.71,-2.71,-0.02,1.37,2.40,1009.28
2.895,-1.65,1.39,-0.08,-8.04,10.71,-2.71,-0.34,0.42,-3.35,1009.28
2.897,-1.06,1.08,-0.18,-8.04,10.71,-2.71,-0.34,0.42,-3.35,1009.28
2.898,0.78,1.14,0.01,-8.04,10.71,-2.71,-0.34,0.42,-3.35,1009.28
2.915,-1.04,0.96,0.02,-8.04,10.71,-2.71,-0.34,0.42,-3.35,1009.28
2.917,-1.04,0.96,0.02,-18.08,5.18,-0.59,-0.34,0.42,-3.35,1009.28
2.918,-1.04,0.96,0.02,-18.08,5.18,-0.59,-0.34,0.42,-3.35,1009.33
2.927,-1.12,0.91,0.65,-18.08,5.18,-0.59,-0.34,0.42,-3.35,1009.33
2.956,-0.19,1.14,-0.63,-18.08,5.18,-0.59,-0.34,0.42,-3.35,1009.33
2.957,-0.19,1.14,-0.63,-18.08,5.18,-0.59,-0.34,0.42,-3.35,1009.74
2.964,-0.19,1.14,-0.63,-18.08,5.18,-0.59,-0.00,-0.33,-1.26,1009.74
2.984,-0.19,1.14,-0.63,-5.42,0.39,0.49,-0.00,-0.33,-1.26,1009.74
2.986,-0.34,0.95,0.01,-5.42,0.39,0.49,-0.00,-0.33,-1.26,1009.74
2.986,-0.03,0.97,0.08,-5.42,0.39,0.49,-0.00,-0.33,-1.26,1009.74
3.035,-0.03,0.97,0.08,-5.42,0.39,0.49,-0.10,-0.13,-0.37,1009.74
3.036,-0.03,0.97,0.17,-5.42,0.39,0.49,-0.10,-0.13,-0.37,1009.74
3.036,-0.11,1.00,0.02,-5.42,0.39,0.49,-0.10,-0.13,-0.37,1009.74
3.036,-0.11,1.00,0.02,-5.42,0.39,0.49,-0.10,-0.13,-0.37,1009.44
3.055,-0.08,0.99,0.05,-5.42,0.39,0.49,-0.10,-0.13,-0.37,1009.44
3.056,-0.08,0.99,0.05,-2.53,0.49,-1.89,-0.10,-0.13,-0.37,1009.44
3.104,-0.08,0.99,0.05,-2.53,0.49,-1.89,-0.04,-0.01,-0.19,1009.44
3.105,-0.07,0.99,0.05,-2.53,0.49,-1.89,-0.04,-0.01,-0.19,1009.44
3.106,-0.05,1.01,0.05,-2.53,0.49,-1.89,-0.04,-0.01,-0.19,1009.44
3.116,-0.05,0.99,0.10,-2.53,0.49,-1.89,-0.04,-0.01,-0.19,1009.44
3.116,-0.05,0.99,0.10,-2.53,0.49,-1.89,-0.04,-0.01,-0.19,1009.32
3.126,-0.05,0.98,0.10,-2.53,0.49,-1.89,-0.04,-0.01,-0.19,1009.32
3.127,-0.05,0.98,0.10,-0.24,0.11,0.09,-0.04,-0.01,-0.19,1009.32
3.156,-0.06,0.99,0.05,-0.24,0.11,0.09,-0.04,-0.01,-0.19,1009.32
3.157,-0.06,0.99,0.05,-0.24,0.11,0.09,-0.04,-0.01,-0.19,1009.13
3.175,-0.06,0.99,0.05,-0.24,0.11,0.09,0.07,0.06,-0.17,1009.13
3.176,-0.04,0.99,0.06,-0.24,0.11,0.09,0.07,0.06,-0.17,1009.13
3.195,-0.05,0.98,0.04,-0.24,0.11,0.09,0.07,0.06,-0.17,1009.13
3.197,-0.05,0.98,0.04,0.12,0.17,0.15,0.07,0.06,-0.17,1009.13
3.236,-0.05,0.98,0.04,0.12,0.17,0.15,0.07,0.06,-0.17,1009.04
3.237,-0.06,0.97,0.06,0.12,0.17,0.15,0.07,0.06,-0.17,1009.04
3.237,-0.05,0.98,0.06,0.12,0.17,0.15,0.07,0.06,-0.17,1009.04
3.244,-0.05,0.98,0.06,0.12,0.17,0.15,0.07,0.16,-0.21,1009.04
3.261,-0.04,0.99,0.06,0.12,0.17,0.15,0.07,0.16,-0.21,1009.04
3.264,-0.06,0.98,0.05,0.12,0.17,0.15,0.07,0.16,-0.21,1009.04
3.265,-0.06,0.98,0.05,0.26,0.10,-0.03,0.07,0.16,-0.21,1009.04
3.315,-0.06,0.98,0.05,0.26,0.10,-0.03,0.03,0.22,-0.28,1009.04
3.317,-0.09,0.97,0.03,0.26,0.10,-0.03,0.03,0.22,-0.28,1009.04
3.317,-0.09,0.99,0.01,0.26,0.10,-0.03,0.03,0.22,-0.28,1009.04
3.318,-0.09,0.99,0.01,0.26,0.10,-0.03,0.03,0.22,-0.28,1009.11
3.327,-0.05,1.01,0.04,0.26,0.10,-0.03,0.03,0.22,-0.28,1009.11
3.337,-0.05,1.01,0.04,0.44,0.06,0.06,0.03,0.22,-0.28,1009.11
3.356,-0.04,1.01,0.07,0.44,0.06,0.06,0.03,0.22,-0.28,1009.11
3.357,-0.04,1.01,0.07,0.44,0.06,0.06,0.03,0.22,-0.28,1009.26
3.385,-0.04,1.01,0.07,0.44,0.06,0.06,0.02,0.17,-0.44,1009.26
3.386,-0.06,1.02,0.04,0.44,0.06,0.06,0.02,0.17,-0.44,1009.26
3.397,-0.07,1.02,0.01,0.44,0.06,0.06,0.02,0.17,-0.44,1009.26
3.405,-0.05,1.05,0.00,0.44,0.06,0.06,0.02,0.17,-0.44,1009.26
3.407,-0.05,1.05,0.00,0.63,0.21,-0.16,0.02,0.17,-0.44,1009.26
3.437,-0.03,1.08,0.01,0.63,0.21,-0.16,0.02,0.17,-0.44,1009.26
3.438,-0.03,1.08,0.01,0.63,0.21,-0.16,0.02,0.17,-0.44,1009.33
3.455,-0.03,1.08,0.01,0.63,0.21,-0.16,-0.11,0.20,-0.79,1009.33
3.456,-0.02,1.10,0.02,0.63,0.21,-0.16,-0.11,0.20,-0.79,1009.33
3.475,-0.02,1.10,0.02,1.32,0.67,-0.35,-0.11,0.20,-0.79,1009.33
3.476,-0.05,1.11,-0.01,1.32,0.67,-0.35,-0.11,0.20,-0.79,1009.33
3.517,-0.09,1.11,-0.04,1.32,0.67,-0.35,-0.11,0.20,-0.79,1009.33
3.518,-0.07,1.15,-0.06,1.32,0.67,-0.35,-0.11,0.20,-0.79,1009.33
3.519,-0.07,1.15,-0.06,1.32,0.67,-0.35,-0.11,0.20,-0.79,1009.42
3.525,-0.07,1.15,-0.06,1.32,0.67,-0.35,-0.38,0.20,-1.39,1009.42
3.528,-0.01,1.23,-0.03,1.32,0.67,-0.35,-0.38,0.20,-1.39,1009.42
3.545,0.06,1.35,-0.09,1.32,0.67,-0.35,-0.38,0.20,-1.39,1009.42
3.546,0.06,1.35,-0.09,2.55,1.63,-0.85,-0.38,0.20,-1.39,1009.42
3.555,0.06,1.35,-0.09,2.55,1.63,-0.85,-0.38,0.20,-1.39,1009.41
3.596,0.14,1.42,-0.08,2.55,1.63,-0.85,-0.38,0.20,-1.39,1009.41
3.597,0.29,1.52,-0.13,2.55,1.63,-0.85,-0.38,0.20,-1.39,1009.41
3.597,0.29,1.52,-0.13,2.55,1.63,-0.85,-1.03,0.33,-2.65,1009.41
3.615,0.29,1.52,-0.13,4.72,3.85,-2.06,-1.03,0.33,-2.65,1009.41
3.617,0.38,1.55,-0.08,4.72,3.85,-2.06,-1.03,0.33,-2.65,1009.41
3.636,0.32,1.56,0.04,4.72,3.85,-2.06,-1.03,0.33,-2.65,1009.41
3.637,0.32,1.56,0.04,4.72,3.85,-2.06,-1.03,0.33,-2.65,1009.16
3.661,0.01,1.45,0.39,4.72,3.85,-2.06,-1.03,0.33,-2.65,1009.16
3.664,0.01,1.45,0.39,4.72,3.85,-2.06,-1.60,0.86,-4.77,1009.16
3.686,0.01,1.45,0.39,10.04,8.75,-2.47,-1.60,0.86,-4.77,1009.16
3.687,-0.31,1.37,0.51,10.04,8.75,-2.47,-1.60,0.86,-4.77,1009.16
3.688,-0.64,0.94,0.37,10.04,8.75,-2.47,-1.60,0.86,-4.77,1009.16
3.716,-0.34,-0.06,0.58,10.04,8.75,-2.47,-1.60,0.86,-4.77,1009.16
3.717,-0.34,-0.06,0.58,10.04,8.75,-2.47,-1.60,0.86,-4.77,1008.76
3.727,-0.19,0.43,0.48,10.04,8.75,-2.47,-1.60,0.86,-4.77,1008.76
3.735,-0.19,0.43,0.48,10.04,8.75,-2.47,-0.95,2.01,-1.78,1008.76
3.755,-0.19,0.43,0.48,5.30,6.76,2.71,-0.95,2.01,-1.78,1008.76
3.757,0.33,0.47,-0.10,5.30,6.76,2.71,-0.95,2.01,-1.78,1008.76
3.757,0.33,0.47,-0.10,5.30,6.76,2.71,-0.95,2.01,-1.78,1008.73
3.795,-0.04,0.40,-0.34,5.30,6.76,2.71,-0.95,2.01,-1.78,1008.73
3.797,-0.13,0.30,-0.26,5.30,6.76,2.71,-0.95,2.01,-1.78,1008.73
3.804,-0.13,0.30,-0.26,5.30,6.76,2.71,-0.69,0.79,1.65,1008.73
3.825,-0.21,0.23,-0.18,5.30,6.76,2.71,-0.69,0.79,1.65,1008.73
3.826,-0.10,0.33,-0.21,5.30,6.76,2.71,-0.69,0.79,1.65,1008.73
3.827,-0.10,0.33,-0.21,5.70,-4.11,1.07,-0.69,0.79,1.65,1008.73
3.837,-0.10,0.33,-0.21,5.70,-4.11,1.07,-0.69,0.79,1.65,1009.03
3.861,0.13,0.49,-0.17,5.70,-4.11,1.07,-0.69,0.79,1.65,1009.03
3.875,0.13,0.49,-0.17,5.70,-4.11,1.07,-0.50,0.12,4.17,1009.03
3.876,0.07,0.64,-0.16,5.70,-4.11,1.07,-0.50,0.12,4.17,1009.03
3.895,-0.16,0.78,-0.26,5.70,-4.11,1.07,-0.50,0.12,4.17,1009.03
3.896,-0.16,0.78,-0.26,2.49,-5.56,-3.41,-0.50,0.12,4.17,1009.03
3.916,-0.12,0.94,-0.37,2.49,-5.56,-3.41,-0.50,0.12,4.17,1009.03
3.917,-0.12,0.94,-0.37,2.49,-5.56,-3.41,-0.50,0.12,4.17,1009.10
3.927,0.02,1.13,-0.46,2.49,-5.56,-3.41,-0.50,0.12,4.17,1009.10
3.945,0.02,1.13,-0.46,2.49,-5.56,-3.41,0.59,1.12,4.80,1009.10
3.956,-0.10,1.25,-0.51,2.49,-5.56,-3.41,0.59,1.12,4.80,1009.10
3.957,-0.10,1.25,-0.51,2.49,-5.56,-3.41,0.59,1.12,4.80,1009.21
3.965,-0.06,1.40,-0.49,2.49,-5.56,-3.41,0.59,1.12,4.80,1009.21
3.965,-0.06,1.40,-0.49,0.74,-2.70,-2.46,0.59,1.12,4.80,1009.21
3.995,0.05,1.61,-0.39,0.74,-2.70,-2.46,0.59,1.12,4.80,1009.21
4.015,0.08,1.78,-0.27,0.74,-2.70,-2.46,0.59,1.12,4.80,1009.21
4.016,0.08,1.78,-0.27,0.74,-2.70,-2.46,0.73,1.50,3.91,1009.21
4.035,0.08,1.78,-0.27,-1.74,2.69,-4.61,0.73,1.50,3.91,1009.21
4.036,-0.03,1.94,-0.37,-1.74,2.69,-4.61,0.73,1.50,3.91,1009.21
4.037,-0.03,1.94,-0.37,-1.74,2.69,-4.61,0.73,1.50,3.91,1009.25
4.061,-0.40,1.94,-0.58,-1.74,2.69,-4.61,0.73,1.50,3.91,1009.25
4.085,-1.02,1.64,-0.58,-1.74,2.69,-4.61,0.73,1.50,3.91,1009.25
4.086,-1.02,1.64,-0.58,-1.74,2.69,-4.61,-0.07,2.00,2.20,1009.25
4.106,-1.02,1.64,-0.58,-2.53,8.56,-3.77,-0.07,2.00,2.20,1009.25
4.107,-1.41,1.05,0.14,-2.53,8.56,-3.77,-0.07,2.00,2.20,1009.25
4.108,-1.62,0.66,0.56,-2.53,8.56,-3.77,-0.07,2.00,2.20,1009.25
4.116,-1.62,0.66,0.56,-2.53,8.56,-3.77,-0.07,2.00,2.20,1009.14
4.127,-1.22,1.29,-0.07,-2.53,8.56,-3.77,-0.07,2.00,2.20,1009.14
4.156,-1.22,1.29,-0.07,-2.53,8.56,-3.77,-0.00,2.76,-0.03,1009.14
4.158,-0.34,1.08,-0.09,-2.53,8.56,-3.77,-0.00,2.76,-0.03,1009.14
4.159,-0.34,1.08,-0.09,-2.53,8.56,-3.77,-0.00,2.76,-0.03,1009.27
4.175,-0.94,0.87,-0.30,-2.53,8.56,-3.77,-0.00,2.76,-0.03,1009.27
4.176,-0.94,0.87,-0.30,-13.48,2.62,-1.32,-0.00,2.76,-0.03,1009.27
4.196,-1.62,0.65,-0.19,-13.48,2.62,-1.32,-0.00,2.76,-0.03,1009.27
4.225,-1.62,0.65,-0.19,-13.48,2.62,-1.32,-0.16,0.11,-2.20,1009.27
4.227,-0.05,1.05,0.68,-13.48,2.62,-1.32,-0.16,0.11,-2.20,1009.27
4.236,1.67,1.75,-0.40,-13.48,2.62,-1.32,-0.16,0.11,-2.20,1009.27
4.236,1.67,1.75,-0.40,-13.48,2.62,-1.32,-0.16,0.11,-2.20,1009.38
4.245,1.67,1.75,-0.40,-8.79,0.59,-2.37,-0.16,0.11,-2.20,1009.38
4.246,0.06,1.07,-0.84,-8.79,0.59,-2.37,-0.16,0.11,-2.20,1009.38
4.296,0.06,1.07,-0.84,-8.79,0.59,-2.37,0.20,-0.43,-1.55,1009.38
4.297,-1.91,0.60,0.89,-8.79,0.59,-2.37,0.20,-0.43,-1.55,1009.38
4.298,0.18,1.29,-0.54,-8.79,0.59,-2.37,0.20,-0.43,-1.55,1009.38
4.315,-0.45,1.08,-0.19,-8.79,0.59,-2.37,0.20,-0.43,-1.55,1009.38
4.317,-0.45,1.08,-0.19,3.08,2.15,-2.27,0.20,-0.43,-1.55,1009.38
4.317,-0.45,1.08,-0.19,3.08,2.15,-2.27,0.20,-0.43,-1.55,1009.73
4.327,-0.14,0.99,0.04,3.08,2.15,-2.27,0.20,-0.43,-1.55,1009.73
4.357,-0.06,0.96,0.10,3.08,2.15,-2.27,0.20,-0.43,-1.55,1009.73
4.359,-0.06,0.96,0.10,3.08,2.15,-2.27,0.20,-0.43,-1.55,1009.57
4.365,-0.06,0.96,0.10,3.08,2.15,-2.27,-0.14,-0.15,-0.25,1009.57
4.385,-0.08,0.98,0.16,3.08,2.15,-2.27,-0.14,-0.15,-0.25,1009.57
4.386,-0.09,0.99,0.08,3.08,2.15,-2.27,-0.14,-0.15,-0.25,1009.57
4.387,-0.09,0.99,0.08,-5.16,0.27,-0.16,-0.14,-0.15,-0.25,1009.57
4.436,-0.08,0.97,0.15,-5.16,0.27,-0.16,-0.14,-0.15,-0.25,1009.57
4.438,-0.09,0.98,0.10,-5.16,0.27,-0.16,-0.14,-0.15,-0.25,1009.57
4.438,-0.09,0.98,0.10,-5.16,0.27,-0.16,-0.14,-0.15,-0.25,1009.37
4.439,-0.09,0.98,0.10,-5.16,0.27,-0.16,0.03,-0.04,-0.14,1009.37
4.456,-0.08,1.00,0.04,-5.16,0.27,-0.16,0.03,-0.04,-0.14,1009.37
4.457,-0.08,1.00,0.04,0.07,0.04,0.42,0.03,-0.04,-0.14,1009.37
4.505,-0.08,1.00,0.04,0.07,0.04,0.42,0.08,0.03,-0.09,1009.37
4.506,-0.08,1.00,0.05,0.07,0.04,0.42,0.08,0.03,-0.09,1009.37
4.507,-0.08,0.99,0.05,0.07,0.04,0.42,0.08,0.03,-0.09,1009.37
4.516,-0.08,0.98,0.07,0.07,0.04,0.42,0.08,0.03,-0.09,1009.37
4.516,-0.08,0.98,0.07,0.07,0.04,0.42,0.08,0.03,-0.09,1009.27
4.527,-0.07,0.98,0.07,0.07,0.04,0.42,0.08,0.03,-0.09,1009.27
4.528,-0.07,0.98,0.07,0.31,0.18,0.33,0.08,0.03,-0.09,1009.27
4.556,-0.07,0.98,0.07,0.31,0.18,0.33,0.08,0.03,-0.09,1009.20
4.558,-0.07,0.98,0.07,0.31,0.18,0.33,0.08,0.03,-0.09,1009.20
4.575,-0.08,0.97,0.07,0.31,0.18,0.33,0.08,0.03,-0.09,1009.20
4.576,-0.08,0.97,0.07,0.31,0.18,0.33,0.12,0.06,-0.12,1009.20
4.595,-0.08,0.97,0.05,0.31,0.18,0.33,0.12,0.06,-0.12,1009.20
4.596,-0.08,0.97,0.05,0.45,0.17,0.12,0.12,0.06,-0.12,1009.20
4.655,-0.08,0.97,0.05,0.45,0.17,0.12,0.12,0.06,-0.12,1009.17
4.658,-0.08,0.98,0.04,0.45,0.17,0.12,0.12,0.06,-0.12,1009.17
4.659,-0.08,0.99,0.03,0.45,0.17,0.12,0.12,0.06,-0.12,1009.17
4.659,-0.08,0.99,0.03,0.45,0.17,0.12,0.13,0.09,-0.16,1009.17
4.66,-0.09,0.99,0.04,0.45,0.17,0.12,0.13,0.09,-0.16,1009.17
4.665,-0.11,0.98,0.03,0.45,0.17,0.12,0.13,0.09,-0.16,1009.17
4.665,-0.11,0.98,0.03,0.56,0.07,0.22,0.13,0.09,-0.16,1009.17
4.716,-0.11,0.98,0.03,0.56,0.07,0.22,0.11,0.13,-0.19,1009.17
4.718,-0.09,0.99,0.03,0.56,0.07,0.22,0.11,0.13,-0.19,1009.17
4.718,-0.09,0.99,0.04,0.56,0.07,0.22,0.11,0.13,-0.19,1009.17
4.719,-0.09,0.99,0.04,0.56,0.07,0.22,0.11,0.13,-0.19,1009.17
4.725,-0.08,1.00,0.02,0.56,0.07,0.22,0.11,0.13,-0.19,1009.17
4.735,-0.08,1.00,0.02,0.56,0.19,0.02,0.11,0.13,-0.19,1009.17
4.756,-0.08,1.00,0.02,0.56,0.19,0.02,0.11,0.13,-0.19,1009.16
4.757,-0.07,1.02,0.00,0.56,0.19,0.02,0.11,0.13,-0.19,1009.16
4.786,-0.07,1.02,0.00,0.56,0.19,0.02,0.07,0.23,-0.35,1009.16
4.787,-0.07,1.02,0.03,0.56,0.19,0.02,0.07,0.23,-0.35,1009.16
4.795,-0.03,1.04,0.04,0.56,0.19,0.02,0.07,0.23,-0.35,1009.16
4.813,-0.03,1.04,0.04,0.91,0.36,0.03,0.07,0.23,-0.35,1009.16
4.814,-0.02,1.07,0.02,0.91,0.36,0.03,0.07,0.23,-0.35,1009.16
4.836,-0.05,1.09,-0.05,0.91,0.36,0.03,0.07,0.23,-0.35,1009.16
4.837,-0.05,1.09,-0.05,0.91,0.36,0.03,0.07,0.23,-0.35,1009.28
4.855,-0.05,1.09,-0.05,0.91,0.36,0.03,-0.08,0.24,-0.81,1009.28
4.857,-0.04,1.13,-0.05,0.91,0.36,0.03,-0.08,0.24,-0.81,1009.28
4.876,-0.04,1.13,-0.05,1.93,0.91,-0.07,-0.08,0.24,-0.81,1009.28
4.877,-0.00,1.18,-0.02,1.93,0.91,-0.07,-0.08,0.24,-0.81,1009.28
4.916,-0.00,1.18,-0.02,1.93,0.91,-0.07,-0.08,0.24,-0.81,1009.39
4.918,-0.01,1.23,-0.07,1.93,0.91,-0.07,-0.08,0.24,-0.81,1009.39
4.919,0.00,1.28,-0.12,1.93,0.91,-0.07,-0.08,0.24,-0.81,1009.39
4.926,0.00,1.28,-0.12,1.93,0.91,-0.07,-0.44,0.20,-1.64,1009.39
4.927,0.04,1.34,-0.14,1.93,0.91,-0.07,-0.44,0.20,-1.64,1009.39
4.945,0.11,1.40,-0.17,1.93,0.91,-0.07,-0.44,0.20,-1.64,1009.39
4.947,0.11,1.40,-0.17,3.30,2.32,-1.04,-0.44,0.20,-1.64,1009.39
4.957,0.11,1.40,-0.17,3.30,2.32,-1.04,-0.44,0.20,-1.64,1009.36
4.996,0.24,1.47,-0.17,3.30,2.32,-1.04,-0.44,0.20,-1.64,1009.36
4.997,0.38,1.50,-0.09,3.30,2.32,-1.04,-0.44,0.20,-1.64,1009.36
4.998,0.38,1.50,-0.09,3.30,2.32,-1.04,-1.25,0.26,-3.25,1009.36
5.016,0.38,1.49,0.02,3.30,2.32,-1.04,-1.25,0.26,-3.25,1009.36
5.017,0.38,1.49,0.02,6.19,5.45,-2.68,-1.25,0.26,-3.25,1009.36
5.036,0.06,1.38,0.21,6.19,5.45,-2.68,-1.25,0.26,-3.25,1009.36
5.037,0.06,1.38,0.21,6.19,5.45,-2.68,-1.25,0.26,-3.25,1009.08
5.059,-0.26,1.21,0.51,6.19,5.45,-2.68,-1.25,0.26,-3.25,1009.08
5.065,-0.26,1.21,0.51,6.19,5.45,-2.68,-1.65,1.18,-5.01,1009.08
5.085,-0.26,1.21,0.51,10.88,9.24,-1.82,-1.65,1.18,-5.01,1009.08
5.086,-0.41,1.17,0.46,10.88,9.24,-1.82,-1.65,1.18,-5.01,1009.08
5.087,-0.75,0.38,0.07,10.88,9.24,-1.82,-1.65,1.18,-5.01,1009.08
5.116,-0.84,0.05,0.35,10.88,9.24,-1.82,-1.65,1.18,-5.01,1009.08
5.118,-0.84,0.05,0.35,10.88,9.24,-1.82,-1.65,1.18,-5.01,1008.63
5.126,-0.16,0.32,0.44,10.88,9.24,-1.82,-1.65,1.18,-5.01,1008.63
5.135,-0.16,0.32,0.44,10.88,9.24,-1.82,-1.01,1.80,-0.87,1008.63
5.156,-0.16,0.32,0.44,3.63,3.96,2.71,-1.01,1.80,-0.87,1008.63
5.158,-0.16,0.32,0.44,3.63,3.96,2.71,-1.01,1.80,-0.87,1008.77
5.158,0.44,0.56,-0.13,3.63,3.96,2.71,-1.01,1.80,-0.87,1008.77
5.196,0.15,0.42,-0.27,3.63,3.96,2.71,-1.01,1.80,-0.87,1008.77
5.197,-0.14,0.27,-0.18,3.63,3.96,2.71,-1.01,1.80,-0.87,1008.77
5.205,-0.14,0.27,-0.18,3.63,3.96,2.71,-0.70,0.51,2.05,1008.77
5.225,-0.14,0.27,-0.18,5.07,-3.66,0.50,-0.70,0.51,2.05,1008.77
5.227,-0.30,0.21,-0.18,5.07,-3.66,0.50,-0.70,0.51,2.05,1008.77
5.228,-0.15,0.33,-0.23,5.07,-3.66,0.50,-0.70,0.51,2.05,1008.77
5.236,-0.15,0.33,-0.23,5.07,-3.66,0.50,-0.70,0.51,2.05,1009.02
5.259,0.12,0.49,-0.20,5.07,-3.66,0.50,-0.70,0.51,2.05,1009.02
5.275,0.12,0.49,-0.20,5.07,-3.66,0.50,0.06,-0.48,4.43,1009.02
5.276,0.15,0.65,-0.19,5.07,-3.66,0.50,0.06,-0.48,4.43,1009.02
5.296,0.15,0.65,-0.19,2.16,-5.70,-2.75,0.06,-0.48,4.43,1009.02
5.297,0.00,0.79,-0.18,2.16,-5.70,-2.75,0.06,-0.48,4.43,1009.02
5.316,-0.03,0.93,-0.28,2.16,-5.70,-2.75,0.06,-0.48,4.43,1009.02
5.317,-0.03,0.93,-0.28,2.16,-5.70,-2.75,0.06,-0.48,4.43,1009.16
5.326,-0.09,1.14,-0.50,2.16,-5.70,-2.75,0.06,-0.48,4.43,1009.16
5.345,-0.09,1.14,-0.50,2.16,-5.70,-2.75,1.03,0.66,4.88,1009.16
5.356,-0.08,1.35,-0.59,2.16,-5.70,-2.75,1.03,0.66,4.88,1009.16
5.356,-0.08,1.35,-0.59,2.16,-5.70,-2.75,1.03,0.66,4.88,1009.22
5.366,-0.08,1.35,-0.59,1.44,-2.61,-1.80,1.03,0.66,4.88,1009.22
5.367,0.12,1.61,-0.50,1.44,-2.61,-1.80,1.03,0.66,4.88,1009.22
5.397,0.10,1.86,-0.27,1.44,-2.61,-1.80,1.03,0.66,4.88,1009.22
5.416,0.10,1.86,-0.27,1.44,-2.61,-1.80,0.92,0.66,3.61,1009.22
5.417,-0.06,2.03,-0.20,1.44,-2.61,-1.80,0.92,0.66,3.61,1009.22
5.437,-0.06,2.03,-0.20,-1.46,3.65,-4.36,0.92,0.66,3.61,1009.22
5.438,-0.51,2.06,-0.21,-1.46,3.65,-4.36,0.92,0.66,3.61,1009.22
5.438,-0.51,2.06,-0.21,-1.46,3.65,-4.36,0.92,0.66,3.61,1009.22
5.459,-0.97,1.56,0.08,-1.46,3.65,-4.36,0.92,0.66,3.61,1009.22
5.486,-0.97,1.56,0.08,-1.46,3.65,-4.36,0.17,1.31,2.48,1009.22
5.487,-1.12,1.27,0.18,-1.46,3.65,-4.36,0.17,1.31,2.48,1009.22
5.505,-1.12,1.27,0.18,-5.16,9.86,-1.48,0.17,1.31,2.48,1009.22
5.506,-1.50,0.97,0.38,-5.16,9.86,-1.48,0.17,1.31,2.48,1009.22
5.507,-1.55,1.01,0.15,-5.16,9.86,-1.48,0.17,1.31,2.48,1009.22
5.515,-1.55,1.01,0.15,-5.16,9.86,-1.48,0.17,1.31,2.48,1009.17
5.526,-0.87,1.14,-0.23,-5.16,9.86,-1.48,0.17,1.31,2.48,1009.17
5.556,-0.87,1.14,-0.23,-5.16,9.86,-1.48,-0.28,1.13,-0.98,1009.17
5.558,-1.10,0.92,-0.16,-5.16,9.86,-1.48,-0.28,1.13,-0.98,1009.17
5.558,-1.10,0.92,-0.16,-5.16,9.86,-1.48,-0.28,1.13,-0.98,1009.20
5.576,-1.30,0.73,0.03,-5.16,9.86,-1.48,-0.28,1.13,-0.98,1009.20
5.577,-1.30,0.73,0.03,-14.24,1.77,2.22,-0.28,1.13,-0.98,1009.20
5.601,1.00,1.62,-0.37,-14.24,1.77,2.22,-0.28,1.13,-0.98,1009.20
5.625,1.00,1.62,-0.37,-14.24,1.77,2.22,-0.51,-0.17,-2.79,1009.20
5.627,1.60,1.24,-0.06,-14.24,1.77,2.22,-0.51,-0.17,-2.79,1009.20
5.636,-0.95,0.88,0.03,-14.24,1.77,2.22,-0.51,-0.17,-2.79,1009.20
5.637,-0.95,0.88,0.03,-14.24,1.77,2.22,-0.51,-0.17,-2.79,1009.44
5.645,-1.22,0.68,0.97,-14.24,1.77,2.22,-0.51,-0.17,-2.79,1009.44
5.646,-1.22,0.68,0.97,-5.82,2.99,-1.28,-0.51,-0.17,-2.79,1009.44
5.697,-1.22,0.68,0.97,-5.82,2.99,-1.28,0.29,-0.41,-0.86,1009.44
5.698,-0.28,1.17,-0.41,-5.82,2.99,-1.28,0.29,-0.41,-0.86,1009.44
5.698,-0.56,1.06,-0.41,-5.82,2.99,-1.28,0.29,-0.41,-0.86,1009.44
5.717,-0.11,1.03,-0.15,-5.82,2.99,-1.28,0.29,-0.41,-0.86,1009.44
5.718,-0.11,1.03,-0.15,-5.82,2.99,-1.28,0.29,-0.41,-0.86,1009.67
5.719,-0.11,1.03,-0.15,-0.32,-1.76,1.58,0.29,-0.41,-0.86,1009.67
5.726,-0.08,0.97,0.02,-0.32,-1.76,1.58,0.29,-0.41,-0.86,1009.67
5.756,-0.07,0.98,0.10,-0.32,-1.76,1.58,0.29,-0.41,-0.86,1009.67
5.758,-0.07,0.98,0.10,-0.32,-1.76,1.58,0.29,-0.41,-0.86,1009.48
5.765,-0.07,0.98,0.10,-0.32,-1.76,1.58,-0.20,-0.09,-0.16,1009.48
5.785,-0.09,0.97,0.06,-0.32,-1.76,1.58,-0.20,-0.09,-0.16,1009.48
5.786,-0.09,0.96,0.11,-0.32,-1.76,1.58,-0.20,-0.09,-0.16,1009.48
5.787,-0.09,0.96,0.11,-1.66,1.03,-2.80,-0.20,-0.09,-0.16,1009.48
5.836,-0.09,0.96,0.11,-1.66,1.03,-2.80,-0.04,-0.03,-0.11,1009.48
5.838,-0.09,0.96,0.11,-1.66,1.03,-2.80,-0.04,-0.03,-0.11,1009.41
5.839,-0.09,0.99,0.05,-1.66,1.03,-2.80,-0.04,-0.03,-0.11,1009.41
5.839,-0.10,1.00,0.02,-1.66,1.03,-2.80,-0.04,-0.03,-0.11,1009.41
5.856,-0.10,1.01,-0.00,-1.66,1.03,-2.80,-0.04,-0.03,-0.11,1009.41
5.857,-0.10,1.01,-0.00,0.51,0.10,0.57,-0.04,-0.03,-0.11,1009.41
5.906,-0.10,1.01,-0.00,0.51,0.10,0.57,-0.07,0.01,-0.07,1009.41
5.908,-0.08,1.01,0.00,0.51,0.10,0.57,-0.07,0.01,-0.07,1009.41
5.909,-0.07,1.00,0.04,0.51,0.10,0.57,-0.07,0.01,-0.07,1009.41
5.916,-0.09,0.98,0.06,0.51,0.10,0.57,-0.07,0.01,-0.07,1009.41
5.917,-0.09,0.98,0.06,0.51,0.10,0.57,-0.07,0.01,-0.07,1009.32
5.926,-0.08,0.98,0.06,0.51,0.10,0.57,-0.07,0.01,-0.07,1009.32
5.927,-0.08,0.98,0.06,0.37,0.39,-0.04,-0.07,0.01,-0.07,1009.32
5.956,-0.08,0.98,0.06,0.37,0.39,-0.04,-0.07,0.01,-0.07,1009.17
5.957,-0.06,0.98,0.07,0.37,0.39,-0.04,-0.07,0.01,-0.07,1009.17
5.984,-0.06,0.98,0.07,0.37,0.39,-0.04,0.01,0.05,-0.11,1009.17
5.985,-0.06,0.98,0.06,0.37,0.39,-0.04,0.01,0.05,-0.11,1009.17
5.995,-0.08,0.98,0.05,0.37,0.39,-0.04,0.01,0.05,-0.11,1009.17
5.996,-0.08,0.98,0.05,0.57,0.26,0.26,0.01,0.05,-0.11,1009.17
6.037,-0.08,0.98,0.05,0.57,0.26,0.26,0.01,0.05,-0.11,1009.13
6.038,-0.10,0.98,0.03,0.57,0.26,0.26,0.01,0.05,-0.11,1009.13
6.039,-0.11,0.97,0.05,0.57,0.26,0.26,0.01,0.05,-0.11,1009.13
6.045,-0.11,0.97,0.05,0.57,0.26,0.26,0.06,0.08,-0.17,1009.13
6.059,-0.09,0.98,0.06,0.57,0.26,0.26,0.06,0.08,-0.17,1009.13
6.066,-0.07,0.99,0.07,0.57,0.26,0.26,0.06,0.08,-0.17,1009.13
6.066,-0.07,0.99,0.07,0.77,0.18,0.38,0.06,0.08,-0.17,1009.13
6.117,-0.07,0.99,0.07,0.77,0.18,0.38,0.13,0.13,-0.22,1009.13
6.118,-0.07,0.99,0.07,0.77,0.18,0.38,0.13,0.13,-0.22,1009.13
6.118,-0.10,0.98,0.02,0.77,0.18,0.38,0.13,0.13,-0.22,1009.13
6.119,-0.11,0.99,0.02,0.77,0.18,0.38,0.13,0.13,-0.22,1009.13
6.126,-0.09,1.01,0.02,0.77,0.18,0.38,0.13,0.13,-0.22,1009.13
6.136,-0.09,1.01,0.02,0.72,0.19,0.51,0.13,0.13,-0.22,1009.13
6.157,-0.09,1.01,0.02,0.72,0.19,0.51,0.13,0.13,-0.22,1009.16
6.158,-0.05,1.04,0.05,0.72,0.19,0.51,0.13,0.13,-0.22,1009.16
6.186,-0.02,1.06,0.02,0.72,0.19,0.51,0.13,0.13,-0.22,1009.16
6.188,-0.02,1.06,0.02,0.72,0.19,0.51,0.09,0.30,-0.45,1009.16
6.198,-0.03,1.09,-0.07,0.72,0.19,0.51,0.09,0.30,-0.45,1009.16
6.206,-0.03,1.09,-0.07,1.06,0.47,0.26,0.09,0.30,-0.45,1009.16
6.206,-0.06,1.10,-0.07,1.06,0.47,0.26,0.09,0.30,-0.45,1009.16
6.238,-0.04,1.12,-0.02,1.06,0.47,0.26,0.09,0.30,-0.45,1009.16
6.239,-0.04,1.12,-0.02,1.06,0.47,0.26,0.09,0.30,-0.45,1009.30
6.257,-0.04,1.12,-0.02,1.06,0.47,0.26,-0.16,0.23,-1.04,1009.30
6.258,0.03,1.18,0.02,1.06,0.47,0.26,-0.16,0.23,-1.04,1009.30
6.283,0.02,1.26,-0.07,1.06,0.47,0.26,-0.16,0.23,-1.04,1009.30
6.283,0.02,1.26,-0.07,2.43,1.45,-0.40,-0.16,0.23,-1.04,1009.30
6.318,0.02,1.26,-0.07,2.43,1.45,-0.40,-0.16,0.23,-1.04,1009.40
6.32,0.01,1.33,-0.14,2.43,1.45,-0.40,-0.16,0.23,-1.04,1009.40
6.321,0.06,1.42,-0.16,2.43,1.45,-0.40,-0.16,0.23,-1.04,1009.40
6.328,0.06,1.42,-0.16,2.43,1.45,-0.40,-0.59,0.21,-2.16,1009.40
6.33,0.29,1.55,-0.09,2.43,1.45,-0.40,-0.59,0.21,-2.16,1009.40
6.346,0.40,1.57,-0.02,2.43,1.45,-0.40,-0.59,0.21,-2.16,1009.40
6.347,0.40,1.57,-0.02,4.40,3.34,-0.97,-0.59,0.21,-2.16,1009.40
6.358,0.40,1.57,-0.02,4.40,3.34,-0.97,-0.59,0.21,-2.16,1009.21
6.393,0.45,1.54,0.04,4.40,3.34,-0.97,-0.59,0.21,-2.16,1009.21
6.394,0.27,1.48,0.02,4.40,3.34,-0.97,-0.59,0.21,-2.16,1009.21
6.398,0.27,1.48,0.02,4.40,3.34,-0.97,-1.57,0.78,-4.38,1009.21
6.416,0.27,1.48,0.02,8.94,7.99,-1.84,-1.57,0.78,-4.38,1009.21
6.417,-0.26,1.27,0.44,8.94,7.99,-1.84,-1.57,0.78,-4.38,1009.21
6.437,-0.43,1.11,0.46,8.94,7.99,-1.84,-1.57,0.78,-4.38,1009.21
6.438,-0.43,1.11,0.46,8.94,7.99,-1.84,-1.57,0.78,-4.38,1008.78
6.459,-0.73,0.07,0.19,8.94,7.99,-1.84,-1.57,0.78,-4.38,1008.78
6.465,-0.73,0.07,0.19,8.94,7.99,-1.84,-1.34,1.81,-3.22,1008.78
6.486,-0.39,0.37,0.49,8.94,7.99,-1.84,-1.34,1.81,-3.22,1008.78
6.487,0.43,0.50,-0.03,8.94,7.99,-1.84,-1.34,1.81,-3.22,1008.78
6.487,0.43,0.50,-0.03,8.32,7.87,1.74,-1.34,1.81,-3.22,1008.78
6.517,-0.01,0.41,-0.21,8.32,7.87,1.74,-1.34,1.81,-3.22,1008.78
6.518,-0.01,0.41,-0.21,8.32,7.87,1.74,-1.34,1.81,-3.22,1008.78
6.526,-0.02,0.31,-0.18,8.32,7.87,1.74,-1.34,1.81,-3.22,1008.78
6.536,-0.02,0.31,-0.18,8.32,7.87,1.74,-1.03,1.12,1.10,1008.78
6.557,-0.02,0.31,-0.18,4.03,-2.57,1.66,-1.03,1.12,1.10,1008.78
6.558,-0.02,0.31,-0.18,4.03,-2.57,1.66,-1.03,1.12,1.10,1009.03
6.558,-0.07,0.30,-0.19,4.03,-2.57,1.66,-1.03,1.12,1.10,1009.03
6.592,-0.18,0.33,-0.29,4.03,-2.57,1.66,-1.03,1.12,1.10,1009.03
6.594,-0.06,0.41,-0.23,4.03,-2.57,1.66,-1.03,1.12,1.10,1009.03
6.606,-0.06,0.41,-0.23,4.03,-2.57,1.66,-0.88,0.12,3.65,1009.03
6.626,-0.06,0.41,-0.23,3.95,-4.85,-2.80,-0.88,0.12,3.65,1009.03
6.627,0.10,0.59,-0.25,3.95,-4.85,-2.80,-0.88,0.12,3.65,1009.03
6.627,0.01,0.79,-0.34,3.95,-4.85,-2.80,-0.88,0.12,3.65,1009.03
6.636,0.01,0.79,-0.34,3.95,-4.85,-2.80,-0.88,0.12,3.65,1009.08
6.659,-0.06,0.96,-0.43,3.95,-4.85,-2.80,-0.88,0.12,3.65,1009.08
6.678,-0.09,1.14,-0.65,3.95,-4.85,-2.80,-0.88,0.12,3.65,1009.08
6.68,-0.09,1.14,-0.65,3.95,-4.85,-2.80,0.12,1.67,4.56,1009.08
6.697,-0.10,1.29,-0.76,3.95,-4.85,-2.80,0.12,1.67,4.56,1009.08
6.698,-0.10,1.29,-0.76,1.62,-3.61,-2.83,0.12,1.67,4.56,1009.08
6.717,-0.09,1.39,-0.69,1.62,-3.61,-2.83,0.12,1.67,4.56,1009.08
6.718,-0.09,1.39,-0.69,1.62,-3.61,-2.83,0.12,1.67,4.56,1009.18
6.726,-0.04,1.59,-0.64,1.62,-3.61,-2.83,0.12,1.67,4.56,1009.18
6.746,-0.04,1.59,-0.64,1.62,-3.61,-2.83,0.50,1.81,3.86,1009.18
6.757,-0.04,1.59,-0.64,1.62,-3.61,-2.83,0.50,1.81,3.86,1009.22
6.757,0.13,1.82,-0.52,1.62,-3.61,-2.83,0.50,1.81,3.86,1009.22
6.766,-0.12,1.95,-0.60,1.62,-3.61,-2.83,0.50,1.81,3.86,1009.22
6.767,-0.12,1.95,-0.60,-1.18,2.11,-5.75,0.50,1.81,3.86,1009.22
6.792,-0.75,1.77,-0.68,-1.18,2.11,-5.75,0.50,1.81,3.86,1009.22
6.816,-0.75,1.77,-0.68,-1.18,2.11,-5.75,0.09,2.41,1.58,1009.22
6.818,-1.05,1.48,-0.48,-1.18,2.11,-5.75,0.09,2.41,1.58,1009.22
6.837,-1.43,0.80,0.21,-1.18,2.11,-5.75,0.09,2.41,1.58,1009.22
6.838,-1.43,0.80,0.21,-1.18,2.11,-5.75,0.09,2.41,1.58,1009.22
6.839,-1.43,0.80,0.21,-1.43,7.66,-5.55,0.09,2.41,1.58,1009.22
6.859,-2.62,0.52,0.08,-1.43,7.66,-5.55,0.09,2.41,1.58,1009.22
6.886,-2.62,0.52,0.08,-1.43,7.66,-5.55,0.07,2.27,0.57,1009.22
6.887,-1.46,0.76,0.07,-1.43,7.66,-5.55,0.07,2.27,0.57,1009.22
6.906,-1.46,0.76,0.07,-13.08,2.69,-2.50,0.07,2.27,0.57,1009.22
6.908,-0.36,1.12,-0.23,-13.08,2.69,-2.50,0.07,2.27,0.57,1009.22
6.908,0.02,1.43,-0.14,-13.08,2.69,-2.50,0.07,2.27,0.57,1009.22
6.918,0.02,1.43,-0.14,-13.08,2.69,-2.50,0.07,2.27,0.57,1009.30
6.957,0.02,1.43,-0.14,-13.08,2.69,-2.50,-0.41,0.23,-2.66,1009.30
6.959,0.02,1.43,-0.14,-13.08,2.69,-2.50,-0.41,0.23,-2.66,1009.51
6.959,0.06,1.14,-0.13,-13.08,2.69,-2.50,-0.41,0.23,-2.66,1009.51
6.96,-0.38,0.88,0.20,-13.08,2.69,-2.50,-0.41,0.23,-2.66,1009.51
6.976,-1.38,0.74,0.81,-13.08,2.69,-2.50,-0.41,0.23,-2.66,1009.51
6.977,-1.38,0.74,0.81,-8.12,0.55,-0.50,-0.41,0.23,-2.66,1009.51
6.992,-0.26,1.20,-0.62,-8.12,0.55,-0.50,-0.41,0.23,-2.66,1009.51
7.026,-0.26,1.20,-0.62,-8.12,0.55,-0.50,0.28,-0.33,-0.45,1009.51
7.029,-0.36,1.02,-0.25,-8.12,0.55,-0.50,0.28,-0.33,-0.45,1009.51
7.037,-0.00,1.00,0.04,-8.12,0.55,-0.50,0.28,-0.33,-0.45,1009.51
7.037,-0.00,1.00,0.04,-8.12,0.55,-0.50,0.28,-0.33,-0.45,1009.66
7.046,-0.13,0.95,0.05,-8.12,0.55,-0.50,0.28,-0.33,-0.45,1009.66
7.047,-0.13,0.95,0.05,-4.60,0.00,2.12,0.28,-0.33,-0.45,1009.66
7.096,-0.13,0.95,0.05,-4.60,0.00,2.12,-0.02,-0.11,-0.26,1009.66
7.097,-0.04,0.94,0.16,-4.60,0.00,2.12,-0.02,-0.11,-0.26,1009.66
7.098,-0.13,0.98,0.04,-4.60,0.00,2.12,-0.02,-0.11,-0.26,1009.66
7.117,-0.16,1.00,-0.02,-4.60,0.00,2.12,-0.02,-0.11,-0.26,1009.66
7.118,-0.16,1.00,-0.02,-4.60,0.00,2.12,-0.02,-0.11,-0.26,1009.45
7.118,-0.16,1.00,-0.02,0.15,0.58,-1.69,-0.02,-0.11,-0.26,1009.45
7.157,-0.16,1.00,-0.02,0.15,0.58,-1.69,-0.02,-0.11,-0.26,1009.44
7.158,-0.13,0.98,0.04,0.15,0.58,-1.69,-0.02,-0.11,-0.26,1009.44
7.159,-0.10,1.00,0.04,0.15,0.58,-1.69,-0.02,-0.11,-0.26,1009.44
7.166,-0.10,1.00,0.04,0.15,0.58,-1.69,-0.02,-0.01,-0.11,1009.44
7.186,-0.10,1.00,0.04,0.23,0.15,0.57,-0.02,-0.01,-0.11,1009.44
7.187,-0.11,1.01,-0.01,0.23,0.15,0.57,-0.02,-0.01,-0.11,1009.44
7.188,-0.10,1.01,0.03,0.23,0.15,0.57,-0.02,-0.01,-0.11,1009.44
7.237,-0.10,1.01,0.03,0.23,0.15,0.57,-0.02,-0.01,-0.11,1009.34
7.239,-0.09,0.99,0.07,0.23,0.15,0.57,-0.02,-0.01,-0.11,1009.34
7.239,-0.09,0.98,0.07,0.23,0.15,0.57,-0.02,-0.01,-0.11,1009.34
7.24,-0.09,0.98,0.07,0.23,0.15,0.57,0.02,0.05,-0.10,1009.34
7.256,-0.10,0.98,0.05,0.23,0.15,0.57,0.02,0.05,-0.10,1009.34
7.257,-0.10,0.98,0.05,0.37,0.44,0.35,0.02,0.05,-0.10,1009.34
7.307,-0.10,0.98,0.05,0.37,0.44,0.35,0.11,0.08,-0.12,1009.34
7.309,-0.11,0.97,0.03,0.37,0.44,0.35,0.11,0.08,-0.12,1009.34
7.31,-0.10,0.97,0.04,0.37,0.44,0.35,0.11,0.08,-0.12,1009.34
7.317,-0.10,0.97,0.04,0.37,0.44,0.35,0.11,0.08,-0.12,1009.20
7.319,-0.12,0.97,0.03,0.37,0.44,0.35,0.11,0.08,-0.12,1009.20
7.326,-0.12,0.97,0.03,0.53,0.26,0.75,0.11,0.08,-0.12,1009.20
7.327,-0.12,0.96,0.04,0.53,0.26,0.75,0.11,0.08,-0.12,1009.20
7.358,-0.11,0.97,0.03,0.53,0.26,0.75,0.11,0.08,-0.12,1009.20
7.359,-0.11,0.97,0.03,0.53,0.26,0.75,0.11,0.08,-0.12,1009.22
7.377,-0.11,0.97,0.03,0.53,0.26,0.75,0.14,0.08,-0.12,1009.22
7.378,-0.11,0.97,0.02,0.53,0.26,0.75,0.14,0.08,-0.12,1009.22
7.393,-0.11,0.98,0.00,0.53,0.26,0.75,0.14,0.08,-0.12,1009.22
7.398,-0.11,0.98,0.00,0.42,0.09,0.63,0.14,0.08,-0.12,1009.22
7.437,-0.11,0.98,0.00,0.42,0.09,0.63,0.14,0.08,-0.12,1009.23
7.438,-0.12,0.99,-0.00,0.42,0.09,0.63,0.14,0.08,-0.12,1009.23
7.439,-0.10,0.99,0.01,0.42,0.09,0.63,0.14,0.08,-0.12,1009.23
7.448,-0.10,0.99,0.01,0.42,0.09,0.63,0.14,0.06,-0.15,1009.23
7.459,-0.10,1.00,0.00,0.42,0.09,0.63,0.14,0.06,-0.15,1009.23
7.467,-0.08,1.01,0.04,0.42,0.09,0.63,0.14,0.06,-0.15,1009.23
7.469,-0.08,1.01,0.04,0.53,0.21,0.50,0.14,0.06,-0.15,1009.23
7.517,-0.08,1.01,0.04,0.53,0.21,0.50,0.20,0.22,-0.36,1009.23
7.518,-0.06,1.02,0.03,0.53,0.21,0.50,0.20,0.22,-0.36,1009.23
7.518,-0.05,1.05,0.02,0.53,0.21,0.50,0.20,0.22,-0.36,1009.23
7.518,-0.05,1.05,0.02,0.53,0.21,0.50,0.20,0.22,-0.36,1009.19
7.537,-0.05,1.05,0.02,0.97,0.53,0.67,0.20,0.22,-0.36,1009.19
7.538,-0.01,1.09,-0.04,0.97,0.53,0.67,0.20,0.22,-0.36,1009.19
7.557,-0.00,1.16,-0.13,0.97,0.53,0.67,0.20,0.22,-0.36,1009.19
7.558,-0.00,1.16,-0.13,0.97,0.53,0.67,0.20,0.22,-0.36,1009.20
7.587,-0.00,1.16,-0.13,0.97,0.53,0.67,-0.07,0.31,-1.02,1009.20
7.588,0.01,1.20,-0.15,0.97,0.53,0.67,-0.07,0.31,-1.02,1009.20
7.592,0.02,1.27,-0.19,0.97,0.53,0.67,-0.07,0.31,-1.02,1009.20
7.606,0.02,1.27,-0.19,2.39,1.38,0.26,-0.07,0.31,-1.02,1009.20
7.607,0.04,1.37,-0.25,2.39,1.38,0.26,-0.07,0.31,-1.02,1009.20
7.637,0.11,1.43,-0.19,2.39,1.38,0.26,-0.07,0.31,-1.02,1009.20
7.639,0.11,1.43,-0.19,2.39,1.38,0.26,-0.07,0.31,-1.02,1009.28
7.658,0.19,1.51,-0.20,2.39,1.38,0.26,-0.07,0.31,-1.02,1009.28
7.659,0.19,1.51,-0.20,2.39,1.38,0.26,-0.73,-0.02,-2.36,1009.28
7.677,0.19,1.51,-0.20,4.69,3.99,-2.00,-0.73,-0.02,-2.36,1009.28
7.678,0.38,1.55,-0.04,4.69,3.99,-2.00,-0.73,-0.02,-2.36,1009.28
7.717,0.38,1.55,-0.04,4.69,3.99,-2.00,-0.73,-0.02,-2.36,1009.11
7.719,0.53,1.55,0.01,4.69,3.99,-2.00,-0.73,-0.02,-2.36,1009.11
7.72,0.43,1.54,-0.09,4.69,3.99,-2.00,-0.73,-0.02,-2.36,1009.11
7.726,0.04,1.33,0.26,4.69,3.99,-2.00,-0.73,-0.02,-2.36,1009.11
7.727,0.04,1.33,0.26,4.69,3.99,-2.00,-1.50,0.48,-4.77,1009.11
7.748,-0.31,1.17,0.65,4.69,3.99,-2.00,-1.50,0.48,-4.77,1009.11
7.749,-0.31,1.17,0.65,9.71,8.44,-1.69,-1.50,0.48,-4.77,1009.11
7.756,-0.31,1.17,0.65,9.71,8.44,-1.69,-1.50,0.48,-4.77,1008.75
7.793,-0.56,0.70,0.29,9.71,8.44,-1.69,-1.50,0.48,-4.77,1008.75
7.794,-1.04,-0.19,0.18,9.71,8.44,-1.69,-1.50,0.48,-4.77,1008.75
7.796,-1.04,-0.19,0.18,9.71,8.44,-1.69,-0.70,1.08,-3.62,1008.75
7.818,-0.21,0.44,0.20,9.71,8.44,-1.69,-0.70,1.08,-3.62,1008.75
7.82,-0.21,0.44,0.20,8.86,7.93,2.04,-0.70,1.08,-3.62,1008.75
7.837,0.58,0.51,-0.12,8.86,7.93,2.04,-0.70,1.08,-3.62,1008.75
7.838,0.58,0.51,-0.12,8.86,7.93,2.04,-0.70,1.08,-3.62,1008.78
7.859,0.06,0.34,-0.17,8.86,7.93,2.04,-0.70,1.08,-3.62,1008.78
7.866,0.06,0.34,-0.17,8.86,7.93,2.04,-0.64,0.56,1.39,1008.78
7.887,0.06,0.34,-0.17,2.87,-3.06,1.31,-0.64,0.56,1.39,1008.78
7.887,-0.06,0.26,-0.10,2.87,-3.06,1.31,-0.64,0.56,1.39,1008.78
7.888,-0.18,0.28,-0.21,2.87,-3.06,1.31,-0.64,0.56,1.39,1008.78
7.917,-0.12,0.40,-0.27,2.87,-3.06,1.31,-0.64,0.56,1.39,1008.78
7.918,-0.12,0.40,-0.27,2.87,-3.06,1.31,-0.64,0.56,1.39,1009.02
7.937,-0.12,0.40,-0.27,2.87,-3.06,1.31,-0.12,-0.20,3.92,1009.02
7.938,0.12,0.55,-0.24,2.87,-3.06,1.31,-0.12,-0.20,3.92,1009.02
7.957,0.09,0.70,-0.24,2.87,-3.06,1.31,-0.12,-0.20,3.92,1009.02
7.958,0.09,0.70,-0.24,2.87,-3.06,1.31,-0.12,-0.20,3.92,1009.10
7.959,0.09,0.70,-0.24,4.40,-5.03,-1.83,-0.12,-0.20,3.92,1009.10
7.993,-0.05,0.85,-0.28,4.40,-5.03,-1.83,-0.12,-0.20,3.92,1009.10
7.995,-0.03,1.01,-0.30,4.40,-5.03,-1.83,-0.12,-0.20,3.92,1009.10
8.006,-0.03,1.01,-0.30,4.40,-5.03,-1.83,0.87,0.67,4.78,1009.10
8.027,-0.03,1.01,-0.30,1.67,-3.34,-1.96,0.87,0.67,4.78,1009.10
8.028,0.04,1.20,-0.33,1.67,-3.34,-1.96,0.87,0.67,4.78,1009.10
8.028,0.02,1.43,-0.41,1.67,-3.34,-1.96,0.87,0.67,4.78,1009.10
8.036,0.02,1.43,-0.41,1.67,-3.34,-1.96,0.87,0.67,4.78,1009.19
8.059,-0.02,1.71,-0.44,1.67,-3.34,-1.96,0.87,0.67,4.78,1009.19
8.077,-0.27,1.81,-0.24,1.67,-3.34,-1.96,0.87,0.67,4.78,1009.19
8.078,-0.27,1.81,-0.24,1.67,-3.34,-1.96,0.82,0.99,4.29,1009.19
8.097,-0.27,1.81,-0.24,-1.19,2.31,-2.36,0.82,0.99,4.29,1009.19
8.098,-0.43,1.87,-0.24,-1.19,2.31,-2.36,0.82,0.99,4.29,1009.19
8.117,-0.66,1.74,-0.46,-1.19,2.31,-2.36,0.82,0.99,4.29,1009.19
8.118,-0.66,1.74,-0.46,-1.19,2.31,-2.36,0.82,0.99,4.29,1009.23
8.148,-0.66,1.74,-0.46,-1.19,2.31,-2.36,0.19,0.52,2.67,1009.23
8.149,-0.96,1.58,-0.03,-1.19,2.31,-2.36,0.19,0.52,2.67,1009.23
8.158,-2.15,0.91,0.21,-1.19,2.31,-2.36,0.19,0.52,2.67,1009.23
8.158,-2.15,0.91,0.21,-1.19,2.31,-2.36,0.19,0.52,2.67,1009.23
8.167,-2.43,0.70,0.35,-1.19,2.31,-2.36,0.19,0.52,2.67,1009.23
8.168,-2.43,0.70,0.35,-5.05,8.80,-2.13,0.19,0.52,2.67,1009.23
8.193,-0.99,1.12,-0.08,-5.05,8.80,-2.13,0.19,0.52,2.67,1009.23
8.217,-0.99,1.12,-0.08,-5.05,8.80,-2.13,-0.44,-0.51,-1.24,1009.23
8.218,-0.38,1.63,-0.58,-5.05,8.80,-2.13,-0.44,-0.51,-1.24,1009.23
8.237,0.27,1.08,0.23,-5.05,8.80,-2.13,-0.44,-0.51,-1.24,1009.23
8.238,0.27,1.08,0.23,-5.05,8.80,-2.13,-0.44,-0.51,-1.24,1009.28
8.239,0.27,1.08,0.23,-17.01,1.67,1.32,-0.44,-0.51,-1.24,1009.28
8.26,0.06,1.04,0.28,-17.01,1.67,1.32,-0.44,-0.51,-1.24,1009.28
8.288,0.06,1.04,0.28,-17.01,1.67,1.32,-0.58,-0.16,-2.44,1009.28
8.29,-0.97,0.91,0.27,-17.01,1.67,1.32,-0.58,-0.16,-2.44,1009.28
8.307,-0.97,0.91,0.27,-1.76,2.78,-0.15,-0.58,-0.16,-2.44,1009.28
8.308,-0.98,0.94,0.66,-1.76,2.78,-0.15,-0.58,-0.16,-2.44,1009.28
8.309,-0.14,1.13,-0.58,-1.76,2.78,-0.15,-0.58,-0.16,-2.44,1009.28
8.325,-0.14,1.13,-0.58,-1.76,2.78,-0.15,-0.58,-0.16,-2.44,1009.52
8.358,-0.14,1.13,-0.58,-1.76,2.78,-0.15,-0.58,-0.16,-2.44,1009.51
8.359,-0.46,0.98,-0.22,-1.76,2.78,-0.15,-0.58,-0.16,-2.44,1009.51
8.36,-0.09,0.97,-0.06,-1.76,2.78,-0.15,-0.58,-0.16,-2.44,1009.51
8.36,-0.09,0.97,-0.06,-1.76,2.78,-0.15,-0.16,-0.27,-0.48,1009.51
8.378,-0.09,0.97,-0.06,-5.08,0.39,1.39,-0.16,-0.27,-0.48,1009.51
8.378,-0.07,0.97,0.19,-5.08,0.39,1.39,-0.16,-0.27,-0.48,1009.51
8.393,-0.14,1.01,-0.02,-5.08,0.39,1.39,-0.16,-0.27,-0.48,1009.51
8.427,-0.14,1.01,-0.02,-5.08,0.39,1.39,-0.19,-0.06,-0.22,1009.51
8.429,-0.10,0.97,0.08,-5.08,0.39,1.39,-0.19,-0.06,-0.22,1009.51
8.436,-0.10,0.98,0.12,-5.08,0.39,1.39,-0.19,-0.06,-0.22,1009.51
8.437,-0.10,0.98,0.12,-5.08,0.39,1.39,-0.19,-0.06,-0.22,1009.41
8.447,-0.11,1.01,0.03,-5.08,0.39,1.39,-0.19,-0.06,-0.22,1009.41
8.447,-0.11,1.01,0.03,-0.64,0.21,-0.10,-0.19,-0.06,-0.22,1009.41
8.498,-0.11,1.01,0.03,-0.64,0.21,-0.10,-0.05,0.03,-0.15,1009.41
8.499,-0.11,1.00,0.03,-0.64,0.21,-0.10,-0.05,0.03,-0.15,1009.41
8.499,-0.10,0.99,0.06,-0.64,0.21,-0.10,-0.05,0.03,-0.15,1009.41
8.517,-0.12,0.99,0.02,-0.64,0.21,-0.10,-0.05,0.03,-0.15,1009.41
8.518,-0.12,0.99,0.02,-0.64,0.21,-0.10,-0.05,0.03,-0.15,1009.33
8.518,-0.12,0.99,0.02,0.21,0.31,0.65,-0.05,0.03,-0.15,1009.33
8.558,-0.11,0.98,0.06,0.21,0.31,0.65,-0.05,0.03,-0.15,1009.33
8.561,-0.12,0.97,0.05,0.21,0.31,0.65,-0.05,0.03,-0.15,1009.33
8.562,-0.12,0.97,0.05,0.21,0.31,0.65,-0.05,0.03,-0.15,1009.19
8.567,-0.12,0.97,0.05,0.21,0.31,0.65,0.02,0.10,-0.11,1009.19
8.587,-0.12,0.97,0.05,0.28,0.33,0.53,0.02,0.10,-0.11,1009.19
8.588,-0.09,0.98,0.05,0.28,0.33,0.53,0.02,0.10,-0.11,1009.19
8.589,-0.10,0.98,0.07,0.28,0.33,0.53,0.02,0.10,-0.11,1009.19
8.638,-0.09,0.97,0.06,0.28,0.33,0.53,0.02,0.10,-0.11,1009.19
8.64,-0.12,0.97,0.02,0.28,0.33,0.53,0.02,0.10,-0.11,1009.19
8.641,-0.12,0.97,0.02,0.28,0.33,0.53,0.02,0.10,-0.11,1009.12
8.641,-0.12,0.97,0.02,0.28,0.33,0.53,0.10,0.16,-0.16,1009.12
8.657,-0.12,0.97,0.02,0.51,0.22,0.75,0.10,0.16,-0.16,1009.12
8.658,-0.09,0.97,0.04,0.51,0.22,0.75,0.10,0.16,-0.16,1009.12
8.707,-0.09,0.97,0.04,0.51,0.22,0.75,0.15,0.15,-0.26,1009.12
8.708,-0.08,0.98,0.06,0.51,0.22,0.75,0.15,0.15,-0.26,1009.12
8.709,-0.13,0.99,0.02,0.51,0.22,0.75,0.15,0.15,-0.26,1009.12
8.722,-0.11,0.99,0.01,0.51,0.22,0.75,0.15,0.15,-0.26,1009.12
8.726,-0.11,0.99,0.01,0.51,0.22,0.75,0.15,0.15,-0.26,1009.17
8.727,-0.11,0.99,0.01,0.72,0.22,0.71,0.15,0.15,-0.26,1009.17
8.728,-0.09,1.02,0.02,0.72,0.22,0.71,0.15,0.15,-0.26,1009.17
8.757,-0.07,1.04,-0.00,0.72,0.22,0.71,0.15,0.15,-0.26,1009.17
8.758,-0.07,1.04,-0.00,0.72,0.22,0.71,0.15,0.15,-0.26,1009.24
8.778,-0.07,1.04,-0.00,0.72,0.22,0.71,0.12,0.19,-0.51,1009.24
8.779,-0.08,1.06,-0.03,0.72,0.22,0.71,0.12,0.19,-0.51,1009.24
8.793,-0.05,1.10,-0.05,0.72,0.22,0.71,0.12,0.19,-0.51,1009.24
8.798,-0.05,1.10,-0.05,1.07,0.53,0.59,0.12,0.19,-0.51,1009.24
8.837,-0.05,1.10,-0.05,1.07,0.53,0.59,0.12,0.19,-0.51,1009.37
8.838,-0.06,1.11,-0.08,1.07,0.53,0.59,0.12,0.19,-0.51,1009.37
8.839,-0.07,1.11,-0.06,1.07,0.53,0.59,0.12,0.19,-0.51,1009.37
8.847,-0.07,1.11,-0.06,1.07,0.53,0.59,-0.09,0.08,-1.07,1009.37
8.859,-0.13,1.12,-0.12,1.07,0.53,0.59,-0.09,0.08,-1.07,1009.37
8.869,-0.10,1.16,-0.07,1.07,0.53,0.59,-0.09,0.08,-1.07,1009.37
8.87,-0.10,1.16,-0.07,2.22,1.44,-0.06,-0.09,0.08,-1.07,1009.37
8.898,-0.05,1.20,-0.02,2.22,1.44,-0.06,-0.09,0.08,-1.07,1009.37
8.916,-0.04,1.28,-0.12,2.22,1.44,-0.06,-0.09,0.08,-1.07,1009.37
8.917,-0.04,1.28,-0.12,2.22,1.44,-0.06,-0.09,0.08,-1.07,1009.39
8.918,-0.04,1.28,-0.12,2.22,1.44,-0.06,-0.39,-0.03,-1.82,1009.39
8.938,-0.04,1.28,-0.12,3.18,2.47,-0.85,-0.39,-0.03,-1.82,1009.39
8.939,0.04,1.41,-0.19,3.18,2.47,-0.85,-0.39,-0.03,-1.82,1009.39
8.956,0.21,1.52,-0.10,3.18,2.47,-0.85,-0.39,-0.03,-1.82,1009.39
8.957,0.21,1.52,-0.10,3.18,2.47,-0.85,-0.39,-0.03,-1.82,1009.29
8.99,0.21,1.52,-0.10,3.18,2.47,-0.85,-0.79,0.14,-3.67,1009.29
8.991,0.39,1.63,0.05,3.18,2.47,-0.85,-0.79,0.14,-3.67,1009.29
8.992,0.51,1.59,0.21,3.18,2.47,-0.85,-0.79,0.14,-3.67,1009.29
9.007,0.51,1.59,0.21,6.56,6.01,-1.44,-0.79,0.14,-3.67,1009.29
9.008,0.27,1.63,0.09,6.56,6.01,-1.44,-0.79,0.14,-3.67,1009.29
9.037,-0.11,1.40,0.32,6.56,6.01,-1.44,-0.79,0.14,-3.67,1009.29
9.038,-0.11,1.40,0.32,6.56,6.01,-1.44,-0.79,0.14,-3.67,1009.15
9.057,-0.11,1.40,0.32,6.56,6.01,-1.44,-0.63,0.83,-5.96,1009.15
9.058,-0.24,1.26,0.62,6.56,6.01,-1.44,-0.63,0.83,-5.96,1009.15
9.078,-0.46,0.52,0.16,6.56,6.01,-1.44,-0.63,0.83,-5.96,1009.15
9.079,-0.46,0.52,0.16,12.08,11.62,0.74,-0.63,0.83,-5.96,1009.15
9.116,-0.46,0.52,0.16,12.08,11.62,0.74,-0.63,0.83,-5.96,1008.54
9.117,-2.06,-0.09,-0.02,12.08,11.62,0.74,-0.63,0.83,-5.96,1008.54
9.118,-0.51,0.41,0.22,12.08,11.62,0.74,-0.63,0.83,-5.96,1008.54
9.127,-0.51,0.41,0.22,12.08,11.62,0.74,0.11,0.25,-0.53,1008.54
9.139,0.64,0.68,-0.06,12.08,11.62,0.74,0.11,0.25,-0.53,1008.54
9.147,0.64,0.68,-0.06,3.67,3.35,2.95,0.11,0.25,-0.53,1008.54
9.148,0.33,0.48,-0.07,3.67,3.35,2.95,0.11,0.25,-0.53,1008.54
9.155,0.33,0.48,-0.07,3.67,3.35,2.95,0.11,0.25,-0.53,1008.90
9.193,-0.19,0.25,0.14,3.67,3.35,2.95,0.11,0.25,-0.53,1008.90
9.196,-0.36,0.20,0.11,3.67,3.35,2.95,0.11,0.25,-0.53,1008.90
9.197,-0.36,0.20,0.11,3.67,3.35,2.95,0.13,-0.32,2.30,1008.90
9.218,-0.04,0.35,0.01,3.67,3.35,2.95,0.13,-0.32,2.30,1008.90
9.219,-0.04,0.35,0.01,4.37,-1.54,0.07,0.13,-0.32,2.30,1008.90
9.236,0.04,0.45,-0.02,4.37,-1.54,0.07,0.13,-0.32,2.30,1008.90
9.237,0.04,0.45,-0.02,4.37,-1.54,0.07,0.13,-0.32,2.30,1009.09
9.259,-0.14,0.48,-0.04,4.37,-1.54,0.07,0.13,-0.32,2.30,1009.09
9.267,-0.14,0.48,-0.04,4.37,-1.54,0.07,0.31,0.07,4.55,1009.09
9.292,-0.14,0.48,-0.04,2.62,-5.33,0.79,0.31,0.07,4.55,1009.09
9.295,-0.24,0.58,-0.09,2.62,-5.33,0.79,0.31,0.07,4.55,1009.09
9.295,-0.18,0.79,-0.18,2.62,-5.33,0.79,0.31,0.07,4.55,1009.09
9.316,-0.19,0.94,-0.22,2.62,-5.33,0.79,0.31,0.07,4.55,1009.09
9.317,-0.19,0.94,-0.22,2.62,-5.33,0.79,0.31,0.07,4.55,1009.15
9.339,-0.17,1.15,-0.30,2.62,-5.33,0.79,0.31,0.07,4.55,1009.15
9.34,-0.17,1.15,-0.30,2.62,-5.33,0.79,0.83,-0.26,5.11,1009.15
9.356,-0.01,1.42,-0.28,2.62,-5.33,0.79,0.83,-0.26,5.11,1009.15
9.357,-0.01,1.42,-0.28,2.62,-5.33,0.79,0.83,-0.26,5.11,1009.19
9.358,-0.01,1.42,-0.28,-0.39,-3.26,-0.33,0.83,-0.26,5.11,1009.19
9.393,-0.01,1.63,-0.15,-0.39,-3.26,-0.33,0.83,-0.26,5.11,1009.19
9.394,-0.40,1.62,-0.06,-0.39,-3.26,-0.33,0.83,-0.26,5.11,1009.19
9.408,-0.40,1.62,-0.06,-0.39,-3.26,-0.33,0.54,-0.37,4.08,1009.19
9.428,-0.40,1.62,-0.06,-2.20,3.01,-1.73,0.54,-0.37,4.08,1009.19
9.429,-0.44,1.71,-0.10,-2.20,3.01,-1.73,0.54,-0.37,4.08,1009.19
9.429,-0.59,1.68,0.06,-2.20,3.01,-1.73,0.54,-0.37,4.08,1009.19
9.436,-0.59,1.68,0.06,-2.20,3.01,-1.73,0.54,-0.37,4.08,1009.18
9.459,-0.64,1.71,0.13,-2.20,3.01,-1.73,0.54,-0.37,4.08,1009.18
9.477,-0.64,1.71,0.13,-2.20,3.01,-1.73,-0.00,0.70,2.77,1009.18
9.478,-0.96,1.57,0.07,-2.20,3.01,-1.73,-0.00,0.70,2.77,1009.18
9.498,-2.51,0.46,0.26,-2.20,3.01,-1.73,-0.00,0.70,2.77,1009.18
9.498,-2.51,0.46,0.26,-6.56,7.39,0.29,-0.00,0.70,2.77,1009.18
9.516,-2.32,0.58,0.09,-6.56,7.39,0.29,-0.00,0.70,2.77,1009.18
9.517,-2.32,0.58,0.09,-6.56,7.39,0.29,-0.00,0.70,2.77,1009.33
9.548,-2.32,0.58,0.09,-6.56,7.39,0.29,0.10,-0.52,-0.59,1009.33
9.549,-1.26,1.06,-0.34,-6.56,7.39,0.29,0.10,-0.52,-0.59,1009.33
9.556,-1.40,0.88,-0.14,-6.56,7.39,0.29,0.10,-0.52,-0.59,1009.33
9.556,-1.40,0.88,-0.14,-6.56,7.39,0.29,0.10,-0.52,-0.59,1009.18
9.567,1.22,3.86,-0.60,-6.56,7.39,0.29,0.10,-0.52,-0.59,1009.18
9.568,1.22,3.86,-0.60,-16.41,1.82,2.30,0.10,-0.52,-0.59,1009.18
9.595,2.96,0.50,0.35,-16.41,1.82,2.30,0.10,-0.52,-0.59,1009.18
9.618,2.96,0.50,0.35,-16.41,1.82,2.30,-0.98,-0.42,-3.06,1009.18
9.619,-1.54,0.84,0.15,-16.41,1.82,2.30,-0.98,-0.42,-3.06,1009.18
9.636,-1.65,0.83,0.97,-16.41,1.82,2.30,-0.98,-0.42,-3.06,1009.18
9.637,-1.65,0.83,0.97,-16.41,1.82,2.30,-0.98,-0.42,-3.06,1009.57
9.638,-1.65,0.83,0.97,-6.02,7.98,-2.71,-0.98,-0.42,-3.06,1009.57
9.659,0.17,1.24,-0.53,-6.02,7.98,-2.71,-0.98,-0.42,-3.06,1009.57
9.697,0.17,1.24,-0.53,-6.02,7.98,-2.71,-0.07,-0.58,-1.07,1009.57
9.698,-1.13,0.96,-0.43,-6.02,7.98,-2.71,-0.07,-0.58,-1.07,1009.57
9.713,-1.13,0.96,-0.43,1.15,-1.28,3.97,-0.07,-0.58,-1.07,1009.57
9.714,-0.10,0.95,0.09,1.15,-1.28,3.97,-0.07,-0.58,-1.07,1009.57
9.714,-0.12,0.94,0.29,1.15,-1.28,3.97,-0.07,-0.58,-1.07,1009.57
9.716,-0.12,0.94,0.29,1.15,-1.28,3.97,-0.07,-0.58,-1.07,1009.52
9.739,-0.19,0.97,0.07,1.15,-1.28,3.97,-0.07,-0.58,-1.07,1009.52
9.757,-0.15,0.95,0.14,1.15,-1.28,3.97,-0.07,-0.58,-1.07,1009.52
9.758,-0.15,0.95,0.14,1.15,-1.28,3.97,-0.07,-0.58,-1.07,1009.31
9.758,-0.15,0.95,0.14,1.15,-1.28,3.97,-0.01,-0.09,-0.35,1009.31
9.778,-0.15,0.95,0.14,-2.19,0.25,-1.17,-0.01,-0.09,-0.35,1009.31
9.779,-0.16,0.99,0.02,-2.19,0.25,-1.17,-0.01,-0.09,-0.35,1009.31
9.793,-0.21,1.02,-0.07,-2.19,0.25,-1.17,-0.01,-0.09,-0.35,1009.31
9.827,-0.21,1.02,-0.07,-2.19,0.25,-1.17,0.03,0.01,-0.17,1009.31
9.829,-0.18,1.00,-0.02,-2.19,0.25,-1.17,0.03,0.01,-0.17,1009.31
9.837,-0.16,0.97,0.05,-2.19,0.25,-1.17,0.03,0.01,-0.17,1009.31
9.838,-0.16,0.97,0.05,-2.19,0.25,-1.17,0.03,0.01,-0.17,1009.21
9.847,-0.16,0.97,0.05,-0.04,0.33,0.73,0.03,0.01,-0.17,1009.21
9.848,-0.13,0.97,0.07,-0.04,0.33,0.73,0.03,0.01,-0.17,1009.21
9.898,-0.13,0.97,0.07,-0.04,0.33,0.73,0.09,0.11,-0.10,1009.21
9.899,-0.13,0.96,0.07,-0.04,0.33,0.73,0.09,0.11,-0.10,1009.21
9.9,-0.15,0.95,0.05,-0.04,0.33,0.73,0.09,0.11,-0.10,1009.21
9.916,-0.14,0.96,0.03,-0.04,0.33,0.73,0.09,0.11,-0.10,1009.21
9.917,-0.14,0.96,0.03,-0.04,0.33,0.73,0.09,0.11,-0.10,1009.14
9.917,-0.14,0.96,0.03,0.10,0.40,0.42,0.09,0.11,-0.10,1009.14
9.939,-0.15,0.97,0.01,0.10,0.40,0.42,0.09,0.11,-0.10,1009.14
9.956,-0.13,0.97,0.01,0.10,0.40,0.42,0.09,0.11,-0.10,1009.14
9.957,-0.13,0.97,0.01,0.10,0.40,0.42,0.09,0.11,-0.10,1009.14
9.968,-0.13,0.97,0.01,0.10,0.40,0.42,0.11,0.17,-0.14,1009.14
9.995,-0.13,0.97,0.01,0.40,0.15,0.77,0.11,0.17,-0.14,1009.14
9.996,-0.15,0.97,0.02,0.40,0.15,0.77,0.11,0.17,-0.14,1009.14
9.998,-0.16,0.97,0.00,0.40,0.15,0.77,0.11,0.17,-0.14,1009.14
10.037,-0.16,0.97,0.00,0.40,0.15,0.77,0.11,0.17,-0.14,1009.22
10.038,-0.16,0.97,0.00,0.40,0.15,0.77,0.11,0.17,-0.14,1009.22
10.04,-0.13,1.00,0.01,0.40,0.15,0.77,0.11,0.17,-0.14,1009.22
10.041,-0.13,1.00,0.01,0.40,0.15,0.77,0.10,0.17,-0.18,1009.22
10.058,-0.09,1.02,0.01,0.40,0.15,0.77,0.10,0.17,-0.18,1009.22
10.059,-0.09,1.02,0.01,0.50,0.28,0.51,0.10,0.17,-0.18,1009.22
10.107,-0.09,1.02,0.01,0.50,0.28,0.51,0.06,0.18,-0.46,1009.22
10.109,-0.11,1.02,-0.02,0.50,0.28,0.51,0.06,0.18,-0.46,1009.22
10.109,-0.12,1.04,-0.05,0.50,0.28,0.51,0.06,0.18,-0.46,1009.22
10.115,-0.09,1.09,-0.08,0.50,0.28,0.51,0.06,0.18,-0.46,1009.22
10.116,-0.09,1.09,-0.08,0.50,0.28,0.51,0.06,0.18,-0.46,1009.29
10.128,-0.09,1.09,-0.08,1.06,0.68,0.48,0.06,0.18,-0.46,1009.29
10.129,-0.08,1.10,-0.07,1.06,0.68,0.48,0.06,0.18,-0.46,1009.29
10.156,-0.08,1.11,-0.07,1.06,0.68,0.48,0.06,0.18,-0.46,1009.29
10.157,-0.08,1.11,-0.07,1.06,0.68,0.48,0.06,0.18,-0.46,1009.38
10.178,-0.08,1.11,-0.07,1.06,0.68,0.48,-0.16,0.02,-1.03,1009.38
10.179,-0.14,1.09,-0.11,1.06,0.68,0.48,-0.16,0.02,-1.03,1009.38
10.192,-0.11,1.16,-0.05,1.06,0.68,0.48,-0.16,0.02,-1.03,1009.38
10.197,-0.11,1.16,-0.05,2.06,1.54,-0.30,-0.16,0.02,-1.03,1009.38
10.218,-0.03,1.25,-0.02,2.06,1.54,-0.30,-0.16,0.02,-1.03,1009.38
10.236,-0.01,1.32,-0.09,2.06,1.54,-0.30,-0.16,0.02,-1.03,1009.38
10.238,-0.01,1.32,-0.09,2.06,1.54,-0.30,-0.16,0.02,-1.03,1009.40
10.247,-0.01,1.32,-0.09,2.06,1.54,-0.30,-0.42,-0.05,-1.94,1009.40
10.259,0.04,1.40,-0.16,2.06,1.54,-0.30,-0.42,-0.05,-1.94,1009.40
10.268,0.16,1.48,-0.12,2.06,1.54,-0.30,-0.42,-0.05,-1.94,1009.40
10.269,0.16,1.48,-0.12,3.44,2.75,-0.68,-0.42,-0.05,-1.94,1009.40
10.317,0.16,1.48,-0.12,3.44,2.75,-0.68,-0.42,-0.05,-1.94,1009.32
10.318,0.34,1.55,0.04,3.44,2.75,-0.68,-0.42,-0.05,-1.94,1009.32
10.319,0.43,1.57,0.17,3.44,2.75,-0.68,-0.42,-0.05,-1.94,1009.32
10.319,0.43,1.57,0.17,3.44,2.75,-0.68,-0.91,0.31,-3.99,1009.32
10.339,0.19,1.53,0.11,3.44,2.75,-0.68,-0.91,0.31,-3.99,1009.32
10.34,0.19,1.53,0.11,7.29,6.97,-1.41,-0.91,0.31,-3.99,1009.32
10.357,-0.15,1.39,0.26,7.29,6.97,-1.41,-0.91,0.31,-3.99,1009.32
10.358,-0.15,1.39,0.26,7.29,6.97,-1.41,-0.91,0.31,-3.99,1009.06
10.396,-0.15,1.39,0.26,7.29,6.97,-1.41,-0.67,0.91,-5.84,1009.06
10.397,-0.22,1.24,0.46,7.29,6.97,-1.41,-0.67,0.91,-5.84,1009.06
10.398,-0.20,0.93,0.26,7.29,6.97,-1.41,-0.67,0.91,-5.84,1009.06
10.411,-1.49,-0.30,-0.07,7.29,6.97,-1.41,-0.67,0.91,-5.84,1009.06
10.412,-1.49,-0.30,-0.07,11.04,11.10,1.14,-0.67,0.91,-5.84,1009.06
10.436,-1.51,0.37,0.36,11.04,11.10,1.14,-0.67,0.91,-5.84,1009.06
10.437,-1.51,0.37,0.36,11.04,11.10,1.14,-0.67,0.91,-5.84,1008.70
10.458,-1.51,0.37,0.36,11.04,11.10,1.14,-0.01,0.30,-0.04,1008.70
10.46,0.47,0.64,-0.08,11.04,11.10,1.14,-0.01,0.30,-0.04,1008.70
10.478,0.47,0.64,-0.08,2.43,2.42,2.13,-0.01,0.30,-0.04,1008.70
10.479,0.45,0.57,-0.25,2.43,2.42,2.13,-0.01,0.30,-0.04,1008.70
10.516,-0.08,0.29,-0.01,2.43,2.42,2.13,-0.01,0.30,-0.04,1008.70
10.517,-0.38,0.13,0.20,2.43,2.42,2.13,-0.01,0.30,-0.04,1008.70
10.517,-0.38,0.13,0.20,2.43,2.42,2.13,-0.01,0.30,-0.04,1009.01
10.529,-0.38,0.13,0.20,2.43,2.42,2.13,-0.04,-0.22,2.80,1009.01
10.548,-0.38,0.13,0.20,4.99,-1.64,-0.08,-0.04,-0.22,2.80,1009.01
10.549,0.06,0.34,0.13,4.99,-1.64,-0.08,-0.04,-0.22,2.80,1009.01
10.55,0.16,0.54,0.01,4.99,-1.64,-0.08,-0.04,-0.22,2.80,1009.01
10.555,0.16,0.54,0.01,4.99,-1.64,-0.08,-0.04,-0.22,2.80,1009.08
10.595,-0.13,0.48,0.07,4.99,-1.64,-0.08,-0.04,-0.22,2.80,1009.08
10.596,-0.08,0.61,-0.11,4.99,-1.64,-0.08,-0.04,-0.22,2.80,1009.08
10.598,-0.08,0.61,-0.11,4.99,-1.64,-0.08,0.37,0.57,4.86,1009.08
10.619,-0.05,0.86,-0.28,4.99,-1.64,-0.08,0.37,0.57,4.86,1009.08
10.62,-0.05,0.86,-0.28,2.97,-5.22,1.39,0.37,0.57,4.86,1009.08
10.637,-0.15,0.96,-0.20,2.97,-5.22,1.39,0.37,0.57,4.86,1009.08
10.638,-0.15,0.96,-0.20,2.97,-5.22,1.39,0.37,0.57,4.86,1009.16
10.659,-0.19,1.13,-0.28,2.97,-5.22,1.39,0.37,0.57,4.86,1009.16
10.668,-0.19,1.13,-0.28,2.97,-5.22,1.39,0.53,-0.11,5.11,1009.16
10.696,-0.19,1.13,-0.28,-0.13,-2.27,-0.53,0.53,-0.11,5.11,1009.16
10.698,-0.01,1.46,-0.35,-0.13,-2.27,-0.53,0.53,-0.11,5.11,1009.16
10.699,-0.15,1.61,-0.20,-0.13,-2.27,-0.53,0.53,-0.11,5.11,1009.16
10.716,-0.40,1.66,-0.16,-0.13,-2.27,-0.53,0.53,-0.11,5.11,1009.16
10.717,-0.40,1.66,-0.16,-0.13,-2.27,-0.53,0.53,-0.11,5.11,1009.23
10.738,-0.40,1.66,-0.16,-0.13,-2.27,-0.53,0.46,-0.98,4.26,1009.23
10.739,-0.40,1.85,-0.28,-0.13,-2.27,-0.53,0.46,-0.98,4.26,1009.23
10.758,-0.58,1.88,-0.17,-0.13,-2.27,-0.53,0.46,-0.98,4.26,1009.23
10.759,-0.58,1.88,-0.17,-0.13,-2.27,-0.53,0.46,-0.98,4.26,1009.16
10.76,-0.58,1.88,-0.17,-2.93,4.13,-1.63,0.46,-0.98,4.26,1009.16
10.796,-0.88,1.61,0.27,-2.93,4.13,-1.63,0.46,-0.98,4.26,1009.16
10.797,-1.38,1.18,0.63,-2.93,4.13,-1.63,0.46,-0.98,4.26,1009.16
10.812,-1.38,1.18,0.63,-2.93,4.13,-1.63,0.34,-0.15,2.83,1009.16
10.829,-1.38,1.18,0.63,-7.78,8.70,-0.46,0.34,-0.15,2.83,1009.16
10.83,-2.30,0.92,0.49,-7.78,8.70,-0.46,0.34,-0.15,2.83,1009.16
10.831,-1.73,1.06,0.10,-7.78,8.70,-0.46,0.34,-0.15,2.83,1009.16
10.836,-1.73,1.06,0.10,-7.78,8.70,-0.46,0.34,-0.15,2.83,1009.23
10.859,-1.22,1.04,-0.15,-7.78,8.70,-0.46,0.34,-0.15,2.83,1009.23
10.878,-1.22,1.04,-0.15,-7.78,8.70,-0.46,-0.48,-0.35,-1.67,1009.23
10.879,-1.21,1.01,-0.11,-7.78,8.70,-0.46,-0.48,-0.35,-1.67,1009.23
10.898,-1.21,1.01,-0.11,-17.11,1.75,4.64,-0.48,-0.35,-1.67,1009.23
10.9,1.16,2.31,-0.50,-17.11,1.75,4.64,-0.48,-0.35,-1.67,1009.23
10.916,1.16,2.31,-0.50,-17.11,1.75,4.64,-0.48,-0.35,-1.67,1009.28
10.917,1.82,1.31,0.09,-17.11,1.75,4.64,-0.48,-0.35,-1.67,1009.28
10.938,-1.43,0.97,-0.09,-17.11,1.75,4.64,-0.48,-0.35,-1.67,1009.28
10.948,-1.43,0.97,-0.09,-17.11,1.75,4.64,-0.72,-0.51,-2.97,1009.28
10.957,-0.77,0.92,0.46,-17.11,1.75,4.64,-0.72,-0.51,-2.97,1009.28
10.958,-0.77,0.92,0.46,-17.11,1.75,4.64,-0.72,-0.51,-2.97,1009.44
10.968,-0.15,1.06,0.03,-17.11,1.75,4.64,-0.72,-0.51,-2.97,1009.44
10.969,-0.15,1.06,0.03,0.76,5.11,-1.83,-0.72,-0.51,-2.97,1009.44
10.999,-0.66,0.97,-0.22,0.76,5.11,-1.83,-0.72,-0.51,-2.97,1009.44
11.018,-0.66,0.97,-0.22,0.76,5.11,-1.83,-0.16,-0.46,-1.05,1009.44
11.019,-0.28,0.99,-0.12,0.76,5.11,-1.83,-0.16,-0.46,-1.05,1009.44
11.036,-0.30,0.91,0.26,0.76,5.11,-1.83,-0.16,-0.46,-1.05,1009.44
11.037,-0.30,0.91,0.26,0.76,5.11,-1.83,-0.16,-0.46,-1.05,1009.41
11.038,-0.30,0.91,0.26,-3.41,0.45,1.73,-0.16,-0.46,-1.05,1009.41
11.059,-0.15,0.97,0.04,-3.41,0.45,1.73,-0.16,-0.46,-1.05,1009.41
11.089,-0.15,0.97,0.04,-3.41,0.45,1.73,-0.01,-0.05,-0.34,1009.41
11.09,-0.20,0.96,0.07,-3.41,0.45,1.73,-0.01,-0.05,-0.34,1009.41
11.108,-0.20,0.96,0.07,-1.93,0.15,0.10,-0.01,-0.05,-0.34,1009.41
11.109,-0.16,0.95,0.13,-1.93,0.15,0.10,-0.01,-0.05,-0.34,1009.41
11.109,-0.16,0.98,0.02,-1.93,0.15,0.10,-0.01,-0.05,-0.34,1009.41
11.116,-0.16,0.98,0.02,-1.93,0.15,0.10,-0.01,-0.05,-0.34,1009.30
11.157,-0.16,0.98,0.02,-1.93,0.15,0.10,-0.01,-0.05,-0.34,1009.29
11.158,-0.19,1.01,-0.03,-1.93,0.15,0.10,-0.01,-0.05,-0.34,1009.29
11.159,-0.17,1.00,0.00,-1.93,0.15,0.10,-0.01,-0.05,-0.34,1009.29
11.159,-0.17,1.00,0.00,-1.93,0.15,0.10,0.12,0.01,-0.21,1009.29
11.178,-0.16,0.98,0.01,-1.93,0.15,0.10,0.12,0.01,-0.21,1009.29
11.18,-0.16,0.98,0.01,0.09,0.23,0.92,0.12,0.01,-0.21,1009.29
11.193,-0.17,0.97,0.02,0.09,0.23,0.92,0.12,0.01,-0.21,1009.29
11.228,-0.17,0.97,0.02,0.09,0.23,0.92,0.13,0.07,-0.14,1009.29
11.229,-0.18,0.96,-0.00,0.09,0.23,0.92,0.13,0.07,-0.14,1009.29
11.236,-0.17,0.97,0.00,0.09,0.23,0.92,0.13,0.07,-0.14,1009.29
11.236,-0.17,0.97,0.00,0.09,0.23,0.92,0.13,0.07,-0.14,1009.19
11.248,-0.17,0.97,0.00,0.21,0.53,0.39,0.13,0.07,-0.14,1009.19
11.25,-0.15,0.96,0.02,0.21,0.53,0.39,0.13,0.07,-0.14,1009.19
11.298,-0.15,0.96,0.02,0.21,0.53,0.39,0.14,0.15,-0.16,1009.19
11.299,-0.14,0.97,0.01,0.21,0.53,0.39,0.14,0.15,-0.16,1009.19
11.3,-0.16,0.97,0.01,0.21,0.53,0.39,0.14,0.15,-0.16,1009.19
11.316,-0.18,0.96,-0.03,0.21,0.53,0.39,0.14,0.15,-0.16,1009.19
11.317,-0.18,0.96,-0.03,0.21,0.53,0.39,0.14,0.15,-0.16,1009.14
11.318,-0.18,0.96,-0.03,0.33,0.28,0.58,0.14,0.15,-0.16,1009.14
11.356,-0.18,0.96,-0.03,0.33,0.28,0.58,0.14,0.15,-0.16,1009.20
11.358,-0.17,0.96,-0.00,0.33,0.28,0.58,0.14,0.15,-0.16,1009.20
11.359,-0.16,0.98,-0.03,0.33,0.28,0.58,0.14,0.15,-0.16,1009.20
11.368,-0.16,0.98,-0.03,0.33,0.28,0.58,0.14,0.16,-0.21,1009.20
11.388,-0.16,0.98,-0.03,0.53,0.32,0.58,0.14,0.16,-0.21,1009.20
11.389,-0.16,0.99,-0.01,0.53,0.32,0.58,0.14,0.16,-0.21,1009.20
11.39,-0.15,0.98,0.01,0.53,0.32,0.58,0.14,0.16,-0.21,1009.20
11.436,-0.15,0.98,0.01,0.53,0.32,0.58,0.14,0.16,-0.21,1009.28
11.438,-0.14,1.01,-0.00,0.53,0.32,0.58,0.14,0.16,-0.21,1009.28
11.439,-0.13,1.06,-0.09,0.53,0.32,0.58,0.14,0.16,-0.21,1009.28
11.439,-0.13,1.06,-0.09,0.53,0.32,0.58,0.16,0.21,-0.40,1009.28
11.459,-0.09,1.10,-0.13,0.53,0.32,0.58,0.16,0.21,-0.40,1009.28
11.46,-0.09,1.10,-0.13,0.88,0.52,0.66,0.16,0.21,-0.40,1009.28
11.508,-0.09,1.10,-0.13,0.88,0.52,0.66,-0.06,0.04,-1.02,1009.28
11.509,-0.06,1.13,-0.12,0.88,0.52,0.66,-0.06,0.04,-1.02,1009.28
11.51,-0.13,1.14,-0.17,0.88,0.52,0.66,-0.06,0.04,-1.02,1009.28
11.516,-0.07,1.20,-0.07,0.88,0.52,0.66,-0.06,0.04,-1.02,1009.28
11.516,-0.07,1.20,-0.07,0.88,0.52,0.66,-0.06,0.04,-1.02,1009.39
11.528,-0.07,1.20,-0.07,2.10,1.60,-0.13,-0.06,0.04,-1.02,1009.39
11.53,-0.03,1.27,-0.06,2.10,1.60,-0.13,-0.06,0.04,-1.02,1009.39
11.556,-0.02,1.33,-0.15,2.10,1.60,-0.13,-0.06,0.04,-1.02,1009.39
11.557,-0.02,1.33,-0.15,2.10,1.60,-0.13,-0.06,0.04,-1.02,1009.45
11.578,-0.02,1.33,-0.15,2.10,1.60,-0.13,-0.35,0.04,-2.13,1009.45
11.58,0.03,1.40,-0.16,2.10,1.60,-0.13,-0.35,0.04,-2.13,1009.45
11.592,0.18,1.48,-0.18,2.10,1.60,-0.13,-0.35,0.04,-2.13,1009.45
11.598,0.18,1.48,-0.18,4.00,3.49,-0.63,-0.35,0.04,-2.13,1009.45
11.636,0.18,1.48,-0.18,4.00,3.49,-0.63,-0.35,0.04,-2.13,1009.22
11.637,0.32,1.49,-0.04,4.00,3.49,-0.63,-0.35,0.04,-2.13,1009.22
11.638,0.43,1.49,0.13,4.00,3.49,-0.63,-0.35,0.04,-2.13,1009.22
11.648,0.43,1.49,0.13,4.00,3.49,-0.63,-0.90,0.45,-4.34,1009.22
11.659,0.17,1.48,0.15,4.00,3.49,-0.63,-0.90,0.45,-4.34,1009.22
11.668,0.17,1.48,0.15,7.96,7.65,-1.31,-0.90,0.45,-4.34,1009.22
11.669,-0.25,1.36,0.24,7.96,7.65,-1.31,-0.90,0.45,-4.34,1009.22
11.716,-0.25,1.36,0.24,7.96,7.65,-1.31,-0.90,0.45,-4.34,1008.93
11.717,-0.21,1.27,0.56,7.96,7.65,-1.31,-0.90,0.45,-4.34,1008.93
11.718,-0.35,0.88,0.23,7.96,7.65,-1.31,-0.90,0.45,-4.34,1008.93
11.718,-0.35,0.88,0.23,7.96,7.65,-1.31,-0.34,0.96,-5.46,1008.93
11.739,-1.86,-0.09,-0.23,7.96,7.65,-1.31,-0.34,0.96,-5.46,1008.93
11.74,-1.86,-0.09,-0.23,9.84,10.04,2.03,-0.34,0.96,-5.46,1008.93
11.756,-0.95,0.52,0.21,9.84,10.04,2.03,-0.34,0.96,-5.46,1008.93
11.757,-0.95,0.52,0.21,9.84,10.04,2.03,-0.34,0.96,-5.46,1008.88
11.788,0.56,0.73,-0.07,9.84,10.04,2.03,-0.34,0.96,-5.46,1008.88
11.79,0.56,0.73,-0.07,9.84,10.04,2.03,-0.09,-0.34,0.59,1008.88
11.798,0.33,0.55,-0.18,9.84,10.04,2.03,-0.09,-0.34,0.59,1008.88
11.817,0.33,0.55,-0.18,-1.41,1.73,2.21,-0.09,-0.34,0.59,1008.88
11.818,0.04,0.30,0.07,-1.41,1.73,2.21,-0.09,-0.34,0.59,1008.88
11.836,-0.21,0.21,0.11,-1.41,1.73,2.21,-0.09,-0.34,0.59,1008.88
11.837,-0.21,0.21,0.11,-1.41,1.73,2.21,-0.09,-0.34,0.59,1009.02
11.858,-0.15,0.30,0.05,-1.41,1.73,2.21,-0.09,-0.34,0.59,1009.02
11.859,-0.15,0.30,0.05,-1.41,1.73,2.21,-0.16,-0.63,2.78,1009.02
11.879,-0.15,0.30,0.05,8.96,-1.72,-0.63,-0.16,-0.63,2.78,1009.02
11.88,0.10,0.50,-0.03,8.96,-1.72,-0.63,-0.16,-0.63,2.78,1009.02
11.916,-0.09,0.54,-0.06,8.96,-1.72,-0.63,-0.16,-0.63,2.78,1009.02
11.917,-0.14,0.63,-0.14,8.96,-1.72,-0.63,-0.16,-0.63,2.78,1009.02
11.917,-0.14,0.63,-0.14,8.96,-1.72,-0.63,-0.16,-0.63,2.78,1009.08
11.933,-0.14,0.63,-0.14,8.96,-1.72,-0.63,0.34,0.04,4.99,1009.08
11.949,-0.14,0.63,-0.14,2.65,-4.94,0.43,0.34,0.04,4.99,1009.08
11.95,-0.09,0.82,-0.25,2.65,-4.94,0.43,0.34,0.04,4.99,1009.08
11.95,-0.11,0.98,-0.26,2.65,-4.94,0.43,0.34,0.04,4.99,1009.08
11.955,-0.11,0.98,-0.26,2.65,-4.94,0.43,0.34,0.04,4.99,1009.17
11.999,-0.18,1.18,-0.31,2.65,-4.94,0.43,0.34,0.04,4.99,1009.17
12.001,-0.08,1.48,-0.37,2.65,-4.94,0.43,0.34,0.04,4.99,1009.17
12.001,-0.08,1.48,-0.37,2.65,-4.94,0.43,0.77,-0.34,5.33,1009.17
12.018,0.09,1.85,-0.32,2.65,-4.94,0.43,0.77,-0.34,5.33,1009.17
12.019,0.09,1.85,-0.32,-0.81,-1.56,-1.35,0.77,-0.34,5.33,1009.17
12.036,-0.21,1.97,-0.16,-0.81,-1.56,-1.35,0.77,-0.34,5.33,1009.17
12.037,-0.21,1.97,-0.16,-0.81,-1.56,-1.35,0.77,-0.34,5.33,1009.23
12.059,-0.49,2.06,-0.24,-0.81,-1.56,-1.35,0.77,-0.34,5.33,1009.23
12.068,-0.49,2.06,-0.24,-0.81,-1.56,-1.35,0.38,-0.31,3.64,1009.23
12.078,-1.09,1.85,-0.26,-0.81,-1.56,-1.35,0.38,-0.31,3.64,1009.23
12.089,-1.49,1.33,0.15,-0.81,-1.56,-1.35,0.38,-0.31,3.64,1009.23
12.09,-1.49,1.33,0.15,-2.35,6.32,-2.22,0.38,-0.31,3.64,1009.23
12.116,-1.67,0.63,0.81,-2.35,6.32,-2.22,0.38,-0.31,3.64,1009.23
12.117,-1.67,0.63,0.81,-2.35,6.32,-2.22,0.38,-0.31,3.64,1009.24
12.138,-1.67,0.63,0.81,-2.35,6.32,-2.22,0.45,0.68,2.27,1009.24
12.14,-2.05,0.99,0.14,-2.35,6.32,-2.22,0.45,0.68,2.27,1009.24
12.156,-1.32,1.01,-0.17,-2.35,6.32,-2.22,0.45,0.68,2.27,1009.24
12.157,-1.32,1.01,-0.17,-2.35,6.32,-2.22,0.45,0.68,2.27,1009.23
12.158,-1.32,1.01,-0.17,-11.20,8.44,-0.31,0.45,0.68,2.27,1009.23
12.198,-1.42,0.76,-0.13,-11.20,8.44,-0.31,0.45,0.68,2.27,1009.23
12.199,-1.55,0.83,-0.10,-11.20,8.44,-0.31,0.45,0.68,2.27,1009.23
12.208,-1.55,0.83,-0.10,-11.20,8.44,-0.31,-0.39,-0.41,-1.50,1009.23
12.23,-1.55,0.83,-0.10,-16.56,-0.85,2.49,-0.39,-0.41,-1.50,1009.23
12.231,0.88,3.33,-0.61,-16.56,-0.85,2.49,-0.39,-0.41,-1.50,1009.23
12.231,2.43,0.52,0.20,-16.56,-0.85,2.49,-0.39,-0.41,-1.50,1009.23
12.237,2.43,0.52,0.20,-16.56,-0.85,2.49,-0.39,-0.41,-1.50,1009.36
12.26,-0.38,1.04,0.11,-16.56,-0.85,2.49,-0.39,-0.41,-1.50,1009.36
12.279,-0.38,1.04,0.11,-16.56,-0.85,2.49,-0.82,-0.11,-2.95,1009.36
12.28,-1.70,0.79,0.71,-16.56,-0.85,2.49,-0.82,-0.11,-2.95,1009.36
12.3,-1.70,0.79,0.71,3.73,4.86,-1.41,-0.82,-0.11,-2.95,1009.36
12.302,-0.39,1.07,0.33,3.73,4.86,-1.41,-0.82,-0.11,-2.95,1009.36
12.319,-0.51,1.07,-0.54,3.73,4.86,-1.41,-0.82,-0.11,-2.95,1009.36
12.32,-0.51,1.07,-0.54,3.73,4.86,-1.41,-0.82,-0.11,-2.95,1009.56
12.348,-0.51,1.07,-0.54,3.73,4.86,-1.41,-0.12,-0.38,-0.74,1009.56
12.35,-0.43,0.97,-0.18,3.73,4.86,-1.41,-0.12,-0.38,-0.74,1009.56
12.357,-0.18,0.96,0.14,3.73,4.86,-1.41,-0.12,-0.38,-0.74,1009.56
12.357,-0.18,0.96,0.14,3.73,4.86,-1.41,-0.12,-0.38,-0.74,1009.48
12.369,-0.11,0.98,0.11,3.73,4.86,-1.41,-0.12,-0.38,-0.74,1009.48
12.37,-0.11,0.98,0.11,-5.80,0.37,2.43,-0.12,-0.38,-0.74,1009.48
12.392,-0.18,0.96,0.06,-5.80,0.37,2.43,-0.12,-0.38,-0.74,1009.48
12.419,-0.18,0.96,0.06,-5.80,0.37,2.43,-0.13,-0.05,-0.29,1009.48
12.42,-0.13,0.95,0.17,-5.80,0.37,2.43,-0.13,-0.05,-0.29,1009.48
12.437,-0.15,0.99,0.04,-5.80,0.37,2.43,-0.13,-0.05,-0.29,1009.48
12.438,-0.15,0.99,0.04,-5.80,0.37,2.43,-0.13,-0.05,-0.29,1009.31
12.439,-0.15,0.99,0.04,-1.64,0.34,-0.54,-0.13,-0.05,-0.29,1009.31
12.463,-0.18,0.99,0.01,-1.64,0.34,-0.54,-0.13,-0.05,-0.29,1009.31
12.489,-0.18,0.99,0.01,-1.64,0.34,-0.54,-0.05,0.04,-0.15,1009.31
12.49,-0.15,1.00,0.03,-1.64,0.34,-0.54,-0.05,0.04,-0.15,1009.31
12.509,-0.15,1.00,0.03,0.07,0.24,0.69,-0.05,0.04,-0.15,1009.31
12.509,-0.16,0.99,0.03,0.07,0.24,0.69,-0.05,0.04,-0.15,1009.31
12.51,-0.14,0.97,0.07,0.07,0.24,0.69,-0.05,0.04,-0.15,1009.31
12.516,-0.14,0.97,0.07,0.07,0.24,0.69,-0.05,0.04,-0.15,1009.25
12.557,-0.14,0.97,0.07,0.07,0.24,0.69,-0.05,0.04,-0.15,1009.13
12.558,-0.14,0.97,0.08,0.07,0.24,0.69,-0.05,0.04,-0.15,1009.13
12.558,-0.14,0.97,0.04,0.07,0.24,0.69,-0.05,0.04,-0.15,1009.13
12.559,-0.14,0.97,0.04,0.07,0.24,0.69,-0.01,0.12,-0.10,1009.13
12.58,-0.14,0.97,0.04,0.16,0.43,0.29,-0.01,0.12,-0.10,1009.13
12.581,-0.14,0.96,0.06,0.16,0.43,0.29,-0.01,0.12,-0.10,1009.13
12.592,-0.15,0.96,0.06,0.16,0.43,0.29,-0.01,0.12,-0.10,1009.13
12.629,-0.14,0.96,0.05,0.16,0.43,0.29,-0.01,0.12,-0.10,1009.13
12.63,-0.14,0.96,0.05,0.16,0.43,0.29,0.00,0.16,-0.10,1009.13
12.636,-0.15,0.96,0.04,0.16,0.43,0.29,0.00,0.16,-0.10,1009.13
12.636,-0.15,0.96,0.04,0.16,0.43,0.29,0.00,0.16,-0.10,1009.16
12.65,-0.15,0.96,0.04,0.33,0.19,0.51,0.00,0.16,-0.10,1009.16
12.651,-0.17,0.97,0.02,0.33,0.19,0.51,0.00,0.16,-0.10,1009.16
12.702,-0.17,0.97,0.02,0.33,0.19,0.51,-0.00,0.15,-0.13,1009.16
12.704,-0.12,0.99,0.05,0.33,0.19,0.51,-0.00,0.15,-0.13,1009.16
12.705,-0.15,0.99,0.04,0.33,0.19,0.51,-0.00,0.15,-0.13,1009.16
12.72,-0.12,1.00,0.03,0.33,0.19,0.51,-0.00,0.15,-0.13,1009.16
12.721,-0.12,1.00,0.03,0.33,0.19,0.51,-0.00,0.15,-0.13,1009.19
12.722,-0.12,1.00,0.03,0.36,0.22,0.37,-0.00,0.15,-0.13,1009.19
12.756,-0.12,1.00,0.03,0.36,0.22,0.37,-0.00,0.15,-0.13,1009.25
12.758,-0.13,1.02,0.01,0.36,0.22,0.37,-0.00,0.15,-0.13,1009.25
12.758,-0.12,1.04,-0.01,0.36,0.22,0.37,-0.00,0.15,-0.13,1009.25
12.768,-0.12,1.04,-0.01,0.36,0.22,0.37,-0.10,0.20,-0.28,1009.25
12.789,-0.12,1.04,-0.01,0.76,0.59,0.24,-0.10,0.20,-0.28,1009.25
12.79,-0.10,1.05,-0.02,0.76,0.59,0.24,-0.10,0.20,-0.28,1009.25
12.791,-0.06,1.07,0.02,0.76,0.59,0.24,-0.10,0.20,-0.28,1009.25
12.836,-0.06,1.07,0.02,0.76,0.59,0.24,-0.10,0.20,-0.28,1009.31
12.838,-0.04,1.07,0.07,0.76,0.59,0.24,-0.10,0.20,-0.28,1009.31
12.839,-0.06,1.08,0.06,0.76,0.59,0.24,-0.10,0.20,-0.28,1009.31
12.839,-0.06,1.08,0.06,0.76,0.59,0.24,-0.24,0.15,-0.76,1009.31
12.859,-0.06,1.08,0.06,1.68,1.21,-0.27,-0.24,0.15,-0.76,1009.31
12.86,-0.05,1.14,0.04,1.68,1.21,-0.27,-0.24,0.15,-0.76,1009.31
12.902,-0.02,1.18,0.07,1.68,1.21,-0.27,-0.24,0.15,-0.76,1009.31
12.903,-0.05,1.26,-0.07,1.68,1.21,-0.27,-0.24,0.15,-0.76,1009.31
12.911,-0.02,1.30,-0.08,1.68,1.21,-0.27,-0.24,0.15,-0.76,1009.31
12.911,-0.02,1.30,-0.08,1.68,1.21,-0.27,-0.45,0.22,-1.67,1009.31
12.925,-0.02,1.30,-0.08,1.68,1.21,-0.27,-0.45,0.22,-1.67,1009.48
12.931,-0.02,1.30,-0.08,3.42,2.25,0.05,-0.45,0.22,-1.67,1009.48
12.932,0.02,1.38,-0.13,3.42,2.25,0.05,-0.45,0.22,-1.67,1009.48
12.956,0.09,1.43,-0.11,3.42,2.25,0.05,-0.45,0.22,-1.67,1009.48
12.957,0.09,1.43,-0.11,3.42,2.25,0.05,-0.45,0.22,-1.67,1009.43
12.979,0.09,1.43,-0.11,3.42,2.25,0.05,-0.94,0.24,-3.17,1009.43
12.98,0.21,1.49,0.10,3.42,2.25,0.05,-0.94,0.24,-3.17,1009.43
12.992,0.32,1.53,0.17,3.42,2.25,0.05,-0.94,0.24,-3.17,1009.43
12.999,0.32,1.53,0.17,5.68,5.36,-1.71,-0.94,0.24,-3.17,1009.43
13.036,0.25,1.52,0.16,5.68,5.36,-1.71,-0.94,0.24,-3.17,1009.43
13.038,-0.15,1.35,0.30,5.68,5.36,-1.71,-0.94,0.24,-3.17,1009.43
13.038,-0.15,1.35,0.30,5.68,5.36,-1.71,-0.94,0.24,-3.17,1009.12
13.05,-0.15,1.35,0.30,5.68,5.36,-1.71,-1.26,0.87,-5.24,1009.12
13.059,-0.37,1.20,0.42,5.68,5.36,-1.71,-1.26,0.87,-5.24,1009.12
13.069,-0.37,1.11,0.31,5.68,5.36,-1.71,-1.26,0.87,-5.24,1009.12
13.07,-0.37,1.11,0.31,10.15,9.95,-0.30,-1.26,0.87,-5.24,1009.12
13.116,-0.37,1.11,0.31,10.15,9.95,-0.30,-1.26,0.87,-5.24,1008.53
13.117,-0.58,-0.12,0.08,10.15,9.95,-0.30,-1.26,0.87,-5.24,1008.53
13.118,-1.49,0.27,0.45,10.15,9.95,-0.30,-1.26,0.87,-5.24,1008.53
13.118,-1.49,0.27,0.45,10.15,9.95,-0.30,-0.76,1.39,-2.57,1008.53
13.138,0.03,0.43,0.05,10.15,9.95,-0.30,-0.76,1.39,-2.57,1008.53
13.139,0.03,0.43,0.05,6.09,7.90,2.78,-0.76,1.39,-2.57,1008.53
13.156,0.38,0.55,-0.18,6.09,7.90,2.78,-0.76,1.39,-2.57,1008.53
13.157,0.38,0.55,-0.18,6.09,7.90,2.78,-0.76,1.39,-2.57,1009.00
13.189,0.38,0.55,-0.18,6.09,7.90,2.78,-0.36,0.70,1.79,1009.00
13.19,0.13,0.40,-0.22,6.09,7.90,2.78,-0.36,0.70,1.79,1009.00
13.192,-0.33,0.22,-0.13,6.09,7.90,2.78,-0.36,0.70,1.79,1009.00
13.209,-0.43,0.22,-0.09,6.09,7.90,2.78,-0.36,0.70,1.79,1009.00
13.21,-0.43,0.22,-0.09,2.13,-3.21,1.13,-0.36,0.70,1.79,1009.00
13.236,-0.15,0.36,-0.10,2.13,-3.21,1.13,-0.36,0.70,1.79,1009.00
13.237,-0.15,0.36,-0.10,2.13,-3.21,1.13,-0.36,0.70,1.79,1009.14
13.26,-0.15,0.36,-0.10,2.13,-3.21,1.13,0.02,-0.25,4.58,1009.14
13.261,0.08,0.53,-0.10,2.13,-3.21,1.13,0.02,-0.25,4.58,1009.14
13.279,-0.05,0.61,-0.04,2.13,-3.21,1.13,0.02,-0.25,4.58,1009.14
13.281,-0.05,0.61,-0.04,3.65,-4.78,-1.87,0.02,-0.25,4.58,1009.14
13.321,-0.11,0.77,-0.11,3.65,-4.78,-1.87,0.02,-0.25,4.58,1009.14
13.322,-0.05,0.98,-0.22,3.65,-4.78,-1.87,0.02,-0.25,4.58,1009.14
13.322,-0.05,0.98,-0.22,3.65,-4.78,-1.87,0.02,-0.25,4.58,1009.11
13.347,-0.05,0.98,-0.22,3.65,-4.78,-1.87,0.69,0.13,5.25,1009.11
13.349,-0.05,0.98,-0.22,1.25,-3.76,-0.55,0.69,0.13,5.25,1009.11
13.35,-0.14,1.15,-0.31,1.25,-3.76,-0.55,0.69,0.13,5.25,1009.11
13.35,-0.09,1.40,-0.33,1.25,-3.76,-0.55,0.69,0.13,5.25,1009.11
13.357,-0.09,1.40,-0.33,1.25,-3.76,-0.55,0.69,0.13,5.25,1009.24
13.394,0.10,1.74,-0.22,1.25,-3.76,-0.55,0.69,0.13,5.25,1009.24
13.395,-0.36,1.82,-0.09,1.25,-3.76,-0.55,0.69,0.13,5.25,1009.24
13.4,-0.36,1.82,-0.09,1.25,-3.76,-0.55,0.54,0.26,4.29,1009.24
13.419,-0.36,1.82,-0.09,-1.66,1.93,-2.12,0.54,0.26,4.29,1009.24
13.42,-0.63,1.84,-0.09,-1.66,1.93,-2.12,0.54,0.26,4.29,1009.24
13.436,-0.96,1.64,-0.04,-1.66,1.93,-2.12,0.54,0.26,4.29,1009.24
13.437,-0.96,1.64,-0.04,-1.66,1.93,-2.12,0.54,0.26,4.29,1009.21
13.459,-1.14,1.46,-0.03,-1.66,1.93,-2.12,0.54,0.26,4.29,1009.21
13.469,-1.14,1.46,-0.03,-1.66,1.93,-2.12,0.25,1.21,3.48,1009.21
13.489,-1.14,1.46,-0.03,-6.03,8.52,-0.75,0.25,1.21,3.48,1009.21
13.491,-1.03,1.58,-0.02,-6.03,8.52,-0.75,0.25,1.21,3.48,1009.21
13.492,-2.03,1.07,0.06,-6.03,8.52,-0.75,0.25,1.21,3.48,1009.21
13.519,-2.59,0.53,0.01,-6.03,8.52,-0.75,0.25,1.21,3.48,1009.21
13.521,-2.59,0.53,0.01,-6.03,8.52,-0.75,0.25,1.21,3.48,1009.30
13.542,-0.95,1.24,-0.07,-6.03,8.52,-0.75,0.25,1.21,3.48,1009.30
13.543,-0.95,1.24,-0.07,-6.03,8.52,-0.75,-0.30,0.09,-1.38,1009.30
13.556,0.11,1.01,0.09,-6.03,8.52,-0.75,-0.30,0.09,-1.38,1009.30
13.557,0.11,1.01,0.09,-6.03,8.52,-0.75,-0.30,0.09,-1.38,1009.29
13.558,0.11,1.01,0.09,-13.71,4.41,0.28,-0.30,0.09,-1.38,1009.29
13.592,0.61,1.11,-0.15,-13.71,4.41,0.28,-0.30,0.09,-1.38,1009.29
13.594,-0.86,0.95,-0.24,-13.71,4.41,0.28,-0.30,0.09,-1.38,1009.29
13.609,-0.86,0.95,-0.24,-13.71,4.41,0.28,-0.20,-0.55,-2.54,1009.29
13.63,-0.86,0.95,-0.24,-7.49,0.18,0.29,-0.20,-0.55,-2.54,1009.29
13.631,-0.87,0.89,0.28,-7.49,0.18,0.29,-0.20,-0.55,-2.54,1009.29
13.632,-0.31,1.07,0.06,-7.49,0.18,0.29,-0.20,-0.55,-2.54,1009.29
13.636,-0.31,1.07,0.06,-7.49,0.18,0.29,-0.20,-0.55,-2.54,1009.51
13.66,-0.33,1.01,-0.27,-7.49,0.18,0.29,-0.20,-0.55,-2.54,1009.51
13.68,-0.33,1.01,-0.27,-7.49,0.18,0.29,-0.02,-0.38,-0.73,1009.51
13.681,-0.23,0.99,0.04,-7.49,0.18,0.29,-0.02,-0.38,-0.73,1009.51
13.7,-0.23,0.99,0.04,-3.89,0.31,0.10,-0.02,-0.38,-0.73,1009.51
13.7,-0.18,0.93,0.13,-3.89,0.31,0.10,-0.02,-0.38,-0.73,1009.51
13.716,-0.17,0.97,0.02,-3.89,0.31,0.10,-0.02,-0.38,-0.73,1009.51
13.717,-0.17,0.97,0.02,-3.89,0.31,0.10,-0.02,-0.38,-0.73,1009.46
13.74,-0.18,0.99,-0.01,-3.89,0.31,0.10,-0.02,-0.38,-0.73,1009.46
13.76,-0.18,0.99,-0.01,-3.89,0.31,0.10,-0.07,-0.07,-0.33,1009.46
13.76,-0.17,0.97,0.07,-3.89,0.31,0.10,-0.07,-0.07,-0.33,1009.46
13.761,-0.17,0.97,0.07,-3.89,0.31,0.10,-0.07,-0.07,-0.33,1009.35
13.77,-0.16,0.97,0.08,-3.89,0.31,0.10,-0.07,-0.07,-0.33,1009.35
13.771,-0.16,0.97,0.08,-0.73,0.31,-0.07,-0.07,-0.07,-0.33,1009.35
13.794,-0.16,0.98,0.04,-0.73,0.31,-0.07,-0.07,-0.07,-0.33,1009.35
13.82,-0.16,0.98,0.04,-0.73,0.31,-0.07,0.03,-0.00,-0.18,1009.35
13.821,-0.15,0.99,0.03,-0.73,0.31,-0.07,0.03,-0.00,-0.18,1009.35
13.839,-0.15,0.99,0.04,-0.73,0.31,-0.07,0.03,-0.00,-0.18,1009.35
13.84,-0.15,0.99,0.04,-0.73,0.31,-0.07,0.03,-0.00,-0.18,1009.29
13.84,-0.15,0.99,0.04,-0.06,0.37,0.50,0.03,-0.00,-0.18,1009.29
13.86,-0.17,0.98,0.02,-0.06,0.37,0.50,0.03,-0.00,-0.18,1009.29
13.889,-0.17,0.98,0.02,-0.06,0.37,0.50,0.06,0.06,-0.09,1009.29
13.891,-0.16,0.97,0.02,-0.06,0.37,0.50,0.06,0.06,-0.09,1009.29
13.909,-0.16,0.97,0.02,0.14,0.44,0.52,0.06,0.06,-0.09,1009.29
13.91,-0.15,0.97,0.02,0.14,0.44,0.52,0.06,0.06,-0.09,1009.29
13.911,-0.15,0.97,0.03,0.14,0.44,0.52,0.06,0.06,-0.09,1009.29
13.922,-0.15,0.97,0.03,0.14,0.44,0.52,0.06,0.06,-0.09,1009.24
13.956,-0.15,0.97,0.03,0.14,0.44,0.52,0.06,0.06,-0.09,1009.18
13.958,-0.15,0.96,0.03,0.14,0.44,0.52,0.06,0.06,-0.09,1009.18
13.958,-0.14,0.96,0.04,0.14,0.44,0.52,0.06,0.06,-0.09,1009.18
13.959,-0.14,0.96,0.04,0.14,0.44,0.52,0.08,0.09,-0.07,1009.18
13.979,-0.15,0.96,0.02,0.14,0.44,0.52,0.08,0.09,-0.07,1009.18
13.98,-0.15,0.96,0.02,0.15,0.30,0.47,0.08,0.09,-0.07,1009.18
13.992,-0.14,0.97,0.02,0.15,0.30,0.47,0.08,0.09,-0.07,1009.18
14.029,-0.14,0.97,0.02,0.15,0.30,0.47,0.11,0.09,-0.10,1009.18
14.031,-0.14,0.97,0.02,0.15,0.30,0.47,0.11,0.09,-0.10,1009.18
14.043,-0.15,0.97,0.03,0.15,0.30,0.47,0.11,0.09,-0.10,1009.18
14.044,-0.15,0.97,0.03,0.15,0.30,0.47,0.11,0.09,-0.10,1009.23
14.05,-0.15,0.96,0.03,0.15,0.30,0.47,0.11,0.09,-0.10,1009.23
14.051,-0.15,0.96,0.03,0.36,0.21,0.63,0.11,0.09,-0.10,1009.23
14.106,-0.14,0.98,0.02,0.36,0.21,0.63,0.11,0.09,-0.10,1009.23
14.107,-0.13,1.00,0.01,0.36,0.21,0.63,0.11,0.09,-0.10,1009.23
14.108,-0.13,1.00,0.01,0.36,0.21,0.63,0.19,0.12,-0.16,1009.23
14.125,-0.09,1.03,0.02,0.36,0.21,0.63,0.19,0.12,-0.16,1009.23
14.126,-0.09,1.03,0.02,0.36,0.21,0.63,0.19,0.12,-0.16,1009.29
14.127,-0.09,1.03,0.02,0.46,0.30,0.71,0.19,0.12,-0.16,1009.29
14.138,-0.08,1.04,0.01,0.46,0.30,0.71,0.19,0.12,-0.16,1009.29
14.156,-0.08,1.06,-0.06,0.46,0.30,0.71,0.19,0.12,-0.16,1009.29
14.157,-0.08,1.06,-0.06,0.46,0.30,0.71,0.19,0.12,-0.16,1009.28
14.169,-0.08,1.06,-0.06,0.46,0.30,0.71,0.20,0.32,-0.48,1009.28
14.191,-0.08,1.11,-0.09,0.46,0.30,0.71,0.20,0.32,-0.48,1009.28
14.192,-0.01,1.21,-0.15,0.46,0.30,0.71,0.20,0.32,-0.48,1009.28
14.193,-0.01,1.21,-0.15,1.17,0.81,0.74,0.20,0.32,-0.48,1009.28
14.224,0.02,1.25,-0.09,1.17,0.81,0.74,0.20,0.32,-0.48,1009.28
14.245,0.02,1.32,-0.14,1.17,0.81,0.74,0.20,0.32,-0.48,1009.28
14.246,0.02,1.32,-0.14,1.17,0.81,0.74,0.20,0.32,-0.48,1009.32
14.247,0.02,1.32,-0.14,1.17,0.81,0.74,-0.13,0.18,-1.36,1009.32
14.26,0.00,1.38,-0.20,1.17,0.81,0.74,-0.13,0.18,-1.36,1009.32
14.261,0.00,1.38,-0.20,2.78,2.12,-0.34,-0.13,0.18,-1.36,1009.32
14.309,0.00,1.38,-0.20,2.78,2.12,-0.34,-0.74,0.12,-2.89,1009.32
14.31,0.04,1.44,-0.23,2.78,2.12,-0.34,-0.74,0.12,-2.89,1009.32
14.31,0.17,1.47,-0.12,2.78,2.12,-0.34,-0.74,0.12,-2.89,1009.32
14.323,0.35,1.50,0.03,2.78,2.12,-0.34,-0.74,0.12,-2.89,1009.32
14.323,0.35,1.50,0.03,2.78,2.12,-0.34,-0.74,0.12,-2.89,1009.27
14.33,0.35,1.50,0.03,5.42,5.26,-1.51,-0.74,0.12,-2.89,1009.27
14.33,0.43,1.48,0.06,5.42,5.26,-1.51,-0.74,0.12,-2.89,1009.27
14.357,0.31,1.48,-0.08,5.42,5.26,-1.51,-0.74,0.12,-2.89,1009.27
14.358,0.31,1.48,-0.08,5.42,5.26,-1.51,-0.74,0.12,-2.89,1009.00
14.38,-0.10,1.25,0.30,5.42,5.26,-1.51,-0.74,0.12,-2.89,1009.00
14.381,-0.10,1.25,0.30,5.42,5.26,-1.51,-1.56,1.06,-5.21,1009.00
14.392,-0.35,1.08,0.52,5.42,5.26,-1.51,-1.56,1.06,-5.21,1009.00
14.4,-0.35,1.08,0.52,10.39,9.10,-0.40,-1.56,1.06,-5.21,1009.00
14.44,-0.35,0.87,0.23,10.39,9.10,-0.40,-1.56,1.06,-5.21,1009.00
14.442,-1.42,-0.32,-0.03,10.39,9.10,-0.40,-1.56,1.06,-5.21,1009.00
14.443,-1.42,-0.32,-0.03,10.39,9.10,-0.40,-1.56,1.06,-5.21,1008.84
14.461,-1.42,-0.32,-0.03,10.39,9.10,-0.40,-0.80,1.30,-2.96,1008.84
14.463,-1.07,0.40,0.17,10.39,9.10,-0.40,-0.80,1.30,-2.96,1008.84
14.47,-1.07,0.40,0.17,6.98,7.15,2.84,-0.80,1.30,-2.96,1008.84
14.471,0.62,0.59,-0.10,6.98,7.15,2.84,-0.80,1.30,-2.96,1008.84
14.516,0.62,0.59,-0.10,6.98,7.15,2.84,-0.80,1.30,-2.96,1009.04
14.517,0.26,0.47,-0.14,6.98,7.15,2.84,-0.80,1.30,-2.96,1009.04
14.517,0.02,0.29,0.01,6.98,7.15,2.84,-0.80,1.30,-2.96,1009.04
14.52,0.02,0.29,0.01,6.98,7.15,2.84,-1.12,-0.06,1.83,1009.04
14.538,-0.18,0.27,-0.06,6.98,7.15,2.84,-1.12,-0.06,1.83,1009.04
14.54,-0.18,0.27,-0.06,1.18,-3.37,-0.20,-1.12,-0.06,1.83,1009.04
14.556,-0.22,0.38,-0.27,1.18,-3.37,-0.20,-1.12,-0.06,1.83,1009.04
14.557,-0.22,0.38,-0.27,1.18,-3.37,-0.20,-1.12,-0.06,1.83,1009.10
14.591,-0.02,0.50,-0.33,1.18,-3.37,-0.20,-1.12,-0.06,1.83,1009.10
14.592,-0.02,0.50,-0.33,1.18,-3.37,-0.20,-1.00,0.10,4.26,1009.10
14.593,0.00,0.62,-0.35,1.18,-3.37,-0.20,-1.00,0.10,4.26,1009.10
14.61,0.00,0.62,-0.35,4.40,-4.61,-1.44,-1.00,0.10,4.26,1009.10
14.612,-0.12,0.79,-0.50,4.40,-4.61,-1.44,-1.00,0.10,4.26,1009.10
14.636,-0.25,0.94,-0.61,4.40,-4.61,-1.44,-1.00,0.10,4.26,1009.10
14.637,-0.25,0.94,-0.61,4.40,-4.61,-1.44,-1.00,0.10,4.26,1009.11
14.66,-0.20,1.12,-0.70,4.40,-4.61,-1.44,-1.00,0.10,4.26,1009.11
14.661,-0.20,1.12,-0.70,4.40,-4.61,-1.44,0.09,1.24,4.97,1009.11
14.68,-0.20,1.12,-0.70,0.98,-3.06,-3.71,0.09,1.24,4.97,1009.11
14.681,-0.11,1.32,-0.72,0.98,-3.06,-3.71,0.09,1.24,4.97,1009.11
14.716,0.05,1.65,-0.76,0.98,-3.06,-3.71,0.09,1.24,4.97,1009.11
14.718,-0.38,1.74,-0.56,0.98,-3.06,-3.71,0.09,1.24,4.97,1009.11
14.718,-0.38,1.74,-0.56,0.98,-3.06,-3.71,0.09,1.24,4.97,1009.22
14.729,-0.38,1.74,-0.56,0.98,-3.06,-3.71,0.44,2.13,3.76,1009.22
14.738,-0.69,1.68,-0.44,0.98,-3.06,-3.71,0.44,2.13,3.76,1009.22
14.75,-0.70,1.76,-0.64,0.98,-3.06,-3.71,0.44,2.13,3.76,1009.22
14.75,-0.70,1.76,-0.64,-2.01,2.49,-6.36,0.44,2.13,3.76,1009.22
14.755,-0.70,1.76,-0.64,-2.01,2.49,-6.36,0.44,2.13,3.76,1009.29
14.771,-1.38,1.28,-0.28,-2.01,2.49,-6.36,0.44,2.13,3.76,1009.29
14.793,-1.37,1.28,-0.32,-2.01,2.49,-6.36,0.44,2.13,3.76,1009.29
14.8,-1.37,1.28,-0.32,-2.01,2.49,-6.36,-0.13,2.76,2.19,1009.29
14.827,-1.52,1.02,-0.18,-2.01,2.49,-6.36,-0.13,2.76,2.19,1009.29
14.828,-1.52,1.02,-0.18,-6.11,7.75,-5.57,-0.13,2.76,2.19,1009.29
14.846,-2.29,0.47,0.12,-6.11,7.75,-5.57,-0.13,2.76,2.19,1009.29
14.847,-2.29,0.47,0.12,-6.11,7.75,-5.57,-0.13,2.76,2.19,1009.27
14.86,-0.46,1.36,0.38,-6.11,7.75,-5.57,-0.13,2.76,2.19,1009.27
14.869,-0.46,1.36,0.38,-6.11,7.75,-5.57,-0.32,0.66,-1.46,1009.27
14.89,-0.46,1.36,0.38,-14.87,1.43,-1.95,-0.32,0.66,-1.46,1009.27
14.892,-0.55,0.86,0.69,-14.87,1.43,-1.95,-0.32,0.66,-1.46,1009.27
14.892,0.42,1.20,-0.07,-14.87,1.43,-1.95,-0.32,0.66,-1.46,1009.27
14.916,-0.84,0.90,-0.09,-14.87,1.43,-1.95,-0.32,0.66,-1.46,1009.27
14.917,-0.84,0.90,-0.09,-14.87,1.43,-1.95,-0.32,0.66,-1.46,1009.28
14.938,-1.02,0.95,0.04,-14.87,1.43,-1.95,-0.32,0.66,-1.46,1009.28
14.944,-1.02,0.95,0.04,-14.87,1.43,-1.95,0.40,-0.46,-1.86,1009.28
14.956,-0.14,1.10,-0.33,-14.87,1.43,-1.95,0.40,-0.46,-1.86,1009.28
14.957,-0.14,1.10,-0.33,-14.87,1.43,-1.95,0.40,-0.46,-1.86,1009.64
14.959,-0.14,1.10,-0.33,-3.42,0.95,3.20,0.40,-0.46,-1.86,1009.64
14.993,-0.48,0.98,-0.18,-3.42,0.95,3.20,0.40,-0.46,-1.86,1009.64
14.994,-0.16,0.96,0.07,-3.42,0.95,3.20,0.40,-0.46,-1.86,1009.64
15.01,-0.16,0.96,0.07,-3.42,0.95,3.20,0.01,-0.27,-0.46,1009.64
15.03,-0.16,0.96,0.07,-4.86,0.38,-1.05,0.01,-0.27,-0.46,1009.64
15.032,-0.14,0.94,0.06,-4.86,0.38,-1.05,0.01,-0.27,-0.46,1009.64
15.032,-0.24,0.98,0.01,-4.86,0.38,-1.05,0.01,-0.27,-0.46,1009.64
15.042,-0.24,0.98,0.01,-4.86,0.38,-1.05,0.01,-0.27,-0.46,1009.43
15.06,-0.22,0.99,-0.04,-4.86,0.38,-1.05,0.01,-0.27,-0.46,1009.43
15.08,-0.22,0.99,-0.04,-4.86,0.38,-1.05,-0.09,-0.04,-0.20,1009.43
15.081,-0.17,0.97,0.05,-4.86,0.38,-1.05,-0.09,-0.04,-0.20,1009.43
15.1,-0.17,0.97,0.05,-0.23,0.29,0.17,-0.09,-0.04,-0.20,1009.43
15.101,-0.19,0.98,0.05,-0.23,0.29,0.17,-0.09,-0.04,-0.20,1009.43
15.116,-0.18,0.98,0.03,-0.23,0.29,0.17,-0.09,-0.04,-0.20,1009.43
15.117,-0.18,0.98,0.03,-0.23,0.29,0.17,-0.09,-0.04,-0.20,1009.37
15.139,-0.17,0.99,0.04,-0.23,0.29,0.17,-0.09,-0.04,-0.20,1009.37
15.15,-0.17,0.99,0.04,-0.23,0.29,0.17,-0.04,0.03,-0.10,1009.37
15.156,-0.18,0.99,0.02,-0.23,0.29,0.17,-0.04,0.03,-0.10,1009.37
15.157,-0.18,0.99,0.02,-0.23,0.29,0.17,-0.04,0.03,-0.10,1009.26
15.17,-0.18,0.98,0.02,-0.23,0.29,0.17,-0.04,0.03,-0.10,1009.26
15.17,-0.18,0.98,0.02,-0.12,0.42,0.26,-0.04,0.03,-0.10,1009.26
15.194,-0.17,0.97,0.05,-0.12,0.42,0.26,-0.04,0.03,-0.10,1009.26
15.228,-0.17,0.97,0.05,-0.12,0.42,0.26,-0.02,0.08,-0.08,1009.26
15.229,-0.17,0.97,0.03,-0.12,0.42,0.26,-0.02,0.08,-0.08,1009.26
15.244,-0.17,0.97,0.03,-0.12,0.42,0.26,-0.02,0.08,-0.08,1009.17
15.245,-0.17,0.97,0.03,-0.12,0.42,0.26,-0.02,0.08,-0.08,1009.17
15.245,-0.17,0.97,0.03,0.12,0.46,0.37,-0.02,0.08,-0.08,1009.17
15.26,-0.16,0.96,0.05,0.12,0.46,0.37,-0.02,0.08,-0.08,1009.17
15.291,-0.16,0.96,0.05,0.12,0.46,0.37,0.02,0.15,-0.10,1009.17
15.293,-0.16,0.96,0.08,0.12,0.46,0.37,0.02,0.15,-0.10,1009.17
15.31,-0.16,0.96,0.08,0.22,0.31,0.48,0.02,0.15,-0.10,1009.17
15.311,-0.17,0.96,0.05,0.22,0.31,0.48,0.02,0.15,-0.10,1009.17
15.312,-0.19,0.96,0.02,0.22,0.31,0.48,0.02,0.15,-0.10,1009.17
15.315,-0.19,0.96,0.02,0.22,0.31,0.48,0.02,0.15,-0.10,1009.15
15.356,-0.18,0.97,0.03,0.22,0.31,0.48,0.02,0.15,-0.10,1009.15
15.358,-0.15,0.99,0.05,0.22,0.31,0.48,0.02,0.15,-0.10,1009.15
15.359,-0.15,0.99,0.05,0.22,0.31,0.48,0.02,0.15,-0.10,1009.22
15.359,-0.15,0.99,0.05,0.22,0.31,0.48,0.07,0.20,-0.14,1009.22
15.38,-0.16,1.00,0.02,0.22,0.31,0.48,0.07,0.20,-0.14,1009.22
15.381,-0.16,1.00,0.02,0.34,0.24,0.71,0.07,0.20,-0.14,1009.22
15.393,-0.17,0.99,0.01,0.34,0.24,0.71,0.07,0.20,-0.14,1009.22
15.431,-0.17,0.99,0.01,0.34,0.24,0.71,0.04,0.27,-0.26,1009.22
15.432,-0.17,1.00,-0.02,0.34,0.24,0.71,0.04,0.27,-0.26,1009.22
15.447,-0.14,1.03,-0.04,0.34,0.24,0.71,0.04,0.27,-0.26,1009.22
15.448,-0.14,1.03,-0.04,0.34,0.24,0.71,0.04,0.27,-0.26,1009.23
15.45,-0.14,1.04,-0.04,0.34,0.24,0.71,0.04,0.27,-0.26,1009.23
15.45,-0.14,1.04,-0.04,0.59,0.54,0.52,0.04,0.27,-0.26,1009.23
15.5,-0.14,1.04,-0.04,0.59,0.54,0.52,-0.15,0.21,-0.60,1009.23
15.501,-0.12,1.06,-0.03,0.59,0.54,0.52,-0.15,0.21,-0.60,1009.23
15.502,-0.14,1.05,-0.02,0.59,0.54,0.52,-0.15,0.21,-0.60,1009.23
15.52,-0.13,1.06,0.00,0.59,0.54,0.52,-0.15,0.21,-0.60,1009.23
15.521,-0.13,1.06,0.00,0.59,0.54,0.52,-0.15,0.21,-0.60,1009.33
15.522,-0.13,1.06,0.00,1.11,0.96,-0.10,-0.15,0.21,-0.60,1009.33
15.557,-0.13,1.06,0.00,1.11,0.96,-0.10,-0.15,0.21,-0.60,1009.41
15.558,-0.17,1.08,-0.02,1.11,0.96,-0.10,-0.15,0.21,-0.60,1009.41
15.559,-0.11,1.14,0.01,1.11,0.96,-0.10,-0.15,0.21,-0.60,1009.41
15.571,-0.11,1.14,0.01,1.11,0.96,-0.10,-0.31,0.15,-1.18,1009.41
15.581,-0.08,1.23,-0.05,1.11,0.96,-0.10,-0.31,0.15,-1.18,1009.41
15.591,-0.06,1.31,-0.10,1.11,0.96,-0.10,-0.31,0.15,-1.18,1009.41
15.594,-0.06,1.31,-0.10,1.95,1.49,-0.24,-0.31,0.15,-1.18,1009.41
15.636,-0.06,1.31,-0.10,1.95,1.49,-0.24,-0.31,0.15,-1.18,1009.37
15.638,-0.00,1.37,-0.12,1.95,1.49,-0.24,-0.31,0.15,-1.18,1009.37
15.638,0.05,1.42,-0.16,1.95,1.49,-0.24,-0.31,0.15,-1.18,1009.37
15.64,0.05,1.42,-0.16,1.95,1.49,-0.24,-0.77,0.13,-2.38,1009.37
15.659,0.24,1.48,-0.06,1.95,1.49,-0.24,-0.77,0.13,-2.38,1009.37
15.66,0.24,1.48,-0.06,4.00,3.72,-1.01,-0.77,0.13,-2.38,1009.37
15.713,0.24,1.48,-0.06,4.00,3.72,-1.01,-1.69,0.75,-4.61,1009.37
15.714,0.35,1.51,0.02,4.00,3.72,-1.01,-1.69,0.75,-4.61,1009.37
15.715,0.18,1.47,0.11,4.00,3.72,-1.01,-1.69,0.75,-4.61,1009.37
15.716,-0.22,1.28,0.41,4.00,3.72,-1.01,-1.69,0.75,-4.61,1009.37
15.716,-0.22,1.28,0.41,4.00,3.72,-1.01,-1.69,0.75,-4.61,1009.08
15.731,-0.38,1.15,0.48,4.00,3.72,-1.01,-1.69,0.75,-4.61,1009.08
15.732,-0.38,1.15,0.48,8.69,8.14,-1.85,-1.69,0.75,-4.61,1009.08
15.757,-0.37,1.04,0.31,8.69,8.14,-1.85,-1.69,0.75,-4.61,1009.08
15.758,-0.37,1.04,0.31,8.69,8.14,-1.85,-1.69,0.75,-4.61,1008.65
15.781,-0.37,1.04,0.31,8.69,8.14,-1.85,-1.09,1.51,-4.11,1008.65
15.782,-0.88,-0.15,0.12,8.69,8.14,-1.85,-1.09,1.51,-4.11,1008.65
15.793,-1.35,0.30,0.39,8.69,8.14,-1.85,-1.09,1.51,-4.11,1008.65
15.801,-1.35,0.30,0.39,7.40,8.28,2.48,-1.09,1.51,-4.11,1008.65
15.836,0.19,0.51,-0.07,7.40,8.28,2.48,-1.09,1.51,-4.11,1008.65
15.838,0.32,0.57,-0.29,7.40,8.28,2.48,-1.09,1.51,-4.11,1008.65
15.838,0.32,0.57,-0.29,7.40,8.28,2.48,-1.09,1.51,-4.11,1008.96
15.85,0.32,0.57,-0.29,7.40,8.28,2.48,-0.69,0.93,1.47,1008.96
15.859,0.01,0.37,-0.21,7.40,8.28,2.48,-0.69,0.93,1.47,1008.96
15.871,-0.38,0.20,-0.09,7.40,8.28,2.48,-0.69,0.93,1.47,1008.96
15.872,-0.38,0.20,-0.09,0.07,-1.87,1.95,-0.69,0.93,1.47,1008.96
15.919,-0.38,0.20,-0.09,0.07,-1.87,1.95,-0.69,0.93,1.47,1009.11
15.919,-0.35,0.28,-0.11,0.07,-1.87,1.95,-0.69,0.93,1.47,1009.11
15.92,0.02,0.48,-0.15,0.07,-1.87,1.95,-0.69,0.93,1.47,1009.11
15.92,0.02,0.48,-0.15,0.07,-1.87,1.95,-0.46,-0.25,3.83,1009.11
15.942,0.10,0.60,-0.11,0.07,-1.87,1.95,-0.46,-0.25,3.83,1009.11
15.943,0.10,0.60,-0.11,5.73,-3.58,-2.54,-0.46,-0.25,3.83,1009.11
15.956,0.10,0.60,-0.11,5.73,-3.58,-2.54,-0.46,-0.25,3.83,1009.11
15.957,-0.06,0.72,-0.17,5.73,-3.58,-2.54,-0.46,-0.25,3.83,1009.11
15.991,-0.06,0.72,-0.17,5.73,-3.58,-2.54,0.16,0.91,4.93,1009.11
15.993,-0.17,0.89,-0.34,5.73,-3.58,-2.54,0.16,0.91,4.93,1009.11
15.993,-0.18,1.02,-0.45,5.73,-3.58,-2.54,0.16,0.91,4.93,1009.11
16.012,-0.22,1.17,-0.51,5.73,-3.58,-2.54,0.16,0.91,4.93,1009.11
16.012,-0.22,1.17,-0.51,1.63,-4.15,-1.28,0.16,0.91,4.93,1009.11
16.036,-0.15,1.39,-0.53,1.63,-4.15,-1.28,0.16,0.91,4.93,1009.11
16.038,-0.15,1.39,-0.53,1.63,-4.15,-1.28,0.16,0.91,4.93,1009.20
16.059,-0.07,1.65,-0.46,1.63,-4.15,-1.28,0.16,0.91,4.93,1009.20
16.061,-0.07,1.65,-0.46,1.63,-4.15,-1.28,0.42,1.03,4.52,1009.20
16.08,-0.36,1.72,-0.25,1.63,-4.15,-1.28,0.42,1.03,4.52,1009.20
16.082,-0.36,1.72,-0.25,-2.08,0.48,-3.65,0.42,1.03,4.52,1009.20
16.101,-0.47,1.84,-0.35,-2.08,0.48,-3.65,0.42,1.03,4.52,1009.20
16.117,-0.47,1.84,-0.35,-2.08,0.48,-3.65,0.42,1.03,4.52,1009.27
16.117,-0.79,1.79,-0.65,-2.08,0.48,-3.65,0.42,1.03,4.52,1009.27
16.131,-0.79,1.79,-0.65,-2.08,0.48,-3.65,0.09,1.63,3.10,1009.27
16.151,-0.79,1.79,-0.65,-4.29,6.78,-3.52,0.09,1.63,3.10,1009.27
16.152,-1.31,1.45,-0.55,-4.29,6.78,-3.52,0.09,1.63,3.10,1009.27
16.152,-1.63,0.64,0.54,-4.29,6.78,-3.52,0.09,1.63,3.10,1009.27
16.169,-1.63,0.64,0.54,-4.29,6.78,-3.52,0.09,1.63,3.10,1009.18
16.192,-2.10,0.88,-0.02,-4.29,6.78,-3.52,0.09,1.63,3.10,1009.18
16.193,-1.31,0.99,-0.20,-4.29,6.78,-3.52,0.09,1.63,3.10,1009.18
16.2,-1.31,0.99,-0.20,-4.29,6.78,-3.52,0.29,0.86,1.00,1009.18
16.221,-1.15,0.82,-0.15,-4.29,6.78,-3.52,0.29,0.86,1.00,1009.18
16.222,-1.15,0.82,-0.15,-12.79,4.28,-2.05,0.29,0.86,1.00,1009.18
16.236,-1.46,0.79,-0.12,-12.79,4.28,-2.05,0.29,0.86,1.00,1009.18
16.237,-1.46,0.79,-0.12,-12.79,4.28,-2.05,0.29,0.86,1.00,1009.24
16.26,1.79,1.69,0.07,-12.79,4.28,-2.05,0.29,0.86,1.00,1009.24
16.271,1.79,1.69,0.07,-12.79,4.28,-2.05,-0.56,-0.52,-2.61,1009.24
16.292,1.79,1.69,0.07,-14.30,-0.73,-1.37,-0.56,-0.52,-2.61,1009.24
16.293,1.49,1.20,0.08,-14.30,-0.73,-1.37,-0.56,-0.52,-2.61,1009.24
16.293,-1.20,0.92,0.04,-14.30,-0.73,-1.37,-0.56,-0.52,-2.61,1009.24
16.317,-1.04,0.83,0.80,-14.30,-0.73,-1.37,-0.56,-0.52,-2.61,1009.24
16.318,-1.04,0.83,0.80,-14.30,-0.73,-1.37,-0.56,-0.52,-2.61,1009.45
16.341,-1.04,0.83,0.80,-14.30,-0.73,-1.37,-0.00,-0.45,-1.83,1009.45
16.342,-0.50,1.02,-0.02,-14.30,-0.73,-1.37,-0.00,-0.45,-1.83,1009.45
16.357,-0.60,1.06,-0.48,-14.30,-0.73,-1.37,-0.00,-0.45,-1.83,1009.45
16.358,-0.60,1.06,-0.48,-14.30,-0.73,-1.37,-0.00,-0.45,-1.83,1009.68
16.361,-0.60,1.06,-0.48,4.80,2.44,0.43,-0.00,-0.45,-1.83,1009.68
16.402,-0.20,1.05,-0.21,4.80,2.44,0.43,-0.00,-0.45,-1.83,1009.68
16.404,-0.22,0.96,0.05,4.80,2.44,0.43,-0.00,-0.45,-1.83,1009.68
16.41,-0.22,0.96,0.05,4.80,2.44,0.43,-0.20,-0.19,-0.30,1009.68
16.431,-0.22,0.96,0.05,-5.03,0.33,0.30,-0.20,-0.19,-0.30,1009.68
16.432,-0.15,0.95,0.14,-5.03,0.33,0.30,-0.20,-0.19,-0.30,1009.68
16.432,-0.14,0.96,0.06,-5.03,0.33,0.30,-0.20,-0.19,-0.30,1009.68
16.435,-0.14,0.96,0.06,-5.03,0.33,0.30,-0.20,-0.19,-0.30,1009.43
16.46,-0.16,0.95,0.14,-5.03,0.33,0.30,-0.20,-0.19,-0.30,1009.43
16.481,-0.16,0.95,0.14,-5.03,0.33,0.30,-0.08,-0.02,-0.19,1009.43
16.482,-0.16,0.98,0.08,-5.03,0.33,0.30,-0.08,-0.02,-0.19,1009.43
16.502,-0.16,0.98,0.08,-0.18,0.17,0.28,-0.08,-0.02,-0.19,1009.43
16.503,-0.18,0.99,0.01,-0.18,0.17,0.28,-0.08,-0.02,-0.19,1009.43
16.517,-0.18,0.99,0.02,-0.18,0.17,0.28,-0.08,-0.02,-0.19,1009.43
16.518,-0.18,0.99,0.02,-0.18,0.17,0.28,-0.08,-0.02,-0.19,1009.31
16.551,-0.18,0.99,0.02,-0.18,0.17,0.28,-0.07,0.06,-0.10,1009.31
16.553,-0.17,0.99,0.04,-0.18,0.17,0.28,-0.07,0.06,-0.10,1009.31
16.558,-0.15,0.98,0.05,-0.18,0.17,0.28,-0.07,0.06,-0.10,1009.31
16.559,-0.15,0.98,0.05,-0.18,0.17,0.28,-0.07,0.06,-0.10,1009.23
16.571,-0.15,0.98,0.05,-0.17,0.26,0.39,-0.07,0.06,-0.10,1009.23
16.572,-0.14,0.99,0.05,-0.17,0.26,0.39,-0.07,0.06,-0.10,1009.23
16.593,-0.14,0.98,0.06,-0.17,0.26,0.39,-0.07,0.06,-0.10,1009.23
16.621,-0.16,0.96,0.07,-0.17,0.26,0.39,-0.07,0.06,-0.10,1009.23
16.622,-0.16,0.96,0.07,-0.17,0.26,0.39,-0.02,0.10,-0.12,1009.23
16.636,-0.16,0.96,0.07,-0.17,0.26,0.39,-0.02,0.10,-0.12,1009.15
16.637,-0.15,0.96,0.06,-0.17,0.26,0.39,-0.02,0.10,-0.12,1009.15
16.652,-0.15,0.96,0.06,0.04,0.38,0.20,-0.02,0.10,-0.12,1009.15
16.66,-0.17,0.96,0.05,0.04,0.38,0.20,-0.02,0.10,-0.12,1009.15
16.692,-0.17,0.96,0.05,0.04,0.38,0.20,0.00,0.16,-0.13,1009.15
16.693,-0.18,0.96,0.05,0.04,0.38,0.20,0.00,0.16,-0.13,1009.15
16.711,-0.18,0.96,0.05,0.15,0.19,0.39,0.00,0.16,-0.13,1009.15
16.712,-0.19,0.96,0.05,0.15,0.19,0.39,0.00,0.16,-0.13,1009.15
16.712,-0.19,0.96,0.05,0.15,0.19,0.39,0.00,0.16,-0.13,1009.15
16.716,-0.19,0.96,0.05,0.15,0.19,0.39,0.00,0.16,-0.13,1009.13
16.757,-0.19,0.96,0.05,0.15,0.19,0.39,0.00,0.16,-0.13,1009.17
16.758,-0.12,0.99,0.07,0.15,0.19,0.39,0.00,0.16,-0.13,1009.17
16.76,-0.15,0.99,0.06,0.15,0.19,0.39,0.00,0.16,-0.13,1009.17
16.761,-0.15,0.99,0.06,0.15,0.19,0.39,0.02,0.23,-0.15,1009.17
16.781,-0.16,0.99,0.02,0.15,0.19,0.39,0.02,0.23,-0.15,1009.17
16.783,-0.16,0.99,0.02,0.02,0.15,0.30,0.02,0.23,-0.15,1009.17
16.792,-0.16,1.01,0.00,0.02,0.15,0.30,0.02,0.23,-0.15,1009.17
16.831,-0.16,1.01,0.00,0.02,0.15,0.30,-0.05,0.25,-0.31,1009.17
16.832,-0.15,1.02,0.01,0.02,0.15,0.30,-0.05,0.25,-0.31,1009.17
16.836,-0.14,1.03,0.02,0.02,0.15,0.30,-0.05,0.25,-0.31,1009.17
16.836,-0.14,1.03,0.02,0.02,0.15,0.30,-0.05,0.25,-0.31,1009.25
16.851,-0.10,1.05,0.02,0.02,0.15,0.30,-0.05,0.25,-0.31,1009.25
16.852,-0.10,1.05,0.02,0.59,0.51,0.22,-0.05,0.25,-0.31,1009.25
16.902,-0.10,1.05,0.02,0.59,0.51,0.22,-0.22,0.22,-0.72,1009.25
16.903,-0.11,1.07,0.02,0.59,0.51,0.22,-0.22,0.22,-0.72,1009.25
16.903,-0.13,1.07,0.01,0.59,0.51,0.22,-0.22,0.22,-0.72,1009.25
16.917,-0.12,1.10,0.04,0.59,0.51,0.22,-0.22,0.22,-0.72,1009.25
16.918,-0.12,1.10,0.04,0.59,0.51,0.22,-0.22,0.22,-0.72,1009.32
16.921,-0.12,1.10,0.04,1.27,1.02,-0.24,-0.22,0.22,-0.72,1009.32
16.957,-0.12,1.10,0.04,1.27,1.02,-0.24,-0.22,0.22,-0.72,1009.43
16.958,-0.03,1.19,0.05,1.27,1.02,-0.24,-0.22,0.22,-0.72,1009.43
16.959,-0.06,1.26,-0.04,1.27,1.02,-0.24,-0.22,0.22,-0.72,1009.43
16.972,-0.06,1.26,-0.04,1.27,1.02,-0.24,-0.43,0.24,-1.54,1009.43
16.992,-0.06,1.26,-0.04,2.67,2.04,-0.39,-0.43,0.24,-1.54,1009.43
16.993,-0.05,1.31,-0.10,2.67,2.04,-0.39,-0.43,0.24,-1.54,1009.43
16.993,-0.01,1.37,-0.13,2.67,2.04,-0.39,-0.43,0.24,-1.54,1009.43
17.036,0.09,1.44,-0.12,2.67,2.04,-0.39,-0.43,0.24,-1.54,1009.43
17.037,0.29,1.50,-0.02,2.67,2.04,-0.39,-0.43,0.24,-1.54,1009.43
17.038,0.29,1.50,-0.02,2.67,2.04,-0.39,-0.43,0.24,-1.54,1009.34
17.052,0.29,1.50,-0.02,2.67,2.04,-0.39,-1.15,0.28,-3.12,1009.34
17.06,0.35,1.55,0.05,2.67,2.04,-0.39,-1.15,0.28,-3.12,1009.34
17.061,0.35,1.55,0.05,5.45,5.34,-1.97,-1.15,0.28,-3.12,1009.34
17.113,0.35,1.55,0.05,5.45,5.34,-1.97,-1.74,1.24,-5.14,1009.34
17.114,0.13,1.48,0.21,5.45,5.34,-1.97,-1.74,1.24,-5.14,1009.34
17.115,-0.26,1.21,0.49,5.45,5.34,-1.97,-1.74,1.24,-5.14,1009.34
17.116,-0.57,1.11,0.45,5.45,5.34,-1.97,-1.74,1.24,-5.14,1009.34
17.116,-0.57,1.11,0.45,5.45,5.34,-1.97,-1.74,1.24,-5.14,1008.97
17.133,-0.54,0.77,0.14,5.45,5.34,-1.97,-1.74,1.24,-5.14,1008.97
17.134,-0.54,0.77,0.14,10.20,9.85,-1.21,-1.74,1.24,-5.14,1008.97
17.157,-0.64,-0.15,0.33,10.20,9.85,-1.21,-1.74,1.24,-5.14,1008.97
17.158,-0.64,-0.15,0.33,10.20,9.85,-1.21,-1.74,1.24,-5.14,1008.77
17.181,-0.64,-0.15,0.33,10.20,9.85,-1.21,-1.13,1.85,-1.73,1008.77
17.182,-1.02,0.29,0.40,10.20,9.85,-1.21,-1.13,1.85,-1.73,1008.77
17.193,0.23,0.53,-0.14,10.20,9.85,-1.21,-1.13,1.85,-1.73,1008.77
17.201,0.23,0.53,-0.14,4.34,5.77,2.80,-1.13,1.85,-1.73,1008.77
17.237,0.23,0.53,-0.14,4.34,5.77,2.80,-1.13,1.85,-1.73,1009.02
17.238,0.24,0.52,-0.33,4.34,5.77,2.80,-1.13,1.85,-1.73,1009.02
17.239,-0.03,0.40,-0.30,4.34,5.77,2.80,-1.13,1.85,-1.73,1009.02
17.255,-0.03,0.40,-0.30,4.34,5.77,2.80,-0.95,0.42,1.67,1009.02
17.255,-0.32,0.23,-0.10,4.34,5.77,2.80,-0.95,0.42,1.67,1009.02
17.272,-0.32,0.23,-0.10,3.42,-3.38,0.29,-0.95,0.42,1.67,1009.02
17.273,-0.58,0.26,-0.21,3.42,-3.38,0.29,-0.95,0.42,1.67,1009.02
17.316,-0.58,0.26,-0.21,3.42,-3.38,0.29,-0.95,0.42,1.67,1009.11
17.317,-0.32,0.45,-0.23,3.42,-3.38,0.29,-0.95,0.42,1.67,1009.11
17.317,0.12,0.66,-0.13,3.42,-3.38,0.29,-0.95,0.42,1.67,1009.11
17.32,0.12,0.66,-0.13,3.42,-3.38,0.29,-0.58,-0.04,4.63,1009.11
17.339,0.03,0.85,-0.21,3.42,-3.38,0.29,-0.58,-0.04,4.63,1009.11
17.342,0.03,0.85,-0.21,2.25,-4.79,-3.11,-0.58,-0.04,4.63,1009.11
17.357,-0.22,0.98,-0.41,2.25,-4.79,-3.11,-0.58,-0.04,4.63,1009.11
17.358,-0.22,0.98,-0.41,2.25,-4.79,-3.11,-0.58,-0.04,4.63,1009.15
17.392,-0.22,0.98,-0.41,2.25,-4.79,-3.11,0.20,1.41,4.89,1009.15
17.393,-0.34,1.08,-0.52,2.25,-4.79,-3.11,0.20,1.41,4.89,1009.15
17.393,-0.26,1.22,-0.63,2.25,-4.79,-3.11,0.20,1.41,4.89,1009.15
17.411,-0.26,1.22,-0.63,0.99,-2.18,-2.45,0.20,1.41,4.89,1009.15
17.412,-0.18,1.40,-0.62,0.99,-2.18,-2.45,0.20,1.41,4.89,1009.15
17.436,0.07,1.68,-0.56,0.99,-2.18,-2.45,0.20,1.41,4.89,1009.15
17.437,0.07,1.68,-0.56,0.99,-2.18,-2.45,0.20,1.41,4.89,1009.26
17.46,-0.24,1.70,-0.34,0.99,-2.18,-2.45,0.20,1.41,4.89,1009.26
17.462,-0.24,1.70,-0.34,0.99,-2.18,-2.45,0.16,1.88,3.51,1009.26
17.481,-0.43,1.73,-0.49,0.99,-2.18,-2.45,0.16,1.88,3.51,1009.26
17.484,-0.43,1.73,-0.49,-2.53,2.59,-5.76,0.16,1.88,3.51,1009.26
17.516,-0.43,1.73,-0.49,-2.53,2.59,-5.76,0.16,1.88,3.51,1009.29
17.517,-0.87,1.67,-0.79,-2.53,2.59,-5.76,0.16,1.88,3.51,1009.29
17.517,-1.82,1.04,-0.35,-2.53,2.59,-5.76,0.16,1.88,3.51,1009.29
17.533,-1.82,1.04,-0.35,-2.53,2.59,-5.76,-0.25,2.09,1.48,1009.29
17.552,-1.82,1.04,-0.35,-3.51,7.46,-5.06,-0.25,2.09,1.48,1009.29
17.553,-2.29,0.44,0.09,-3.51,7.46,-5.06,-0.25,2.09,1.48,1009.29
17.553,-2.05,0.28,0.36,-3.51,7.46,-5.06,-0.25,2.09,1.48,1009.29
17.556,-2.05,0.28,0.36,-3.51,7.46,-5.06,-0.25,2.09,1.48,1009.27
17.595,-1.39,0.90,-0.36,-3.51,7.46,-5.06,-0.25,2.09,1.48,1009.27
17.596,-1.01,0.84,-0.10,-3.51,7.46,-5.06,-0.25,2.09,1.48,1009.27
17.6,-1.01,0.84,-0.10,-3.51,7.46,-5.06,0.12,0.83,0.47,1009.27
17.621,0.35,1.32,0.16,-3.51,7.46,-5.06,0.12,0.83,0.47,1009.27
17.622,0.35,1.32,0.16,-18.63,-2.15,-1.16,0.12,0.83,0.47,1009.27
17.636,0.01,1.26,0.64,-18.63,-2.15,-1.16,0.12,0.83,0.47,1009.27
17.637,0.01,1.26,0.64,-18.63,-2.15,-1.16,0.12,0.83,0.47,1009.28
17.659,-0.89,0.88,0.49,-18.63,-2.15,-1.16,0.12,0.83,0.47,1009.28
17.671,-0.89,0.88,0.49,-18.63,-2.15,-1.16,0.09,-0.11,-2.12,1009.28
17.691,-0.89,0.88,0.49,-3.96,1.19,0.42,0.09,-0.11,-2.12,1009.28
17.692,-0.71,1.10,-0.19,-3.96,1.19,0.42,0.09,-0.11,-2.12,1009.28
17.693,-0.34,1.07,-0.44,-3.96,1.19,0.42,0.09,-0.11,-2.12,1009.28
17.718,-0.40,1.01,-0.25,-3.96,1.19,0.42,0.09,-0.11,-2.12,1009.28
17.719,-0.40,1.01,-0.25,-3.96,1.19,0.42,0.09,-0.11,-2.12,1009.71
17.742,-0.40,1.01,-0.25,-3.96,1.19,0.42,-0.00,-0.35,-0.54,1009.71
17.743,-0.16,0.99,-0.03,-3.96,1.19,0.42,-0.00,-0.35,-0.54,1009.71
17.756,-0.15,0.95,0.13,-3.96,1.19,0.42,-0.00,-0.35,-0.54,1009.71
17.756,-0.15,0.95,0.13,-3.96,1.19,0.42,-0.00,-0.35,-0.54,1009.44
17.764,-0.15,0.95,0.13,-4.57,0.94,-0.14,-0.00,-0.35,-0.54,1009.44
17.793,-0.20,0.97,0.03,-4.57,0.94,-0.14,-0.00,-0.35,-0.54,1009.44
17.795,-0.19,0.96,0.09,-4.57,0.94,-0.14,-0.00,-0.35,-0.54,1009.44
17.812,-0.19,0.96,0.09,-4.57,0.94,-0.14,-0.13,-0.06,-0.25,1009.44
17.835,-0.19,0.96,0.09,-0.68,0.39,-0.65,-0.13,-0.06,-0.25,1009.44
17.842,-0.15,0.97,0.08,-0.68,0.39,-0.65,-0.13,-0.06,-0.25,1009.44
17.843,-0.19,0.99,0.03,-0.68,0.39,-0.65,-0.13,-0.06,-0.25,1009.44
17.843,-0.19,0.99,0.03,-0.68,0.39,-0.65,-0.13,-0.06,-0.25,1009.33
17.86,-0.18,0.99,0.02,-0.68,0.39,-0.65,-0.13,-0.06,-0.25,1009.33
17.882,-0.18,0.99,0.02,-0.68,0.39,-0.65,-0.07,0.01,-0.15,1009.33
17.883,-0.19,0.98,0.04,-0.68,0.39,-0.65,-0.07,0.01,-0.15,1009.33
17.902,-0.19,0.98,0.04,-0.05,0.33,0.33,-0.07,0.01,-0.15,1009.33
17.903,-0.18,0.97,0.06,-0.05,0.33,0.33,-0.07,0.01,-0.15,1009.33
17.917,-0.17,0.98,0.05,-0.05,0.33,0.33,-0.07,0.01,-0.15,1009.33
17.918,-0.17,0.98,0.05,-0.05,0.33,0.33,-0.07,0.01,-0.15,1009.22
17.951,-0.17,0.98,0.05,-0.05,0.33,0.33,-0.07,0.11,-0.06,1009.22
17.952,-0.17,0.98,0.05,-0.05,0.33,0.33,-0.07,0.11,-0.06,1009.22
17.956,-0.16,0.97,0.05,-0.05,0.33,0.33,-0.07,0.11,-0.06,1009.22
17.957,-0.16,0.97,0.05,-0.05,0.33,0.33,-0.07,0.11,-0.06,1009.13
17.971,-0.16,0.97,0.05,-0.06,0.40,0.08,-0.07,0.11,-0.06,1009.13
17.973,-0.17,0.96,0.07,-0.06,0.40,0.08,-0.07,0.11,-0.06,1009.13
17.993,-0.13,0.96,0.11,-0.06,0.40,0.08,-0.07,0.11,-0.06,1009.13
18.021,-0.13,0.96,0.11,-0.06,0.40,0.08,-0.01,0.20,-0.09,1009.13
18.022,-0.15,0.96,0.08,-0.06,0.40,0.08,-0.01,0.20,-0.09,1009.13
18.038,-0.15,0.97,0.05,-0.06,0.40,0.08,-0.01,0.20,-0.09,1009.13
18.039,-0.15,0.97,0.05,-0.06,0.40,0.08,-0.01,0.20,-0.09,1009.16
18.041,-0.15,0.97,0.05,0.17,0.33,0.24,-0.01,0.20,-0.09,1009.16
18.06,-0.18,0.97,0.05,0.17,0.33,0.24,-0.01,0.20,-0.09,1009.16
18.092,-0.18,0.97,0.05,0.17,0.33,0.24,0.04,0.24,-0.14,1009.16
18.093,-0.18,0.97,0.06,0.17,0.33,0.24,0.04,0.24,-0.14,1009.16
18.111,-0.18,0.97,0.06,0.44,0.25,0.53,0.04,0.24,-0.14,1009.16
18.112,-0.16,0.98,0.06,0.44,0.25,0.53,0.04,0.24,-0.14,1009.16
18.113,-0.15,0.99,0.04,0.44,0.25,0.53,0.04,0.24,-0.14,1009.16
18.115,-0.15,0.99,0.04,0.44,0.25,0.53,0.04,0.24,-0.14,1009.19
18.156,-0.15,0.99,0.04,0.44,0.25,0.53,0.04,0.24,-0.14,1009.25
18.157,-0.15,1.00,0.03,0.44,0.25,0.53,0.04,0.24,-0.14,1009.25
18.158,-0.17,1.02,-0.00,0.44,0.25,0.53,0.04,0.24,-0.14,1009.25
18.162,-0.17,1.02,-0.00,0.44,0.25,0.53,0.01,0.32,-0.24,1009.25
18.181,-0.17,1.02,-0.00,0.46,0.44,0.26,0.01,0.32,-0.24,1009.25
18.183,-0.14,1.03,-0.02,0.46,0.44,0.26,0.01,0.32,-0.24,1009.25
18.194,-0.14,1.04,-0.03,0.46,0.44,0.26,0.01,0.32,-0.24,1009.25
18.235,-0.14,1.04,-0.03,0.46,0.44,0.26,-0.20,0.23,-0.52,1009.25
18.236,-0.14,1.05,-0.02,0.46,0.44,0.26,-0.20,0.23,-0.52,1009.25
18.236,-0.12,1.07,-0.01,0.46,0.44,0.26,-0.20,0.23,-0.52,1009.25
18.237,-0.12,1.07,-0.01,0.46,0.44,0.26,-0.20,0.23,-0.52,1009.29
18.255,-0.12,1.07,-0.01,0.98,0.93,-0.38,-0.20,0.23,-0.52,1009.29
18.256,-0.09,1.08,0.04,0.98,0.93,-0.38,-0.20,0.23,-0.52,1009.29
18.302,-0.09,1.08,0.04,0.98,0.93,-0.38,-0.42,0.13,-1.12,1009.29
18.304,-0.13,1.11,-0.01,0.98,0.93,-0.38,-0.42,0.13,-1.12,1009.29
18.304,-0.11,1.15,-0.02,0.98,0.93,-0.38,-0.42,0.13,-1.12,1009.29
18.316,-0.11,1.20,-0.02,0.98,0.93,-0.38,-0.42,0.13,-1.12,1009.29
18.318,-0.11,1.20,-0.02,0.98,0.93,-0.38,-0.42,0.13,-1.12,1009.36
18.321,-0.11,1.20,-0.02,2.14,1.59,-0.64,-0.42,0.13,-1.12,1009.36
18.356,-0.11,1.20,-0.02,2.14,1.59,-0.64,-0.42,0.13,-1.12,1009.39
18.357,-0.06,1.27,-0.03,2.14,1.59,-0.64,-0.42,0.13,-1.12,1009.39
18.358,-0.00,1.34,-0.05,2.14,1.59,-0.64,-0.42,0.13,-1.12,1009.39
18.371,-0.00,1.34,-0.05,2.14,1.59,-0.64,-0.84,0.13,-2.19,1009.39
18.391,-0.00,1.34,-0.05,3.75,3.41,-1.34,-0.84,0.13,-2.19,1009.39
18.393,0.05,1.40,-0.11,3.75,3.41,-1.34,-0.84,0.13,-2.19,1009.39
18.393,0.15,1.46,-0.04,3.75,3.41,-1.34,-0.84,0.13,-2.19,1009.39
18.436,0.15,1.46,-0.04,3.75,3.41,-1.34,-0.84,0.13,-2.19,1009.24
18.438,0.26,1.51,0.21,3.75,3.41,-1.34,-0.84,0.13,-2.19,1009.24
18.438,0.17,1.53,0.19,3.75,3.41,-1.34,-0.84,0.13,-2.19,1009.24
18.442,0.17,1.53,0.19,3.75,3.41,-1.34,-1.40,0.57,-4.18,1009.24
18.46,-0.06,1.40,0.23,3.75,3.41,-1.34,-1.40,0.57,-4.18,1009.24
18.461,-0.06,1.40,0.23,7.59,7.60,-2.17,-1.40,0.57,-4.18,1009.24
18.518,-0.06,1.40,0.23,7.59,7.60,-2.17,-1.22,1.09,-5.15,1009.24
18.519,-0.43,1.18,0.40,7.59,7.60,-2.17,-1.22,1.09,-5.15,1009.24
18.52,-0.38,1.21,0.51,7.59,7.60,-2.17,-1.22,1.09,-5.15,1009.24
18.521,-0.33,0.21,0.03,7.59,7.60,-2.17,-1.22,1.09,-5.15,1009.24
18.521,-0.33,0.21,0.03,7.59,7.60,-2.17,-1.22,1.09,-5.15,1008.57
18.541,-0.33,0.21,0.03,9.01,10.39,1.09,-1.22,1.09,-5.15,1008.57
18.542,-1.32,0.14,0.38,9.01,10.39,1.09,-1.22,1.09,-5.15,1008.57
18.556,-0.67,0.34,0.08,9.01,10.39,1.09,-1.22,1.09,-5.15,1008.57
18.557,-0.67,0.34,0.08,9.01,10.39,1.09,-1.22,1.09,-5.15,1008.91
18.583,0.22,0.62,-0.24,9.01,10.39,1.09,-1.22,1.09,-5.15,1008.91
18.585,0.22,0.62,-0.24,9.01,10.39,1.09,-0.75,1.42,0.65,1008.91
18.593,0.26,0.48,-0.28,9.01,10.39,1.09,-0.75,1.42,0.65,1008.91
18.601,0.26,0.48,-0.28,1.61,1.27,2.29,-0.75,1.42,0.65,1008.91
18.636,0.26,0.48,-0.28,1.61,1.27,2.29,-0.75,1.42,0.65,1009.09
18.64,-0.19,0.35,-0.23,1.61,1.27,2.29,-0.75,1.42,0.65,1009.09
18.64,-0.55,0.23,-0.11,1.61,1.27,2.29,-0.75,1.42,0.65,1009.09
18.658,-0.55,0.23,-0.11,1.61,1.27,2.29,-0.33,-0.20,3.12,1009.09
18.659,-0.19,0.40,-0.12,1.61,1.27,2.29,-0.33,-0.20,3.12,1009.09
18.673,0.07,0.60,-0.22,1.61,1.27,2.29,-0.33,-0.20,3.12,1009.09
18.674,0.07,0.60,-0.22,5.69,-2.09,-2.48,-0.33,-0.20,3.12,1009.09
18.718,-0.14,0.64,-0.27,5.69,-2.09,-2.48,-0.33,-0.20,3.12,1009.09
18.72,-0.29,0.70,-0.30,5.69,-2.09,-2.48,-0.33,-0.20,3.12,1009.09
18.72,-0.29,0.70,-0.30,5.69,-2.09,-2.48,-0.33,-0.20,3.12,1009.12
18.721,-0.29,0.70,-0.30,5.69,-2.09,-2.48,0.23,0.77,4.85,1009.12
18.743,-0.29,0.70,-0.30,1.38,-4.48,-1.89,0.23,0.77,4.85,1009.12
18.745,-0.28,0.83,-0.37,1.38,-4.48,-1.89,0.23,0.77,4.85,1009.12
18.756,-0.27,1.00,-0.50,1.38,-4.48,-1.89,0.23,0.77,4.85,1009.12
18.757,-0.27,1.00,-0.50,1.38,-4.48,-1.89,0.23,0.77,4.85,1009.17
18.793,-0.27,1.00,-0.50,1.38,-4.48,-1.89,1.02,0.68,4.84,1009.17
18.794,-0.27,1.15,-0.56,1.38,-4.48,-1.89,1.02,0.68,4.84,1009.17
18.794,-0.06,1.48,-0.53,1.38,-4.48,-1.89,1.02,0.68,4.84,1009.17
18.812,-0.06,1.48,-0.53,-1.40,-1.61,-2.81,1.02,0.68,4.84,1009.17
18.814,-0.22,1.63,-0.27,-1.40,-1.61,-2.81,1.02,0.68,4.84,1009.17
18.837,-0.76,1.51,0.00,-1.40,-1.61,-2.81,1.02,0.68,4.84,1009.17
18.838,-0.76,1.51,0.00,-1.40,-1.61,-2.81,1.02,0.68,4.84,1009.26
18.863,-1.01,1.49,-0.06,-1.40,-1.61,-2.81,1.02,0.68,4.84,1009.26
18.864,-1.01,1.49,-0.06,-1.40,-1.61,-2.81,1.02,0.37,3.81,1009.26
18.881,-1.04,1.48,-0.07,-1.40,-1.61,-2.81,1.02,0.37,3.81,1009.26
18.882,-1.04,1.48,-0.07,-3.34,4.36,-3.39,1.02,0.37,3.81,1009.26
18.919,-1.07,1.44,0.08,-3.34,4.36,-3.39,1.02,0.37,3.81,1009.26
18.92,-1.80,1.07,0.22,-3.34,4.36,-3.39,1.02,0.37,3.81,1009.26
18.92,-1.80,1.07,0.22,-3.34,4.36,-3.39,1.02,0.37,3.81,1009.26
18.944,-1.80,1.07,0.22,-3.34,4.36,-3.39,0.16,0.41,2.11,1009.26
18.945,-1.81,0.88,0.44,-3.34,4.36,-3.39,0.16,0.41,2.11,1009.26
18.951,-1.81,0.88,0.44,-10.89,5.66,0.69,0.16,0.41,2.11,1009.26
18.952,-1.69,0.82,0.30,-10.89,5.66,0.69,0.16,0.41,2.11,1009.26
18.955,-1.69,0.82,0.30,-10.89,5.66,0.69,0.16,0.41,2.11,1009.19
18.994,-0.41,1.79,-0.79,-10.89,5.66,0.69,0.16,0.41,2.11,1009.19
18.995,1.06,0.91,0.12,-10.89,5.66,0.69,0.16,0.41,2.11,1009.19
19.002,1.06,0.91,0.12,-10.89,5.66,0.69,-0.77,-0.29,-2.35,1009.19
19.022,0.80,1.13,-0.05,-10.89,5.66,0.69,-0.77,-0.29,-2.35,1009.19
19.023,0.80,1.13,-0.05,-16.00,0.42,3.18,-0.77,-0.29,-2.35,1009.19
19.039,-1.38,0.92,0.18,-16.00,0.42,3.18,-0.77,-0.29,-2.35,1009.19
19.04,-1.38,0.92,0.18,-16.00,0.42,3.18,-0.77,-0.29,-2.35,1009.41
19.064,-0.86,0.90,0.65,-16.00,0.42,3.18,-0.77,-0.29,-2.35,1009.41
19.071,-0.86,0.90,0.65,-16.00,0.42,3.18,-0.51,-0.39,-2.20,1009.41
19.092,-0.86,0.90,0.65,3.46,2.80,-1.85,-0.51,-0.39,-2.20,1009.41
19.093,-0.45,1.05,-0.16,3.46,2.80,-1.85,-0.51,-0.39,-2.20,1009.41
19.093,-0.46,1.01,-0.35,3.46,2.80,-1.85,-0.51,-0.39,-2.20,1009.41
19.116,-0.38,0.93,0.10,3.46,2.80,-1.85,-0.51,-0.39,-2.20,1009.41
19.116,-0.38,0.93,0.10,3.46,2.80,-1.85,-0.51,-0.39,-2.20,1009.52
19.138,-0.21,0.96,0.10,3.46,2.80,-1.85,-0.51,-0.39,-2.20,1009.52
19.141,-0.21,0.96,0.10,3.46,2.80,-1.85,-0.38,-0.18,-0.47,1009.52
19.157,-0.18,0.96,0.08,3.46,2.80,-1.85,-0.38,-0.18,-0.47,1009.52
19.158,-0.18,0.96,0.08,3.46,2.80,-1.85,-0.38,-0.18,-0.47,1009.30
19.162,-0.18,0.96,0.08,-5.16,0.40,0.69,-0.38,-0.18,-0.47,1009.30
19.194,-0.16,0.97,0.10,-5.16,0.40,0.69,-0.38,-0.18,-0.47,1009.30
19.195,-0.16,0.97,0.11,-5.16,0.40,0.69,-0.38,-0.18,-0.47,1009.30
19.213,-0.16,0.97,0.11,-5.16,0.40,0.69,-0.15,-0.01,-0.22,1009.30
19.237,-0.18,0.98,0.05,-5.16,0.40,0.69,-0.15,-0.01,-0.22,1009.30
19.238,-0.19,1.00,0.01,-5.16,0.40,0.69,-0.15,-0.01,-0.22,1009.30
19.239,-0.19,1.00,0.01,-0.58,0.18,0.65,-0.15,-0.01,-0.22,1009.30
19.24,-0.19,1.00,0.01,-0.58,0.18,0.65,-0.15,-0.01,-0.22,1009.24
19.262,-0.18,0.98,0.06,-0.58,0.18,0.65,-0.15,-0.01,-0.22,1009.24
19.283,-0.18,0.98,0.06,-0.58,0.18,0.65,-0.07,0.09,-0.16,1009.24
19.284,-0.20,0.97,0.03,-0.58,0.18,0.65,-0.07,0.09,-0.16,1009.24
19.302,-0.19,0.96,0.06,-0.58,0.18,0.65,-0.07,0.09,-0.16,1009.24
19.303,-0.19,0.96,0.06,0.22,0.49,0.39,-0.07,0.09,-0.16,1009.24
19.316,-0.19,0.95,0.08,0.22,0.49,0.39,-0.07,0.09,-0.16,1009.24
19.317,-0.19,0.95,0.08,0.22,0.49,0.39,-0.07,0.09,-0.16,1009.19
19.338,-0.19,0.95,0.06,0.22,0.49,0.39,-0.07,0.09,-0.16,1009.19
19.361,-0.19,0.95,0.06,0.22,0.49,0.39,-0.00,0.15,-0.09,1009.19
19.362,-0.18,0.95,0.08,0.22,0.49,0.39,-0.00,0.15,-0.09,1009.19
19.363,-0.18,0.95,0.08,0.22,0.49,0.39,-0.00,0.15,-0.09,1009.18
19.372,-0.18,0.95,0.08,0.07,0.33,0.31,-0.00,0.15,-0.09,1009.18
19.372,-0.16,0.96,0.07,0.07,0.33,0.31,-0.00,0.15,-0.09,1009.18
19.393,-0.18,0.96,0.04,0.07,0.33,0.31,-0.00,0.15,-0.09,1009.18
19.423,-0.18,0.96,0.04,0.07,0.33,0.31,0.07,0.18,-0.11,1009.18
19.424,-0.18,0.96,0.05,0.07,0.33,0.31,0.07,0.18,-0.11,1009.18
19.437,-0.19,0.96,0.04,0.07,0.33,0.31,0.07,0.18,-0.11,1009.18
19.438,-0.19,0.96,0.04,0.07,0.33,0.31,0.07,0.18,-0.11,1009.20
19.442,-0.19,0.96,0.04,0.29,0.21,0.57,0.07,0.18,-0.11,1009.20
19.459,-0.17,0.97,0.05,0.29,0.21,0.57,0.07,0.18,-0.11,1009.20
19.492,-0.17,0.97,0.05,0.29,0.21,0.57,0.13,0.19,-0.17,1009.20
19.494,-0.15,0.98,0.07,0.29,0.21,0.57,0.13,0.19,-0.17,1009.20
19.512,-0.15,0.98,0.07,0.34,0.30,0.42,0.13,0.19,-0.17,1009.20
19.513,-0.16,0.99,0.05,0.34,0.30,0.42,0.13,0.19,-0.17,1009.20
19.514,-0.17,1.00,0.02,0.34,0.30,0.42,0.13,0.19,-0.17,1009.20
19.522,-0.17,1.00,0.02,0.34,0.30,0.42,0.13,0.19,-0.17,1009.23
19.556,-0.17,1.00,0.02,0.34,0.30,0.42,0.13,0.19,-0.17,1009.21
19.558,-0.18,1.01,-0.02,0.34,0.30,0.42,0.13,0.19,-0.17,1009.21
19.558,-0.14,1.04,-0.03,0.34,0.30,0.42,0.13,0.19,-0.17,1009.21
19.561,-0.14,1.04,-0.03,0.34,0.30,0.42,0.13,0.27,-0.34,1009.21
19.582,-0.12,1.07,-0.03,0.34,0.30,0.42,0.13,0.27,-0.34,1009.21
19.583,-0.12,1.07,-0.03,0.86,0.63,0.51,0.13,0.27,-0.34,1009.21
19.593,-0.07,1.10,-0.04,0.86,0.63,0.51,0.13,0.27,-0.34,1009.21
19.632,-0.07,1.10,-0.04,0.86,0.63,0.51,-0.08,0.14,-0.92,1009.21
19.633,-0.11,1.14,-0.11,0.86,0.63,0.51,-0.08,0.14,-0.92,1009.21
19.635,-0.06,1.18,-0.02,0.86,0.63,0.51,-0.08,0.14,-0.92,1009.21
19.636,-0.06,1.18,-0.02,0.86,0.63,0.51,-0.08,0.14,-0.92,1009.26
19.652,-0.07,1.24,-0.06,0.86,0.63,0.51,-0.08,0.14,-0.92,1009.26
19.653,-0.07,1.24,-0.06,1.82,1.44,-0.29,-0.08,0.14,-0.92,1009.26
19.702,-0.07,1.24,-0.06,1.82,1.44,-0.29,-0.39,0.03,-2.05,1009.26
19.703,-0.04,1.32,-0.10,1.82,1.44,-0.29,-0.39,0.03,-2.05,1009.26
19.704,-0.01,1.38,-0.14,1.82,1.44,-0.29,-0.39,0.03,-2.05,1009.26
19.716,0.05,1.45,-0.14,1.82,1.44,-0.29,-0.39,0.03,-2.05,1009.26
19.717,0.05,1.45,-0.14,1.82,1.44,-0.29,-0.39,0.03,-2.05,1009.30
19.722,0.05,1.45,-0.14,3.81,3.29,-0.89,-0.39,0.03,-2.05,1009.30
19.738,0.19,1.48,0.05,3.81,3.29,-0.89,-0.39,0.03,-2.05,1009.30
19.757,0.34,1.50,0.13,3.81,3.29,-0.89,-0.39,0.03,-2.05,1009.30
19.758,0.34,1.50,0.13,3.81,3.29,-0.89,-0.39,0.03,-2.05,1009.33
19.771,0.34,1.50,0.13,3.81,3.29,-0.89,-0.76,0.36,-4.01,1009.33
19.792,0.34,1.50,0.13,7.03,7.28,-1.56,-0.76,0.36,-4.01,1009.33
19.794,0.29,1.48,0.05,7.03,7.28,-1.56,-0.76,0.36,-4.01,1009.33
19.794,-0.05,1.34,0.22,7.03,7.28,-1.56,-0.76,0.36,-4.01,1009.33
19.838,-0.05,1.34,0.22,7.03,7.28,-1.56,-0.76,0.36,-4.01,1008.87
19.845,-0.25,1.11,0.44,7.03,7.28,-1.56,-0.76,0.36,-4.01,1008.87
19.845,-0.30,1.08,0.53,7.03,7.28,-1.56,-0.76,0.36,-4.01,1008.87
19.846,-0.30,1.08,0.53,7.03,7.28,-1.56,-0.49,0.78,-5.72,1008.87
19.862,-0.70,-0.03,-0.01,7.03,7.28,-1.56,-0.49,0.78,-5.72,1008.87
19.863,-0.70,-0.03,-0.01,10.45,10.42,1.05,-0.49,0.78,-5.72,1008.87
19.913,-0.70,-0.03,-0.01,10.45,10.42,1.05,0.05,0.20,0.20,1008.87
19.915,-2.24,0.14,0.13,10.45,10.42,1.05,0.05,0.20,0.20,1008.87
19.916,-0.24,0.35,0.11,10.45,10.42,1.05,0.05,0.20,0.20,1008.87
19.916,0.63,0.61,-0.03,10.45,10.42,1.05,0.05,0.20,0.20,1008.87
19.917,0.63,0.61,-0.03,10.45,10.42,1.05,0.05,0.20,0.20,1009.04
19.932,0.63,0.61,-0.03,1.82,1.25,2.61,0.05,0.20,0.20,1009.04
19.933,0.43,0.45,-0.05,1.82,1.25,2.61,0.05,0.20,0.20,1009.04
19.956,-0.09,0.26,0.13,1.82,1.25,2.61,0.05,0.20,0.20,1009.04
19.957,-0.09,0.26,0.13,1.82,1.25,2.61,0.05,0.20,0.20,1009.09
19.983,-0.09,0.26,0.13,1.82,1.25,2.61,0.13,-0.26,2.46,1009.09
19.984,-0.45,0.21,0.14,1.82,1.25,2.61,0.13,-0.26,2.46,1009.09
19.994,-0.17,0.41,-0.04,1.82,1.25,2.61,0.13,-0.26,2.46,1009.09
20.002,-0.17,0.41,-0.04,5.27,-1.95,0.05,0.13,-0.26,2.46,1009.09
20.039,0.01,0.56,-0.05,5.27,-1.95,0.05,0.13,-0.26,2.46,1009.09
20.041,-0.19,0.58,0.01,5.27,-1.95,0.05,0.13,-0.26,2.46,1009.09
20.041,-0.19,0.58,0.01,5.27,-1.95,0.05,0.13,-0.26,2.46,1009.15
20.063,-0.19,0.58,0.01,5.27,-1.95,0.05,0.42,0.19,4.85,1009.15
20.067,-0.34,0.70,-0.04,5.27,-1.95,0.05,0.42,0.19,4.85,1009.15
20.072,-0.34,0.70,-0.04,1.97,-4.99,0.67,0.42,0.19,4.85,1009.15
20.073,-0.19,0.92,-0.09,1.97,-4.99,0.67,0.42,0.19,4.85,1009.15
20.123,-0.06,1.22,-0.17,1.97,-4.99,0.67,0.42,0.19,4.85,1009.15
20.125,-0.02,1.58,-0.22,1.97,-4.99,0.67,0.42,0.19,4.85,1009.15
20.125,-0.02,1.58,-0.22,1.97,-4.99,0.67,0.42,0.19,4.85,1009.21
20.126,-0.02,1.58,-0.22,1.97,-4.99,0.67,0.66,-0.14,4.93,1009.21
20.146,-0.02,1.58,-0.22,-0.79,-2.04,0.01,0.66,-0.14,4.93,1009.21
20.146,-0.37,1.70,-0.10,-0.79,-2.04,0.01,0.66,-0.14,4.93,1009.21
20.157,-0.89,1.56,0.07,-0.79,-2.04,0.01,0.66,-0.14,4.93,1009.21
20.157,-0.89,1.56,0.07,-0.79,-2.04,0.01,0.66,-0.14,4.93,1009.23
20.193,-0.89,1.56,0.07,-0.79,-2.04,0.01,0.37,-0.63,4.29,1009.23
20.194,-0.95,1.52,0.00,-0.79,-2.04,0.01,0.37,-0.63,4.29,1009.23
20.195,-0.60,1.56,-0.13,-0.79,-2.04,0.01,0.37,-0.63,4.29,1009.23
20.213,-0.60,1.46,0.00,-0.79,-2.04,0.01,0.37,-0.63,4.29,1009.23
20.214,-0.60,1.46,0.00,-3.92,5.76,-0.59,0.37,-0.63,4.29,1009.23
20.236,-0.81,1.24,0.15,-3.92,5.76,-0.59,0.37,-0.63,4.29,1009.23
