time,gFx,gFy,gFz,ax,ay,az,wx,wy,wz,P
0.014,0.04,0.97,0.14,0.01,0.00,-0.07,-0.01,-0.01,-0.01,1009.32
0.014,0.04,0.97,0.17,0.01,0.00,-0.07,-0.01,-0.01,-0.01,1009.32
0.017,0.04,0.97,0.17,0.01,0.00,-0.07,-0.01,-0.01,-0.01,1009.27
0.017,0.04,0.97,0.16,0.01,0.00,-0.07,-0.01,-0.01,-0.01,1009.27
0.034,0.03,0.97,0.17,0.01,0.00,-0.07,-0.01,-0.01,-0.01,1009.27
0.035,0.03,0.97,0.17,0.05,-0.04,0.04,-0.01,-0.01,-0.01,1009.27
0.057,0.04,0.97,0.17,0.05,-0.04,0.04,-0.01,-0.01,-0.01,1009.27
0.057,0.04,0.97,0.17,0.05,-0.04,0.04,-0.01,-0.01,-0.01,1009.28
0.083,0.04,0.97,0.17,0.05,-0.04,0.04,-0.02,-0.00,-0.01,1009.28
0.084,0.03,0.97,0.16,0.05,-0.04,0.04,-0.02,-0.00,-0.01,1009.28
0.104,0.03,0.97,0.16,0.02,0.03,-0.05,-0.02,-0.00,-0.01,1009.28
0.105,0.03,0.96,0.17,0.02,0.03,-0.05,-0.02,-0.00,-0.01,1009.28
0.138,0.03,0.96,0.17,0.02,0.03,-0.05,-0.02,-0.00,-0.01,1009.24
0.139,0.04,0.97,0.17,0.02,0.03,-0.05,-0.02,-0.00,-0.01,1009.24
0.139,0.03,0.97,0.17,0.02,0.03,-0.05,-0.02,-0.00,-0.01,1009.24
0.155,0.03,0.97,0.17,0.02,0.03,-0.05,-0.02,-0.01,-0.01,1009.24
0.175,0.03,0.97,0.17,0.03,-0.02,0.00,-0.02,-0.01,-0.01,1009.24
0.176,0.04,0.96,0.17,0.03,-0.02,0.00,-0.02,-0.01,-0.01,1009.24
0.176,0.04,0.96,0.18,0.03,-0.02,0.00,-0.02,-0.01,-0.01,1009.24
0.217,0.04,0.96,0.18,0.03,-0.02,0.00,-0.02,-0.01,-0.01,1009.24
0.218,0.04,0.96,0.18,0.03,-0.02,0.00,-0.02,-0.01,-0.01,1009.24
0.218,0.03,0.96,0.18,0.03,-0.02,0.00,-0.02,-0.01,-0.01,1009.24
0.224,0.03,0.96,0.18,0.03,-0.02,0.00,-0.01,-0.03,-0.03,1009.24
0.244,0.03,0.97,0.17,0.03,-0.02,0.00,-0.01,-0.03,-0.03,1009.24
0.245,0.03,0.97,0.17,0.05,-0.02,0.02,-0.01,-0.03,-0.03,1009.24
0.258,0.03,0.97,0.16,0.05,-0.02,0.02,-0.01,-0.03,-0.03,1009.24
0.259,0.03,0.97,0.16,0.05,-0.02,0.02,-0.01,-0.03,-0.03,1009.26
0.295,0.03,0.97,0.17,0.05,-0.02,0.02,-0.01,-0.03,-0.03,1009.26
0.295,0.03,0.97,0.17,0.05,-0.02,0.02,-0.01,-0.04,-0.03,1009.26
0.31,0.03,0.96,0.18,0.05,-0.02,0.02,-0.01,-0.04,-0.03,1009.26
0.314,0.03,0.97,0.17,0.05,-0.02,0.02,-0.01,-0.04,-0.03,1009.26
0.315,0.03,0.97,0.17,0.03,-0.02,0.02,-0.01,-0.04,-0.03,1009.26
0.338,0.03,0.97,0.17,0.03,-0.02,0.02,-0.01,-0.04,-0.03,1009.26
0.338,0.03,0.97,0.17,0.03,-0.02,0.02,-0.01,-0.04,-0.03,1009.25
0.363,0.03,0.97,0.17,0.03,-0.02,0.02,-0.01,-0.05,-0.03,1009.25
0.364,0.04,0.96,0.18,0.03,-0.02,0.02,-0.01,-0.05,-0.03,1009.25
0.377,0.05,0.96,0.16,0.03,-0.02,0.02,-0.01,-0.05,-0.03,1009.25
0.385,0.05,0.96,0.16,0.02,0.00,-0.02,-0.01,-0.05,-0.03,1009.25
0.418,0.05,0.96,0.16,0.02,0.00,-0.02,-0.01,-0.05,-0.03,1009.29
0.418,0.04,0.97,0.17,0.02,0.00,-0.02,-0.01,-0.05,-0.03,1009.29
0.419,0.02,0.97,0.18,0.02,0.00,-0.02,-0.01,-0.05,-0.03,1009.29
0.434,0.02,0.97,0.18,0.02,0.00,-0.02,-0.02,-0.05,-0.06,1009.29
0.444,0.02,0.97,0.16,0.02,0.00,-0.02,-0.02,-0.05,-0.06,1009.29
0.455,0.03,0.97,0.16,0.02,0.00,-0.02,-0.02,-0.05,-0.06,1009.29
0.456,0.03,0.97,0.16,0.12,-0.04,-0.02,-0.02,-0.05,-0.06,1009.29
0.457,0.03,0.97,0.16,0.12,-0.04,-0.02,-0.02,-0.05,-0.06,1009.32
0.505,0.03,0.97,0.17,0.12,-0.04,-0.02,-0.02,-0.05,-0.06,1009.32
0.506,0.02,0.97,0.16,0.12,-0.04,-0.02,-0.02,-0.05,-0.06,1009.32
0.506,0.02,0.97,0.16,0.12,-0.04,-0.02,-0.01,-0.02,-0.05,1009.32
0.525,0.02,0.97,0.16,-0.01,0.05,-0.01,-0.01,-0.02,-0.05,1009.32
0.526,0.02,0.97,0.18,-0.01,0.05,-0.01,-0.01,-0.02,-0.05,1009.32
0.538,0.02,0.96,0.18,-0.01,0.05,-0.01,-0.01,-0.02,-0.05,1009.32
0.539,0.02,0.96,0.18,-0.01,0.05,-0.01,-0.01,-0.02,-0.05,1009.34
0.574,0.02,0.96,0.18,-0.01,0.05,-0.01,0.00,-0.00,-0.04,1009.34
0.576,0.02,0.97,0.17,-0.01,0.05,-0.01,0.00,-0.00,-0.04,1009.34
0.577,0.02,0.97,0.18,-0.01,0.05,-0.01,0.00,-0.00,-0.04,1009.34
0.596,0.02,0.97,0.18,-0.01,0.05,-0.01,0.00,-0.00,-0.04,1009.34
0.597,0.02,0.97,0.18,0.01,0.01,0.00,0.00,-0.00,-0.04,1009.34
0.617,0.02,0.97,0.16,0.01,0.01,0.00,0.00,-0.00,-0.04,1009.34
0.618,0.02,0.97,0.16,0.01,0.01,0.00,0.00,-0.00,-0.04,1009.36
0.644,0.02,0.97,0.16,0.01,0.01,0.00,0.03,0.01,-0.04,1009.36
0.645,0.02,0.97,0.16,0.01,0.01,0.00,0.03,0.01,-0.04,1009.36
0.657,0.02,0.97,0.16,0.01,0.01,0.00,0.03,0.01,-0.04,1009.36
0.658,0.02,0.97,0.16,0.01,0.01,0.00,0.03,0.01,-0.04,1009.38
0.664,0.02,0.97,0.16,0.03,-0.01,0.08,0.03,0.01,-0.04,1009.38
0.71,0.02,0.97,0.17,0.03,-0.01,0.08,0.03,0.01,-0.04,1009.38
0.711,0.02,0.97,0.17,0.03,-0.01,0.08,0.03,0.01,-0.04,1009.38
0.714,0.02,0.97,0.17,0.03,-0.01,0.08,0.04,0.01,-0.04,1009.38
0.734,0.02,0.97,0.17,0.03,0.05,-0.02,0.04,0.01,-0.04,1009.38
0.735,0.02,0.97,0.16,0.03,0.05,-0.02,0.04,0.01,-0.04,1009.38
0.735,0.04,0.97,0.16,0.03,0.05,-0.02,0.04,0.01,-0.04,1009.38
0.737,0.04,0.97,0.16,0.03,0.05,-0.02,0.04,0.01,-0.04,1009.37
0.778,-0.01,0.97,0.19,0.03,0.05,-0.02,0.04,0.01,-0.04,1009.37
0.778,-0.01,0.97,0.19,0.03,0.05,-0.02,0.04,0.01,-0.04,1009.37
0.783,-0.01,0.97,0.19,0.03,0.05,-0.02,0.08,0.02,-0.04,1009.37
0.805,-0.01,0.97,0.19,0.08,-0.00,0.06,0.08,0.02,-0.04,1009.37
0.806,0.00,0.96,0.15,0.08,-0.00,0.06,0.08,0.02,-0.04,1009.37
0.817,0.03,0.95,0.16,0.08,-0.00,0.06,0.08,0.02,-0.04,1009.37
0.818,0.03,0.95,0.16,0.08,-0.00,0.06,0.08,0.02,-0.04,1009.39
0.845,0.01,0.97,0.13,0.08,-0.00,0.06,0.08,0.02,-0.04,1009.39
0.854,0.01,0.97,0.13,0.08,-0.00,0.06,0.10,0.01,0.01,1009.39
0.858,-0.03,0.98,0.15,0.08,-0.00,0.06,0.10,0.01,0.01,1009.39
0.859,-0.03,0.98,0.15,0.08,-0.00,0.06,0.10,0.01,0.01,1009.41
0.874,-0.03,0.98,0.15,-0.18,-0.05,0.19,0.10,0.01,0.01,1009.41
0.876,-0.03,0.97,0.14,-0.18,-0.05,0.19,0.10,0.01,0.01,1009.41
0.91,0.02,0.97,0.15,-0.18,-0.05,0.19,0.10,0.01,0.01,1009.41
0.923,0.03,0.97,0.15,-0.18,-0.05,0.19,0.10,0.01,0.01,1009.41
0.924,0.03,0.97,0.15,-0.18,-0.05,0.19,0.08,0.02,0.11,1009.41
0.937,0.03,0.97,0.15,-0.18,-0.05,0.19,0.08,0.02,0.11,1009.46
0.938,0.00,0.97,0.14,-0.18,-0.05,0.19,0.08,0.02,0.11,1009.46
0.943,0.00,0.97,0.14,-0.30,0.01,-0.08,0.08,0.02,0.11,1009.46
0.977,-0.01,0.98,0.17,-0.30,0.01,-0.08,0.08,0.02,0.11,1009.46
0.978,0.02,0.98,0.16,-0.30,0.01,-0.08,0.08,0.02,0.11,1009.46
0.994,0.02,0.98,0.16,-0.30,0.01,-0.08,0.12,0.03,0.17,1009.46
1.015,0.05,0.99,0.15,-0.30,0.01,-0.08,0.12,0.03,0.17,1009.46
1.016,0.06,0.97,0.16,-0.30,0.01,-0.08,0.12,0.03,0.17,1009.46
1.017,0.06,0.97,0.16,-0.15,-0.01,0.07,0.12,0.03,0.17,1009.46
1.017,0.06,0.97,0.16,-0.15,-0.01,0.07,0.12,0.03,0.17,1009.47
1.043,0.05,0.97,0.15,-0.15,-0.01,0.07,0.12,0.03,0.17,1009.47
1.056,0.06,0.97,0.14,-0.15,-0.01,0.07,0.12,0.03,0.17,1009.47
1.058,0.06,0.97,0.14,-0.15,-0.01,0.07,0.12,0.03,0.17,1009.35
1.065,0.06,0.97,0.14,-0.15,-0.01,0.07,0.21,0.05,0.12,1009.35
1.084,0.06,0.97,0.14,-0.01,0.03,0.27,0.21,0.05,0.12,1009.35
1.085,0.08,0.96,0.12,-0.01,0.03,0.27,0.21,0.05,0.12,1009.35
1.109,0.08,0.98,0.07,-0.01,0.03,0.27,0.21,0.05,0.12,1009.35
1.135,0.08,0.98,0.07,-0.01,0.03,0.27,0.12,0.01,-0.00,1009.35
1.136,0.07,1.01,0.04,-0.01,0.03,0.27,0.12,0.01,-0.00,1009.35
1.137,0.07,1.00,0.04,-0.01,0.03,0.27,0.12,0.01,-0.00,1009.35
1.138,0.07,1.00,0.04,-0.01,0.03,0.27,0.12,0.01,-0.00,1009.36
1.155,0.05,0.98,0.09,-0.01,0.03,0.27,0.12,0.01,-0.00,1009.36
1.156,0.05,0.98,0.09,0.28,-0.05,0.01,0.12,0.01,-0.00,1009.36
1.177,0.01,0.95,0.18,0.28,-0.05,0.01,0.12,0.01,-0.00,1009.36
1.204,0.01,0.95,0.18,0.28,-0.05,0.01,0.03,-0.05,-0.06,1009.36
1.206,0.04,0.96,0.16,0.28,-0.05,0.01,0.03,-0.05,-0.06,1009.36
1.217,0.04,0.96,0.16,0.28,-0.05,0.01,0.03,-0.05,-0.06,1009.36
1.218,0.02,0.96,0.14,0.28,-0.05,0.01,0.03,-0.05,-0.06,1009.36
1.224,0.02,0.96,0.14,0.29,0.18,-0.60,0.03,-0.05,-0.06,1009.36
1.243,0.01,0.97,0.13,0.29,0.18,-0.60,0.03,-0.05,-0.06,1009.36
1.257,0.04,0.96,0.10,0.29,0.18,-0.60,0.03,-0.05,-0.06,1009.36
1.258,0.04,0.96,0.10,0.29,0.18,-0.60,0.03,-0.05,-0.06,1009.38
1.274,0.04,0.96,0.10,0.29,0.18,-0.60,0.16,-0.06,0.00,1009.38
1.295,0.04,0.96,0.10,-0.15,-0.18,0.49,0.16,-0.06,0.00,1009.38
1.296,0.04,0.97,0.10,-0.15,-0.18,0.49,0.16,-0.06,0.00,1009.38
1.296,0.03,0.99,0.08,-0.15,-0.18,0.49,0.16,-0.06,0.00,1009.38
1.337,0.03,0.99,0.08,-0.15,-0.18,0.49,0.16,-0.06,0.00,1009.44
1.339,0.04,0.98,0.09,-0.15,-0.18,0.49,0.16,-0.06,0.00,1009.44
1.339,0.02,0.98,0.08,-0.15,-0.18,0.49,0.16,-0.06,0.00,1009.44
1.344,0.02,0.98,0.08,-0.15,-0.18,0.49,0.15,-0.06,0.02,1009.44
1.364,0.02,0.98,0.08,-0.03,-0.03,-0.01,0.15,-0.06,0.02,1009.44
1.365,0.04,0.98,0.09,-0.03,-0.03,-0.01,0.15,-0.06,0.02,1009.44
1.377,0.01,0.98,0.10,-0.03,-0.03,-0.01,0.15,-0.06,0.02,1009.44
1.415,0.00,0.99,0.08,-0.03,-0.03,-0.01,0.15,-0.06,0.02,1009.44
1.417,0.00,0.99,0.08,-0.03,-0.03,-0.01,0.16,-0.07,0.09,1009.44
1.418,0.00,1.00,0.08,-0.03,-0.03,-0.01,0.16,-0.07,0.09,1009.44
1.419,0.00,1.00,0.08,-0.03,-0.03,-0.01,0.16,-0.07,0.09,1009.48
1.435,-0.01,1.00,0.09,-0.03,-0.03,-0.01,0.16,-0.07,0.09,1009.48
1.436,-0.01,1.00,0.09,-0.15,0.01,-0.00,0.16,-0.07,0.09,1009.48
1.456,-0.01,1.00,0.08,-0.15,0.01,-0.00,0.16,-0.07,0.09,1009.48
1.457,-0.01,1.00,0.08,-0.15,0.01,-0.00,0.16,-0.07,0.09,1009.38
1.485,-0.02,1.00,0.06,-0.15,0.01,-0.00,0.16,-0.07,0.09,1009.38
1.487,-0.02,1.00,0.06,-0.15,0.01,-0.00,0.22,-0.27,0.30,1009.38
1.504,-0.03,1.03,0.04,-0.15,0.01,-0.00,0.22,-0.27,0.30,1009.38
1.506,-0.03,1.03,0.04,-0.65,0.17,0.15,0.22,-0.27,0.30,1009.38
1.538,-0.03,1.03,0.04,-0.65,0.17,0.15,0.22,-0.27,0.30,1009.23
1.539,-0.06,1.07,0.02,-0.65,0.17,0.15,0.22,-0.27,0.30,1009.23
1.539,-0.09,1.10,0.02,-0.65,0.17,0.15,0.22,-0.27,0.30,1009.23
1.555,-0.09,1.10,0.02,-0.65,0.17,0.15,0.07,-0.47,0.77,1009.23
1.575,-0.03,1.14,-0.05,-0.65,0.17,0.15,0.07,-0.47,0.77,1009.23
1.576,-0.11,1.22,-0.08,-0.65,0.17,0.15,0.07,-0.47,0.77,1009.23
1.577,-0.11,1.22,-0.08,-1.54,0.42,-0.14,0.07,-0.47,0.77,1009.23
1.618,-0.11,1.22,-0.08,-1.54,0.42,-0.14,0.07,-0.47,0.77,1009.31
1.619,-0.16,1.32,-0.11,-1.54,0.42,-0.14,0.07,-0.47,0.77,1009.31
1.62,-0.22,1.42,-0.12,-1.54,0.42,-0.14,0.07,-0.47,0.77,1009.31
1.624,-0.22,1.42,-0.12,-1.54,0.42,-0.14,-0.37,-0.24,1.95,1009.31
1.643,-0.29,1.48,-0.12,-1.54,0.42,-0.14,-0.37,-0.24,1.95,1009.31
1.644,-0.29,1.48,-0.12,-3.62,2.00,-1.28,-0.37,-0.24,1.95,1009.31
1.656,-0.43,1.51,-0.05,-3.62,2.00,-1.28,-0.37,-0.24,1.95,1009.31
1.657,-0.43,1.51,-0.05,-3.62,2.00,-1.28,-0.37,-0.24,1.95,1009.16
1.695,-0.43,1.51,-0.05,-3.62,2.00,-1.28,-0.74,-0.66,4.07,1009.16
1.697,-0.63,1.41,0.14,-3.62,2.00,-1.28,-0.74,-0.66,4.07,1009.16
1.709,-0.50,1.39,0.17,-3.62,2.00,-1.28,-0.74,-0.66,4.07,1009.16
1.716,0.10,1.26,0.39,-3.62,2.00,-1.28,-0.74,-0.66,4.07,1009.16
1.717,0.10,1.26,0.39,-7.91,6.05,-2.20,-0.74,-0.66,4.07,1009.16
1.738,0.17,1.04,0.80,-7.91,6.05,-2.20,-0.74,-0.66,4.07,1009.16
1.739,0.17,1.04,0.80,-7.91,6.05,-2.20,-0.74,-0.66,4.07,1008.15
1.765,0.07,1.04,0.46,-7.91,6.05,-2.20,-0.74,-0.66,4.07,1008.15
1.766,0.07,1.04,0.46,-7.91,6.05,-2.20,-0.29,-1.13,5.49,1008.15
1.776,0.53,0.48,-0.02,-7.91,6.05,-2.20,-0.29,-1.13,5.49,1008.15
1.784,0.53,0.48,-0.02,-11.11,7.61,1.24,-0.29,-1.13,5.49,1008.15
1.817,0.53,0.48,-0.02,-11.11,7.61,1.24,-0.29,-1.13,5.49,1008.20
1.818,1.43,1.02,0.29,-11.11,7.61,1.24,-0.29,-1.13,5.49,1008.20
1.819,-0.45,0.61,0.17,-11.11,7.61,1.24,-0.29,-1.13,5.49,1008.20
1.834,-0.45,0.61,0.17,-11.11,7.61,1.24,-0.35,-0.53,-0.14,1008.20
1.843,-0.70,0.65,-0.04,-11.11,7.61,1.24,-0.35,-0.53,-0.14,1008.20
1.855,-0.70,0.65,-0.04,-2.35,2.14,2.91,-0.35,-0.53,-0.14,1008.20
1.856,-0.28,0.63,-0.02,-2.35,2.14,2.91,-0.35,-0.53,-0.14,1008.20
1.857,-0.28,0.63,-0.02,-2.35,2.14,2.91,-0.35,-0.53,-0.14,1008.77
1.904,0.12,0.58,0.09,-2.35,2.14,2.91,-0.35,-0.53,-0.14,1008.77
1.906,0.08,0.61,0.03,-2.35,2.14,2.91,-0.35,-0.53,-0.14,1008.77
1.906,0.08,0.61,0.03,-2.35,2.14,2.91,-0.57,0.12,-2.51,1008.77
1.924,0.08,0.61,0.03,-7.47,-1.29,-0.26,-0.57,0.12,-2.51,1008.77
1.926,-0.07,0.67,-0.07,-7.47,-1.29,-0.26,-0.57,0.12,-2.51,1008.77
1.937,-0.12,0.75,-0.09,-7.47,-1.29,-0.26,-0.57,0.12,-2.51,1008.77
1.938,-0.12,0.75,-0.09,-7.47,-1.29,-0.26,-0.57,0.12,-2.51,1009.07
1.975,-0.12,0.75,-0.09,-7.47,-1.29,-0.26,-0.22,0.00,-4.47,1009.07
1.977,-0.03,0.87,-0.10,-7.47,-1.29,-0.26,-0.22,0.00,-4.47,1009.07
1.978,0.08,1.03,-0.15,-7.47,-1.29,-0.26,-0.22,0.00,-4.47,1009.07
1.995,0.14,1.16,-0.17,-7.47,-1.29,-0.26,-0.22,0.00,-4.47,1009.07
1.996,0.14,1.16,-0.17,-2.04,-2.78,-1.14,-0.22,0.00,-4.47,1009.07
2.018,0.20,1.34,-0.17,-2.04,-2.78,-1.14,-0.22,0.00,-4.47,1009.07
2.019,0.20,1.34,-0.17,-2.04,-2.78,-1.14,-0.22,0.00,-4.47,1009.11
2.043,0.25,1.42,-0.15,-2.04,-2.78,-1.14,-0.22,0.00,-4.47,1009.11
2.044,0.25,1.42,-0.15,-2.04,-2.78,-1.14,0.30,0.41,-4.67,1009.11
2.057,-0.48,1.62,-0.21,-2.04,-2.78,-1.14,0.30,0.41,-4.67,1009.11
2.058,-0.48,1.62,-0.21,-2.04,-2.78,-1.14,0.30,0.41,-4.67,1009.13
2.064,-0.48,1.62,-0.21,0.83,0.34,-2.14,0.30,0.41,-4.67,1009.13
2.11,0.50,1.69,-0.01,0.83,0.34,-2.14,0.30,0.41,-4.67,1009.13
2.112,1.47,1.74,0.13,0.83,0.34,-2.14,0.30,0.41,-4.67,1009.13
2.115,1.47,1.74,0.13,0.83,0.34,-2.14,0.55,0.89,-2.73,1009.13
2.138,1.47,1.74,0.13,2.31,5.32,-1.98,0.55,0.89,-2.73,1009.13
2.141,1.98,1.47,0.27,2.31,5.32,-1.98,0.55,0.89,-2.73,1009.13
2.141,2.03,0.80,0.51,2.31,5.32,-1.98,0.55,0.89,-2.73,1009.13
2.142,2.03,0.80,0.51,2.31,5.32,-1.98,0.55,0.89,-2.73,1009.29
2.177,2.16,0.39,0.56,2.31,5.32,-1.98,0.55,0.89,-2.73,1009.29
2.178,2.37,0.50,0.25,2.31,5.32,-1.98,0.55,0.89,-2.73,1009.29
2.184,2.37,0.50,0.25,2.31,5.32,-1.98,-0.24,-0.04,0.59,1009.29
2.205,2.37,0.50,0.25,16.77,4.16,2.05,-0.24,-0.04,0.59,1009.29
2.206,1.24,0.61,1.41,16.77,4.16,2.05,-0.24,-0.04,0.59,1009.29
2.218,1.24,0.61,1.41,16.77,4.16,2.05,-0.24,-0.04,0.59,1009.48
2.219,2.70,1.59,-1.36,16.77,4.16,2.05,-0.24,-0.04,0.59,1009.48
2.243,-1.21,1.39,-0.36,16.77,4.16,2.05,-0.24,-0.04,0.59,1009.48
2.256,-1.21,1.39,-0.36,16.77,4.16,2.05,-0.08,0.64,0.95,1009.48
2.257,0.58,1.15,0.03,16.77,4.16,2.05,-0.08,0.64,0.95,1009.48
2.258,0.58,1.15,0.03,16.77,4.16,2.05,-0.08,0.64,0.95,1010.15
2.275,0.58,1.15,0.03,21.49,-3.19,1.32,-0.08,0.64,0.95,1010.15
2.277,0.13,1.01,0.06,21.49,-3.19,1.32,-0.08,0.64,0.95,1010.15
2.31,0.03,1.04,0.12,21.49,-3.19,1.32,-0.08,0.64,0.95,1010.15
2.324,0.13,1.03,0.11,21.49,-3.19,1.32,-0.08,0.64,0.95,1010.15
2.326,0.13,1.03,0.11,21.49,-3.19,1.32,-0.22,0.08,0.31,1010.15
2.339,0.13,1.03,0.11,21.49,-3.19,1.32,-0.22,0.08,0.31,1009.67
2.34,0.12,1.00,0.10,21.49,-3.19,1.32,-0.22,0.08,0.31,1009.67
2.344,0.12,1.00,0.10,0.19,2.87,-1.36,-0.22,0.08,0.31,1009.67
2.377,0.06,0.97,0.17,0.19,2.87,-1.36,-0.22,0.08,0.31,1009.67
2.378,0.06,0.99,0.12,0.19,2.87,-1.36,-0.22,0.08,0.31,1009.67
2.395,0.06,0.99,0.12,0.19,2.87,-1.36,0.07,-0.03,0.13,1009.67
2.415,0.06,0.99,0.12,0.41,0.46,0.39,0.07,-0.03,0.13,1009.67
2.417,0.07,0.97,0.10,0.41,0.46,0.39,0.07,-0.03,0.13,1009.67
2.418,0.08,0.95,0.09,0.41,0.46,0.39,0.07,-0.03,0.13,1009.67
2.418,0.08,0.95,0.09,0.41,0.46,0.39,0.07,-0.03,0.13,1009.23
2.443,0.06,0.94,0.11,0.41,0.46,0.39,0.07,-0.03,0.13,1009.23
2.456,0.07,0.95,0.09,0.41,0.46,0.39,0.07,-0.03,0.13,1009.23
2.458,0.07,0.95,0.09,0.41,0.46,0.39,0.07,-0.03,0.13,1009.13
2.464,0.07,0.95,0.09,0.41,0.46,0.39,0.21,-0.09,0.11,1009.13
2.485,0.07,0.95,0.09,0.09,0.03,0.47,0.21,-0.09,0.11,1009.13
2.487,0.09,0.97,0.03,0.09,0.03,0.47,0.21,-0.09,0.11,1009.13
2.509,0.09,0.98,0.02,0.09,0.03,0.47,0.21,-0.09,0.11,1009.13
2.54,0.09,0.98,0.02,0.09,0.03,0.47,0.17,-0.12,0.11,1009.13
2.542,0.07,0.99,0.03,0.09,0.03,0.47,0.17,-0.12,0.11,1009.13
2.543,0.03,0.99,0.06,0.09,0.03,0.47,0.17,-0.12,0.11,1009.13
2.544,0.03,0.99,0.06,0.09,0.03,0.47,0.17,-0.12,0.11,1009.26
2.555,0.03,0.99,0.06,0.06,-0.12,0.16,0.17,-0.12,0.11,1009.26
2.556,0.08,0.98,0.03,0.06,-0.12,0.16,0.17,-0.12,0.11,1009.26
2.577,0.05,1.00,0.00,0.06,-0.12,0.16,0.17,-0.12,0.11,1009.26
2.605,0.05,1.00,0.00,0.06,-0.12,0.16,0.11,-0.12,0.23,1009.26
2.606,0.05,1.01,0.04,0.06,-0.12,0.16,0.11,-0.12,0.23,1009.26
2.619,0.05,1.02,0.03,0.06,-0.12,0.16,0.11,-0.12,0.23,1009.26
2.62,0.05,1.02,0.03,0.06,-0.12,0.16,0.11,-0.12,0.23,1009.36
2.624,0.05,1.02,0.03,-0.24,0.18,-0.13,0.11,-0.12,0.23,1009.36
2.643,0.03,1.02,0.03,-0.24,0.18,-0.13,0.11,-0.12,0.23,1009.36
2.657,0.04,1.03,0.00,-0.24,0.18,-0.13,0.11,-0.12,0.23,1009.36
2.658,0.04,1.03,0.00,-0.24,0.18,-0.13,0.11,-0.12,0.23,1009.51
2.675,0.04,1.03,0.00,-0.24,0.18,-0.13,0.05,-0.13,0.53,1009.51
2.695,0.03,1.05,-0.01,-0.24,0.18,-0.13,0.05,-0.13,0.53,1009.51
2.697,-0.00,1.08,-0.02,-0.24,0.18,-0.13,0.05,-0.13,0.53,1009.51
2.698,-0.00,1.08,-0.02,-0.85,0.47,-0.18,0.05,-0.13,0.53,1009.51
2.74,-0.00,1.08,-0.02,-0.85,0.47,-0.18,0.05,-0.13,0.53,1009.61
2.743,0.02,1.10,-0.04,-0.85,0.47,-0.18,0.05,-0.13,0.53,1009.61
2.743,0.03,1.14,-0.07,-0.85,0.47,-0.18,0.05,-0.13,0.53,1009.61
2.744,0.03,1.14,-0.07,-0.85,0.47,-0.18,-0.15,-0.12,1.13,1009.61
2.765,0.03,1.14,-0.07,-1.93,0.98,-0.61,-0.15,-0.12,1.13,1009.61
2.766,0.02,1.16,-0.09,-1.93,0.98,-0.61,-0.15,-0.12,1.13,1009.61
2.776,-0.01,1.20,-0.06,-1.93,0.98,-0.61,-0.15,-0.12,1.13,1009.61
2.815,-0.11,1.29,-0.04,-1.93,0.98,-0.61,-0.15,-0.12,1.13,1009.61
2.817,-0.11,1.29,-0.04,-1.93,0.98,-0.61,-0.42,-0.02,2.19,1009.61
2.818,-0.28,1.42,-0.01,-1.93,0.98,-0.61,-0.42,-0.02,2.19,1009.61
2.819,-0.28,1.42,-0.01,-1.93,0.98,-0.61,-0.42,-0.02,2.19,1009.58
2.841,-0.56,1.51,0.06,-1.93,0.98,-0.61,-0.42,-0.02,2.19,1009.58
2.842,-0.56,1.51,0.06,-3.60,2.45,-1.48,-0.42,-0.02,2.19,1009.58
2.856,-0.70,1.59,0.09,-3.60,2.45,-1.48,-0.42,-0.02,2.19,1009.58
2.857,-0.70,1.59,0.09,-3.60,2.45,-1.48,-0.42,-0.02,2.19,1009.20
2.884,-0.70,1.59,0.09,-3.60,2.45,-1.48,-0.72,-0.87,4.85,1009.20
2.886,-0.54,1.61,0.12,-3.60,2.45,-1.48,-0.72,-0.87,4.85,1009.20
2.905,-0.54,1.61,0.12,-9.43,6.84,-0.84,-0.72,-0.87,4.85,1009.20
2.906,0.14,1.48,0.44,-9.43,6.84,-0.84,-0.72,-0.87,4.85,1009.20
2.942,0.14,1.48,0.44,-9.43,6.84,-0.84,-0.72,-0.87,4.85,1008.48
2.943,0.01,1.19,0.73,-9.43,6.84,-0.84,-0.72,-0.87,4.85,1008.48
2.944,-0.16,1.06,0.52,-9.43,6.84,-0.84,-0.72,-0.87,4.85,1008.48
2.955,-0.16,1.06,0.52,-9.43,6.84,-0.84,-0.13,-1.32,6.17,1008.48
2.975,0.40,0.30,0.05,-9.43,6.84,-0.84,-0.13,-1.32,6.17,1008.48
2.977,2.61,1.11,0.30,-9.43,6.84,-0.84,-0.13,-1.32,6.17,1008.48
2.977,2.61,1.11,0.30,-11.24,10.52,2.46,-0.13,-1.32,6.17,1008.48
3.019,0.44,0.47,0.31,-11.24,10.52,2.46,-0.13,-1.32,6.17,1008.48
3.021,-0.30,0.42,0.06,-11.24,10.52,2.46,-0.13,-1.32,6.17,1008.48
3.021,-0.30,0.42,0.06,-11.24,10.52,2.46,-0.13,-1.32,6.17,1008.43
3.025,-0.30,0.42,0.06,-11.24,10.52,2.46,0.03,0.37,-1.25,1008.43
3.044,-0.60,0.46,-0.18,-11.24,10.52,2.46,0.03,0.37,-1.25,1008.43
3.045,-0.60,0.46,-0.18,0.24,2.92,2.79,0.03,0.37,-1.25,1008.43
3.058,-0.28,0.45,-0.01,0.24,2.92,2.79,0.03,0.37,-1.25,1008.43
3.059,-0.28,0.45,-0.01,0.24,2.92,2.79,0.03,0.37,-1.25,1008.86
3.096,-0.28,0.45,-0.01,0.24,2.92,2.79,-0.23,1.05,-2.98,1008.86
3.097,0.31,0.44,0.17,0.24,2.92,2.79,-0.23,1.05,-2.98,1008.86
3.11,0.42,0.50,0.09,0.24,2.92,2.79,-0.23,1.05,-2.98,1008.86
3.116,0.42,0.50,0.09,-7.54,-2.93,-0.83,-0.23,1.05,-2.98,1008.86
3.117,0.19,0.57,-0.02,-7.54,-2.93,-0.83,-0.23,1.05,-2.98,1008.86
3.142,0.04,0.66,-0.05,-7.54,-2.93,-0.83,-0.23,1.05,-2.98,1008.86
3.144,0.04,0.66,-0.05,-7.54,-2.93,-0.83,-0.23,1.05,-2.98,1009.07
3.165,0.04,0.66,-0.05,-7.54,-2.93,-0.83,0.31,0.70,-5.10,1009.07
3.166,0.13,0.81,-0.05,-7.54,-2.93,-0.83,0.31,0.70,-5.10,1009.07
3.176,0.33,0.97,-0.04,-7.54,-2.93,-0.83,0.31,0.70,-5.10,1009.07
3.186,0.33,0.97,-0.04,-0.29,-3.93,-0.44,0.31,0.70,-5.10,1009.07
3.217,0.33,0.97,-0.04,-0.29,-3.93,-0.44,0.31,0.70,-5.10,1009.16
3.219,0.35,1.09,-0.10,-0.29,-3.93,-0.44,0.31,0.70,-5.10,1009.16
3.219,0.29,1.24,-0.10,-0.29,-3.93,-0.44,0.31,0.70,-5.10,1009.16
3.241,0.29,1.24,-0.10,-0.29,-3.93,-0.44,0.69,0.96,-4.85,1009.16
3.243,0.24,1.41,-0.05,-0.29,-3.93,-0.44,0.69,0.96,-4.85,1009.16
3.256,0.10,1.61,-0.05,-0.29,-3.93,-0.44,0.69,0.96,-4.85,1009.16
3.257,0.10,1.61,-0.05,2.20,-0.89,-1.32,0.69,0.96,-4.85,1009.16
3.258,0.10,1.61,-0.05,2.20,-0.89,-1.32,0.69,0.96,-4.85,1009.14
3.305,0.10,1.61,-0.05,2.20,-0.89,-1.32,0.71,0.64,-2.52,1009.14
3.306,0.01,1.79,0.07,2.20,-0.89,-1.32,0.71,0.64,-2.52,1009.14
3.306,1.13,1.68,0.34,2.20,-0.89,-1.32,0.71,0.64,-2.52,1009.14
3.325,2.61,1.10,0.42,2.20,-0.89,-1.32,0.71,0.64,-2.52,1009.14
3.326,2.61,1.10,0.42,3.66,4.29,-0.95,0.71,0.64,-2.52,1009.14
3.337,2.68,0.66,0.36,3.66,4.29,-0.95,0.71,0.64,-2.52,1009.14
3.338,2.68,0.66,0.36,3.66,4.29,-0.95,0.71,0.64,-2.52,1009.33
3.375,2.68,0.66,0.36,3.66,4.29,-0.95,0.27,0.27,-0.35,1009.33
3.376,1.62,0.62,0.29,3.66,4.29,-0.95,0.27,0.27,-0.35,1009.33
3.377,1.50,0.47,0.20,3.66,4.29,-0.95,0.27,0.27,-0.35,1009.33
3.396,1.50,0.47,0.20,15.00,4.39,2.39,0.27,0.27,-0.35,1009.33
3.398,1.11,2.11,0.99,15.00,4.39,2.39,0.27,0.27,-0.35,1009.33
3.418,1.96,0.32,0.18,15.00,4.39,2.39,0.27,0.27,-0.35,1009.33
3.419,1.96,0.32,0.18,15.00,4.39,2.39,0.27,0.27,-0.35,1009.35
3.443,-0.49,1.87,-0.34,15.00,4.39,2.39,0.27,0.27,-0.35,1009.35
3.444,-0.49,1.87,-0.34,15.00,4.39,2.39,-0.33,0.44,1.51,1009.35
3.456,0.43,1.21,-0.22,15.00,4.39,2.39,-0.33,0.44,1.51,1009.35
3.457,0.43,1.21,-0.22,15.00,4.39,2.39,-0.33,0.44,1.51,1009.96
3.464,0.43,1.21,-0.22,15.06,0.48,4.08,-0.33,0.44,1.51,1009.96
3.51,0.33,1.01,-0.52,15.06,0.48,4.08,-0.33,0.44,1.51,1009.96
3.511,0.05,1.03,0.21,15.06,0.48,4.08,-0.33,0.44,1.51,1009.96
3.515,0.05,1.03,0.21,15.06,0.48,4.08,-0.40,0.21,0.32,1009.96
3.535,0.11,1.03,0.10,15.06,0.48,4.08,-0.40,0.21,0.32,1009.96
3.536,0.05,0.96,0.23,15.06,0.48,4.08,-0.40,0.21,0.32,1009.96
3.537,0.05,0.96,0.23,5.30,1.52,-2.83,-0.40,0.21,0.32,1009.96
3.537,0.05,0.96,0.23,5.30,1.52,-2.83,-0.40,0.21,0.32,1009.62
3.576,0.14,0.97,0.15,5.30,1.52,-2.83,-0.40,0.21,0.32,1009.62
3.578,0.11,0.98,0.10,5.30,1.52,-2.83,-0.40,0.21,0.32,1009.62
3.585,0.11,0.98,0.10,5.30,1.52,-2.83,-0.09,0.02,0.17,1009.62
3.605,0.11,0.98,0.10,0.47,0.54,0.18,-0.09,0.02,0.17,1009.62
3.606,0.08,0.98,0.12,0.47,0.54,0.18,-0.09,0.02,0.17,1009.62
3.617,0.07,0.97,0.13,0.47,0.54,0.18,-0.09,0.02,0.17,1009.62
3.618,0.07,0.97,0.13,0.47,0.54,0.18,-0.09,0.02,0.17,1009.34
3.643,0.08,0.97,0.08,0.47,0.54,0.18,-0.09,0.02,0.17,1009.34
3.655,0.08,0.97,0.08,0.47,0.54,0.18,0.11,-0.03,0.11,1009.34
3.657,0.08,0.98,0.05,0.47,0.54,0.18,0.11,-0.03,0.11,1009.34
3.658,0.08,0.98,0.05,0.47,0.54,0.18,0.11,-0.03,0.11,1009.17
3.676,0.08,0.98,0.05,0.35,0.18,0.47,0.11,-0.03,0.11,1009.17
3.677,0.10,0.97,0.06,0.35,0.18,0.47,0.11,-0.03,0.11,1009.17
3.71,0.09,0.96,0.09,0.35,0.18,0.47,0.11,-0.03,0.11,1009.17
3.725,0.09,0.96,0.09,0.35,0.18,0.47,0.14,-0.05,0.11,1009.17
3.726,0.08,0.97,0.07,0.35,0.18,0.47,0.14,-0.05,0.11,1009.17
3.739,0.07,0.99,0.04,0.35,0.18,0.47,0.14,-0.05,0.11,1009.17
3.741,0.07,0.99,0.04,0.35,0.18,0.47,0.14,-0.05,0.11,1009.18
3.745,0.07,0.99,0.04,0.10,0.16,0.08,0.14,-0.05,0.11,1009.18
3.777,0.07,1.01,-0.00,0.10,0.16,0.08,0.14,-0.05,0.11,1009.18
3.778,0.07,0.99,0.03,0.10,0.16,0.08,0.14,-0.05,0.11,1009.18
3.795,0.07,0.99,0.03,0.10,0.16,0.08,0.06,-0.10,0.20,1009.18
3.816,0.07,0.99,0.03,-0.12,0.22,-0.06,0.06,-0.10,0.20,1009.18
3.817,0.07,1.00,0.04,-0.12,0.22,-0.06,0.06,-0.10,0.20,1009.18
3.818,0.06,1.00,0.04,-0.12,0.22,-0.06,0.06,-0.10,0.20,1009.18
3.818,0.06,1.00,0.04,-0.12,0.22,-0.06,0.06,-0.10,0.20,1009.29
3.843,0.10,1.01,0.02,-0.12,0.22,-0.06,0.06,-0.10,0.20,1009.29
3.858,0.04,1.02,0.04,-0.12,0.22,-0.06,0.06,-0.10,0.20,1009.29
3.859,0.04,1.02,0.04,-0.12,0.22,-0.06,0.06,-0.10,0.20,1009.53
3.865,0.04,1.02,0.04,-0.12,0.22,-0.06,-0.04,-0.10,0.41,1009.53
3.885,0.04,1.02,0.04,-0.59,0.44,-0.36,-0.04,-0.10,0.41,1009.53
3.886,-0.01,1.05,0.06,-0.59,0.44,-0.36,-0.04,-0.10,0.41,1009.53
3.909,-0.03,1.07,0.05,-0.59,0.44,-0.36,-0.04,-0.10,0.41,1009.53
3.935,-0.03,1.07,0.05,-0.59,0.44,-0.36,-0.11,-0.16,1.03,1009.53
3.937,0.00,1.09,0.01,-0.59,0.44,-0.36,-0.11,-0.16,1.03,1009.53
3.945,0.04,1.12,-0.04,-0.59,0.44,-0.36,-0.11,-0.16,1.03,1009.53
3.946,0.04,1.12,-0.04,-0.59,0.44,-0.36,-0.11,-0.16,1.03,1009.72
3.963,-0.01,1.18,-0.01,-0.59,0.44,-0.36,-0.11,-0.16,1.03,1009.72
3.964,-0.01,1.18,-0.01,-1.73,0.90,-0.31,-0.11,-0.16,1.03,1009.72
3.976,-0.10,1.26,0.01,-1.73,0.90,-0.31,-0.11,-0.16,1.03,1009.72
4.006,-0.18,1.38,-0.05,-1.73,0.90,-0.31,-0.11,-0.16,1.03,1009.72
4.008,-0.18,1.38,-0.05,-1.73,0.90,-0.31,-0.26,-0.29,2.15,1009.72
4.017,-0.40,1.50,-0.03,-1.73,0.90,-0.31,-0.26,-0.29,2.15,1009.72
4.018,-0.40,1.50,-0.03,-1.73,0.90,-0.31,-0.26,-0.29,2.15,1009.61
4.025,-0.40,1.50,-0.03,-3.65,2.34,-0.88,-0.26,-0.29,2.15,1009.61
4.043,-0.70,1.65,-0.10,-3.65,2.34,-0.88,-0.26,-0.29,2.15,1009.61
4.062,-0.71,1.73,-0.02,-3.65,2.34,-0.88,-0.26,-0.29,2.15,1009.61
4.065,-0.71,1.73,-0.02,-3.65,2.34,-0.88,-0.26,-0.29,2.15,1009.09
4.075,-0.71,1.73,-0.02,-3.65,2.34,-0.88,-0.66,-0.73,4.94,1009.09
4.096,-0.29,1.73,0.21,-3.65,2.34,-0.88,-0.66,-0.73,4.94,1009.09
4.098,0.15,1.33,0.58,-3.65,2.34,-0.88,-0.66,-0.73,4.94,1009.09
4.098,0.15,1.33,0.58,-9.46,7.30,-1.18,-0.66,-0.73,4.94,1009.09
4.146,0.15,1.33,0.58,-9.46,7.30,-1.18,-0.66,-0.73,4.94,1008.46
4.147,-0.18,1.20,0.85,-9.46,7.30,-1.18,-0.66,-0.73,4.94,1008.46
4.148,-0.30,0.66,0.42,-9.46,7.30,-1.18,-0.66,-0.73,4.94,1008.46
4.149,-0.30,0.66,0.42,-9.46,7.30,-1.18,0.08,-0.98,6.48,1008.46
4.165,-0.30,0.66,0.42,-11.89,11.69,1.62,0.08,-0.98,6.48,1008.46
4.167,1.90,0.72,0.13,-11.89,11.69,1.62,0.08,-0.98,6.48,1008.46
4.178,1.61,0.75,0.27,-11.89,11.69,1.62,0.08,-0.98,6.48,1008.46
4.216,1.61,0.75,0.27,-11.89,11.69,1.62,0.48,0.41,-1.23,1008.46
4.218,0.13,0.44,0.30,-11.89,11.69,1.62,0.48,0.41,-1.23,1008.46
4.218,-0.55,0.30,0.03,-11.89,11.69,1.62,0.48,0.41,-1.23,1008.46
4.219,-0.55,0.30,0.03,-11.89,11.69,1.62,0.48,0.41,-1.23,1008.69
4.237,-0.53,0.34,0.07,-11.89,11.69,1.62,0.48,0.41,-1.23,1008.69
4.238,-0.53,0.34,0.07,-0.11,3.22,3.64,0.48,0.41,-1.23,1008.69
4.259,-0.02,0.36,0.25,-0.11,3.22,3.64,0.48,0.41,-1.23,1008.69
4.261,-0.02,0.36,0.25,-0.11,3.22,3.64,0.48,0.41,-1.23,1008.93
4.286,0.52,0.42,0.31,-0.11,3.22,3.64,0.48,0.41,-1.23,1008.93
4.287,0.52,0.42,0.31,-0.11,3.22,3.64,0.68,0.97,-3.13,1008.93
4.307,0.46,0.44,0.29,-0.11,3.22,3.64,0.68,0.97,-3.13,1008.93
4.308,0.46,0.44,0.29,-7.32,-3.59,0.58,0.68,0.97,-3.13,1008.93
4.337,0.46,0.44,0.29,-7.32,-3.59,0.58,0.68,0.97,-3.13,1009.17
4.338,0.07,0.54,0.21,-7.32,-3.59,0.58,0.68,0.97,-3.13,1009.17
4.339,0.09,0.70,0.22,-7.32,-3.59,0.58,0.68,0.97,-3.13,1009.17
4.356,0.09,0.70,0.22,-7.32,-3.59,0.58,0.80,0.66,-5.17,1009.17
4.376,0.09,0.70,0.22,0.18,-4.62,2.08,0.80,0.66,-5.17,1009.17
4.378,0.33,0.82,0.31,0.18,-4.62,2.08,0.80,0.66,-5.17,1009.17
4.378,0.46,0.99,0.26,0.18,-4.62,2.08,0.80,0.66,-5.17,1009.17
4.418,0.46,0.99,0.26,0.18,-4.62,2.08,0.80,0.66,-5.17,1009.16
4.42,0.40,1.17,0.19,0.18,-4.62,2.08,0.80,0.66,-5.17,1009.16
4.421,0.29,1.35,0.24,0.18,-4.62,2.08,0.80,0.66,-5.17,1009.16
4.425,0.29,1.35,0.24,0.18,-4.62,2.08,0.65,1.31,-4.94,1009.16
4.443,0.31,1.53,0.30,0.18,-4.62,2.08,0.65,1.31,-4.94,1009.16
4.445,0.31,1.53,0.30,2.76,-1.27,2.09,0.65,1.31,-4.94,1009.16
4.463,0.56,1.73,0.25,2.76,-1.27,2.09,0.65,1.31,-4.94,1009.16
4.464,0.56,1.73,0.25,2.76,-1.27,2.09,0.65,1.31,-4.94,1009.15
4.496,0.56,1.73,0.25,2.76,-1.27,2.09,0.11,1.42,-3.35,1009.15
4.498,1.20,1.88,0.19,2.76,-1.27,2.09,0.11,1.42,-3.35,1009.15
4.509,1.78,1.44,0.49,2.76,-1.27,2.09,0.11,1.42,-3.35,1009.15
4.516,2.35,0.64,0.71,2.76,-1.27,2.09,0.11,1.42,-3.35,1009.15
4.517,2.35,0.64,0.71,5.22,4.66,2.01,0.11,1.42,-3.35,1009.15
4.537,2.47,0.46,0.42,5.22,4.66,2.01,0.11,1.42,-3.35,1009.15
4.538,2.47,0.46,0.42,5.22,4.66,2.01,0.11,1.42,-3.35,1009.34
4.565,1.96,0.53,0.14,5.22,4.66,2.01,0.11,1.42,-3.35,1009.34
4.567,1.96,0.53,0.14,5.22,4.66,2.01,-0.60,-0.00,0.16,1009.34
4.576,0.77,0.04,0.57,5.22,4.66,2.01,-0.60,-0.00,0.16,1009.34
4.586,0.77,0.04,0.57,16.43,4.36,3.47,-0.60,-0.00,0.16,1009.34
4.618,0.77,0.04,0.57,16.43,4.36,3.47,-0.60,-0.00,0.16,1009.22
4.619,0.73,2.15,0.17,16.43,4.36,3.47,-0.60,-0.00,0.16,1009.22
4.62,0.00,1.43,-2.35,16.43,4.36,3.47,-0.60,-0.00,0.16,1009.22
4.636,0.00,1.43,-2.35,16.43,4.36,3.47,0.18,0.96,1.78,1009.22
4.647,0.81,1.48,1.55,16.43,4.36,3.47,0.18,0.96,1.78,1009.22
4.661,0.81,1.48,1.55,14.72,-3.19,4.53,0.18,0.96,1.78,1009.22
4.662,0.17,1.04,-0.70,14.72,-3.19,4.53,0.18,0.96,1.78,1009.22
4.663,0.17,1.04,-0.70,14.72,-3.19,4.53,0.18,0.96,1.78,1009.86
4.706,0.17,1.04,-0.70,14.72,-3.19,4.53,-0.36,0.26,0.37,1009.86
4.708,0.09,1.02,-0.09,14.72,-3.19,4.53,-0.36,0.26,0.37,1009.86
4.709,0.12,1.00,0.17,14.72,-3.19,4.53,-0.36,0.26,0.37,1009.86
4.725,0.05,1.01,0.11,14.72,-3.19,4.53,-0.36,0.26,0.37,1009.86
4.726,0.05,1.01,0.11,3.87,4.70,-6.77,-0.36,0.26,0.37,1009.86
4.738,0.12,0.97,0.14,3.87,4.70,-6.77,-0.36,0.26,0.37,1009.86
4.739,0.12,0.97,0.14,3.87,4.70,-6.77,-0.36,0.26,0.37,1009.55
4.776,0.12,0.97,0.14,3.87,4.70,-6.77,-0.10,0.04,0.17,1009.55
4.778,0.11,0.93,0.22,3.87,4.70,-6.77,-0.10,0.04,0.17,1009.55
4.778,0.09,0.97,0.14,3.87,4.70,-6.77,-0.10,0.04,0.17,1009.55
4.797,0.09,0.97,0.14,0.32,0.63,-0.19,-0.10,0.04,0.17,1009.55
4.798,0.09,1.00,0.08,0.32,0.63,-0.19,-0.10,0.04,0.17,1009.55
4.817,0.08,0.99,0.07,0.32,0.63,-0.19,-0.10,0.04,0.17,1009.55
4.818,0.08,0.99,0.07,0.32,0.63,-0.19,-0.10,0.04,0.17,1009.28
4.846,0.08,0.98,0.09,0.32,0.63,-0.19,-0.10,0.04,0.17,1009.28
4.85,0.08,0.98,0.09,0.32,0.63,-0.19,0.08,-0.04,0.09,1009.28
4.858,0.07,0.96,0.13,0.32,0.63,-0.19,0.08,-0.04,0.09,1009.28
4.859,0.07,0.96,0.13,0.32,0.63,-0.19,0.08,-0.04,0.09,1009.19
4.865,0.07,0.96,0.13,0.34,0.21,0.63,0.08,-0.04,0.09,1009.19
4.91,0.07,0.97,0.11,0.34,0.21,0.63,0.08,-0.04,0.09,1009.19
4.911,0.09,0.98,0.08,0.34,0.21,0.63,0.08,-0.04,0.09,1009.19
4.916,0.09,0.98,0.08,0.34,0.21,0.63,0.17,-0.08,0.12,1009.19
4.936,0.09,0.99,0.05,0.34,0.21,0.63,0.17,-0.08,0.12,1009.19
4.937,0.07,0.99,0.03,0.34,0.21,0.63,0.17,-0.08,0.12,1009.19
4.938,0.07,0.99,0.03,0.01,0.31,0.24,0.17,-0.08,0.12,1009.19
4.938,0.07,0.99,0.03,0.01,0.31,0.24,0.17,-0.08,0.12,1009.19
4.977,0.08,0.99,0.03,0.01,0.31,0.24,0.17,-0.08,0.12,1009.19
4.979,0.09,0.97,0.04,0.01,0.31,0.24,0.17,-0.08,0.12,1009.19
4.985,0.09,0.97,0.04,0.01,0.31,0.24,0.09,-0.07,0.18,1009.19
5.006,0.11,0.97,0.06,0.01,0.31,0.24,0.09,-0.07,0.18,1009.19
5.007,0.11,0.97,0.06,-0.08,0.38,-0.07,0.09,-0.07,0.18,1009.19
5.017,0.10,0.97,0.05,-0.08,0.38,-0.07,0.09,-0.07,0.18,1009.19
5.018,0.10,0.97,0.05,-0.08,0.38,-0.07,0.09,-0.07,0.18,1009.26
5.045,0.10,1.00,0.04,-0.08,0.38,-0.07,0.09,-0.07,0.18,1009.26
5.056,0.10,1.00,0.04,-0.08,0.38,-0.07,0.00,-0.04,0.24,1009.26
5.057,0.05,1.02,0.03,-0.08,0.38,-0.07,0.00,-0.04,0.24,1009.26
5.057,0.05,1.02,0.03,-0.08,0.38,-0.07,0.00,-0.04,0.24,1009.42
5.076,0.00,1.05,0.04,-0.08,0.38,-0.07,0.00,-0.04,0.24,1009.42
5.078,0.00,1.05,0.04,-0.12,0.31,-0.23,0.00,-0.04,0.24,1009.42
5.111,-0.04,1.07,0.04,-0.12,0.31,-0.23,0.00,-0.04,0.24,1009.42
5.126,-0.04,1.07,0.04,-0.12,0.31,-0.23,-0.08,-0.00,0.72,1009.42
5.127,-0.04,1.10,0.04,-0.12,0.31,-0.23,-0.08,-0.00,0.72,1009.42
5.137,-0.05,1.13,0.03,-0.12,0.31,-0.23,-0.08,-0.00,0.72,1009.42
5.138,-0.05,1.13,0.03,-0.12,0.31,-0.23,-0.08,-0.00,0.72,1009.62
5.146,-0.05,1.13,0.03,-1.10,0.81,-0.38,-0.08,-0.00,0.72,1009.62
5.176,-0.09,1.18,0.07,-1.10,0.81,-0.38,-0.08,-0.00,0.72,1009.62
5.178,-0.12,1.26,0.03,-1.10,0.81,-0.38,-0.08,-0.00,0.72,1009.62
5.196,-0.12,1.26,0.03,-1.10,0.81,-0.38,-0.13,-0.19,1.88,1009.62
5.216,-0.12,1.26,0.03,-3.57,2.13,-0.40,-0.13,-0.19,1.88,1009.62
5.218,-0.20,1.38,-0.02,-3.57,2.13,-0.40,-0.13,-0.19,1.88,1009.62
5.218,-0.40,1.50,-0.04,-3.57,2.13,-0.40,-0.13,-0.19,1.88,1009.62
5.219,-0.40,1.50,-0.04,-3.57,2.13,-0.40,-0.13,-0.19,1.88,1009.61
5.247,-0.64,1.62,-0.12,-3.57,2.13,-0.40,-0.13,-0.19,1.88,1009.61
5.256,-0.74,1.68,-0.09,-3.57,2.13,-0.40,-0.13,-0.19,1.88,1009.61
5.257,-0.74,1.68,-0.09,-3.57,2.13,-0.40,-0.13,-0.19,1.88,1009.24
5.265,-0.74,1.68,-0.09,-3.57,2.13,-0.40,-0.43,-0.61,4.33,1009.24
5.286,-0.74,1.68,-0.09,-8.15,6.12,-0.86,-0.43,-0.61,4.33,1009.24
5.287,-0.53,1.64,0.10,-8.15,6.12,-0.86,-0.43,-0.61,4.33,1009.24
5.31,0.17,1.42,0.57,-8.15,6.12,-0.86,-0.43,-0.61,4.33,1009.24
5.336,0.17,1.42,0.57,-8.15,6.12,-0.86,0.01,-0.82,6.70,1009.24
5.338,-0.01,1.14,0.82,-8.15,6.12,-0.86,0.01,-0.82,6.70,1009.24
5.339,-0.46,0.77,0.53,-8.15,6.12,-0.86,0.01,-0.82,6.70,1009.24
5.34,-0.46,0.77,0.53,-8.15,6.12,-0.86,0.01,-0.82,6.70,1008.55
5.356,0.65,0.28,0.07,-8.15,6.12,-0.86,0.01,-0.82,6.70,1008.55
5.357,0.65,0.28,0.07,-13.47,12.00,-0.03,0.01,-0.82,6.70,1008.55
5.377,2.74,0.92,0.32,-13.47,12.00,-0.03,0.01,-0.82,6.70,1008.55
5.406,2.74,0.92,0.32,-13.47,12.00,-0.03,0.69,0.46,0.85,1008.55
5.408,0.79,0.43,0.45,-13.47,12.00,-0.03,0.69,0.46,0.85,1008.55
5.417,-0.10,0.31,0.21,-13.47,12.00,-0.03,0.69,0.46,0.85,1008.55
5.418,-0.10,0.31,0.21,-13.47,12.00,-0.03,0.69,0.46,0.85,1008.75
5.427,-0.10,0.31,0.21,-6.80,2.91,4.10,0.69,0.46,0.85,1008.75
5.45,-0.50,0.42,-0.09,-6.80,2.91,4.10,0.69,0.46,0.85,1008.75
5.457,-0.47,0.43,0.05,-6.80,2.91,4.10,0.69,0.46,0.85,1008.75
5.458,-0.47,0.43,0.05,-6.80,2.91,4.10,0.69,0.46,0.85,1008.96
5.48,-0.47,0.43,0.05,-6.80,2.91,4.10,0.80,1.17,-3.08,1008.96
5.496,-0.47,0.43,0.05,2.61,-1.37,1.69,0.80,1.17,-3.08,1008.96
5.497,0.10,0.42,0.30,2.61,-1.37,1.69,0.80,1.17,-3.08,1008.96
5.497,0.54,0.41,0.37,2.61,-1.37,1.69,0.80,1.17,-3.08,1008.96
5.538,0.54,0.41,0.37,2.61,-1.37,1.69,0.80,1.17,-3.08,1009.11
5.539,0.54,0.50,0.24,2.61,-1.37,1.69,0.80,1.17,-3.08,1009.11
5.539,0.43,0.62,0.15,2.61,-1.37,1.69,0.80,1.17,-3.08,1009.11
5.548,0.43,0.62,0.15,2.61,-1.37,1.69,0.81,0.22,-4.23,1009.11
5.566,0.43,0.62,0.15,-4.11,-4.01,1.28,0.81,0.22,-4.23,1009.11
5.567,0.44,0.71,0.24,-4.11,-4.01,1.28,0.81,0.22,-4.23,1009.11
5.577,0.56,0.76,0.35,-4.11,-4.01,1.28,0.81,0.22,-4.23,1009.11
5.617,0.56,0.76,0.35,-4.11,-4.01,1.28,0.75,0.87,-4.40,1009.11
5.618,0.66,0.88,0.24,-4.11,-4.01,1.28,0.75,0.87,-4.40,1009.11
5.619,0.63,1.07,0.06,-4.11,-4.01,1.28,0.75,0.87,-4.40,1009.11
5.619,0.63,1.07,0.06,-4.11,-4.01,1.28,0.75,0.87,-4.40,1009.19
5.636,0.55,1.17,0.08,-4.11,-4.01,1.28,0.75,0.87,-4.40,1009.19
5.637,0.55,1.17,0.08,3.40,-2.76,1.76,0.75,0.87,-4.40,1009.19
5.656,0.54,1.25,0.14,3.40,-2.76,1.76,0.75,0.87,-4.40,1009.19
5.657,0.54,1.25,0.14,3.40,-2.76,1.76,0.75,0.87,-4.40,1009.17
5.687,0.54,1.25,0.14,3.40,-2.76,1.76,0.13,1.77,-3.76,1009.17
5.689,0.75,1.29,0.21,3.40,-2.76,1.76,0.13,1.77,-3.76,1009.17
5.707,0.75,1.29,0.21,6.81,0.84,1.12,0.13,1.77,-3.76,1009.17
5.708,1.19,1.24,0.24,6.81,0.84,1.12,0.13,1.77,-3.76,1009.17
5.738,1.19,1.24,0.24,6.81,0.84,1.12,0.13,1.77,-3.76,1009.27
5.738,1.42,1.10,0.27,6.81,0.84,1.12,0.13,1.77,-3.76,1009.27
5.739,1.16,0.89,0.28,6.81,0.84,1.12,0.13,1.77,-3.76,1009.27
5.757,1.16,0.89,0.28,6.81,0.84,1.12,0.31,0.01,-1.58,1009.27
5.778,1.20,0.66,0.21,6.81,0.84,1.12,0.31,0.01,-1.58,1009.27
5.779,1.98,0.55,0.01,6.81,0.84,1.12,0.31,0.01,-1.58,1009.27
5.78,1.98,0.55,0.01,9.85,3.16,1.55,0.31,0.01,-1.58,1009.27
5.818,1.98,0.55,0.01,9.85,3.16,1.55,0.31,0.01,-1.58,1009.36
5.819,1.92,0.41,0.01,9.85,3.16,1.55,0.31,0.01,-1.58,1009.36
5.82,2.43,2.22,0.92,9.85,3.16,1.55,0.31,0.01,-1.58,1009.36
5.827,2.43,2.22,0.92,9.85,3.16,1.55,-0.45,-0.46,1.21,1009.36
5.843,-1.70,1.38,-0.57,9.85,3.16,1.55,-0.45,-0.46,1.21,1009.36
5.846,-1.70,1.38,-0.57,14.00,-1.69,1.12,-0.45,-0.46,1.21,1009.36
5.857,0.80,1.62,0.12,14.00,-1.69,1.12,-0.45,-0.46,1.21,1009.36
5.858,0.80,1.62,0.12,14.00,-1.69,1.12,-0.45,-0.46,1.21,1010.20
5.896,0.80,1.62,0.12,14.00,-1.69,1.12,-0.22,0.40,0.63,1010.20
5.898,0.26,1.12,-0.69,14.00,-1.69,1.12,-0.22,0.40,0.63,1010.20
5.912,0.02,0.93,0.28,14.00,-1.69,1.12,-0.22,0.40,0.63,1010.20
5.916,0.11,0.97,0.24,14.00,-1.69,1.12,-0.22,0.40,0.63,1010.20
5.917,0.11,0.97,0.24,9.17,5.06,1.56,-0.22,0.40,0.63,1010.20
5.937,0.14,0.95,0.20,9.17,5.06,1.56,-0.22,0.40,0.63,1010.20
5.938,0.14,0.95,0.20,9.17,5.06,1.56,-0.22,0.40,0.63,1009.53
5.966,0.14,0.95,0.20,9.17,5.06,1.56,-0.18,0.05,0.20,1009.53
5.968,0.11,0.95,0.16,9.17,5.06,1.56,-0.18,0.05,0.20,1009.53
5.977,0.10,0.96,0.16,9.17,5.06,1.56,-0.18,0.05,0.20,1009.53
5.986,0.10,0.96,0.16,0.49,0.97,-2.52,-0.18,0.05,0.20,1009.53
6.018,0.10,0.96,0.16,0.49,0.97,-2.52,-0.18,0.05,0.20,1009.34
6.019,0.09,0.99,0.08,0.49,0.97,-2.52,-0.18,0.05,0.20,1009.34
6.02,0.10,0.99,0.05,0.49,0.97,-2.52,-0.18,0.05,0.20,1009.34
6.036,0.10,0.99,0.05,0.49,0.97,-2.52,0.00,-0.02,0.05,1009.34
6.043,0.07,0.98,0.09,0.49,0.97,-2.52,0.00,-0.02,0.05,1009.34
6.057,0.07,0.98,0.09,0.49,0.97,-2.52,0.00,-0.02,0.05,1009.29
6.059,0.07,0.98,0.09,0.47,0.28,0.69,0.00,-0.02,0.05,1009.29
6.059,0.06,0.98,0.13,0.47,0.28,0.69,0.00,-0.02,0.05,1009.29
6.106,0.06,0.98,0.13,0.47,0.28,0.69,0.07,-0.03,0.06,1009.29
6.108,0.07,0.97,0.11,0.47,0.28,0.69,0.07,-0.03,0.06,1009.29
6.109,0.08,0.99,0.07,0.47,0.28,0.69,0.07,-0.03,0.06,1009.29
6.126,0.05,0.99,0.07,0.47,0.28,0.69,0.07,-0.03,0.06,1009.29
6.127,0.05,0.99,0.07,0.08,0.55,-0.01,0.07,-0.03,0.06,1009.29
6.137,0.05,0.99,0.07,0.08,0.55,-0.01,0.07,-0.03,0.06,1009.24
6.138,0.04,1.00,0.08,0.08,0.55,-0.01,0.07,-0.03,0.06,1009.24
6.177,0.04,1.00,0.08,0.08,0.55,-0.01,0.09,-0.06,0.16,1009.24
6.178,0.04,0.98,0.09,0.08,0.55,-0.01,0.09,-0.06,0.16,1009.24
6.179,0.06,0.98,0.07,0.08,0.55,-0.01,0.09,-0.06,0.16,1009.24
6.198,0.08,0.99,0.05,0.08,0.55,-0.01,0.09,-0.06,0.16,1009.24
6.199,0.08,0.99,0.05,-0.18,0.55,0.01,0.09,-0.06,0.16,1009.24
6.217,0.09,1.00,0.03,-0.18,0.55,0.01,0.09,-0.06,0.16,1009.24
6.219,0.09,1.00,0.03,-0.18,0.55,0.01,0.09,-0.06,0.16,1009.20
6.243,0.08,1.00,0.06,-0.18,0.55,0.01,0.09,-0.06,0.16,1009.20
6.25,0.08,1.00,0.06,-0.18,0.55,0.01,0.01,-0.08,0.28,1009.20
6.257,0.08,0.98,0.08,-0.18,0.55,0.01,0.01,-0.08,0.28,1009.20
6.258,0.08,0.98,0.08,-0.18,0.55,0.01,0.01,-0.08,0.28,1009.38
6.266,0.08,0.98,0.08,-0.47,0.58,-0.09,0.01,-0.08,0.28,1009.38
6.311,0.09,0.98,0.09,-0.47,0.58,-0.09,0.01,-0.08,0.28,1009.38
6.312,0.07,1.00,0.08,-0.47,0.58,-0.09,0.01,-0.08,0.28,1009.38
6.317,0.07,1.00,0.08,-0.47,0.58,-0.09,-0.03,-0.08,0.42,1009.38
6.338,0.07,1.00,0.08,-0.50,0.63,-0.22,-0.03,-0.08,0.42,1009.38
6.339,0.05,1.02,0.08,-0.50,0.63,-0.22,-0.03,-0.08,0.42,1009.38
6.339,0.02,1.05,0.04,-0.50,0.63,-0.22,-0.03,-0.08,0.42,1009.38
6.34,0.02,1.05,0.04,-0.50,0.63,-0.22,-0.03,-0.08,0.42,1009.55
6.378,0.01,1.07,0.05,-0.50,0.63,-0.22,-0.03,-0.08,0.42,1009.55
6.378,0.02,1.09,0.04,-0.50,0.63,-0.22,-0.03,-0.08,0.42,1009.55
6.386,0.02,1.09,0.04,-0.50,0.63,-0.22,-0.05,-0.08,0.96,1009.55
6.406,0.02,1.09,0.04,-1.54,1.01,-0.17,-0.05,-0.08,0.96,1009.55
6.411,0.03,1.11,0.03,-1.54,1.01,-0.17,-0.05,-0.08,0.96,1009.55
6.417,-0.02,1.15,0.08,-1.54,1.01,-0.17,-0.05,-0.08,0.96,1009.55
6.418,-0.02,1.15,0.08,-1.54,1.01,-0.17,-0.05,-0.08,0.96,1009.62
6.443,-0.08,1.25,0.05,-1.54,1.01,-0.17,-0.05,-0.08,0.96,1009.62
6.456,-0.08,1.25,0.05,-1.54,1.01,-0.17,-0.09,-0.23,1.93,1009.62
6.457,-0.21,1.36,0.01,-1.54,1.01,-0.17,-0.09,-0.23,1.93,1009.62
6.458,-0.21,1.36,0.01,-1.54,1.01,-0.17,-0.09,-0.23,1.93,1009.39
6.477,-0.21,1.36,0.01,-3.32,2.25,-0.41,-0.09,-0.23,1.93,1009.39
6.479,-0.40,1.49,-0.07,-3.32,2.25,-0.41,-0.09,-0.23,1.93,1009.39
6.51,-0.59,1.58,-0.11,-3.32,2.25,-0.41,-0.09,-0.23,1.93,1009.39
6.526,-0.59,1.58,-0.11,-3.32,2.25,-0.41,-0.49,-0.63,4.31,1009.39
6.528,-0.47,1.66,-0.02,-3.32,2.25,-0.41,-0.49,-0.63,4.31,1009.39
6.537,-0.11,1.64,0.22,-3.32,2.25,-0.41,-0.49,-0.63,4.31,1009.39
6.538,-0.11,1.64,0.22,-3.32,2.25,-0.41,-0.49,-0.63,4.31,1009.13
6.547,-0.11,1.64,0.22,-8.11,6.32,-0.82,-0.49,-0.63,4.31,1009.13
6.577,0.11,1.29,0.54,-8.11,6.32,-0.82,-0.49,-0.63,4.31,1009.13
6.579,-0.07,1.14,0.70,-8.11,6.32,-0.82,-0.49,-0.63,4.31,1009.13
6.597,-0.07,1.14,0.70,-8.11,6.32,-0.82,-0.09,-0.93,6.24,1009.13
6.617,-0.07,1.14,0.70,-11.27,11.58,0.48,-0.09,-0.93,6.24,1009.13
6.618,-0.26,0.67,0.43,-11.27,11.58,0.48,-0.09,-0.93,6.24,1009.13
6.619,1.59,0.50,0.11,-11.27,11.58,0.48,-0.09,-0.93,6.24,1009.13
6.619,1.59,0.50,0.11,-11.27,11.58,0.48,-0.09,-0.93,6.24,1008.43
6.643,1.78,0.76,0.37,-11.27,11.58,0.48,-0.09,-0.93,6.24,1008.43
6.657,0.05,0.47,0.26,-11.27,11.58,0.48,-0.09,-0.93,6.24,1008.43
6.658,0.05,0.47,0.26,-11.27,11.58,0.48,-0.09,-0.93,6.24,1008.75
6.666,0.05,0.47,0.26,-11.27,11.58,0.48,0.57,0.20,-0.02,1008.75
6.687,0.05,0.47,0.26,-3.81,2.99,3.65,0.57,0.20,-0.02,1008.75
6.688,-0.51,0.40,-0.01,-3.81,2.99,3.65,0.57,0.20,-0.02,1008.75
6.71,-0.40,0.42,0.05,-3.81,2.99,3.65,0.57,0.20,-0.02,1008.75
6.737,-0.40,0.42,0.05,-3.81,2.99,3.65,0.50,0.61,-2.65,1008.75
6.738,0.06,0.43,0.21,-3.81,2.99,3.65,0.50,0.61,-2.65,1008.75
6.739,0.55,0.44,0.31,-3.81,2.99,3.65,0.50,0.61,-2.65,1008.75
6.739,0.55,0.44,0.31,-3.81,2.99,3.65,0.50,0.61,-2.65,1009.06
6.758,0.55,0.44,0.31,-3.05,-1.55,1.10,0.50,0.61,-2.65,1009.06
6.759,0.47,0.47,0.24,-3.05,-1.55,1.10,0.50,0.61,-2.65,1009.06
6.777,0.21,0.57,0.15,-3.05,-1.55,1.10,0.50,0.61,-2.65,1009.06
6.807,0.21,0.57,0.15,-3.05,-1.55,1.10,0.64,0.42,-4.67,1009.06
6.808,0.27,0.70,0.15,-3.05,-1.55,1.10,0.64,0.42,-4.67,1009.06
6.817,0.44,0.77,0.27,-3.05,-1.55,1.10,0.64,0.42,-4.67,1009.06
6.818,0.44,0.77,0.27,-3.05,-1.55,1.10,0.64,0.42,-4.67,1009.20
6.826,0.44,0.77,0.27,-0.87,-3.96,1.71,0.64,0.42,-4.67,1009.20
6.843,0.45,0.87,0.19,-0.87,-3.96,1.71,0.64,0.42,-4.67,1009.20
6.857,0.35,1.05,0.04,-0.87,-3.96,1.71,0.64,0.42,-4.67,1009.20
6.858,0.35,1.05,0.04,-0.87,-3.96,1.71,0.64,0.42,-4.67,1009.24
6.877,0.35,1.05,0.04,-0.87,-3.96,1.71,0.50,1.44,-4.82,1009.24
6.897,0.35,1.05,0.04,2.68,-2.08,1.40,0.50,1.44,-4.82,1009.24
6.899,0.27,1.19,0.11,2.68,-2.08,1.40,0.50,1.44,-4.82,1009.24
6.899,0.36,1.32,0.19,2.68,-2.08,1.40,0.50,1.44,-4.82,1009.24
6.938,0.36,1.32,0.19,2.68,-2.08,1.40,0.50,1.44,-4.82,1009.16
6.939,0.56,1.47,0.17,2.68,-2.08,1.40,0.50,1.44,-4.82,1009.16
6.94,0.77,1.66,0.16,2.68,-2.08,1.40,0.50,1.44,-4.82,1009.16
6.947,0.77,1.66,0.16,2.68,-2.08,1.40,0.58,2.27,-4.00,1009.16
6.966,0.77,1.66,0.16,4.73,2.37,1.07,0.58,2.27,-4.00,1009.16
6.967,1.03,1.61,0.44,4.73,2.37,1.07,0.58,2.27,-4.00,1009.16
6.977,1.82,1.06,0.73,4.73,2.37,1.07,0.58,2.27,-4.00,1009.16
7.017,1.82,1.06,0.73,4.73,2.37,1.07,0.33,1.31,-0.62,1009.16
7.019,2.24,0.70,0.65,4.73,2.37,1.07,0.33,1.31,-0.62,1009.16
7.019,2.16,0.69,0.31,4.73,2.37,1.07,0.33,1.31,-0.62,1009.16
7.02,2.16,0.69,0.31,4.73,2.37,1.07,0.33,1.31,-0.62,1009.40
7.037,2.16,0.69,0.31,9.60,5.96,3.22,0.33,1.31,-0.62,1009.40
7.038,0.50,1.02,0.83,9.60,5.96,3.22,0.33,1.31,-0.62,1009.40
7.057,0.50,1.02,0.83,9.60,5.96,3.22,0.33,1.31,-0.62,1009.21
7.058,2.37,1.65,-0.92,9.60,5.96,3.22,0.33,1.31,-0.62,1009.21
7.087,-0.46,1.13,-0.02,9.60,5.96,3.22,0.33,1.31,-0.62,1009.21
7.088,-0.46,1.13,-0.02,9.60,5.96,3.22,-0.47,0.81,1.62,1009.21
7.107,-0.46,1.13,-0.02,16.40,-1.04,5.71,-0.47,0.81,1.62,1009.21
7.108,-0.00,1.27,-0.18,16.40,-1.04,5.71,-0.47,0.81,1.62,1009.21
7.139,-0.00,1.27,-0.18,16.40,-1.04,5.71,-0.47,0.81,1.62,1009.52
7.14,0.22,0.98,-0.00,16.40,-1.04,5.71,-0.47,0.81,1.62,1009.52
7.14,0.16,0.93,0.12,16.40,-1.04,5.71,-0.47,0.81,1.62,1009.52
7.158,0.16,0.93,0.12,16.40,-1.04,5.71,-0.43,0.17,0.54,1009.52
7.178,0.10,0.94,0.26,16.40,-1.04,5.71,-0.43,0.17,0.54,1009.52
7.179,0.18,0.97,0.10,16.40,-1.04,5.71,-0.43,0.17,0.54,1009.52
7.179,0.18,0.97,0.10,5.04,3.64,-3.49,-0.43,0.17,0.54,1009.52
7.218,0.18,0.97,0.10,5.04,3.64,-3.49,-0.43,0.17,0.54,1009.44
7.219,0.12,0.97,0.14,5.04,3.64,-3.49,-0.43,0.17,0.54,1009.44
7.22,0.12,1.03,-0.00,5.04,3.64,-3.49,-0.43,0.17,0.54,1009.44
7.226,0.12,1.03,-0.00,5.04,3.64,-3.49,-0.08,0.08,0.15,1009.44
7.243,0.08,1.01,0.00,5.04,3.64,-3.49,-0.08,0.08,0.15,1009.44
7.253,0.08,1.01,0.00,1.18,0.23,0.57,-0.08,0.08,0.15,1009.44
7.257,0.07,0.99,0.04,1.18,0.23,0.57,-0.08,0.08,0.15,1009.44
7.258,0.07,0.99,0.04,1.18,0.23,0.57,-0.08,0.08,0.15,1009.43
7.297,0.07,0.99,0.04,1.18,0.23,0.57,-0.01,0.00,0.06,1009.43
7.298,0.05,0.98,0.12,1.18,0.23,0.57,-0.01,0.00,0.06,1009.43
7.309,0.05,0.98,0.12,1.18,0.23,0.57,-0.01,0.00,0.06,1009.43
7.317,0.08,0.98,0.06,1.18,0.23,0.57,-0.01,0.00,0.06,1009.43
7.318,0.08,0.98,0.06,0.43,0.73,-0.14,-0.01,0.00,0.06,1009.43
7.337,0.08,0.98,0.06,0.43,0.73,-0.14,-0.01,0.00,0.06,1009.35
7.339,0.07,0.99,0.04,0.43,0.73,-0.14,-0.01,0.00,0.06,1009.35
7.373,0.07,1.00,0.02,0.43,0.73,-0.14,-0.01,0.00,0.06,1009.35
7.376,0.07,1.00,0.02,0.43,0.73,-0.14,0.14,-0.03,0.10,1009.35
7.387,0.07,1.00,0.01,0.43,0.73,-0.14,0.14,-0.03,0.10,1009.35
7.388,0.07,1.00,0.01,-0.05,0.50,0.48,0.14,-0.03,0.10,1009.35
7.418,0.07,1.00,0.01,-0.05,0.50,0.48,0.14,-0.03,0.10,1009.30
7.419,0.06,0.98,0.05,-0.05,0.50,0.48,0.14,-0.03,0.10,1009.30
7.42,0.06,0.97,0.06,-0.05,0.50,0.48,0.14,-0.03,0.10,1009.30
7.437,0.06,0.97,0.06,-0.05,0.50,0.48,0.13,-0.02,0.17,1009.30
7.442,0.07,0.98,0.02,-0.05,0.50,0.48,0.13,-0.02,0.17,1009.30
7.457,0.08,0.99,0.02,-0.05,0.50,0.48,0.13,-0.02,0.17,1009.30
7.458,0.08,0.99,0.02,-0.12,0.61,-0.10,0.13,-0.02,0.17,1009.30
7.46,0.08,0.99,0.02,-0.12,0.61,-0.10,0.13,-0.02,0.17,1009.28
7.507,0.08,0.99,0.02,-0.12,0.61,-0.10,0.09,0.01,0.24,1009.28
7.508,0.10,0.99,0.00,-0.12,0.61,-0.10,0.09,0.01,0.24,1009.28
7.509,0.10,0.97,0.03,-0.12,0.61,-0.10,0.09,0.01,0.24,1009.28
7.527,0.10,0.97,0.03,-0.24,0.49,-0.01,0.09,0.01,0.24,1009.28
7.528,0.10,0.97,0.04,-0.24,0.49,-0.01,0.09,0.01,0.24,1009.28
7.538,0.10,0.97,0.04,-0.24,0.49,-0.01,0.09,0.01,0.24,1009.33
7.539,0.08,0.99,0.04,-0.24,0.49,-0.01,0.09,0.01,0.24,1009.33
7.577,0.04,1.01,0.03,-0.24,0.49,-0.01,0.09,0.01,0.24,1009.33
7.578,0.04,1.01,0.03,-0.24,0.49,-0.01,0.12,0.02,0.37,1009.33
7.579,0.02,1.05,-0.01,-0.24,0.49,-0.01,0.12,0.02,0.37,1009.33
7.597,0.02,1.08,-0.04,-0.24,0.49,-0.01,0.12,0.02,0.37,1009.33
7.599,0.02,1.08,-0.04,-0.29,0.51,0.02,0.12,0.02,0.37,1009.33
7.618,0.01,1.09,-0.05,-0.29,0.51,0.02,0.12,0.02,0.37,1009.33
7.62,0.01,1.09,-0.05,-0.29,0.51,0.02,0.12,0.02,0.37,1009.45
7.643,0.01,1.11,-0.03,-0.29,0.51,0.02,0.12,0.02,0.37,1009.45
7.646,0.01,1.11,-0.03,-0.29,0.51,0.02,0.03,0.08,0.94,1009.45
7.657,-0.01,1.15,-0.01,-0.29,0.51,0.02,0.03,0.08,0.94,1009.45
7.658,-0.01,1.15,-0.01,-0.29,0.51,0.02,0.03,0.08,0.94,1009.53
7.668,-0.01,1.15,-0.01,-1.62,1.22,-0.28,0.03,0.08,0.94,1009.53
7.71,-0.07,1.22,-0.00,-1.62,1.22,-0.28,0.03,0.08,0.94,1009.53
7.712,-0.14,1.30,0.00,-1.62,1.22,-0.28,0.03,0.08,0.94,1009.53
7.717,-0.14,1.30,0.00,-1.62,1.22,-0.28,0.06,-0.04,2.07,1009.53
7.738,-0.14,1.30,0.00,-1.62,1.22,-0.28,0.06,-0.04,2.07,1009.42
7.739,-0.25,1.40,-0.07,-1.62,1.22,-0.28,0.06,-0.04,2.07,1009.42
7.74,-0.41,1.49,-0.12,-1.62,1.22,-0.28,0.06,-0.04,2.07,1009.42
7.74,-0.41,1.49,-0.12,-3.50,2.52,-0.43,0.06,-0.04,2.07,1009.42
7.777,-0.56,1.54,-0.09,-3.50,2.52,-0.43,0.06,-0.04,2.07,1009.42
7.787,-0.56,1.54,-0.09,-3.50,2.52,-0.43,-0.19,-0.55,4.40,1009.42
7.787,-0.41,1.53,0.03,-3.50,2.52,-0.43,-0.19,-0.55,4.40,1009.42
7.807,-0.41,1.53,0.03,-8.49,6.62,-0.61,-0.19,-0.55,4.40,1009.42
7.808,-0.09,1.37,0.30,-8.49,6.62,-0.61,-0.19,-0.55,4.40,1009.42
7.817,0.24,1.05,0.62,-8.49,6.62,-0.61,-0.19,-0.55,4.40,1009.42
7.818,0.24,1.05,0.62,-8.49,6.62,-0.61,-0.19,-0.55,4.40,1009.05
7.843,0.04,0.91,0.70,-8.49,6.62,-0.61,-0.19,-0.55,4.40,1009.05
7.857,0.04,0.91,0.70,-8.49,6.62,-0.61,0.80,-0.21,5.96,1009.05
7.858,0.37,0.22,0.27,-8.49,6.62,-0.61,0.80,-0.21,5.96,1009.05
7.858,0.37,0.22,0.27,-8.49,6.62,-0.61,0.80,-0.21,5.96,1008.40
7.877,0.37,0.22,0.27,-10.56,9.40,1.68,0.80,-0.21,5.96,1008.40
7.879,2.52,1.04,0.02,-10.56,9.40,1.68,0.80,-0.21,5.96,1008.40
7.909,0.69,0.56,0.29,-10.56,9.40,1.68,0.80,-0.21,5.96,1008.40
7.927,0.69,0.56,0.29,-10.56,9.40,1.68,1.10,1.47,-0.88,1008.40
7.928,-0.24,0.48,0.21,-10.56,9.40,1.68,1.10,1.47,-0.88,1008.40
7.937,-0.54,0.49,0.10,-10.56,9.40,1.68,1.10,1.47,-0.88,1008.40
7.938,-0.54,0.49,0.10,-10.56,9.40,1.68,1.10,1.47,-0.88,1008.90
7.947,-0.54,0.49,0.10,1.36,1.85,3.33,1.10,1.47,-0.88,1008.90
7.977,-0.19,0.48,0.21,1.36,1.85,3.33,1.10,1.47,-0.88,1008.90
7.997,-0.19,0.48,0.21,1.36,1.85,3.33,0.88,1.04,-2.29,1008.90
7.998,0.36,0.45,0.34,1.36,1.85,3.33,0.88,1.04,-2.29,1008.90
8.018,0.36,0.45,0.34,-6.49,-1.97,1.53,0.88,1.04,-2.29,1008.90
8.019,0.36,0.45,0.34,-6.49,-1.97,1.53,0.88,1.04,-2.29,1009.07
8.019,0.54,0.42,0.34,-6.49,-1.97,1.53,0.88,1.04,-2.29,1009.07
8.02,0.37,0.47,0.28,-6.49,-1.97,1.53,0.88,1.04,-2.29,1009.07
8.043,0.28,0.60,0.21,-6.49,-1.97,1.53,0.88,1.04,-2.29,1009.07
8.059,0.31,0.68,0.26,-6.49,-1.97,1.53,0.88,1.04,-2.29,1009.07
8.059,0.31,0.68,0.26,-6.49,-1.97,1.53,0.88,1.04,-2.29,1009.22
8.071,0.31,0.68,0.26,-6.49,-1.97,1.53,1.09,1.02,-4.04,1009.22
8.087,0.31,0.68,0.26,-0.03,-3.89,2.83,1.09,1.02,-4.04,1009.22
8.088,0.36,0.74,0.33,-0.03,-3.89,2.83,1.09,1.02,-4.04,1009.22
8.109,0.43,0.86,0.24,-0.03,-3.89,2.83,1.09,1.02,-4.04,1009.22
8.138,0.43,0.86,0.24,-0.03,-3.89,2.83,1.03,1.96,-4.33,1009.22
8.139,0.36,1.00,0.13,-0.03,-3.89,2.83,1.03,1.96,-4.33,1009.22
8.14,0.36,1.00,0.13,-0.03,-3.89,2.83,1.03,1.96,-4.33,1009.22
8.14,0.27,1.10,0.15,-0.03,-3.89,2.83,1.03,1.96,-4.33,1009.22
8.158,0.27,1.10,0.15,2.39,-2.11,2.59,1.03,1.96,-4.33,1009.22
8.158,0.24,1.24,0.18,2.39,-2.11,2.59,1.03,1.96,-4.33,1009.22
8.208,0.24,1.24,0.18,2.39,-2.11,2.59,0.86,2.84,-3.75,1009.22
8.208,0.26,1.41,0.20,2.39,-2.11,2.59,0.86,2.84,-3.75,1009.22
8.209,0.62,1.52,0.33,2.39,-2.11,2.59,0.86,2.84,-3.75,1009.22
8.219,1.23,1.53,0.41,2.39,-2.11,2.59,0.86,2.84,-3.75,1009.22
8.221,1.23,1.53,0.41,2.39,-2.11,2.59,0.86,2.84,-3.75,1009.18
8.227,1.23,1.53,0.41,4.15,1.72,2.08,0.86,2.84,-3.75,1009.18
8.243,1.26,1.36,0.57,4.15,1.72,2.08,0.86,2.84,-3.75,1009.18
8.258,1.61,1.00,0.69,4.15,1.72,2.08,0.86,2.84,-3.75,1009.18
8.259,1.61,1.00,0.69,4.15,1.72,2.08,0.86,2.84,-3.75,1009.35
8.278,1.61,1.00,0.69,4.15,1.72,2.08,0.45,2.02,-1.77,1009.35
8.299,1.61,1.00,0.69,9.04,5.58,3.91,0.45,2.02,-1.77,1009.35
8.3,1.94,0.85,0.49,9.04,5.58,3.91,0.45,2.02,-1.77,1009.35
8.3,1.55,0.72,0.42,9.04,5.58,3.91,0.45,2.02,-1.77,1009.35
8.338,1.55,0.72,0.42,9.04,5.58,3.91,0.45,2.02,-1.77,1009.22
8.34,0.58,1.57,0.80,9.04,5.58,3.91,0.45,2.02,-1.77,1009.22
8.34,0.37,1.34,-0.61,9.04,5.58,3.91,0.45,2.02,-1.77,1009.22
8.347,0.37,1.34,-0.61,9.04,5.58,3.91,-0.69,0.69,1.45,1009.22
8.374,0.31,0.92,-0.66,9.04,5.58,3.91,-0.69,0.69,1.45,1009.22
8.375,0.31,0.92,-0.66,16.14,-0.08,5.45,-0.69,0.69,1.45,1009.22
8.418,0.45,1.27,0.41,16.14,-0.08,5.45,-0.69,0.69,1.45,1009.22
8.419,-0.17,0.96,-0.26,16.14,-0.08,5.45,-0.69,0.69,1.45,1009.22
8.42,-0.17,0.96,-0.26,16.14,-0.08,5.45,-0.60,0.32,0.56,1009.22
8.421,0.36,1.04,-0.21,16.14,-0.08,5.45,-0.60,0.32,0.56,1009.22
8.422,0.36,1.04,-0.21,16.14,-0.08,5.45,-0.60,0.32,0.56,1009.55
8.438,0.03,0.97,0.16,16.14,-0.08,5.45,-0.60,0.32,0.56,1009.55
8.439,0.03,0.97,0.16,4.20,3.07,-0.42,-0.60,0.32,0.56,1009.55
8.457,0.05,0.95,0.16,4.20,3.07,-0.42,-0.60,0.32,0.56,1009.55
8.458,0.05,0.95,0.16,4.20,3.07,-0.42,-0.60,0.32,0.56,1009.27
8.487,0.05,0.95,0.16,4.20,3.07,-0.42,-0.41,0.08,0.21,1009.27
8.488,0.12,0.96,0.09,4.20,3.07,-0.42,-0.41,0.08,0.21,1009.27
8.507,0.12,0.96,0.09,0.62,1.35,-1.26,-0.41,0.08,0.21,1009.27
8.508,0.09,0.97,0.07,0.62,1.35,-1.26,-0.41,0.08,0.21,1009.27
8.538,0.09,0.97,0.07,0.62,1.35,-1.26,-0.41,0.08,0.21,1009.29
8.539,0.10,0.97,0.08,0.62,1.35,-1.26,-0.41,0.08,0.21,1009.29
8.541,0.09,0.97,0.08,0.62,1.35,-1.26,-0.41,0.08,0.21,1009.29
8.557,0.09,0.97,0.08,0.62,1.35,-1.26,-0.20,0.07,0.05,1009.29
8.576,0.07,1.00,0.02,0.62,1.35,-1.26,-0.20,0.07,0.05,1009.29
8.577,0.03,1.00,0.08,0.62,1.35,-1.26,-0.20,0.07,0.05,1009.29
8.578,0.03,1.00,0.08,0.50,0.36,0.49,-0.20,0.07,0.05,1009.29
8.618,0.03,1.00,0.08,0.50,0.36,0.49,-0.20,0.07,0.05,1009.30
8.619,0.06,1.00,0.07,0.50,0.36,0.49,-0.20,0.07,0.05,1009.30
8.62,0.07,1.00,0.04,0.50,0.36,0.49,-0.20,0.07,0.05,1009.30
8.627,0.07,1.00,0.04,0.50,0.36,0.49,-0.10,0.00,0.04,1009.30
8.643,0.04,0.99,0.07,0.50,0.36,0.49,-0.10,0.00,0.04,1009.30
8.647,0.04,0.99,0.07,0.24,0.58,0.05,-0.10,0.00,0.04,1009.30
8.657,0.04,1.00,0.05,0.24,0.58,0.05,-0.10,0.00,0.04,1009.30
8.658,0.04,1.00,0.05,0.24,0.58,0.05,-0.10,0.00,0.04,1009.22
8.698,0.04,1.00,0.05,0.24,0.58,0.05,-0.03,-0.02,0.10,1009.22
8.699,0.05,0.99,0.04,0.24,0.58,0.05,-0.03,-0.02,0.10,1009.22
8.709,0.05,0.99,0.05,0.24,0.58,0.05,-0.03,-0.02,0.10,1009.22
8.718,0.05,0.97,0.08,0.24,0.58,0.05,-0.03,-0.02,0.10,1009.22
8.719,0.05,0.97,0.08,0.04,0.66,0.02,-0.03,-0.02,0.10,1009.22
8.739,0.08,0.98,0.06,0.04,0.66,0.02,-0.03,-0.02,0.10,1009.22
8.74,0.08,0.98,0.06,0.04,0.66,0.02,-0.03,-0.02,0.10,1009.17
8.776,0.08,0.98,0.05,0.04,0.66,0.02,-0.03,-0.02,0.10,1009.17
8.777,0.08,0.98,0.05,0.04,0.66,0.02,-0.02,-0.01,0.18,1009.17
8.79,0.08,0.98,0.05,-0.13,0.54,-0.08,-0.02,-0.01,0.18,1009.17
8.791,0.07,0.96,0.10,-0.13,0.54,-0.08,-0.02,-0.01,0.18,1009.17
8.818,0.07,0.96,0.10,-0.13,0.54,-0.08,-0.02,-0.01,0.18,1009.22
8.819,0.09,0.95,0.12,-0.13,0.54,-0.08,-0.02,-0.01,0.18,1009.22
8.819,0.08,0.96,0.11,-0.13,0.54,-0.08,-0.02,-0.01,0.18,1009.22
8.837,0.08,0.96,0.11,-0.13,0.54,-0.08,0.05,-0.04,0.20,1009.22
8.843,0.07,0.97,0.08,-0.13,0.54,-0.08,0.05,-0.04,0.20,1009.22
8.857,0.05,1.00,0.07,-0.13,0.54,-0.08,0.05,-0.04,0.20,1009.22
8.858,0.05,1.00,0.07,-0.13,0.54,-0.08,0.05,-0.04,0.20,1009.36
8.859,0.05,1.00,0.07,0.01,0.38,0.22,0.05,-0.04,0.20,1009.36
8.907,0.05,1.00,0.07,0.01,0.38,0.22,0.09,-0.10,0.37,1009.36
8.909,0.06,1.04,-0.00,0.01,0.38,0.22,0.09,-0.10,0.37,1009.36
8.909,0.01,1.06,-0.02,0.01,0.38,0.22,0.09,-0.10,0.37,1009.36
8.928,0.01,1.06,0.02,0.01,0.38,0.22,0.09,-0.10,0.37,1009.36
8.929,0.01,1.06,0.02,-0.37,0.43,0.39,0.09,-0.10,0.37,1009.36
8.938,-0.01,1.05,0.04,-0.37,0.43,0.39,0.09,-0.10,0.37,1009.36
8.939,-0.01,1.05,0.04,-0.37,0.43,0.39,0.09,-0.10,0.37,1009.47
8.979,-0.01,1.08,0.02,-0.37,0.43,0.39,0.09,-0.10,0.37,1009.47
8.98,-0.01,1.08,0.02,-0.37,0.43,0.39,0.04,-0.09,0.96,1009.47
8.998,-0.01,1.08,0.02,-1.60,1.33,-0.42,0.04,-0.09,0.96,1009.47
8.999,-0.00,1.10,0.02,-1.60,1.33,-0.42,0.04,-0.09,0.96,1009.47
8.999,-0.02,1.12,0.04,-1.60,1.33,-0.42,0.04,-0.09,0.96,1009.47
9.019,-0.06,1.21,0.01,-1.60,1.33,-0.42,0.04,-0.09,0.96,1009.47
9.02,-0.06,1.21,0.01,-1.60,1.33,-0.42,0.04,-0.09,0.96,1009.53
9.037,-0.17,1.32,-0.02,-1.60,1.33,-0.42,0.04,-0.09,0.96,1009.53
9.047,-0.17,1.32,-0.02,-1.60,1.33,-0.42,-0.04,-0.12,1.98,1009.53
9.057,-0.32,1.42,-0.08,-1.60,1.33,-0.42,-0.04,-0.12,1.98,1009.53
9.058,-0.32,1.42,-0.08,-1.60,1.33,-0.42,-0.04,-0.12,1.98,1009.52
9.067,-0.32,1.42,-0.08,-3.39,2.15,-0.22,-0.04,-0.12,1.98,1009.52
9.11,-0.49,1.52,-0.13,-3.39,2.15,-0.22,-0.04,-0.12,1.98,1009.52
9.111,-0.49,1.52,-0.08,-3.39,2.15,-0.22,-0.04,-0.12,1.98,1009.52
9.117,-0.49,1.52,-0.08,-3.39,2.15,-0.22,-0.42,-0.39,4.30,1009.52
9.138,-0.10,1.54,0.06,-3.39,2.15,-0.22,-0.42,-0.39,4.30,1009.52
9.139,0.15,1.31,0.43,-3.39,2.15,-0.22,-0.42,-0.39,4.30,1009.52
9.14,0.15,1.31,0.43,-3.39,2.15,-0.22,-0.42,-0.39,4.30,1009.14
9.14,0.15,1.31,0.43,-8.03,6.12,-1.01,-0.42,-0.39,4.30,1009.14
9.176,0.14,1.00,0.61,-8.03,6.12,-1.01,-0.42,-0.39,4.30,1009.14
9.189,0.14,1.00,0.61,-8.03,6.12,-1.01,0.38,-0.34,5.81,1009.14
9.19,0.07,0.85,0.65,-8.03,6.12,-1.01,0.38,-0.34,5.81,1009.14
9.207,0.25,0.19,0.19,-8.03,6.12,-1.01,0.38,-0.34,5.81,1009.14
9.208,0.25,0.19,0.19,-9.83,9.81,0.72,0.38,-0.34,5.81,1009.14
9.217,2.47,1.07,0.08,-9.83,9.81,0.72,0.38,-0.34,5.81,1009.14
9.218,2.47,1.07,0.08,-9.83,9.81,0.72,0.38,-0.34,5.81,1008.57
9.243,0.47,0.50,0.25,-9.83,9.81,0.72,0.38,-0.34,5.81,1008.57
9.258,0.47,0.50,0.25,-9.83,9.81,0.72,1.00,0.55,0.00,1008.57
9.259,-0.13,0.41,0.26,-9.83,9.81,0.72,1.00,0.55,0.00,1008.57
9.26,-0.13,0.41,0.26,-9.83,9.81,0.72,1.00,0.55,0.00,1009.02
9.278,-0.13,0.41,0.26,-2.64,1.59,3.74,1.00,0.55,0.00,1009.02
9.279,-0.40,0.43,0.08,-2.64,1.59,3.74,1.00,0.55,0.00,1009.02
9.31,-0.06,0.51,0.15,-2.64,1.59,3.74,1.00,0.55,0.00,1009.02
9.328,-0.06,0.51,0.15,-2.64,1.59,3.74,1.06,1.00,-2.02,1009.02
9.329,0.43,0.46,0.39,-2.64,1.59,3.74,1.06,1.00,-2.02,1009.02
9.338,0.54,0.44,0.46,-2.64,1.59,3.74,1.06,1.00,-2.02,1009.02
9.34,0.54,0.44,0.46,-2.64,1.59,3.74,1.06,1.00,-2.02,1009.18
9.347,0.54,0.44,0.46,-2.63,-1.30,1.41,1.06,1.00,-2.02,1009.18
9.376,0.38,0.51,0.40,-2.63,-1.30,1.41,1.06,1.00,-2.02,1009.18
9.398,0.38,0.51,0.40,-2.63,-1.30,1.41,1.31,0.93,-3.54,1009.18
9.399,0.31,0.63,0.36,-2.63,-1.30,1.41,1.31,0.93,-3.54,1009.18
9.418,0.31,0.63,0.36,-2.63,-1.30,1.41,1.31,0.93,-3.54,1009.28
9.419,0.31,0.63,0.36,-1.03,-3.34,3.25,1.31,0.93,-3.54,1009.28
9.419,0.41,0.73,0.39,-1.03,-3.34,3.25,1.31,0.93,-3.54,1009.28
9.42,0.49,0.76,0.47,-1.03,-3.34,3.25,1.31,0.93,-3.54,1009.28
9.443,0.50,0.82,0.43,-1.03,-3.34,3.25,1.31,0.93,-3.54,1009.28
9.458,0.41,0.95,0.28,-1.03,-3.34,3.25,1.31,0.93,-3.54,1009.28
9.459,0.41,0.95,0.28,-1.03,-3.34,3.25,1.31,0.93,-3.54,1009.28
9.467,0.41,0.95,0.28,-1.03,-3.34,3.25,0.97,1.67,-3.88,1009.28
9.488,0.41,0.95,0.28,1.95,-2.05,3.78,0.97,1.67,-3.88,1009.28
9.489,0.29,1.02,0.26,1.95,-2.05,3.78,0.97,1.67,-3.88,1009.28
9.51,0.22,1.08,0.28,1.95,-2.05,3.78,0.97,1.67,-3.88,1009.28
9.539,0.26,1.14,0.28,1.95,-2.05,3.78,0.97,1.67,-3.88,1009.28
9.54,0.26,1.14,0.28,1.95,-2.05,3.78,0.97,1.67,-3.88,1009.16
9.541,0.26,1.14,0.28,1.95,-2.05,3.78,0.17,1.95,-3.65,1009.16
9.558,0.26,1.14,0.28,3.90,0.35,2.84,0.17,1.95,-3.65,1009.16
9.559,0.40,1.19,0.26,3.90,0.35,2.84,0.17,1.95,-3.65,1009.16
9.559,0.78,1.22,0.24,3.90,0.35,2.84,0.17,1.95,-3.65,1009.16
9.577,1.23,1.20,0.22,3.90,0.35,2.84,0.17,1.95,-3.65,1009.16
9.608,1.23,1.20,0.22,3.90,0.35,2.84,0.50,1.70,-2.94,1009.16
9.609,1.52,1.15,0.16,3.90,0.35,2.84,0.50,1.70,-2.94,1009.16
9.617,1.52,1.15,0.16,3.90,0.35,2.84,0.50,1.70,-2.94,1009.20
9.628,1.52,1.15,0.16,5.95,2.62,2.75,0.50,1.70,-2.94,1009.20
9.629,1.56,1.00,0.22,5.95,2.62,2.75,0.50,1.70,-2.94,1009.20
9.643,1.55,0.75,0.31,5.95,2.62,2.75,0.50,1.70,-2.94,1009.20
9.657,1.55,0.75,0.31,5.95,2.62,2.75,0.50,1.70,-2.94,1009.33
9.678,1.55,0.75,0.31,5.95,2.62,2.75,-0.21,1.16,1.38,1009.33
9.679,1.20,0.88,0.48,5.95,2.62,2.75,-0.21,1.16,1.38,1009.33
9.698,1.20,0.88,0.48,14.41,1.52,2.02,-0.21,1.16,1.38,1009.33
9.699,1.49,1.11,0.15,14.41,1.52,2.02,-0.21,1.16,1.38,1009.33
9.7,1.33,1.29,-0.07,14.41,1.52,2.02,-0.21,1.16,1.38,1009.33
9.738,-0.19,1.43,-0.23,14.41,1.52,2.02,-0.21,1.16,1.38,1009.33
9.74,-0.19,1.43,-0.23,14.41,1.52,2.02,-0.21,1.16,1.38,1009.64
9.741,0.40,1.02,-0.42,14.41,1.52,2.02,-0.21,1.16,1.38,1009.64
9.748,0.40,1.02,-0.42,14.41,1.52,2.02,-0.43,0.16,0.62,1009.64
9.769,0.40,1.02,-0.42,12.96,1.14,1.56,-0.43,0.16,0.62,1009.64
9.77,0.22,0.91,0.01,12.96,1.14,1.56,-0.43,0.16,0.62,1009.64
9.819,0.22,0.91,0.01,12.96,1.14,1.56,-0.43,0.16,0.62,1009.31
9.82,0.22,0.91,0.01,12.96,1.14,1.56,-0.38,0.05,0.24,1009.31
9.821,0.06,0.94,0.37,12.96,1.14,1.56,-0.38,0.05,0.24,1009.31
9.822,0.09,0.99,0.08,12.96,1.14,1.56,-0.38,0.05,0.24,1009.31
9.838,0.13,0.93,0.21,12.96,1.14,1.56,-0.38,0.05,0.24,1009.31
9.839,0.12,0.98,0.13,12.96,1.14,1.56,-0.38,0.05,0.24,1009.31
9.84,0.12,0.98,0.13,0.75,1.64,-1.74,-0.38,0.05,0.24,1009.31
9.858,0.12,0.98,0.13,0.75,1.64,-1.74,-0.38,0.05,0.24,1009.34
9.888,0.12,0.98,0.13,0.75,1.64,-1.74,-0.07,-0.00,0.07,1009.34
9.889,0.12,1.02,-0.02,0.75,1.64,-1.74,-0.07,-0.00,0.07,1009.34
9.889,0.09,0.99,0.03,0.75,1.64,-1.74,-0.07,-0.00,0.07,1009.34
9.908,0.07,0.98,0.08,0.75,1.64,-1.74,-0.07,-0.00,0.07,1009.34
9.909,0.07,0.98,0.08,0.50,0.41,1.05,-0.07,-0.00,0.07,1009.34
9.938,0.08,0.98,0.11,0.50,0.41,1.05,-0.07,-0.00,0.07,1009.34
9.94,0.08,0.98,0.11,0.50,0.41,1.05,-0.07,-0.00,0.07,1009.31
9.958,0.08,0.98,0.11,0.50,0.41,1.05,0.02,-0.04,0.05,1009.31
9.959,0.07,0.98,0.11,0.50,0.41,1.05,0.02,-0.04,0.05,1009.31
9.978,0.06,0.99,0.07,0.50,0.41,1.05,0.02,-0.04,0.05,1009.31
9.979,0.08,0.99,0.05,0.50,0.41,1.05,0.02,-0.04,0.05,1009.31
9.979,0.08,0.99,0.05,0.29,0.69,-0.12,0.02,-0.04,0.05,1009.31
10.018,0.08,0.99,0.04,0.29,0.69,-0.12,0.02,-0.04,0.05,1009.31
10.02,0.08,0.99,0.04,0.29,0.69,-0.12,0.02,-0.04,0.05,1009.28
10.028,0.08,0.99,0.04,0.29,0.69,-0.12,0.09,-0.03,0.09,1009.28
10.029,0.08,0.98,0.05,0.29,0.69,-0.12,0.09,-0.03,0.09,1009.28
10.046,0.07,0.97,0.07,0.29,0.69,-0.12,0.09,-0.03,0.09,1009.28
10.048,0.07,0.97,0.07,0.04,0.58,0.32,0.09,-0.03,0.09,1009.28
10.058,0.07,0.97,0.07,0.04,0.58,0.32,0.09,-0.03,0.09,1009.27
10.098,0.07,0.97,0.07,0.04,0.58,0.32,0.08,-0.04,0.16,1009.27
10.099,0.06,0.97,0.07,0.04,0.58,0.32,0.08,-0.04,0.16,1009.27
10.099,0.07,0.99,0.04,0.04,0.58,0.32,0.08,-0.04,0.16,1009.27
10.11,0.10,1.00,0.01,0.04,0.58,0.32,0.08,-0.04,0.16,1009.27
10.119,0.09,0.99,0.03,0.04,0.58,0.32,0.08,-0.04,0.16,1009.27
10.119,0.09,0.99,0.03,-0.07,0.52,0.09,0.08,-0.04,0.16,1009.27
10.138,0.09,0.99,0.03,-0.07,0.52,0.09,0.08,-0.04,0.16,1009.35
10.168,0.09,0.99,0.03,-0.07,0.52,0.09,0.08,0.01,0.24,1009.35
10.169,0.09,0.98,0.06,-0.07,0.52,0.09,0.08,0.01,0.24,1009.35
10.17,0.08,0.98,0.08,-0.07,0.52,0.09,0.08,0.01,0.24,1009.35
10.188,0.08,0.98,0.08,-0.12,0.63,-0.04,0.08,0.01,0.24,1009.35
10.189,0.06,1.01,0.05,-0.12,0.63,-0.04,0.08,0.01,0.24,1009.35
10.218,0.04,1.03,0.01,-0.12,0.63,-0.04,0.08,0.01,0.24,1009.35
10.219,0.04,1.03,0.01,-0.12,0.63,-0.04,0.08,0.01,0.24,1009.39
10.239,0.01,1.05,-0.00,-0.12,0.63,-0.04,0.08,0.01,0.24,1009.39
10.24,0.01,1.05,-0.00,-0.12,0.63,-0.04,0.11,-0.02,0.56,1009.39
10.243,-0.01,1.08,-0.03,-0.12,0.63,-0.04,0.11,-0.02,0.56,1009.39
10.258,-0.01,1.08,-0.03,-0.12,0.63,-0.04,0.11,-0.02,0.56,1009.36
10.26,-0.01,1.11,-0.04,-0.12,0.63,-0.04,0.11,-0.02,0.56,1009.36
10.26,-0.01,1.11,-0.04,-0.73,0.73,0.23,0.11,-0.02,0.56,1009.36
10.309,-0.01,1.11,-0.04,-0.73,0.73,0.23,0.04,0.07,1.41,1009.36
10.311,-0.03,1.13,-0.00,-0.73,0.73,0.23,0.04,0.07,1.41,1009.36
10.311,-0.05,1.16,0.01,-0.73,0.73,0.23,0.04,0.07,1.41,1009.36
10.318,-0.11,1.28,-0.01,-0.73,0.73,0.23,0.04,0.07,1.41,1009.36
10.329,-0.11,1.28,-0.01,-2.44,1.75,-0.50,0.04,0.07,1.41,1009.36
10.339,-0.11,1.28,-0.01,-2.44,1.75,-0.50,0.04,0.07,1.41,1009.46
10.378,-0.28,1.42,-0.01,-2.44,1.75,-0.50,0.04,0.07,1.41,1009.46
10.382,-0.49,1.54,-0.14,-2.44,1.75,-0.50,0.04,0.07,1.41,1009.46
10.384,-0.49,1.54,-0.14,-2.44,1.75,-0.50,-0.18,-0.26,3.20,1009.46
10.398,-0.49,1.54,-0.14,-5.59,4.16,-0.40,-0.18,-0.26,3.20,1009.46
10.399,-0.69,1.64,-0.21,-5.59,4.16,-0.40,-0.18,-0.26,3.20,1009.46
10.4,-0.51,1.61,-0.04,-5.59,4.16,-0.40,-0.18,-0.26,3.20,1009.46
10.418,-0.51,1.61,-0.04,-5.59,4.16,-0.40,-0.18,-0.26,3.20,1009.34
10.444,0.11,1.46,0.30,-5.59,4.16,-0.40,-0.18,-0.26,3.20,1009.34
10.445,0.14,1.03,0.63,-5.59,4.16,-0.40,-0.18,-0.26,3.20,1009.34
10.449,0.14,1.03,0.63,-5.59,4.16,-0.40,-0.06,-0.50,5.79,1009.34
10.458,0.14,1.03,0.63,-5.59,4.16,-0.40,-0.06,-0.50,5.79,1008.55
10.469,0.14,1.03,0.63,-12.50,10.08,-1.13,-0.06,-0.50,5.79,1008.55
10.47,0.14,0.89,0.84,-12.50,10.08,-1.13,-0.06,-0.50,5.79,1008.55
10.51,0.18,0.37,0.37,-12.50,10.08,-1.13,-0.06,-0.50,5.79,1008.55
10.511,2.41,0.86,0.12,-12.50,10.08,-1.13,-0.06,-0.50,5.79,1008.55
10.519,2.41,0.86,0.12,-12.50,10.08,-1.13,1.30,0.67,2.73,1008.55
10.541,0.65,0.54,0.27,-12.50,10.08,-1.13,1.30,0.67,2.73,1008.55
10.543,0.65,0.54,0.27,-12.50,10.08,-1.13,1.30,0.67,2.73,1008.89
10.544,0.65,0.54,0.27,-6.29,5.15,5.55,1.30,0.67,2.73,1008.89
10.545,-0.32,0.42,0.31,-6.29,5.15,5.55,1.30,0.67,2.73,1008.89
10.583,-0.58,0.43,0.09,-6.29,5.15,5.55,1.30,0.67,2.73,1008.89
10.589,-0.58,0.43,0.09,-6.29,5.15,5.55,1.40,1.58,-1.99,1008.89
10.59,-0.10,0.49,0.17,-6.29,5.15,5.55,1.40,1.58,-1.99,1008.89
10.609,0.40,0.49,0.29,-6.29,5.15,5.55,1.40,1.58,-1.99,1008.89
10.61,0.40,0.49,0.29,1.78,-1.18,1.73,1.40,1.58,-1.99,1008.89
10.619,0.40,0.49,0.29,1.78,-1.18,1.73,1.40,1.58,-1.99,1009.15
10.643,0.39,0.46,0.39,1.78,-1.18,1.73,1.40,1.58,-1.99,1009.15
10.644,0.13,0.51,0.38,1.78,-1.18,1.73,1.40,1.58,-1.99,1009.15
10.658,0.13,0.51,0.38,1.78,-1.18,1.73,1.44,1.52,-3.68,1009.15
10.659,0.13,0.51,0.38,1.78,-1.18,1.73,1.44,1.52,-3.68,1009.21
10.679,0.13,0.51,0.38,-4.46,-3.25,1.76,1.44,1.52,-3.68,1009.21
10.69,0.10,0.66,0.36,-4.46,-3.25,1.76,1.44,1.52,-3.68,1009.21
10.691,0.31,0.78,0.43,-4.46,-3.25,1.76,1.44,1.52,-3.68,1009.21
10.71,0.47,0.86,0.48,-4.46,-3.25,1.76,1.44,1.52,-3.68,1009.21
10.729,0.47,0.86,0.48,-4.46,-3.25,1.76,1.45,1.23,-4.46,1009.21
10.73,0.47,0.95,0.40,-4.46,-3.25,1.76,1.45,1.23,-4.46,1009.21
10.738,0.47,0.95,0.40,-4.46,-3.25,1.76,1.45,1.23,-4.46,1009.30
10.749,0.47,0.95,0.40,0.44,-2.71,3.94,1.45,1.23,-4.46,1009.30
10.75,0.44,1.11,0.23,0.44,-2.71,3.94,1.45,1.23,-4.46,1009.30
10.779,0.20,1.25,0.14,0.44,-2.71,3.94,1.45,1.23,-4.46,1009.30
10.799,0.20,1.25,0.14,0.44,-2.71,3.94,0.19,1.79,-4.18,1009.30
10.8,-0.02,1.39,0.18,0.44,-2.71,3.94,0.19,1.79,-4.18,1009.30
10.818,-0.02,1.39,0.18,4.91,0.94,3.26,0.19,1.79,-4.18,1009.30
10.819,-0.02,1.39,0.18,4.91,0.94,3.26,0.19,1.79,-4.18,1009.37
10.82,0.40,1.45,0.33,4.91,0.94,3.26,0.19,1.79,-4.18,1009.37
10.82,1.27,1.31,0.53,4.91,0.94,3.26,0.19,1.79,-4.18,1009.37
10.843,1.33,1.06,0.55,4.91,0.94,3.26,0.19,1.79,-4.18,1009.37
10.858,1.33,1.06,0.55,4.91,0.94,3.26,0.19,1.79,-4.18,1009.20
10.861,1.26,1.06,0.27,4.91,0.94,3.26,0.19,1.79,-4.18,1009.20
10.868,1.26,1.06,0.27,4.91,0.94,3.26,0.62,2.29,-2.73,1009.20
10.889,1.26,1.06,0.27,6.43,4.61,3.64,0.62,2.29,-2.73,1009.20
10.89,0.91,1.04,0.27,6.43,4.61,3.64,0.62,2.29,-2.73,1009.20
10.91,1.37,0.82,0.39,6.43,4.61,3.64,0.62,2.29,-2.73,1009.20
10.938,1.37,0.82,0.39,6.43,4.61,3.64,-0.12,1.34,1.37,1009.20
10.939,1.73,0.82,0.23,6.43,4.61,3.64,-0.12,1.34,1.37,1009.20
10.94,1.73,0.82,0.23,6.43,4.61,3.64,-0.12,1.34,1.37,1009.14
10.963,1.73,0.82,0.23,11.74,1.04,3.91,-0.12,1.34,1.37,1009.14
10.965,0.42,0.96,0.37,11.74,1.04,3.91,-0.12,1.34,1.37,1009.14
10.965,1.86,1.48,-0.03,11.74,1.04,3.91,-0.12,1.34,1.37,1009.14
11.01,1.86,1.48,-0.03,11.74,1.04,3.91,-0.49,0.32,0.99,1009.14
11.011,0.05,1.26,0.00,11.74,1.04,3.91,-0.49,0.32,0.99,1009.14
11.011,0.01,1.12,-0.29,11.74,1.04,3.91,-0.49,0.32,0.99,1009.14
11.018,0.01,1.12,-0.29,11.74,1.04,3.91,-0.49,0.32,0.99,1009.52
11.029,0.42,1.04,-0.22,11.74,1.04,3.91,-0.49,0.32,0.99,1009.52
11.03,0.42,1.04,-0.22,13.03,1.20,2.09,-0.49,0.32,0.99,1009.52
11.043,0.12,0.93,0.10,13.03,1.20,2.09,-0.49,0.32,0.99,1009.52
11.059,0.12,0.93,0.10,13.03,1.20,2.09,-0.49,0.32,0.99,1009.24
11.078,0.12,0.93,0.10,13.03,1.20,2.09,-0.41,0.11,0.24,1009.24
11.079,0.09,0.93,0.23,13.03,1.20,2.09,-0.41,0.11,0.24,1009.24
11.099,0.09,0.93,0.23,0.94,1.85,-1.63,-0.41,0.11,0.24,1009.24
11.1,0.15,0.95,0.09,0.94,1.85,-1.63,-0.41,0.11,0.24,1009.24
11.1,0.12,0.94,0.08,0.94,1.85,-1.63,-0.41,0.11,0.24,1009.24
11.138,0.12,0.94,0.08,0.94,1.85,-1.63,-0.41,0.11,0.24,1009.37
11.14,0.09,1.00,0.02,0.94,1.85,-1.63,-0.41,0.11,0.24,1009.37
11.149,0.09,1.00,0.02,0.94,1.85,-1.63,-0.16,0.08,0.02,1009.37
11.15,0.07,1.02,-0.01,0.94,1.85,-1.63,-0.16,0.08,0.02,1009.37
11.169,0.07,1.02,-0.01,0.73,0.15,1.14,-0.16,0.08,0.02,1009.37
11.17,0.06,1.00,0.01,0.73,0.15,1.14,-0.16,0.08,0.02,1009.37
11.218,0.06,1.00,0.01,0.73,0.15,1.14,-0.16,0.08,0.02,1009.35
11.219,0.05,0.98,0.07,0.73,0.15,1.14,-0.16,0.08,0.02,1009.35
11.22,0.03,1.00,0.06,0.73,0.15,1.14,-0.16,0.08,0.02,1009.35
11.22,0.03,1.00,0.06,0.73,0.15,1.14,-0.08,0.03,0.04,1009.35
11.239,0.02,1.00,0.06,0.73,0.15,1.14,-0.08,0.03,0.04,1009.35
11.24,0.02,1.01,0.02,0.73,0.15,1.14,-0.08,0.03,0.04,1009.35
11.241,0.02,1.01,0.02,0.13,0.80,-0.18,-0.08,0.03,0.04,1009.35
11.258,0.02,1.01,0.02,0.13,0.80,-0.18,-0.08,0.03,0.04,1009.25
11.289,0.03,1.00,0.02,0.13,0.80,-0.18,-0.08,0.03,0.04,1009.25
11.29,0.03,1.00,0.02,0.13,0.80,-0.18,-0.08,0.03,0.04,1009.25
11.291,0.03,1.00,0.02,0.13,0.80,-0.18,-0.02,0.02,0.21,1009.25
11.31,0.06,1.00,0.02,0.13,0.80,-0.18,-0.02,0.02,0.21,1009.25
11.311,0.06,1.00,0.02,-0.43,0.77,0.17,-0.02,0.02,0.21,1009.25
11.338,0.06,1.00,0.02,-0.43,0.77,0.17,-0.02,0.02,0.21,1009.23
11.339,0.11,1.01,0.01,-0.43,0.77,0.17,-0.02,0.02,0.21,1009.23
11.366,0.11,1.01,0.01,-0.43,0.77,0.17,-0.03,0.01,0.29,1009.23
11.367,0.08,1.00,0.03,-0.43,0.77,0.17,-0.03,0.01,0.29,1009.23
11.382,0.11,0.97,0.06,-0.43,0.77,0.17,-0.03,0.01,0.29,1009.23
11.383,0.06,0.96,0.09,-0.43,0.77,0.17,-0.03,0.01,0.29,1009.23
11.383,0.06,0.96,0.09,-0.41,0.78,-0.16,-0.03,0.01,0.29,1009.23
11.419,0.11,0.96,0.09,-0.41,0.78,-0.16,-0.03,0.01,0.29,1009.23
11.419,0.11,0.96,0.09,-0.41,0.78,-0.16,-0.03,0.01,0.29,1009.30
11.429,0.11,0.96,0.09,-0.41,0.78,-0.16,0.03,0.00,0.33,1009.30
11.43,0.12,0.96,0.07,-0.41,0.78,-0.16,0.03,0.00,0.33,1009.30
11.444,0.09,0.98,0.06,-0.41,0.78,-0.16,0.03,0.00,0.33,1009.30
11.448,0.09,0.98,0.06,-0.22,0.58,0.19,0.03,0.00,0.33,1009.30
11.458,0.09,0.98,0.06,-0.22,0.58,0.19,0.03,0.00,0.33,1009.43
11.5,0.09,0.98,0.06,-0.22,0.58,0.19,0.10,0.02,0.51,1009.43
11.501,0.08,1.00,0.04,-0.22,0.58,0.19,0.10,0.02,0.51,1009.43
11.502,0.06,1.01,0.03,-0.22,0.58,0.19,0.10,0.02,0.51,1009.43
11.509,0.05,1.04,0.01,-0.22,0.58,0.19,0.10,0.02,0.51,1009.43
11.519,0.05,1.04,0.01,-0.46,0.51,0.37,0.10,0.02,0.51,1009.43
11.519,0.01,1.07,0.01,-0.46,0.51,0.37,0.10,0.02,0.51,1009.43
11.537,0.01,1.07,0.01,-0.46,0.51,0.37,0.10,0.02,0.51,1009.44
11.568,0.01,1.07,0.01,-0.46,0.51,0.37,0.09,0.01,1.16,1009.44
11.569,0.01,1.09,-0.00,-0.46,0.51,0.37,0.09,0.01,1.16,1009.44
11.57,0.03,1.12,-0.02,-0.46,0.51,0.37,0.09,0.01,1.16,1009.44
11.589,0.03,1.12,-0.02,-1.90,1.34,-0.03,0.09,0.01,1.16,1009.44
11.59,0.04,1.14,-0.02,-1.90,1.34,-0.03,0.09,0.01,1.16,1009.44
11.619,-0.02,1.21,-0.02,-1.90,1.34,-0.03,0.09,0.01,1.16,1009.44
11.619,-0.02,1.21,-0.02,-1.90,1.34,-0.03,0.09,0.01,1.16,1009.50
11.62,-0.14,1.32,-0.03,-1.90,1.34,-0.03,0.09,0.01,1.16,1009.50
11.638,-0.14,1.32,-0.03,-1.90,1.34,-0.03,0.03,-0.05,2.29,1009.50
11.643,-0.29,1.41,-0.07,-1.90,1.34,-0.03,0.03,-0.05,2.29,1009.50
11.657,-0.29,1.41,-0.07,-1.90,1.34,-0.03,0.03,-0.05,2.29,1009.48
11.661,-0.46,1.50,-0.13,-1.90,1.34,-0.03,0.03,-0.05,2.29,1009.48
11.662,-0.46,1.50,-0.13,-3.77,2.84,-0.33,0.03,-0.05,2.29,1009.48
11.708,-0.46,1.50,-0.13,-3.77,2.84,-0.33,-0.25,-0.41,4.71,1009.48
11.71,-0.46,1.56,-0.05,-3.77,2.84,-0.33,-0.25,-0.41,4.71,1009.48
11.71,-0.12,1.58,0.14,-3.77,2.84,-0.33,-0.25,-0.41,4.71,1009.48
11.729,0.09,1.40,0.43,-3.77,2.84,-0.33,-0.25,-0.41,4.71,1009.48
11.73,0.09,1.40,0.43,-9.11,7.26,-0.78,-0.25,-0.41,4.71,1009.48
11.737,0.09,1.40,0.43,-9.11,7.26,-0.78,-0.25,-0.41,4.71,1008.98
11.776,0.06,1.07,0.57,-9.11,7.26,-0.78,-0.25,-0.41,4.71,1008.98
11.778,-0.18,0.92,0.87,-9.11,7.26,-0.78,-0.25,-0.41,4.71,1008.98
11.778,-0.18,0.92,0.87,-9.11,7.26,-0.78,0.92,0.02,6.24,1008.98
11.799,-0.18,0.92,0.87,-9.55,10.31,2.24,0.92,0.02,6.24,1008.98
11.8,0.31,0.07,0.25,-9.55,10.31,2.24,0.92,0.02,6.24,1008.98
11.801,3.51,1.32,-0.02,-9.55,10.31,2.24,0.92,0.02,6.24,1008.98
11.817,3.51,1.32,-0.02,-9.55,10.31,2.24,0.92,0.02,6.24,1008.71
11.843,0.29,0.48,0.23,-9.55,10.31,2.24,0.92,0.02,6.24,1008.71
11.844,-0.54,0.51,0.07,-9.55,10.31,2.24,0.92,0.02,6.24,1008.71
11.849,-0.54,0.51,0.07,-9.55,10.31,2.24,0.88,1.66,-1.72,1008.71
11.857,-0.54,0.51,0.07,-9.55,10.31,2.24,0.88,1.66,-1.72,1009.02
11.868,-0.70,0.51,-0.00,-9.55,10.31,2.24,0.88,1.66,-1.72,1009.02
11.869,-0.70,0.51,-0.00,3.14,2.47,3.13,0.88,1.66,-1.72,1009.02
11.91,-0.07,0.51,0.18,3.14,2.47,3.13,0.88,1.66,-1.72,1009.02
11.912,0.47,0.50,0.26,3.14,2.47,3.13,0.88,1.66,-1.72,1009.02
11.918,0.47,0.50,0.26,3.14,2.47,3.13,0.39,0.45,-3.24,1009.02
11.937,0.29,0.50,0.15,3.14,2.47,3.13,0.39,0.45,-3.24,1009.02
11.938,0.29,0.50,0.15,3.14,2.47,3.13,0.39,0.45,-3.24,1009.15
11.939,0.12,0.58,0.03,3.14,2.47,3.13,0.39,0.45,-3.24,1009.15
11.939,0.12,0.58,0.03,-8.41,-2.28,0.38,0.39,0.45,-3.24,1009.15
11.976,0.27,0.69,0.00,-8.41,-2.28,0.38,0.39,0.45,-3.24,1009.15
11.988,0.27,0.69,0.00,-8.41,-2.28,0.38,0.34,0.04,-4.82,1009.15
11.989,0.35,0.81,0.02,-8.41,-2.28,0.38,0.34,0.04,-4.82,1009.15
12.009,0.35,0.81,0.02,-0.01,-3.41,1.02,0.34,0.04,-4.82,1009.15
12.01,0.39,0.91,-0.04,-0.01,-3.41,1.02,0.34,0.04,-4.82,1009.15
12.017,0.39,0.91,-0.04,-0.01,-3.41,1.02,0.34,0.04,-4.82,1009.22
12.043,0.38,1.04,-0.14,-0.01,-3.41,1.02,0.34,0.04,-4.82,1009.22
12.043,0.31,1.15,-0.11,-0.01,-3.41,1.02,0.34,0.04,-4.82,1009.22
12.057,0.31,1.15,-0.11,-0.01,-3.41,1.02,0.34,0.04,-4.82,1009.21
12.058,0.31,1.15,-0.11,-0.01,-3.41,1.02,0.42,1.04,-4.80,1009.21
12.085,0.37,1.21,-0.06,-0.01,-3.41,1.02,0.42,1.04,-4.80,1009.21
12.086,0.50,1.30,-0.09,-0.01,-3.41,1.02,0.42,1.04,-4.80,1009.21
12.089,0.50,1.30,-0.09,3.56,-0.76,-0.59,0.42,1.04,-4.80,1009.21
12.11,0.46,1.43,-0.13,3.56,-0.76,-0.59,0.42,1.04,-4.80,1009.21
12.13,0.67,1.45,0.12,3.56,-0.76,-0.59,0.42,1.04,-4.80,1009.21
12.131,0.67,1.45,0.12,3.56,-0.76,-0.59,0.42,1.01,-2.71,1009.21
12.137,0.67,1.45,0.12,3.56,-0.76,-0.59,0.42,1.01,-2.71,1009.24
12.149,0.67,1.45,0.12,4.82,2.84,-0.99,0.42,1.01,-2.71,1009.24
12.15,1.61,1.06,0.46,4.82,2.84,-0.99,0.42,1.01,-2.71,1009.24
12.158,2.40,0.67,0.52,4.82,2.84,-0.99,0.42,1.01,-2.71,1009.24
12.199,2.40,0.67,0.52,4.82,2.84,-0.99,0.19,-0.78,0.77,1009.24
12.2,2.09,0.62,0.43,4.82,2.84,-0.99,0.19,-0.78,0.77,1009.24
12.217,1.54,0.54,0.17,4.82,2.84,-0.99,0.19,-0.78,0.77,1009.24
12.219,1.54,0.54,0.17,4.82,2.84,-0.99,0.19,-0.78,0.77,1009.25
12.22,2.72,1.66,1.39,4.82,2.84,-0.99,0.19,-0.78,0.77,1009.25
12.221,2.72,1.66,1.39,11.00,3.04,1.76,0.19,-0.78,0.77,1009.25
12.243,0.10,1.67,-0.23,11.00,3.04,1.76,0.19,-0.78,0.77,1009.25
12.258,0.10,1.67,-0.23,11.00,3.04,1.76,0.19,-0.78,0.77,1009.69
12.27,-0.55,1.23,-0.82,11.00,3.04,1.76,0.19,-0.78,0.77,1009.69
12.27,-0.55,1.23,-0.82,11.00,3.04,1.76,-0.36,0.37,0.78,1009.69
12.289,0.38,0.95,0.27,11.00,3.04,1.76,-0.36,0.37,0.78,1009.69
12.29,0.38,0.95,0.27,20.63,-0.24,5.86,-0.36,0.37,0.78,1009.69
12.31,0.35,0.95,-0.35,20.63,-0.24,5.86,-0.36,0.37,0.78,1009.69
12.338,0.02,0.98,0.27,20.63,-0.24,5.86,-0.36,0.37,0.78,1009.69
12.339,0.02,0.98,0.27,20.63,-0.24,5.86,-0.36,0.37,0.78,1009.45
12.339,0.02,0.98,0.27,20.63,-0.24,5.86,-0.30,0.12,0.25,1009.45
12.359,0.02,0.98,0.27,-0.69,2.97,-3.84,-0.30,0.12,0.25,1009.45
12.36,0.17,1.01,0.15,-0.69,2.97,-3.84,-0.30,0.12,0.25,1009.45
12.36,0.09,0.96,0.17,-0.69,2.97,-3.84,-0.30,0.12,0.25,1009.45
12.41,0.09,0.96,0.17,-0.69,2.97,-3.84,-0.02,-0.01,0.06,1009.45
12.412,0.14,1.00,0.04,-0.69,2.97,-3.84,-0.02,-0.01,0.06,1009.45
12.413,0.10,0.99,0.06,-0.69,2.97,-3.84,-0.02,-0.01,0.06,1009.45
12.418,0.10,0.99,0.06,-0.69,2.97,-3.84,-0.02,-0.01,0.06,1009.44
12.43,0.10,0.99,0.06,0.94,0.67,1.23,-0.02,-0.01,0.06,1009.44
12.431,0.08,0.96,0.10,0.94,0.67,1.23,-0.02,-0.01,0.06,1009.44
12.444,0.08,0.97,0.08,0.94,0.67,1.23,-0.02,-0.01,0.06,1009.44
12.458,0.08,0.97,0.08,0.94,0.67,1.23,-0.02,-0.01,0.06,1009.43
12.486,0.09,0.99,0.05,0.94,0.67,1.23,-0.02,-0.01,0.06,1009.43
12.488,0.09,0.99,0.05,0.94,0.67,1.23,0.06,-0.06,0.02,1009.43
12.503,0.09,0.99,0.05,0.30,0.55,0.18,0.06,-0.06,0.02,1009.43
12.505,0.09,0.98,0.05,0.30,0.55,0.18,0.06,-0.06,0.02,1009.43
12.505,0.09,0.98,0.06,0.30,0.55,0.18,0.06,-0.06,0.02,1009.43
12.538,0.10,0.97,0.05,0.30,0.55,0.18,0.06,-0.06,0.02,1009.43
12.539,0.10,0.97,0.05,0.30,0.55,0.18,0.06,-0.06,0.02,1009.42
12.55,0.06,0.98,0.06,0.30,0.55,0.18,0.06,-0.06,0.02,1009.42
12.551,0.06,0.98,0.06,0.30,0.55,0.18,0.07,-0.08,0.01,1009.42
12.569,0.06,0.98,0.06,0.14,0.56,0.11,0.07,-0.08,0.01,1009.42
12.57,0.05,0.98,0.09,0.14,0.56,0.11,0.07,-0.08,0.01,1009.42
12.618,0.05,0.98,0.09,0.14,0.56,0.11,0.07,-0.08,0.01,1009.44
12.619,0.05,0.99,0.06,0.14,0.56,0.11,0.07,-0.08,0.01,1009.44
12.62,0.07,0.99,0.04,0.14,0.56,0.11,0.07,-0.08,0.01,1009.44
12.621,0.07,0.99,0.04,0.14,0.56,0.11,0.16,-0.09,0.13,1009.44
12.639,0.07,0.99,0.01,0.14,0.56,0.11,0.16,-0.09,0.13,1009.44
12.64,0.09,0.99,0.03,0.14,0.56,0.11,0.16,-0.09,0.13,1009.44
12.641,0.09,0.99,0.03,-0.16,0.52,0.32,0.16,-0.09,0.13,1009.44
12.657,0.09,0.99,0.03,-0.16,0.52,0.32,0.16,-0.09,0.13,1009.33
12.689,0.09,0.99,0.03,-0.16,0.52,0.32,0.15,-0.07,0.20,1009.33
12.69,0.09,1.00,0.01,-0.16,0.52,0.32,0.15,-0.07,0.20,1009.33
12.691,0.11,0.99,0.01,-0.16,0.52,0.32,0.15,-0.07,0.20,1009.33
12.71,0.11,0.99,0.01,-0.25,0.62,0.08,0.15,-0.07,0.20,1009.33
12.711,0.11,0.98,0.02,-0.25,0.62,0.08,0.15,-0.07,0.20,1009.33
12.738,0.07,0.99,0.04,-0.25,0.62,0.08,0.15,-0.07,0.20,1009.33
12.74,0.07,0.99,0.04,-0.25,0.62,0.08,0.15,-0.07,0.20,1009.29
12.76,0.07,0.99,0.04,-0.25,0.62,0.08,0.15,-0.14,0.30,1009.29
12.761,0.05,1.01,0.04,-0.25,0.62,0.08,0.15,-0.14,0.30,1009.29
12.776,-0.00,1.05,-0.02,-0.25,0.62,0.08,0.15,-0.14,0.30,1009.29
12.79,-0.00,1.05,-0.02,-0.23,0.63,0.06,0.15,-0.14,0.30,1009.29
12.791,-0.01,1.07,-0.04,-0.23,0.63,0.06,0.15,-0.14,0.30,1009.29
12.818,-0.01,1.10,-0.06,-0.23,0.63,0.06,0.15,-0.14,0.30,1009.29
12.819,-0.01,1.10,-0.06,-0.23,0.63,0.06,0.15,-0.14,0.30,1009.47
12.83,0.01,1.11,-0.08,-0.23,0.63,0.06,0.15,-0.14,0.30,1009.47
12.831,0.01,1.11,-0.08,-0.23,0.63,0.06,-0.04,-0.08,0.93,1009.47
12.843,-0.01,1.15,-0.06,-0.23,0.63,0.06,-0.04,-0.08,0.93,1009.47
12.849,-0.01,1.15,-0.06,-1.72,1.19,-0.21,-0.04,-0.08,0.93,1009.47
12.857,-0.01,1.15,-0.06,-1.72,1.19,-0.21,-0.04,-0.08,0.93,1009.61
12.894,-0.02,1.19,-0.04,-1.72,1.19,-0.21,-0.04,-0.08,0.93,1009.61
12.895,-0.07,1.32,-0.08,-1.72,1.19,-0.21,-0.04,-0.08,0.93,1009.61
12.899,-0.07,1.32,-0.08,-1.72,1.19,-0.21,-0.22,0.00,2.02,1009.61
12.91,-0.24,1.39,-0.01,-1.72,1.19,-0.21,-0.22,0.00,2.02,1009.61
12.92,-0.24,1.39,-0.01,-3.49,2.55,-0.90,-0.22,0.00,2.02,1009.61
12.92,-0.50,1.51,0.05,-3.49,2.55,-0.90,-0.22,0.00,2.02,1009.61
12.938,-0.50,1.51,0.05,-3.49,2.55,-0.90,-0.22,0.00,2.02,1009.37
12.97,-0.50,1.51,0.05,-3.49,2.55,-0.90,-0.42,-0.84,4.47,1009.37
12.971,-0.62,1.55,0.06,-3.49,2.55,-0.90,-0.42,-0.84,4.47,1009.37
12.971,-0.61,1.55,0.03,-3.49,2.55,-0.90,-0.42,-0.84,4.47,1009.37
12.989,-0.61,1.55,0.03,-8.42,6.73,-0.40,-0.42,-0.84,4.47,1009.37
12.99,-0.08,1.48,0.33,-8.42,6.73,-0.40,-0.42,-0.84,4.47,1009.37
13.018,0.03,1.20,0.65,-8.42,6.73,-0.40,-0.42,-0.84,4.47,1009.37
13.019,0.03,1.20,0.65,-8.42,6.73,-0.40,-0.42,-0.84,4.47,1008.70
13.039,0.03,1.20,0.65,-8.42,6.73,-0.40,0.05,-1.26,6.22,1008.70
13.041,-0.17,1.07,0.71,-8.42,6.73,-0.40,0.05,-1.26,6.22,1008.70
13.042,0.40,0.37,0.31,-8.42,6.73,-0.40,0.05,-1.26,6.22,1008.70
13.057,0.40,0.37,0.31,-8.42,6.73,-0.40,0.05,-1.26,6.22,1008.54
13.059,2.84,1.14,0.05,-8.42,6.73,-0.40,0.05,-1.26,6.22,1008.54
13.06,2.84,1.14,0.05,-11.39,10.18,2.28,0.05,-1.26,6.22,1008.54
13.11,2.84,1.14,0.05,-11.39,10.18,2.28,0.00,0.76,-0.83,1008.54
13.111,0.72,0.55,0.46,-11.39,10.18,2.28,0.00,0.76,-0.83,1008.54
13.111,-0.26,0.51,0.15,-11.39,10.18,2.28,0.00,0.76,-0.83,1008.54
13.13,-0.26,0.51,0.15,1.28,3.33,3.51,0.00,0.76,-0.83,1008.54
13.131,-0.55,0.49,-0.12,1.28,3.33,3.51,0.00,0.76,-0.83,1008.54
13.138,-0.55,0.49,-0.12,1.28,3.33,3.51,0.00,0.76,-0.83,1008.94
13.176,-0.17,0.41,0.10,1.28,3.33,3.51,0.00,0.76,-0.83,1008.94
13.177,0.34,0.34,0.28,1.28,3.33,3.51,0.00,0.76,-0.83,1008.94
13.186,0.34,0.34,0.28,1.28,3.33,3.51,-0.44,1.10,-2.46,1008.94
13.202,0.34,0.34,0.28,-6.43,-1.90,0.41,-0.44,1.10,-2.46,1008.94
13.203,0.40,0.37,0.21,-6.43,-1.90,0.41,-0.44,1.10,-2.46,1008.94
13.204,0.19,0.45,0.07,-6.43,-1.90,0.41,-0.44,1.10,-2.46,1008.94
13.218,0.19,0.45,0.07,-6.43,-1.90,0.41,-0.44,1.10,-2.46,1009.12
13.243,0.15,0.58,0.02,-6.43,-1.90,0.41,-0.44,1.10,-2.46,1009.12
13.244,0.32,0.68,0.05,-6.43,-1.90,0.41,-0.44,1.10,-2.46,1009.12
13.25,0.32,0.68,0.05,-6.43,-1.90,0.41,0.11,0.38,-4.18,1009.12
13.258,0.32,0.68,0.05,-6.43,-1.90,0.41,0.11,0.38,-4.18,1009.17
13.269,0.32,0.68,0.05,-0.90,-4.42,0.78,0.11,0.38,-4.18,1009.17
13.27,0.46,0.81,0.02,-0.90,-4.42,0.78,0.11,0.38,-4.18,1009.17
13.311,0.49,0.95,-0.05,-0.90,-4.42,0.78,0.11,0.38,-4.18,1009.17
13.312,0.43,1.10,-0.16,-0.90,-4.42,0.78,0.11,0.38,-4.18,1009.17
13.319,0.43,1.10,-0.16,-0.90,-4.42,0.78,0.24,1.00,-4.35,1009.17
13.337,0.42,1.24,-0.17,-0.90,-4.42,0.78,0.24,1.00,-4.35,1009.17
13.339,0.42,1.24,-0.17,-0.90,-4.42,0.78,0.24,1.00,-4.35,1009.17
13.34,0.51,1.26,-0.04,-0.90,-4.42,0.78,0.24,1.00,-4.35,1009.17
13.34,0.51,1.26,-0.04,2.49,-1.71,-0.85,0.24,1.00,-4.35,1009.17
13.376,0.60,1.21,-0.03,2.49,-1.71,-0.85,0.24,1.00,-4.35,1009.17
13.39,0.60,1.21,-0.03,2.49,-1.71,-0.85,0.53,1.36,-3.57,1009.17
13.391,0.79,1.25,-0.09,2.49,-1.71,-0.85,0.53,1.36,-3.57,1009.17
13.41,0.79,1.25,-0.09,5.60,2.56,-1.70,0.53,1.36,-3.57,1009.17
13.411,1.00,1.25,-0.07,5.60,2.56,-1.70,0.53,1.36,-3.57,1009.17
13.417,1.00,1.25,-0.07,5.60,2.56,-1.70,0.53,1.36,-3.57,1009.22
13.44,0.96,1.17,0.04,5.60,2.56,-1.70,0.53,1.36,-3.57,1009.22
13.441,1.01,1.00,0.17,5.60,2.56,-1.70,0.53,1.36,-3.57,1009.22
13.457,1.01,1.00,0.17,5.60,2.56,-1.70,0.53,1.36,-3.57,1009.36
13.459,1.01,1.00,0.17,5.60,2.56,-1.70,0.69,0.36,-1.02,1009.36
13.479,1.01,1.00,0.17,9.01,3.14,-0.83,0.69,0.36,-1.02,1009.36
13.48,1.27,0.81,0.25,9.01,3.14,-0.83,0.69,0.36,-1.02,1009.36
13.481,1.58,0.70,0.20,9.01,3.14,-0.83,0.69,0.36,-1.02,1009.36
13.51,1.70,0.54,0.27,9.01,3.14,-0.83,0.69,0.36,-1.02,1009.36
13.529,1.70,0.54,0.27,9.01,3.14,-0.83,-0.40,-0.54,1.37,1009.36
13.531,1.59,1.16,1.66,9.01,3.14,-0.83,-0.40,-0.54,1.37,1009.36
13.537,1.59,1.16,1.66,9.01,3.14,-0.83,-0.40,-0.54,1.37,1009.66
13.549,1.05,1.56,0.45,9.01,3.14,-0.83,-0.40,-0.54,1.37,1009.66
13.55,1.05,1.56,0.45,12.13,-0.36,1.47,-0.40,-0.54,1.37,1009.66
13.576,-0.54,1.37,-1.45,12.13,-0.36,1.47,-0.40,-0.54,1.37,1009.66
13.6,-0.54,1.37,-1.45,12.13,-0.36,1.47,0.30,0.40,0.45,1009.66
13.601,0.40,1.18,-0.23,12.13,-0.36,1.47,0.30,0.40,0.45,1009.66
13.618,0.21,0.94,-0.17,12.13,-0.36,1.47,0.30,0.40,0.45,1009.66
13.62,0.21,0.94,-0.17,12.13,-0.36,1.47,0.30,0.40,0.45,1009.82
13.621,0.07,0.97,0.00,12.13,-0.36,1.47,0.30,0.40,0.45,1009.82
13.622,0.07,0.97,0.00,9.10,1.85,3.15,0.30,0.40,0.45,1009.82
13.643,0.04,1.01,0.23,9.10,1.85,3.15,0.30,0.40,0.45,1009.82
13.657,0.04,1.01,0.23,9.10,1.85,3.15,0.30,0.40,0.45,1009.42
13.669,0.11,0.98,0.15,9.10,1.85,3.15,0.30,0.40,0.45,1009.42
13.67,0.11,0.98,0.15,9.10,1.85,3.15,-0.31,0.12,0.20,1009.42
13.689,0.09,0.98,0.07,9.10,1.85,3.15,-0.31,0.12,0.20,1009.42
13.691,0.09,0.98,0.07,2.53,1.77,-2.83,-0.31,0.12,0.20,1009.42
13.71,0.10,1.00,0.10,2.53,1.77,-2.83,-0.31,0.12,0.20,1009.42
13.738,0.10,1.00,0.10,2.53,1.77,-2.83,-0.31,0.12,0.20,1009.34
13.739,0.11,1.00,0.06,2.53,1.77,-2.83,-0.31,0.12,0.20,1009.34
13.74,0.11,1.00,0.06,2.53,1.77,-2.83,-0.09,0.05,0.13,1009.34
13.759,0.09,0.98,0.07,2.53,1.77,-2.83,-0.09,0.05,0.13,1009.34
13.761,0.09,0.99,0.06,2.53,1.77,-2.83,-0.09,0.05,0.13,1009.34
13.761,0.09,0.99,0.06,0.24,0.70,0.72,-0.09,0.05,0.13,1009.34
13.81,0.09,0.99,0.06,0.24,0.70,0.72,-0.07,-0.04,0.05,1009.34
13.811,0.10,0.99,0.07,0.24,0.70,0.72,-0.07,-0.04,0.05,1009.34
13.811,0.07,0.97,0.11,0.24,0.70,0.72,-0.07,-0.04,0.05,1009.34
13.817,0.07,0.97,0.11,0.24,0.70,0.72,-0.07,-0.04,0.05,1009.19
13.83,0.08,0.97,0.10,0.24,0.70,0.72,-0.07,-0.04,0.05,1009.19
13.831,0.08,0.97,0.10,0.25,0.69,-0.08,-0.07,-0.04,0.05,1009.19
13.843,0.08,0.98,0.07,0.25,0.69,-0.08,-0.07,-0.04,0.05,1009.19
13.857,0.08,0.98,0.07,0.25,0.69,-0.08,-0.07,-0.04,0.05,1009.17
13.879,0.08,0.98,0.07,0.25,0.69,-0.08,0.03,-0.11,0.07,1009.17
13.88,0.07,0.98,0.09,0.25,0.69,-0.08,0.03,-0.11,0.07,1009.17
13.9,0.07,0.98,0.09,0.08,0.54,0.21,0.03,-0.11,0.07,1009.17
13.901,0.07,0.97,0.10,0.08,0.54,0.21,0.03,-0.11,0.07,1009.17
13.901,0.09,0.96,0.09,0.08,0.54,0.21,0.03,-0.11,0.07,1009.17
13.938,0.08,0.96,0.09,0.08,0.54,0.21,0.03,-0.11,0.07,1009.17
13.939,0.08,0.96,0.09,0.08,0.54,0.21,0.03,-0.11,0.07,1009.22
13.95,0.07,0.97,0.08,0.08,0.54,0.21,0.03,-0.11,0.07,1009.22
13.95,0.07,0.97,0.08,0.08,0.54,0.21,0.09,-0.17,0.12,1009.22
13.97,0.11,0.99,0.05,0.08,0.54,0.21,0.09,-0.17,0.12,1009.22
13.971,0.11,0.99,0.05,-0.06,0.48,0.28,0.09,-0.17,0.12,1009.22
14.018,0.11,0.99,0.05,-0.06,0.48,0.28,0.09,-0.17,0.12,1009.35
14.02,0.10,1.00,0.03,-0.06,0.48,0.28,0.09,-0.17,0.12,1009.35
14.02,0.09,1.00,0.02,-0.06,0.48,0.28,0.09,-0.17,0.12,1009.35
14.021,0.09,1.00,0.02,-0.06,0.48,0.28,0.05,-0.19,0.16,1009.35
14.04,0.09,1.00,0.02,-0.09,0.53,0.08,0.05,-0.19,0.16,1009.35
14.041,0.07,1.01,0.03,-0.09,0.53,0.08,0.05,-0.19,0.16,1009.35
14.041,0.02,1.04,0.04,-0.09,0.53,0.08,0.05,-0.19,0.16,1009.35
14.057,0.02,1.04,0.04,-0.09,0.53,0.08,0.05,-0.19,0.16,1009.48
14.089,0.02,1.04,0.04,-0.09,0.53,0.08,-0.11,-0.19,0.50,1009.48
14.091,-0.03,1.07,0.00,-0.09,0.53,0.08,-0.11,-0.19,0.50,1009.48
14.091,-0.01,1.08,-0.02,-0.09,0.53,0.08,-0.11,-0.19,0.50,1009.48
14.11,0.01,1.08,-0.01,-0.09,0.53,0.08,-0.11,-0.19,0.50,1009.48
14.111,0.01,1.08,-0.01,-0.73,0.95,-0.37,-0.11,-0.19,0.50,1009.48
14.137,0.01,1.08,-0.01,-0.73,0.95,-0.37,-0.11,-0.19,0.50,1009.65
14.139,-0.03,1.11,0.03,-0.73,0.95,-0.37,-0.11,-0.19,0.50,1009.65
14.16,-0.03,1.11,0.03,-0.73,0.95,-0.37,-0.36,-0.22,1.30,1009.65
14.161,-0.04,1.15,0.02,-0.73,0.95,-0.37,-0.36,-0.22,1.30,1009.65
14.161,-0.07,1.24,-0.05,-0.73,0.95,-0.37,-0.36,-0.22,1.30,1009.65
14.18,-0.14,1.33,-0.04,-0.73,0.95,-0.37,-0.36,-0.22,1.30,1009.65
14.181,-0.14,1.33,-0.04,-2.49,1.82,-0.94,-0.36,-0.22,1.30,1009.65
14.218,-0.30,1.41,0.02,-2.49,1.82,-0.94,-0.36,-0.22,1.30,1009.65
14.219,-0.30,1.41,0.02,-2.49,1.82,-0.94,-0.36,-0.22,1.30,1009.65
14.229,-0.48,1.54,0.01,-2.49,1.82,-0.94,-0.36,-0.22,1.30,1009.65
14.23,-0.48,1.54,0.01,-2.49,1.82,-0.94,-0.58,-0.55,2.95,1009.65
14.243,-0.62,1.60,-0.01,-2.49,1.82,-0.94,-0.58,-0.55,2.95,1009.65
14.25,-0.62,1.60,-0.01,-5.27,4.09,-1.22,-0.58,-0.55,2.95,1009.65
14.257,-0.62,1.60,-0.01,-5.27,4.09,-1.22,-0.58,-0.55,2.95,1009.13
14.3,-0.43,1.65,-0.00,-5.27,4.09,-1.22,-0.58,-0.55,2.95,1009.13
14.301,0.12,1.55,0.39,-5.27,4.09,-1.22,-0.58,-0.55,2.95,1009.13
14.302,0.12,1.55,0.39,-5.27,4.09,-1.22,-0.88,-1.00,5.47,1009.13
14.31,-0.14,1.17,0.61,-5.27,4.09,-1.22,-0.88,-1.00,5.47,1009.13
14.32,-0.43,0.94,0.57,-5.27,4.09,-1.22,-0.88,-1.00,5.47,1009.13
14.321,-0.43,0.94,0.57,-11.85,9.56,-0.90,-0.88,-1.00,5.47,1009.13
14.342,-0.43,0.94,0.57,-11.85,9.56,-0.90,-0.88,-1.00,5.47,1008.46
14.375,-0.13,0.23,0.13,-11.85,9.56,-0.90,-0.88,-1.00,5.47,1008.46
14.376,2.75,0.85,0.32,-11.85,9.56,-0.90,-0.88,-1.00,5.47,1008.46
14.377,2.75,0.85,0.32,-11.85,9.56,-0.90,-0.29,-1.10,4.00,1008.46
14.394,0.90,0.46,0.44,-11.85,9.56,-0.90,-0.29,-1.10,4.00,1008.46
14.395,0.90,0.46,0.44,-9.26,7.67,3.76,-0.29,-1.10,4.00,1008.46
14.419,-0.10,0.48,0.20,-9.26,7.67,3.76,-0.29,-1.10,4.00,1008.46
14.419,-0.10,0.48,0.20,-9.26,7.67,3.76,-0.29,-1.10,4.00,1008.79
14.441,-0.10,0.48,0.20,-9.26,7.67,3.76,0.04,0.28,-2.51,1008.79
14.442,-0.48,0.47,-0.16,-9.26,7.67,3.76,0.04,0.28,-2.51,1008.79
14.443,-0.19,0.50,-0.07,-9.26,7.67,3.76,0.04,0.28,-2.51,1008.79
14.458,-0.19,0.50,-0.07,-9.26,7.67,3.76,0.04,0.28,-2.51,1009.06
14.46,0.29,0.43,0.08,-9.26,7.67,3.76,0.04,0.28,-2.51,1009.06
14.461,0.29,0.43,0.08,3.29,-1.10,1.97,0.04,0.28,-2.51,1009.06
14.51,0.29,0.43,0.08,3.29,-1.10,1.97,-0.20,0.32,-3.69,1009.06
14.511,0.57,0.43,0.07,3.29,-1.10,1.97,-0.20,0.32,-3.69,1009.06
14.512,0.44,0.49,-0.04,3.29,-1.10,1.97,-0.20,0.32,-3.69,1009.06
14.53,0.44,0.49,-0.04,-5.81,-3.16,-1.34,-0.20,0.32,-3.69,1009.06
14.531,0.25,0.59,-0.08,-5.81,-3.16,-1.34,-0.20,0.32,-3.69,1009.06
14.537,0.25,0.59,-0.08,-5.81,-3.16,-1.34,-0.20,0.32,-3.69,1009.12
14.576,0.26,0.67,-0.03,-5.81,-3.16,-1.34,-0.20,0.32,-3.69,1009.12
14.577,0.38,0.81,-0.09,-5.81,-3.16,-1.34,-0.20,0.32,-3.69,1009.12
14.58,0.38,0.81,-0.09,-5.81,-3.16,-1.34,0.25,0.56,-4.46,1009.12
14.6,0.38,0.81,-0.09,2.00,-3.50,-1.20,0.25,0.56,-4.46,1009.12
14.601,0.41,0.96,-0.20,2.00,-3.50,-1.20,0.25,0.56,-4.46,1009.12
14.602,0.36,1.04,-0.21,2.00,-3.50,-1.20,0.25,0.56,-4.46,1009.12
14.618,0.36,1.04,-0.21,2.00,-3.50,-1.20,0.25,0.56,-4.46,1009.22
14.643,0.39,1.12,-0.19,2.00,-3.50,-1.20,0.25,0.56,-4.46,1009.22
14.644,0.47,1.20,-0.19,2.00,-3.50,-1.20,0.25,0.56,-4.46,1009.22
14.65,0.47,1.20,-0.19,2.00,-3.50,-1.20,0.52,0.91,-4.04,1009.22
14.657,0.47,1.20,-0.19,2.00,-3.50,-1.20,0.52,0.91,-4.04,1009.15
14.67,0.55,1.28,-0.21,2.00,-3.50,-1.20,0.52,0.91,-4.04,1009.15
14.671,0.55,1.28,-0.21,4.02,-0.03,-2.06,0.52,0.91,-4.04,1009.15
14.71,0.44,1.41,-0.10,4.02,-0.03,-2.06,0.52,0.91,-4.04,1009.15
14.712,0.72,1.36,0.20,4.02,-0.03,-2.06,0.52,0.91,-4.04,1009.15
14.721,0.72,1.36,0.20,4.02,-0.03,-2.06,0.81,0.44,-1.55,1009.15
14.722,1.67,1.03,0.39,4.02,-0.03,-2.06,0.81,0.44,-1.55,1009.15
14.738,1.67,1.03,0.39,4.02,-0.03,-2.06,0.81,0.44,-1.55,1009.28
14.74,2.12,0.81,0.47,4.02,-0.03,-2.06,0.81,0.44,-1.55,1009.28
14.74,2.12,0.81,0.47,5.33,3.10,-1.98,0.81,0.44,-1.55,1009.28
14.777,1.88,0.69,0.43,5.33,3.10,-1.98,0.81,0.44,-1.55,1009.28
14.795,1.88,0.69,0.43,5.33,3.10,-1.98,-0.01,-0.67,0.66,1009.28
14.796,1.44,1.39,0.96,5.33,3.10,-1.98,-0.01,-0.67,0.66,1009.28
14.81,3.79,0.45,1.07,5.33,3.10,-1.98,-0.01,-0.67,0.66,1009.28
14.811,3.79,0.45,1.07,13.48,2.02,2.66,-0.01,-0.67,0.66,1009.28
14.817,3.79,0.45,1.07,13.48,2.02,2.66,-0.01,-0.67,0.66,1009.33
14.843,-2.03,1.45,-1.09,13.48,2.02,2.66,-0.01,-0.67,0.66,1009.33
14.844,0.57,1.14,-0.04,13.48,2.02,2.66,-0.01,-0.67,0.66,1009.33
14.858,0.57,1.14,-0.04,13.48,2.02,2.66,-0.01,-0.67,0.66,1009.81
14.86,0.57,1.14,-0.04,13.48,2.02,2.66,0.01,0.36,0.16,1009.81
14.881,0.57,1.14,-0.04,18.52,0.55,5.70,0.01,0.36,0.16,1009.81
14.882,-0.13,0.92,-0.26,18.52,0.55,5.70,0.01,0.36,0.16,1009.81
14.883,0.52,1.00,0.09,18.52,0.55,5.70,0.01,0.36,0.16,1009.81
14.91,-0.07,0.98,0.12,18.52,0.55,5.70,0.01,0.36,0.16,1009.81
14.93,-0.07,0.98,0.12,18.52,0.55,5.70,-0.32,0.13,0.24,1009.81
14.931,0.15,1.00,0.06,18.52,0.55,5.70,-0.32,0.13,0.24,1009.81
14.937,0.15,1.00,0.06,18.52,0.55,5.70,-0.32,0.13,0.24,1009.55
14.951,0.15,1.00,0.06,-2.45,1.24,-3.48,-0.32,0.13,0.24,1009.55
14.952,0.05,0.94,0.23,-2.45,1.24,-3.48,-0.32,0.13,0.24,1009.55
14.976,0.09,1.01,0.04,-2.45,1.24,-3.48,-0.32,0.13,0.24,1009.55
15.0,0.09,1.01,0.04,-2.45,1.24,-3.48,-0.03,0.06,0.13,1009.55
15.002,0.07,1.02,0.03,-2.45,1.24,-3.48,-0.03,0.06,0.13,1009.55
15.017,0.07,0.98,0.07,-2.45,1.24,-3.48,-0.03,0.06,0.13,1009.55
15.018,0.07,0.98,0.07,-2.45,1.24,-3.48,-0.03,0.06,0.13,1009.46
15.022,0.08,0.98,0.07,-2.45,1.24,-3.48,-0.03,0.06,0.13,1009.46
15.023,0.08,0.98,0.07,-0.03,0.61,0.65,-0.03,0.06,0.13,1009.46
15.043,0.08,1.01,0.04,-0.03,0.61,0.65,-0.03,0.06,0.13,1009.46
15.057,0.08,1.01,0.04,-0.03,0.61,0.65,-0.03,0.06,0.13,1009.40
15.071,0.10,0.99,0.05,-0.03,0.61,0.65,-0.03,0.06,0.13,1009.40
15.072,0.10,0.99,0.05,-0.03,0.61,0.65,-0.00,-0.00,0.07,1009.40
15.091,0.10,0.99,0.05,0.20,0.78,-0.07,-0.00,-0.00,0.07,1009.40
15.091,0.08,0.97,0.08,0.20,0.78,-0.07,-0.00,-0.00,0.07,1009.40
15.111,0.07,0.97,0.08,0.20,0.78,-0.07,-0.00,-0.00,0.07,1009.40
15.138,0.07,0.97,0.08,0.20,0.78,-0.07,-0.00,-0.00,0.07,1009.31
15.14,0.06,0.97,0.07,0.20,0.78,-0.07,-0.00,-0.00,0.07,1009.31
15.14,0.06,0.97,0.07,0.20,0.78,-0.07,0.07,-0.05,0.04,1009.31
15.16,0.08,0.97,0.06,0.20,0.78,-0.07,0.07,-0.05,0.04,1009.31
15.161,0.07,0.96,0.08,0.20,0.78,-0.07,0.07,-0.05,0.04,1009.31
15.162,0.07,0.96,0.08,0.23,0.66,0.13,0.07,-0.05,0.04,1009.31
15.21,0.05,0.97,0.07,0.23,0.66,0.13,0.07,-0.05,0.04,1009.31
15.212,0.06,0.98,0.04,0.23,0.66,0.13,0.07,-0.05,0.04,1009.31
15.212,0.06,0.98,0.04,0.23,0.66,0.13,0.15,-0.11,0.08,1009.31
15.217,0.06,0.98,0.04,0.23,0.66,0.13,0.15,-0.11,0.08,1009.30
15.23,0.06,0.98,0.04,0.03,0.49,0.31,0.15,-0.11,0.08,1009.30
15.231,0.06,0.99,0.02,0.03,0.49,0.31,0.15,-0.11,0.08,1009.30
15.243,0.08,0.98,0.02,0.03,0.49,0.31,0.15,-0.11,0.08,1009.30
15.257,0.08,0.98,0.02,0.03,0.49,0.31,0.15,-0.11,0.08,1009.31
15.28,0.08,0.98,0.02,0.03,0.49,0.31,0.16,-0.09,0.16,1009.31
15.281,0.09,0.99,0.03,0.03,0.49,0.31,0.16,-0.09,0.16,1009.31
15.304,0.07,0.99,0.05,0.03,0.49,0.31,0.16,-0.09,0.16,1009.31
15.305,0.05,1.01,0.02,0.03,0.49,0.31,0.16,-0.09,0.16,1009.31
15.306,0.05,1.01,0.02,-0.19,0.60,0.11,0.16,-0.09,0.16,1009.31
15.338,0.05,1.03,-0.02,-0.19,0.60,0.11,0.16,-0.09,0.16,1009.31
15.339,0.05,1.03,-0.02,-0.19,0.60,0.11,0.16,-0.09,0.16,1009.34
15.35,-0.04,1.07,-0.02,-0.19,0.60,0.11,0.16,-0.09,0.16,1009.34
15.35,-0.04,1.07,-0.02,-0.19,0.60,0.11,0.15,-0.15,0.34,1009.34
15.375,-0.04,1.07,-0.02,-0.42,0.72,0.10,0.15,-0.15,0.34,1009.34
15.377,-0.07,1.09,-0.04,-0.42,0.72,0.10,0.15,-0.15,0.34,1009.34
15.418,-0.04,1.10,-0.08,-0.42,0.72,0.10,0.15,-0.15,0.34,1009.34
15.419,-0.03,1.14,-0.08,-0.42,0.72,0.10,0.15,-0.15,0.34,1009.34
15.42,-0.03,1.14,-0.08,-0.42,0.72,0.10,0.15,-0.15,0.34,1009.42
15.421,-0.03,1.14,-0.08,-0.42,0.72,0.10,-0.10,-0.05,1.12,1009.42
15.44,-0.08,1.20,-0.03,-0.42,0.72,0.10,-0.10,-0.05,1.12,1009.42
15.442,-0.14,1.30,-0.03,-0.42,0.72,0.10,-0.10,-0.05,1.12,1009.42
15.442,-0.14,1.30,-0.03,-2.20,1.59,-0.62,-0.10,-0.05,1.12,1009.42
15.457,-0.14,1.30,-0.03,-2.20,1.59,-0.62,-0.10,-0.05,1.12,1009.59
15.493,-0.14,1.30,-0.03,-2.20,1.59,-0.62,-0.19,-0.22,2.63,1009.59
15.496,-0.25,1.39,-0.01,-2.20,1.59,-0.62,-0.19,-0.22,2.63,1009.59
15.496,-0.39,1.47,-0.03,-2.20,1.59,-0.62,-0.19,-0.22,2.63,1009.59
15.512,-0.53,1.50,-0.02,-2.20,1.59,-0.62,-0.19,-0.22,2.63,1009.59
15.514,-0.53,1.50,-0.02,-4.62,3.51,-0.82,-0.19,-0.22,2.63,1009.59
15.537,-0.59,1.50,-0.01,-4.62,3.51,-0.82,-0.19,-0.22,2.63,1009.59
15.539,-0.59,1.50,-0.01,-4.62,3.51,-0.82,-0.19,-0.22,2.63,1009.40
15.56,-0.59,1.50,-0.01,-4.62,3.51,-0.82,-0.42,-0.90,5.16,1009.40
15.562,-0.33,1.42,0.13,-4.62,3.51,-0.82,-0.42,-0.90,5.16,1009.40
15.576,0.10,1.27,0.48,-4.62,3.51,-0.82,-0.42,-0.90,5.16,1009.40
15.58,-0.16,1.04,0.71,-4.62,3.51,-0.82,-0.42,-0.90,5.16,1009.40
15.581,-0.16,1.04,0.71,-10.72,8.13,-0.29,-0.42,-0.90,5.16,1009.40
15.618,-0.06,0.78,0.41,-10.72,8.13,-0.29,-0.42,-0.90,5.16,1009.40
15.619,-0.06,0.78,0.41,-10.72,8.13,-0.29,-0.42,-0.90,5.16,1008.80
15.631,-0.06,0.78,0.41,-10.72,8.13,-0.29,0.40,-0.69,5.24,1008.80
15.633,1.09,0.39,0.07,-10.72,8.13,-0.29,0.40,-0.69,5.24,1008.80
15.643,2.49,1.16,0.18,-10.72,8.13,-0.29,0.40,-0.69,5.24,1008.80
15.65,2.49,1.16,0.18,-9.55,7.72,3.79,0.40,-0.69,5.24,1008.80
15.662,2.49,1.16,0.18,-9.55,7.72,3.79,0.40,-0.69,5.24,1008.57
15.7,2.49,1.16,0.18,-9.55,7.72,3.79,-0.23,0.72,-1.88,1008.57
15.701,0.21,0.53,0.32,-9.55,7.72,3.79,-0.23,0.72,-1.88,1008.57
15.702,-0.48,0.49,-0.01,-9.55,7.72,3.79,-0.23,0.72,-1.88,1008.57
15.71,-0.62,0.49,-0.03,-9.55,7.72,3.79,-0.23,0.72,-1.88,1008.57
15.722,-0.62,0.49,-0.03,3.54,1.44,1.79,-0.23,0.72,-1.88,1008.57
15.723,-0.14,0.40,0.21,3.54,1.44,1.79,-0.23,0.72,-1.88,1008.57
15.739,-0.14,0.40,0.21,3.54,1.44,1.79,-0.23,0.72,-1.88,1008.96
15.778,-0.14,0.40,0.21,3.54,1.44,1.79,-0.55,0.06,-2.62,1008.96
15.779,0.43,0.46,0.24,3.54,1.44,1.79,-0.55,0.06,-2.62,1008.96
15.78,0.72,0.56,0.12,3.54,1.44,1.79,-0.55,0.06,-2.62,1008.96
15.797,0.72,0.56,0.12,-8.75,-2.54,0.30,-0.55,0.06,-2.62,1008.96
15.798,0.54,0.60,0.00,-8.75,-2.54,0.30,-0.55,0.06,-2.62,1008.96
15.817,0.27,0.67,-0.06,-8.75,-2.54,0.30,-0.55,0.06,-2.62,1008.96
15.818,0.27,0.67,-0.06,-8.75,-2.54,0.30,-0.55,0.06,-2.62,1009.08
15.84,0.30,0.74,-0.01,-8.75,-2.54,0.30,-0.55,0.06,-2.62,1009.08
15.842,0.30,0.74,-0.01,-8.75,-2.54,0.30,-0.37,0.54,-4.30,1009.08
15.842,0.45,0.84,-0.03,-8.75,-2.54,0.30,-0.37,0.54,-4.30,1009.08
15.857,0.45,0.84,-0.03,-8.75,-2.54,0.30,-0.37,0.54,-4.30,1009.16
15.86,0.46,0.97,-0.15,-8.75,-2.54,0.30,-0.37,0.54,-4.30,1009.16
15.861,0.46,0.97,-0.15,2.25,-2.92,-0.10,-0.37,0.54,-4.30,1009.16
15.91,0.37,1.05,-0.16,2.25,-2.92,-0.10,-0.37,0.54,-4.30,1009.16
15.911,0.36,1.12,-0.11,2.25,-2.92,-0.10,-0.37,0.54,-4.30,1009.16
15.911,0.36,1.12,-0.11,2.25,-2.92,-0.10,0.03,0.99,-3.98,1009.16
15.931,0.29,1.15,-0.10,2.25,-2.92,-0.10,0.03,0.99,-3.98,1009.16
15.932,0.29,1.15,-0.10,3.16,-0.71,-1.61,0.03,0.99,-3.98,1009.16
15.938,0.29,1.15,-0.10,3.16,-0.71,-1.61,0.03,0.99,-3.98,1009.18
15.979,0.13,1.22,-0.17,3.16,-0.71,-1.61,0.03,0.99,-3.98,1009.18
15.98,0.30,1.40,-0.19,3.16,-0.71,-1.61,0.03,0.99,-3.98,1009.18
15.98,0.30,1.40,-0.19,3.16,-0.71,-1.61,0.29,-0.03,-2.67,1009.18
16.001,1.10,1.42,-0.04,3.16,-0.71,-1.61,0.29,-0.03,-2.67,1009.18
16.002,1.90,1.10,0.17,3.16,-0.71,-1.61,0.29,-0.03,-2.67,1009.18
16.003,1.90,1.10,0.17,3.75,2.13,-2.06,0.29,-0.03,-2.67,1009.18
16.017,1.90,1.10,0.17,3.75,2.13,-2.06,0.29,-0.03,-2.67,1009.24
16.043,2.16,0.73,0.25,3.75,2.13,-2.06,0.29,-0.03,-2.67,1009.24
16.044,1.65,0.54,0.22,3.75,2.13,-2.06,0.29,-0.03,-2.67,1009.24
16.05,1.65,0.54,0.22,3.75,2.13,-2.06,0.52,0.41,-0.98,1009.24
16.057,1.65,0.54,0.22,3.75,2.13,-2.06,0.52,0.41,-0.98,1009.37
16.071,1.66,0.44,0.18,3.75,2.13,-2.06,0.52,0.41,-0.98,1009.37
16.072,1.66,0.44,0.18,9.91,3.75,-0.96,0.52,0.41,-0.98,1009.37
16.11,1.41,0.90,0.75,9.91,3.75,-0.96,0.52,0.41,-0.98,1009.37
16.111,1.97,1.79,-0.04,9.91,3.75,-0.96,0.52,0.41,-0.98,1009.37
16.12,1.97,1.79,-0.04,9.91,3.75,-0.96,-0.03,0.89,1.14,1009.37
16.138,-1.65,1.26,-0.36,9.91,3.75,-0.96,-0.03,0.89,1.14,1009.37
16.139,-1.65,1.26,-0.36,9.91,3.75,-0.96,-0.03,0.89,1.14,1009.51
16.141,0.95,1.40,-0.61,9.91,3.75,-0.96,-0.03,0.89,1.14,1009.51
16.142,0.95,1.40,-0.61,17.66,-3.49,1.70,-0.03,0.89,1.14,1009.51
16.178,0.15,0.99,-0.16,17.66,-3.49,1.70,-0.03,0.89,1.14,1009.51
16.199,0.15,0.99,-0.16,17.66,-3.49,1.70,-0.17,0.15,0.21,1009.51
16.2,0.16,1.02,-0.06,17.66,-3.49,1.70,-0.17,0.15,0.21,1009.51
16.211,0.16,1.02,-0.06,4.56,5.39,-1.66,-0.17,0.15,0.21,1009.51
16.212,0.00,0.99,0.24,4.56,5.39,-1.66,-0.17,0.15,0.21,1009.51
16.217,0.00,0.99,0.24,4.56,5.39,-1.66,-0.17,0.15,0.21,1009.63
16.244,0.03,0.98,0.12,4.56,5.39,-1.66,-0.17,0.15,0.21,1009.63
16.245,0.09,0.97,0.13,4.56,5.39,-1.66,-0.17,0.15,0.21,1009.63
16.258,0.09,0.97,0.13,4.56,5.39,-1.66,-0.17,0.15,0.21,1009.38
16.261,0.09,0.97,0.13,4.56,5.39,-1.66,-0.19,0.03,0.16,1009.38
16.281,0.09,0.97,0.13,0.41,0.79,-0.57,-0.19,0.03,0.16,1009.38
16.282,0.09,0.97,0.15,0.41,0.79,-0.57,-0.19,0.03,0.16,1009.38
16.283,0.08,0.98,0.09,0.41,0.79,-0.57,-0.19,0.03,0.16,1009.38
16.309,0.09,0.98,0.08,0.41,0.79,-0.57,-0.19,0.03,0.16,1009.38
16.331,0.08,0.98,0.09,0.41,0.79,-0.57,-0.19,0.03,0.16,1009.38
16.332,0.08,0.98,0.09,0.41,0.79,-0.57,-0.03,-0.01,0.06,1009.38
16.338,0.08,0.98,0.09,0.41,0.79,-0.57,-0.03,-0.01,0.06,1009.29
16.352,0.08,0.98,0.09,0.27,0.59,0.56,-0.03,-0.01,0.06,1009.29
16.353,0.07,0.99,0.08,0.27,0.59,0.56,-0.03,-0.01,0.06,1009.29
16.378,0.07,0.98,0.09,0.27,0.59,0.56,-0.03,-0.01,0.06,1009.29
16.402,0.06,0.99,0.08,0.27,0.59,0.56,-0.03,-0.01,0.06,1009.29
16.402,0.06,0.99,0.08,0.27,0.59,0.56,-0.00,-0.07,0.02,1009.29
16.418,0.05,1.00,0.07,0.27,0.59,0.56,-0.00,-0.07,0.02,1009.29
16.42,0.05,1.00,0.07,0.27,0.59,0.56,-0.00,-0.07,0.02,1009.28
16.421,0.02,0.99,0.12,0.27,0.59,0.56,-0.00,-0.07,0.02,1009.28
16.421,0.02,0.99,0.12,0.25,0.62,0.10,-0.00,-0.07,0.02,1009.28
16.444,0.02,0.97,0.13,0.25,0.62,0.10,-0.00,-0.07,0.02,1009.28
16.458,0.02,0.97,0.13,0.25,0.62,0.10,-0.00,-0.07,0.02,1009.27
16.472,0.05,0.98,0.07,0.25,0.62,0.10,-0.00,-0.07,0.02,1009.27
16.472,0.05,0.98,0.07,0.25,0.62,0.10,0.12,-0.16,0.12,1009.27
16.496,0.05,0.98,0.07,-0.17,0.69,0.26,0.12,-0.16,0.12,1009.27
16.497,0.07,0.98,0.05,-0.17,0.69,0.26,0.12,-0.16,0.12,1009.27
16.516,0.08,0.99,0.05,-0.17,0.69,0.26,0.12,-0.16,0.12,1009.27
16.539,0.08,0.99,0.05,-0.17,0.69,0.26,0.12,-0.16,0.12,1009.28
16.54,0.09,0.99,0.03,-0.17,0.69,0.26,0.12,-0.16,0.12,1009.28
16.54,0.09,0.99,0.03,-0.17,0.69,0.26,0.10,-0.16,0.18,1009.28
16.562,0.09,0.99,0.03,-0.26,0.58,0.20,0.10,-0.16,0.18,1009.28
16.563,0.08,0.98,0.05,-0.26,0.58,0.20,0.10,-0.16,0.18,1009.28
16.563,0.07,0.98,0.07,-0.26,0.58,0.20,0.10,-0.16,0.18,1009.28
16.611,0.07,0.98,0.07,-0.26,0.58,0.20,0.03,-0.19,0.27,1009.28
16.612,0.05,0.99,0.06,-0.26,0.58,0.20,0.03,-0.19,0.27,1009.28
16.613,0.05,1.02,0.02,-0.26,0.58,0.20,0.03,-0.19,0.27,1009.28
16.617,0.05,1.02,0.02,-0.26,0.58,0.20,0.03,-0.19,0.27,1009.32
16.632,0.05,1.02,0.02,-0.21,0.65,-0.06,0.03,-0.19,0.27,1009.32
16.633,-0.00,1.05,0.03,-0.21,0.65,-0.06,0.03,-0.19,0.27,1009.32
16.643,-0.03,1.06,0.04,-0.21,0.65,-0.06,0.03,-0.19,0.27,1009.32
16.659,-0.03,1.06,0.04,-0.21,0.65,-0.06,0.03,-0.19,0.27,1009.49
16.681,-0.03,1.06,0.04,-0.21,0.65,-0.06,-0.09,-0.19,0.76,1009.49
16.682,-0.03,1.06,0.04,-0.21,0.65,-0.06,-0.09,-0.19,0.76,1009.49
16.701,-0.03,1.06,0.04,-1.35,1.13,-0.28,-0.09,-0.19,0.76,1009.49
16.702,-0.02,1.11,-0.01,-1.35,1.13,-0.28,-0.09,-0.19,0.76,1009.49
16.702,-0.03,1.15,-0.02,-1.35,1.13,-0.28,-0.09,-0.19,0.76,1009.49
16.739,-0.03,1.15,-0.02,-1.35,1.13,-0.28,-0.09,-0.19,0.76,1009.64
16.74,-0.07,1.23,-0.03,-1.35,1.13,-0.28,-0.09,-0.19,0.76,1009.64
16.741,-0.18,1.35,-0.02,-1.35,1.13,-0.28,-0.09,-0.19,0.76,1009.64
16.752,-0.18,1.35,-0.02,-1.35,1.13,-0.28,-0.29,-0.12,1.79,1009.64
16.771,-0.18,1.35,-0.02,-3.22,2.22,-0.70,-0.29,-0.12,1.79,1009.64
16.773,-0.38,1.44,0.07,-3.22,2.22,-0.70,-0.29,-0.12,1.79,1009.64
16.817,-0.38,1.44,0.07,-3.22,2.22,-0.70,-0.29,-0.12,1.79,1009.61
16.819,-0.58,1.60,-0.00,-3.22,2.22,-0.70,-0.29,-0.12,1.79,1009.61
16.819,-0.75,1.66,-0.00,-3.22,2.22,-0.70,-0.29,-0.12,1.79,1009.61
16.82,-0.75,1.66,-0.00,-3.22,2.22,-0.70,-0.56,-0.78,4.29,1009.61
16.844,-0.75,1.66,-0.00,-8.23,6.39,-0.78,-0.56,-0.78,4.29,1009.61
16.845,-0.62,1.66,0.00,-8.23,6.39,-0.78,-0.56,-0.78,4.29,1009.61
16.846,-0.10,1.42,0.44,-8.23,6.39,-0.78,-0.56,-0.78,4.29,1009.61
16.859,-0.10,1.42,0.44,-8.23,6.39,-0.78,-0.56,-0.78,4.29,1009.11
16.898,-0.10,1.42,0.44,-8.23,6.39,-0.78,-0.26,-1.39,6.47,1009.11
16.898,-0.20,1.01,0.73,-8.23,6.39,-0.78,-0.26,-1.39,6.47,1009.11
16.899,-0.31,0.85,0.51,-8.23,6.39,-0.78,-0.26,-1.39,6.47,1009.11
16.917,-0.02,0.25,-0.02,-8.23,6.39,-0.78,-0.26,-1.39,6.47,1009.11
16.918,-0.02,0.25,-0.02,-12.92,11.39,0.93,-0.26,-1.39,6.47,1009.11
16.937,2.64,0.83,0.20,-12.92,11.39,0.93,-0.26,-1.39,6.47,1009.11
16.938,2.64,0.83,0.20,-12.92,11.39,0.93,-0.26,-1.39,6.47,1008.49
16.961,1.38,0.38,0.51,-12.92,11.39,0.93,-0.26,-1.39,6.47,1008.49
16.962,1.38,0.38,0.51,-12.92,11.39,0.93,0.09,-0.18,0.21,1008.49
16.976,0.17,0.34,0.28,-12.92,11.39,0.93,0.09,-0.18,0.21,1008.49
16.982,0.17,0.34,0.28,-6.02,1.39,3.04,0.09,-0.18,0.21,1008.49
16.983,-0.50,0.40,-0.21,-6.02,1.39,3.04,0.09,-0.18,0.21,1008.49
17.019,-0.50,0.47,-0.01,-6.02,1.39,3.04,0.09,-0.18,0.21,1008.49
17.019,-0.50,0.47,-0.01,-6.02,1.39,3.04,0.09,-0.18,0.21,1008.84
17.031,-0.50,0.47,-0.01,-6.02,1.39,3.04,0.04,0.52,-2.94,1008.84
17.032,-0.06,0.43,0.24,-6.02,1.39,3.04,0.04,0.52,-2.94,1008.84
17.043,0.54,0.45,0.28,-6.02,1.39,3.04,0.04,0.52,-2.94,1008.84
17.052,0.54,0.45,0.28,1.88,-2.09,1.62,0.04,0.52,-2.94,1008.84
17.059,0.54,0.45,0.28,1.88,-2.09,1.62,0.04,0.52,-2.94,1009.07
17.101,0.54,0.45,0.28,1.88,-2.09,1.62,0.22,-0.05,-4.05,1009.07
17.102,0.64,0.52,0.15,1.88,-2.09,1.62,0.22,-0.05,-4.05,1009.07
17.103,0.49,0.62,0.10,1.88,-2.09,1.62,0.22,-0.05,-4.05,1009.07
17.119,0.46,0.71,0.14,1.88,-2.09,1.62,0.22,-0.05,-4.05,1009.07
17.122,0.46,0.71,0.14,-2.72,-3.59,1.19,0.22,-0.05,-4.05,1009.07
17.122,0.52,0.77,0.22,-2.72,-3.59,1.19,0.22,-0.05,-4.05,1009.07
17.138,0.52,0.77,0.22,-2.72,-3.59,1.19,0.22,-0.05,-4.05,1009.16
17.172,0.55,0.88,0.07,-2.72,-3.59,1.19,0.22,-0.05,-4.05,1009.16
17.173,0.49,1.04,-0.08,-2.72,-3.59,1.19,0.22,-0.05,-4.05,1009.16
17.174,0.49,1.04,-0.08,-2.72,-3.59,1.19,0.46,1.23,-3.99,1009.16
17.198,0.45,1.04,0.08,-2.72,-3.59,1.19,0.46,1.23,-3.99,1009.16
17.199,0.45,1.04,0.08,3.64,-2.07,0.97,0.46,1.23,-3.99,1009.16
17.218,0.47,1.09,0.09,3.64,-2.07,0.97,0.46,1.23,-3.99,1009.16
17.22,0.47,1.09,0.09,3.64,-2.07,0.97,0.46,1.23,-3.99,1009.24
17.242,0.47,1.09,0.09,3.64,-2.07,0.97,0.30,2.20,-3.60,1009.24
17.243,0.53,1.22,-0.03,3.64,-2.07,0.97,0.30,2.20,-3.60,1009.24
17.244,0.63,1.35,-0.04,3.64,-2.07,0.97,0.30,2.20,-3.60,1009.24
17.258,0.63,1.35,-0.04,3.64,-2.07,0.97,0.30,2.20,-3.60,1009.15
17.261,0.94,1.34,0.27,3.64,-2.07,0.97,0.30,2.20,-3.60,1009.15
17.262,0.94,1.34,0.27,5.44,0.96,-0.02,0.30,2.20,-3.60,1009.15
17.282,1.60,1.10,0.42,5.44,0.96,-0.02,0.30,2.20,-3.60,1009.15
17.31,1.75,0.81,0.43,5.44,0.96,-0.02,0.30,2.20,-3.60,1009.15
17.311,1.75,0.81,0.43,5.44,0.96,-0.02,0.22,1.23,-1.46,1009.15
17.331,1.75,0.81,0.43,7.51,3.69,0.28,0.22,1.23,-1.46,1009.15
17.332,1.67,0.63,0.24,7.51,3.69,0.28,0.22,1.23,-1.46,1009.15
17.338,1.67,0.63,0.24,7.51,3.69,0.28,0.22,1.23,-1.46,1009.34
17.378,1.62,0.44,0.17,7.51,3.69,0.28,0.22,1.23,-1.46,1009.34
17.379,1.01,0.96,1.58,7.51,3.69,0.28,0.22,1.23,-1.46,1009.34
17.381,1.01,0.96,1.58,7.51,3.69,0.28,-0.18,0.13,0.98,1009.34
17.402,1.01,0.96,1.58,16.27,-1.07,2.88,-0.18,0.13,0.98,1009.34
17.403,0.36,1.54,-1.48,16.27,-1.07,2.88,-0.18,0.13,0.98,1009.34
17.404,0.51,1.41,0.37,16.27,-1.07,2.88,-0.18,0.13,0.98,1009.34
17.42,0.51,1.41,0.37,16.27,-1.07,2.88,-0.18,0.13,0.98,1009.37
17.444,-0.03,1.22,-1.20,16.27,-1.07,2.88,-0.18,0.13,0.98,1009.37
17.445,0.45,1.06,-0.11,16.27,-1.07,2.88,-0.18,0.13,0.98,1009.37
17.452,0.45,1.06,-0.11,16.27,-1.07,2.88,-0.19,0.39,0.56,1009.37
17.458,0.45,1.06,-0.11,16.27,-1.07,2.88,-0.19,0.39,0.56,1009.57
17.472,0.45,1.06,-0.11,7.12,2.65,1.01,-0.19,0.39,0.56,1009.57
17.473,-0.07,0.92,0.27,7.12,2.65,1.01,-0.19,0.39,0.56,1009.57
17.51,0.08,0.94,0.19,7.12,2.65,1.01,-0.19,0.39,0.56,1009.57
17.511,0.11,0.96,0.15,7.12,2.65,1.01,-0.19,0.39,0.56,1009.57
17.521,0.11,0.96,0.15,7.12,2.65,1.01,-0.17,0.05,0.17,1009.57
17.538,0.09,0.96,0.14,7.12,2.65,1.01,-0.17,0.05,0.17,1009.57
17.539,0.09,0.96,0.14,7.12,2.65,1.01,-0.17,0.05,0.17,1009.39
17.542,0.09,0.96,0.14,0.68,1.39,-3.14,-0.17,0.05,0.17,1009.39
17.543,0.07,0.97,0.13,0.68,1.39,-3.14,-0.17,0.05,0.17,1009.39
17.577,0.07,1.02,0.02,0.68,1.39,-3.14,-0.17,0.05,0.17,1009.39
17.592,0.09,1.02,0.01,0.68,1.39,-3.14,-0.17,0.05,0.17,1009.39
17.592,0.09,1.02,0.01,0.68,1.39,-3.14,0.03,0.02,0.09,1009.39
17.612,0.09,1.02,0.01,0.28,0.50,0.83,0.03,0.02,0.09,1009.39
17.613,0.06,1.00,0.08,0.28,0.50,0.83,0.03,0.02,0.09,1009.39
17.618,0.06,1.00,0.08,0.28,0.50,0.83,0.03,0.02,0.09,1009.38
17.643,0.06,0.98,0.10,0.28,0.50,0.83,0.03,0.02,0.09,1009.38
17.644,0.07,0.98,0.07,0.28,0.50,0.83,0.03,0.02,0.09,1009.38
17.657,0.07,0.98,0.07,0.28,0.50,0.83,0.03,0.02,0.09,1009.29
17.661,0.07,0.98,0.07,0.28,0.50,0.83,0.09,-0.02,0.08,1009.29
17.682,0.07,0.98,0.07,0.13,0.95,-0.04,0.09,-0.02,0.08,1009.29
17.683,0.08,0.98,0.04,0.13,0.95,-0.04,0.09,-0.02,0.08,1009.29
17.683,0.07,0.97,0.05,0.13,0.95,-0.04,0.09,-0.02,0.08,1009.29
17.71,0.05,0.97,0.09,0.13,0.95,-0.04,0.09,-0.02,0.08,1009.29
17.732,0.07,0.96,0.08,0.13,0.95,-0.04,0.09,-0.02,0.08,1009.29
17.733,0.07,0.96,0.08,0.13,0.95,-0.04,0.16,-0.02,0.12,1009.29
17.737,0.07,0.96,0.08,0.13,0.95,-0.04,0.16,-0.02,0.12,1009.23
17.752,0.07,0.96,0.08,0.13,0.95,-0.04,0.16,-0.02,0.12,1009.23
17.753,0.07,0.96,0.08,0.05,0.66,0.25,0.16,-0.02,0.12,1009.23
17.777,0.06,0.96,0.09,0.05,0.66,0.25,0.16,-0.02,0.12,1009.23
17.805,0.06,0.96,0.09,0.05,0.66,0.25,0.28,-0.06,0.18,1009.23
17.806,0.08,0.98,0.03,0.05,0.66,0.25,0.28,-0.06,0.18,1009.23
17.82,0.11,0.99,-0.00,0.05,0.66,0.25,0.28,-0.06,0.18,1009.23
17.821,0.11,0.99,-0.00,0.05,0.66,0.25,0.28,-0.06,0.18,1009.28
17.822,0.09,0.99,0.01,0.05,0.66,0.25,0.28,-0.06,0.18,1009.28
17.822,0.09,0.99,0.01,-0.17,0.50,0.66,0.28,-0.06,0.18,1009.28
17.844,0.08,0.99,0.01,-0.17,0.50,0.66,0.28,-0.06,0.18,1009.28
17.858,0.08,0.99,0.01,-0.17,0.50,0.66,0.28,-0.06,0.18,1009.32
17.872,0.08,0.99,0.01,-0.17,0.50,0.66,0.28,-0.06,0.24,1009.32
17.873,0.09,1.00,-0.01,-0.17,0.50,0.66,0.28,-0.06,0.24,1009.32
17.892,0.09,1.00,-0.01,-0.09,0.74,0.21,0.28,-0.06,0.24,1009.32
17.893,0.06,1.01,-0.02,-0.09,0.74,0.21,0.28,-0.06,0.24,1009.32
17.911,0.02,1.02,0.01,-0.09,0.74,0.21,0.28,-0.06,0.24,1009.32
17.938,-0.03,1.05,-0.00,-0.09,0.74,0.21,0.28,-0.06,0.24,1009.32
17.939,-0.03,1.05,-0.00,-0.09,0.74,0.21,0.28,-0.06,0.24,1009.35
17.941,-0.03,1.05,-0.00,-0.09,0.74,0.21,0.25,-0.05,0.58,1009.35
17.962,-0.03,1.05,-0.00,-0.74,0.94,0.12,0.25,-0.05,0.58,1009.35
17.964,-0.01,1.08,-0.06,-0.74,0.94,0.12,0.25,-0.05,0.58,1009.35
17.965,0.02,1.10,-0.10,-0.74,0.94,0.12,0.25,-0.05,0.58,1009.35
18.012,0.02,1.10,-0.10,-0.74,0.94,0.12,0.20,0.06,1.47,1009.35
18.014,-0.02,1.14,-0.08,-0.74,0.94,0.12,0.20,0.06,1.47,1009.35
18.014,-0.05,1.24,-0.10,-0.74,0.94,0.12,0.20,0.06,1.47,1009.35
18.017,-0.05,1.24,-0.10,-0.74,0.94,0.12,0.20,0.06,1.47,1009.44
18.021,-0.18,1.38,-0.11,-0.74,0.94,0.12,0.20,0.06,1.47,1009.44
18.032,-0.18,1.38,-0.11,-2.61,1.81,-0.20,0.20,0.06,1.47,1009.44
18.043,-0.35,1.51,-0.10,-2.61,1.81,-0.20,0.20,0.06,1.47,1009.44
18.058,-0.35,1.51,-0.10,-2.61,1.81,-0.20,0.20,0.06,1.47,1009.41
18.082,-0.35,1.51,-0.10,-2.61,1.81,-0.20,0.07,-0.37,3.45,1009.41
18.083,-0.64,1.64,-0.12,-2.61,1.81,-0.20,0.07,-0.37,3.45,1009.41
18.104,-0.64,1.64,-0.12,-5.98,4.99,-0.52,0.07,-0.37,3.45,1009.41
18.105,-0.79,1.67,-0.07,-5.98,4.99,-0.52,0.07,-0.37,3.45,1009.41
18.105,-0.36,1.64,0.11,-5.98,4.99,-0.52,0.07,-0.37,3.45,1009.41
18.139,-0.18,1.21,0.60,-5.98,4.99,-0.52,0.07,-0.37,3.45,1009.41
18.14,-0.18,1.21,0.60,-5.98,4.99,-0.52,0.07,-0.37,3.45,1009.15
18.151,-0.18,1.21,0.60,-5.98,4.99,-0.52,0.48,-0.57,6.01,1009.15
18.153,0.10,0.98,1.01,-5.98,4.99,-0.52,0.48,-0.57,6.01,1009.15
18.171,0.10,0.98,1.01,-12.94,11.01,0.51,0.48,-0.57,6.01,1009.15
18.173,0.21,0.61,0.50,-12.94,11.01,0.51,0.48,-0.57,6.01,1009.15
18.218,0.21,0.61,0.50,-12.94,11.01,0.51,0.48,-0.57,6.01,1008.58
18.219,2.07,0.51,0.00,-12.94,11.01,0.51,0.48,-0.57,6.01,1008.58
18.22,2.29,1.01,0.15,-12.94,11.01,0.51,0.48,-0.57,6.01,1008.58
18.222,2.29,1.01,0.15,-12.94,11.01,0.51,1.36,2.08,1.36,1008.58
18.242,0.03,0.37,0.18,-12.94,11.01,0.51,1.36,2.08,1.36,1008.58
18.243,-0.54,0.41,0.10,-12.94,11.01,0.51,1.36,2.08,1.36,1008.58
18.243,-0.54,0.41,0.10,-4.89,2.46,6.08,1.36,2.08,1.36,1008.58
18.257,-0.54,0.41,0.10,-4.89,2.46,6.08,1.36,2.08,1.36,1008.92
18.293,-0.55,0.41,0.15,-4.89,2.46,6.08,1.36,2.08,1.36,1008.92
18.293,-0.08,0.33,0.44,-4.89,2.46,6.08,1.36,2.08,1.36,1008.92
18.293,-0.08,0.33,0.44,-4.89,2.46,6.08,0.89,1.96,-1.40,1008.92
18.31,0.39,0.32,0.54,-4.89,2.46,6.08,0.89,1.96,-1.40,1008.92
18.312,0.39,0.32,0.54,2.51,0.18,0.30,0.89,1.96,-1.40,1008.92
18.338,0.58,0.35,0.56,2.51,0.18,0.30,0.89,1.96,-1.40,1008.92
18.34,0.58,0.35,0.56,2.51,0.18,0.30,0.89,1.96,-1.40,1009.08
18.363,0.58,0.35,0.56,2.51,0.18,0.30,1.66,0.68,-2.82,1009.08
18.364,0.55,0.38,0.56,2.51,0.18,0.30,1.66,0.68,-2.82,1009.08
18.377,0.42,0.52,0.46,2.51,0.18,0.30,1.66,0.68,-2.82,1009.08
18.382,0.42,0.52,0.46,-4.69,-3.95,3.88,1.66,0.68,-2.82,1009.08
18.382,0.40,0.69,0.40,-4.69,-3.95,3.88,1.66,0.68,-2.82,1009.08
18.418,0.45,0.75,0.44,-4.69,-3.95,3.88,1.66,0.68,-2.82,1009.08
18.42,0.45,0.75,0.44,-4.69,-3.95,3.88,1.66,0.68,-2.82,1009.24
18.432,0.48,0.81,0.41,-4.69,-3.95,3.88,1.66,0.68,-2.82,1009.24
18.432,0.48,0.81,0.41,-4.69,-3.95,3.88,1.08,1.43,-3.62,1009.24
18.444,0.41,0.93,0.31,-4.69,-3.95,3.88,1.08,1.43,-3.62,1009.24
18.452,0.41,0.93,0.31,1.86,-3.43,4.57,1.08,1.43,-3.62,1009.24
18.457,0.41,0.93,0.31,1.86,-3.43,4.57,1.08,1.43,-3.62,1009.26
18.502,0.41,0.93,0.31,1.86,-3.43,4.57,-0.20,1.81,-3.69,1009.26
18.508,0.36,1.02,0.25,1.86,-3.43,4.57,-0.20,1.81,-3.69,1009.26
18.509,0.36,1.09,0.31,1.86,-3.43,4.57,-0.20,1.81,-3.69,1009.26
18.509,0.47,1.12,0.30,1.86,-3.43,4.57,-0.20,1.81,-3.69,1009.26
18.522,0.63,1.16,0.13,1.86,-3.43,4.57,-0.20,1.81,-3.69,1009.26
18.523,0.63,1.16,0.13,3.66,-0.40,3.00,-0.20,1.81,-3.69,1009.26
18.538,0.63,1.16,0.13,3.66,-0.40,3.00,-0.20,1.81,-3.69,1009.14
18.573,0.85,1.18,0.03,3.66,-0.40,3.00,-0.20,1.81,-3.69,1009.14
18.574,1.00,1.14,0.09,3.66,-0.40,3.00,-0.20,1.81,-3.69,1009.14
18.574,1.00,1.14,0.09,3.66,-0.40,3.00,0.33,1.74,-3.40,1009.14
18.582,1.00,1.08,0.12,3.66,-0.40,3.00,0.33,1.74,-3.40,1009.14
18.593,1.00,1.08,0.12,5.87,2.19,2.26,0.33,1.74,-3.40,1009.14
18.618,0.78,1.15,0.05,5.87,2.19,2.26,0.33,1.74,-3.40,1009.14
18.619,0.78,1.15,0.05,5.87,2.19,2.26,0.33,1.74,-3.40,1009.15
18.642,0.78,1.15,0.05,5.87,2.19,2.26,0.69,1.51,-1.39,1009.15
18.644,0.70,1.03,0.02,5.87,2.19,2.26,0.69,1.51,-1.39,1009.15
18.645,1.56,0.86,0.00,5.87,2.19,2.26,0.69,1.51,-1.39,1009.15
18.657,1.56,0.86,0.00,5.87,2.19,2.26,0.69,1.51,-1.39,1009.32
18.663,1.87,0.60,0.12,5.87,2.19,2.26,0.69,1.51,-1.39,1009.32
18.664,1.87,0.60,0.12,10.56,2.36,0.85,0.69,1.51,-1.39,1009.32
18.71,1.35,0.56,0.22,10.56,2.36,0.85,0.69,1.51,-1.39,1009.32
18.713,-0.37,1.74,0.55,10.56,2.36,0.85,0.69,1.51,-1.39,1009.32
18.714,-0.37,1.74,0.55,10.56,2.36,0.85,-0.52,1.50,1.48,1009.32
18.733,-0.43,0.97,-0.37,10.56,2.36,0.85,-0.52,1.50,1.48,1009.32
18.734,-0.43,0.97,-0.37,12.59,-0.23,0.35,-0.52,1.50,1.48,1009.32
18.737,-0.43,0.97,-0.37,12.59,-0.23,0.35,-0.52,1.50,1.48,1009.44
18.777,2.28,1.65,0.49,12.59,-0.23,0.35,-0.52,1.50,1.48,1009.44
18.779,-0.68,1.17,-1.14,12.59,-0.23,0.35,-0.52,1.50,1.48,1009.44
18.782,-0.68,1.17,-1.14,12.59,-0.23,0.35,-0.11,0.22,0.71,1009.44
18.805,-0.68,1.17,-1.14,4.66,2.05,1.84,-0.11,0.22,0.71,1009.44
18.806,0.50,1.10,-0.16,4.66,2.05,1.84,-0.11,0.22,0.71,1009.44
18.806,-0.13,0.97,0.13,4.66,2.05,1.84,-0.11,0.22,0.71,1009.44
18.823,-0.13,0.97,0.13,4.66,2.05,1.84,-0.11,0.22,0.71,1009.73
18.843,0.10,0.91,0.21,4.66,2.05,1.84,-0.11,0.22,0.71,1009.73
18.844,0.06,0.94,0.13,4.66,2.05,1.84,-0.11,0.22,0.71,1009.73
18.851,0.06,0.94,0.13,4.66,2.05,1.84,-0.37,0.11,0.23,1009.73
18.857,0.06,0.94,0.13,4.66,2.05,1.84,-0.37,0.11,0.23,1009.28
18.873,0.06,0.94,0.13,1.79,3.06,-3.28,-0.37,0.11,0.23,1009.28
18.874,0.09,0.95,0.13,1.79,3.06,-3.28,-0.37,0.11,0.23,1009.28
18.91,0.09,0.98,0.10,1.79,3.06,-3.28,-0.37,0.11,0.23,1009.28
18.911,0.09,1.04,-0.06,1.79,3.06,-3.28,-0.37,0.11,0.23,1009.28
18.927,0.09,1.04,-0.06,1.79,3.06,-3.28,-0.12,0.02,0.06,1009.28
18.937,0.08,1.01,0.01,1.79,3.06,-3.28,-0.12,0.02,0.06,1009.28
18.938,0.08,1.01,0.01,1.79,3.06,-3.28,-0.12,0.02,0.06,1009.32
18.942,0.04,0.99,0.07,1.79,3.06,-3.28,-0.12,0.02,0.06,1009.32
18.942,0.04,0.99,0.07,0.47,0.30,1.06,-0.12,0.02,0.06,1009.32
18.976,0.05,0.98,0.11,0.47,0.30,1.06,-0.12,0.02,0.06,1009.32
18.993,0.05,0.98,0.11,0.47,0.30,1.06,-0.08,-0.03,0.03,1009.32
18.994,0.05,0.97,0.10,0.47,0.30,1.06,-0.08,-0.03,0.03,1009.32
19.013,0.05,0.97,0.10,0.28,0.98,-0.34,-0.08,-0.03,0.03,1009.32
19.014,0.04,0.99,0.05,0.28,0.98,-0.34,-0.08,-0.03,0.03,1009.32
19.017,0.04,0.99,0.05,0.28,0.98,-0.34,-0.08,-0.03,0.03,1009.24
19.044,0.06,0.99,0.04,0.28,0.98,-0.34,-0.08,-0.03,0.03,1009.24
19.046,0.04,0.98,0.06,0.28,0.98,-0.34,-0.08,-0.03,0.03,1009.24
19.057,0.04,0.98,0.06,0.28,0.98,-0.34,-0.08,-0.03,0.03,1009.19
19.061,0.04,0.98,0.06,0.28,0.98,-0.34,0.00,-0.06,0.07,1009.19
19.083,0.06,0.96,0.07,0.28,0.98,-0.34,0.00,-0.06,0.07,1009.19
19.084,0.05,0.96,0.08,0.28,0.98,-0.34,0.00,-0.06,0.07,1009.19
19.085,0.05,0.96,0.08,-0.01,0.68,0.34,0.00,-0.06,0.07,1009.19
19.11,0.06,0.98,0.06,-0.01,0.68,0.34,0.00,-0.06,0.07,1009.19
19.133,0.06,0.98,0.06,-0.01,0.68,0.34,0.03,-0.08,0.11,1009.19
19.134,0.07,1.00,0.03,-0.01,0.68,0.34,0.03,-0.08,0.11,1009.19
19.137,0.07,1.00,0.03,-0.01,0.68,0.34,0.03,-0.08,0.11,1009.22
19.153,0.08,0.99,0.05,-0.01,0.68,0.34,0.03,-0.08,0.11,1009.22
19.154,0.08,0.99,0.05,-0.08,0.57,0.18,0.03,-0.08,0.11,1009.22
19.178,0.06,0.98,0.07,-0.08,0.57,0.18,0.03,-0.08,0.11,1009.22
19.206,0.06,0.98,0.07,-0.08,0.57,0.18,0.08,-0.07,0.15,1009.22
19.207,0.05,0.97,0.10,-0.08,0.57,0.18,0.08,-0.07,0.15,1009.22
19.227,0.07,0.99,0.07,-0.08,0.57,0.18,0.08,-0.07,0.15,1009.22
19.229,0.07,0.99,0.07,-0.08,0.57,0.18,0.08,-0.07,0.15,1009.30
19.23,0.06,1.00,0.05,-0.08,0.57,0.18,0.08,-0.07,0.15,1009.30
19.231,0.06,1.00,0.05,-0.01,0.76,0.09,0.08,-0.07,0.15,1009.30
19.243,0.04,1.02,0.02,-0.01,0.76,0.09,0.08,-0.07,0.15,1009.30
19.257,0.04,1.02,0.02,-0.01,0.76,0.09,0.08,-0.07,0.15,1009.38
19.272,0.04,1.02,0.02,-0.01,0.76,0.09,0.13,-0.09,0.27,1009.38
19.273,0.03,1.02,0.01,-0.01,0.76,0.09,0.13,-0.09,0.27,1009.38
19.292,0.03,1.02,0.01,-0.30,0.73,0.39,0.13,-0.09,0.27,1009.38
19.293,0.02,1.02,0.02,-0.30,0.73,0.39,0.13,-0.09,0.27,1009.38
19.309,0.02,1.01,0.04,-0.30,0.73,0.39,0.13,-0.09,0.27,1009.38
19.338,0.03,1.02,0.06,-0.30,0.73,0.39,0.13,-0.09,0.27,1009.38
19.339,0.03,1.02,0.06,-0.30,0.73,0.39,0.13,-0.09,0.27,1009.41
19.343,0.03,1.02,0.06,-0.30,0.73,0.39,0.12,-0.08,0.67,1009.41
19.362,0.03,1.02,0.06,-1.14,1.07,-0.07,0.12,-0.08,0.67,1009.41
19.363,-0.04,1.06,0.04,-1.14,1.07,-0.07,0.12,-0.08,0.67,1009.41
19.363,-0.07,1.16,-0.04,-1.14,1.07,-0.07,0.12,-0.08,0.67,1009.41
19.407,-0.12,1.29,-0.10,-1.14,1.07,-0.07,0.12,-0.08,0.67,1009.41
19.408,-0.19,1.32,-0.03,-1.14,1.07,-0.07,0.12,-0.08,0.67,1009.41
19.412,-0.19,1.32,-0.03,-1.14,1.07,-0.07,0.13,-0.07,1.69,1009.41
19.428,-0.19,1.32,-0.03,-1.14,1.07,-0.07,0.13,-0.07,1.69,1009.42
19.435,-0.30,1.39,-0.07,-1.14,1.07,-0.07,0.13,-0.07,1.69,1009.42
19.436,-0.30,1.39,-0.07,-2.86,1.86,0.05,0.13,-0.07,1.69,1009.42
19.444,-0.43,1.43,-0.13,-2.86,1.86,0.05,0.13,-0.07,1.69,1009.42
19.458,-0.43,1.43,-0.13,-2.86,1.86,0.05,0.13,-0.07,1.69,1009.42
19.483,-0.52,1.46,-0.14,-2.86,1.86,0.05,0.13,-0.07,1.69,1009.42
19.484,-0.52,1.46,-0.14,-2.86,1.86,0.05,-0.17,-0.35,3.77,1009.42
19.506,-0.33,1.45,-0.03,-2.86,1.86,0.05,-0.17,-0.35,3.77,1009.42
19.507,-0.03,1.38,0.20,-2.86,1.86,0.05,-0.17,-0.35,3.77,1009.42
19.508,-0.03,1.38,0.20,-7.32,5.72,-0.86,-0.17,-0.35,3.77,1009.42
19.537,-0.05,1.07,0.57,-7.32,5.72,-0.86,-0.17,-0.35,3.77,1009.42
19.539,-0.05,1.07,0.57,-7.32,5.72,-0.86,-0.17,-0.35,3.77,1009.15
19.552,-0.05,1.07,0.57,-7.32,5.72,-0.86,0.34,-0.24,5.59,1009.15
19.553,0.06,1.02,0.77,-7.32,5.72,-0.86,0.34,-0.24,5.59,1009.15
19.572,0.06,1.02,0.77,-10.47,8.91,0.04,0.34,-0.24,5.59,1009.15
19.573,0.09,0.62,0.55,-10.47,8.91,0.04,0.34,-0.24,5.59,1009.15
19.618,0.09,0.62,0.55,-10.47,8.91,0.04,0.34,-0.24,5.59,1008.74
19.619,1.89,0.64,0.12,-10.47,8.91,0.04,0.34,-0.24,5.59,1008.74
19.619,1.56,0.95,0.29,-10.47,8.91,0.04,0.34,-0.24,5.59,1008.74
19.622,1.56,0.95,0.29,-10.47,8.91,0.04,0.92,0.81,1.04,1008.74
19.647,-0.17,0.56,0.20,-10.47,8.91,0.04,0.92,0.81,1.04,1008.74
19.648,-0.46,0.51,0.06,-10.47,8.91,0.04,0.92,0.81,1.04,1008.74
19.648,-0.46,0.51,0.06,-5.08,2.23,5.41,0.92,0.81,1.04,1008.74
19.658,-0.46,0.51,0.06,-5.08,2.23,5.41,0.92,0.81,1.04,1009.08
19.701,-0.46,0.51,0.06,-5.08,2.23,5.41,0.22,0.96,-1.69,1009.08
19.702,-0.15,0.47,0.13,-5.08,2.23,5.41,0.22,0.96,-1.69,1009.08
19.703,0.27,0.38,0.28,-5.08,2.23,5.41,0.22,0.96,-1.69,1009.08
19.711,0.44,0.37,0.29,-5.08,2.23,5.41,0.22,0.96,-1.69,1009.08
19.713,0.44,0.37,0.29,0.33,0.62,1.07,0.22,0.96,-1.69,1009.08
19.738,0.34,0.42,0.22,0.33,0.62,1.07,0.22,0.96,-1.69,1009.08
19.739,0.34,0.42,0.22,0.33,0.62,1.07,0.22,0.96,-1.69,1009.14
19.762,0.34,0.42,0.22,0.33,0.62,1.07,0.53,0.52,-3.50,1009.14
19.763,0.26,0.51,0.15,0.33,0.62,1.07,0.53,0.52,-3.50,1009.14
19.778,0.28,0.59,0.14,0.33,0.62,1.07,0.53,0.52,-3.50,1009.14
19.782,0.38,0.66,0.15,0.33,0.62,1.07,0.53,0.52,-3.50,1009.14
19.783,0.38,0.66,0.15,-1.93,-3.89,1.82,0.53,0.52,-3.50,1009.14
19.817,0.46,0.76,0.06,-1.93,-3.89,1.82,0.53,0.52,-3.50,1009.14
19.818,0.46,0.76,0.06,-1.93,-3.89,1.82,0.53,0.52,-3.50,1009.21
19.832,0.46,0.76,0.06,-1.93,-3.89,1.82,0.57,1.37,-4.14,1009.21
19.833,0.38,0.89,-0.03,-1.93,-3.89,1.82,0.57,1.37,-4.14,1009.21
19.844,0.27,0.99,-0.00,-1.93,-3.89,1.82,0.57,1.37,-4.14,1009.21
19.852,0.27,0.99,-0.00,1.48,-3.14,1.02,0.57,1.37,-4.14,1009.21
19.857,0.27,0.99,-0.00,1.48,-3.14,1.02,0.57,1.37,-4.14,1009.19
19.906,0.26,1.08,0.06,1.48,-3.14,1.02,0.57,1.37,-4.14,1009.19
19.907,0.25,1.21,0.07,1.48,-3.14,1.02,0.57,1.37,-4.14,1009.19
19.908,0.25,1.21,0.07,1.48,-3.14,1.02,0.61,2.01,-3.98,1009.19
19.909,0.32,1.42,0.08,1.48,-3.14,1.02,0.61,2.01,-3.98,1009.19
19.93,0.32,1.42,0.08,4.15,0.08,0.05,0.61,2.01,-3.98,1009.19
19.931,0.68,1.59,0.27,4.15,0.08,0.05,0.61,2.01,-3.98,1009.19
19.937,0.68,1.59,0.27,4.15,0.08,0.05,0.61,2.01,-3.98,1009.24
19.963,1.07,1.44,0.51,4.15,0.08,0.05,0.61,2.01,-3.98,1009.24
19.964,1.29,1.11,0.62,4.15,0.08,0.05,0.61,2.01,-3.98,1009.24
19.973,1.29,1.11,0.62,4.15,0.08,0.05,0.67,1.32,-2.15,1009.24
19.994,1.29,1.11,0.62,5.29,4.61,1.48,0.67,1.32,-2.15,1009.24
19.995,1.65,0.93,0.48,5.29,4.61,1.48,0.67,1.32,-2.15,1009.24
20.017,1.86,0.74,0.32,5.29,4.61,1.48,0.67,1.32,-2.15,1009.24
20.018,1.86,0.74,0.32,5.29,4.61,1.48,0.67,1.32,-2.15,1009.39
20.043,1.86,0.74,0.32,5.29,4.61,1.48,-0.34,0.81,0.58,1009.39
20.044,1.45,0.60,0.29,5.29,4.61,1.48,-0.34,0.81,0.58,1009.39
20.044,0.42,1.63,1.05,5.29,4.61,1.48,-0.34,0.81,0.58,1009.39
20.057,0.42,1.63,1.05,5.29,4.61,1.48,-0.34,0.81,0.58,1009.17
20.062,0.63,1.24,-1.24,5.29,4.61,1.48,-0.34,0.81,0.58,1009.17
20.063,0.63,1.24,-1.24,14.40,1.99,4.95,-0.34,0.81,0.58,1009.17
20.109,0.37,1.08,0.18,14.40,1.99,4.95,-0.34,0.81,0.58,1009.17
20.11,0.03,1.38,-0.34,14.40,1.99,4.95,-0.34,0.81,0.58,1009.17
20.112,0.03,1.38,-0.34,14.40,1.99,4.95,-0.02,0.56,0.98,1009.17
20.133,0.45,1.16,-0.60,14.40,1.99,4.95,-0.02,0.56,0.98,1009.17
20.134,0.45,1.16,-0.60,9.44,1.77,0.63,-0.02,0.56,0.98,1009.17
20.137,0.45,1.16,-0.60,9.44,1.77,0.63,-0.02,0.56,0.98,1009.47
20.177,0.05,1.04,-0.06,9.44,1.77,0.63,-0.02,0.56,0.98,1009.47
20.178,0.00,0.94,0.23,9.44,1.77,0.63,-0.02,0.56,0.98,1009.47
20.183,0.00,0.94,0.23,9.44,1.77,0.63,-0.40,0.07,0.19,1009.47
20.207,0.00,0.94,0.23,2.40,2.68,-2.81,-0.40,0.07,0.19,1009.47
20.207,0.06,0.92,0.17,2.40,2.68,-2.81,-0.40,0.07,0.19,1009.47
20.208,0.06,0.92,0.13,2.40,2.68,-2.81,-0.40,0.07,0.19,1009.47
20.229,0.06,0.92,0.13,2.40,2.68,-2.81,-0.40,0.07,0.19,1009.37
20.244,0.06,0.96,0.06,2.40,2.68,-2.81,-0.40,0.07,0.19,1009.37
20.245,0.07,1.00,0.00,2.40,2.68,-2.81,-0.40,0.07,0.19,1009.37
20.252,0.07,1.00,0.00,2.40,2.68,-2.81,-0.08,0.06,0.12,1009.37
20.258,0.07,1.00,0.00,2.40,2.68,-2.81,-0.08,0.06,0.12,1009.32
20.273,0.07,1.00,0.00,0.00,0.22,1.48,-0.08,0.06,0.12,1009.32
20.274,0.07,1.01,-0.01,0.00,0.22,1.48,-0.08,0.06,0.12,1009.32
20.309,0.04,1.00,0.05,0.00,0.22,1.48,-0.08,0.06,0.12,1009.32
20.311,0.03,0.99,0.08,0.00,0.22,1.48,-0.08,0.06,0.12,1009.32
20.331,0.03,0.99,0.08,0.00,0.22,1.48,-0.04,0.02,0.09,1009.32
20.338,0.03,0.99,0.06,0.00,0.22,1.48,-0.04,0.02,0.09,1009.32
20.339,0.03,0.99,0.06,0.00,0.22,1.48,-0.04,0.02,0.09,1009.32
20.342,0.03,0.99,0.06,0.28,0.73,-0.07,-0.04,0.02,0.09,1009.32
20.343,0.02,1.01,0.02,0.28,0.73,-0.07,-0.04,0.02,0.09,1009.32
20.377,0.03,1.02,-0.00,0.28,0.73,-0.07,-0.04,0.02,0.09,1009.32
20.392,0.03,1.02,-0.00,0.28,0.73,-0.07,0.01,-0.04,0.18,1009.32
20.393,0.06,1.00,0.02,0.28,0.73,-0.07,0.01,-0.04,0.18,1009.32
20.413,0.08,0.97,0.05,0.28,0.73,-0.07,0.01,-0.04,0.18,1009.32
20.414,0.08,0.97,0.05,-0.22,0.79,0.22,0.01,-0.04,0.18,1009.32
20.432,0.08,0.97,0.05,-0.22,0.79,0.22,0.01,-0.04,0.18,1009.25
20.443,0.06,0.98,0.06,-0.22,0.79,0.22,0.01,-0.04,0.18,1009.25
20.444,0.08,0.98,0.05,-0.22,0.79,0.22,0.01,-0.04,0.18,1009.25
20.457,0.08,0.98,0.05,-0.22,0.79,0.22,0.01,-0.04,0.18,1009.23
20.462,0.08,0.98,0.05,-0.22,0.79,0.22,0.05,-0.07,0.18,1009.23
20.483,0.09,0.98,0.03,-0.22,0.79,0.22,0.05,-0.07,0.18,1009.23
20.484,0.09,0.97,0.04,-0.22,0.79,0.22,0.05,-0.07,0.18,1009.23
20.484,0.09,0.97,0.04,-0.01,0.75,0.03,0.05,-0.07,0.18,1009.23
20.509,0.07,0.96,0.07,-0.01,0.75,0.03,0.05,-0.07,0.18,1009.23
20.532,0.07,0.96,0.07,-0.01,0.75,0.03,0.12,-0.06,0.17,1009.23
20.534,0.08,0.96,0.06,-0.01,0.75,0.03,0.12,-0.06,0.17,1009.23
20.537,0.08,0.96,0.06,-0.01,0.75,0.03,0.12,-0.06,0.17,1009.28
20.554,0.08,0.96,0.06,0.12,0.57,0.25,0.12,-0.06,0.17,1009.28
