time,gFx,gFy,gFz,ax,ay,az,wx,wy,wz,P
0.01,0.22,0.95,0.11,-0.05,0.05,0.11,-0.05,-0.01,-0.00,1009.29
0.011,0.25,0.94,0.11,-0.05,0.05,0.11,-0.05,-0.01,-0.00,1009.29
0.036,0.24,0.94,0.12,-0.05,0.05,0.11,-0.05,-0.01,-0.00,1009.29
0.037,0.22,0.94,0.14,-0.05,0.05,0.11,-0.05,-0.01,-0.00,1009.29
0.037,0.22,0.94,0.14,0.08,-0.07,-0.06,-0.05,-0.01,-0.00,1009.29
0.061,0.21,0.94,0.15,0.08,-0.07,-0.06,-0.05,-0.01,-0.00,1009.29
0.069,0.21,0.94,0.15,0.08,-0.07,-0.06,-0.05,-0.01,-0.00,1009.27
0.081,0.21,0.94,0.15,0.08,-0.07,-0.06,-0.04,-0.02,-0.03,1009.27
0.081,0.24,0.94,0.14,0.08,-0.07,-0.06,-0.04,-0.02,-0.03,1009.27
0.102,0.24,0.94,0.14,0.12,-0.08,-0.04,-0.04,-0.02,-0.03,1009.27
0.102,0.22,0.94,0.15,0.12,-0.08,-0.04,-0.04,-0.02,-0.03,1009.27
0.111,0.22,0.94,0.15,0.12,-0.08,-0.04,-0.04,-0.02,-0.03,1009.27
0.127,0.21,0.94,0.14,0.12,-0.08,-0.04,-0.04,-0.02,-0.03,1009.27
0.151,0.21,0.94,0.14,0.12,-0.08,-0.04,0.02,-0.02,-0.04,1009.27
0.151,0.25,0.94,0.13,0.12,-0.08,-0.04,0.02,-0.02,-0.04,1009.27
0.176,0.22,0.95,0.12,0.12,-0.08,-0.04,0.02,-0.02,-0.04,1009.27
0.177,0.22,0.96,0.12,0.12,-0.08,-0.04,0.02,-0.02,-0.04,1009.27
0.177,0.22,0.96,0.12,0.00,-0.06,0.19,0.02,-0.02,-0.04,1009.27
0.194,0.22,0.96,0.12,0.00,-0.06,0.19,0.02,-0.02,-0.04,1009.26
0.226,0.22,0.96,0.12,0.00,-0.06,0.19,0.03,-0.02,-0.05,1009.26
0.227,0.22,0.94,0.12,0.00,-0.06,0.19,0.03,-0.02,-0.05,1009.26
0.227,0.23,0.93,0.13,0.00,-0.06,0.19,0.03,-0.02,-0.05,1009.26
0.245,0.21,0.94,0.13,0.00,-0.06,0.19,0.03,-0.02,-0.05,1009.26
0.246,0.21,0.94,0.13,0.09,-0.02,0.02,0.03,-0.02,-0.05,1009.26
0.26,0.20,0.99,0.10,0.09,-0.02,0.02,0.03,-0.02,-0.05,1009.26
0.269,0.20,0.99,0.10,0.09,-0.02,0.02,0.03,-0.02,-0.05,1009.26
0.297,0.20,0.99,0.10,0.09,-0.02,0.02,0.03,-0.05,-0.03,1009.26
0.297,0.22,0.99,0.10,0.09,-0.02,0.02,0.03,-0.05,-0.03,1009.26
0.31,0.22,0.96,0.11,0.09,-0.02,0.02,0.03,-0.05,-0.03,1009.26
0.311,0.22,0.96,0.11,0.09,-0.02,0.02,0.03,-0.05,-0.03,1009.25
0.311,0.20,0.94,0.14,0.09,-0.02,0.02,0.03,-0.05,-0.03,1009.25
0.312,0.20,0.94,0.14,0.00,-0.05,-0.00,0.03,-0.05,-0.03,1009.25
0.361,0.20,0.94,0.14,0.00,-0.05,-0.00,0.10,-0.04,-0.00,1009.25
0.361,0.20,0.95,0.15,0.00,-0.05,-0.00,0.10,-0.04,-0.00,1009.25
0.362,0.24,0.92,0.13,0.00,-0.05,-0.00,0.10,-0.04,-0.00,1009.25
0.381,0.22,0.94,0.13,0.00,-0.05,-0.00,0.10,-0.04,-0.00,1009.25
0.382,0.22,0.94,0.13,-0.05,0.15,0.03,0.10,-0.04,-0.00,1009.25
0.388,0.22,0.94,0.13,-0.05,0.15,0.03,0.10,-0.04,-0.00,1009.25
0.431,0.22,0.94,0.13,-0.05,0.15,0.03,0.19,-0.07,-0.01,1009.25
0.431,0.21,0.96,0.14,-0.05,0.15,0.03,0.19,-0.07,-0.01,1009.25
0.432,0.23,0.97,0.10,-0.05,0.15,0.03,0.19,-0.07,-0.01,1009.25
0.452,0.23,0.97,0.10,0.02,-0.13,0.35,0.19,-0.07,-0.01,1009.25
0.452,0.21,0.98,0.08,0.02,-0.13,0.35,0.19,-0.07,-0.01,1009.25
0.453,0.24,0.95,0.09,0.02,-0.13,0.35,0.19,-0.07,-0.01,1009.25
0.468,0.24,0.95,0.09,0.02,-0.13,0.35,0.19,-0.07,-0.01,1009.21
0.501,0.24,0.95,0.09,0.02,-0.13,0.35,0.24,-0.10,-0.01,1009.21
0.502,0.20,0.93,0.13,0.02,-0.13,0.35,0.24,-0.10,-0.01,1009.21
0.502,0.21,0.95,0.09,0.02,-0.13,0.35,0.24,-0.10,-0.01,1009.21
0.509,0.21,0.95,0.09,0.02,-0.13,0.35,0.24,-0.10,-0.01,1009.17
0.522,0.17,0.98,0.09,0.02,-0.13,0.35,0.24,-0.10,-0.01,1009.17
0.523,0.17,0.98,0.09,0.06,0.08,0.12,0.24,-0.10,-0.01,1009.17
0.571,0.17,0.98,0.09,0.06,0.08,0.12,0.33,-0.13,0.03,1009.17
0.573,0.24,1.00,0.07,0.06,0.08,0.12,0.33,-0.13,0.03,1009.17
0.574,0.27,0.96,0.03,0.06,0.08,0.12,0.33,-0.13,0.03,1009.17
0.588,0.21,0.95,0.08,0.06,0.08,0.12,0.33,-0.13,0.03,1009.17
0.589,0.21,0.95,0.08,0.06,0.08,0.12,0.33,-0.13,0.03,1009.19
0.591,0.20,0.96,0.11,0.06,0.08,0.12,0.33,-0.13,0.03,1009.19
0.591,0.20,0.96,0.11,-0.17,0.02,0.35,0.33,-0.13,0.03,1009.19
0.641,0.20,0.96,0.11,-0.17,0.02,0.35,0.53,-0.14,0.13,1009.19
0.642,0.14,0.98,0.13,-0.17,0.02,0.35,0.53,-0.14,0.13,1009.19
0.643,0.15,0.99,0.10,-0.17,0.02,0.35,0.53,-0.14,0.13,1009.19
0.656,0.15,1.02,0.03,-0.17,0.02,0.35,0.53,-0.14,0.13,1009.19
0.661,0.15,1.02,0.03,-0.05,0.04,0.44,0.53,-0.14,0.13,1009.19
0.669,0.15,1.02,0.03,-0.05,0.04,0.44,0.53,-0.14,0.13,1009.20
0.708,0.15,1.02,0.03,-0.05,0.04,0.44,0.53,-0.14,0.13,1009.27
0.71,0.16,1.03,0.02,-0.05,0.04,0.44,0.53,-0.14,0.13,1009.27
0.711,0.18,1.02,-0.01,-0.05,0.04,0.44,0.53,-0.14,0.13,1009.27
0.711,0.18,1.02,-0.01,-0.05,0.04,0.44,0.56,-0.29,0.48,1009.27
0.721,0.17,1.05,0.03,-0.05,0.04,0.44,0.56,-0.29,0.48,1009.27
0.731,0.14,1.04,0.10,-0.05,0.04,0.44,0.56,-0.29,0.48,1009.27
0.731,0.14,1.04,0.10,-1.13,0.48,0.80,0.56,-0.29,0.48,1009.27
0.781,0.14,1.04,0.10,-1.13,0.48,0.80,0.72,-0.24,0.91,1009.27
0.782,0.19,1.03,0.16,-1.13,0.48,0.80,0.72,-0.24,0.91,1009.27
0.783,0.18,1.02,0.24,-1.13,0.48,0.80,0.72,-0.24,0.91,1009.27
0.788,0.18,1.02,0.24,-1.13,0.48,0.80,0.72,-0.24,0.91,1009.35
0.801,0.14,0.86,0.45,-1.13,0.48,0.80,0.72,-0.24,0.91,1009.35
0.802,0.14,0.86,0.45,-1.56,1.01,0.97,0.72,-0.24,0.91,1009.35
0.851,0.14,0.86,0.45,-1.56,1.01,0.97,1.86,1.23,0.74,1009.35
0.853,0.63,0.72,0.67,-1.56,1.01,0.97,1.86,1.23,0.74,1009.35
0.853,1.57,0.78,0.57,-1.56,1.01,0.97,1.86,1.23,0.74,1009.35
0.854,1.10,1.08,0.10,-1.56,1.01,0.97,1.86,1.23,0.74,1009.35
0.868,1.10,1.08,0.10,-1.56,1.01,0.97,1.86,1.23,0.74,1009.26
0.872,-0.03,1.14,0.06,-1.56,1.01,0.97,1.86,1.23,0.74,1009.26
0.872,-0.03,1.14,0.06,-1.53,0.19,4.17,1.86,1.23,0.74,1009.26
0.908,-0.03,1.14,0.06,-1.53,0.19,4.17,1.86,1.23,0.74,1009.32
0.91,-0.17,1.11,0.15,-1.53,0.19,4.17,1.86,1.23,0.74,1009.32
0.922,0.02,0.99,0.28,-1.53,0.19,4.17,1.86,1.23,0.74,1009.32
0.923,0.02,0.99,0.28,-1.53,0.19,4.17,0.64,3.73,0.06,1009.32
0.942,0.27,0.89,0.37,-1.53,0.19,4.17,0.64,3.73,0.06,1009.32
0.944,0.27,0.89,0.37,4.81,0.46,3.39,0.64,3.73,0.06,1009.32
0.988,0.30,0.88,0.31,4.81,0.46,3.39,0.64,3.73,0.06,1009.32
0.989,0.01,0.87,0.23,4.81,0.46,3.39,0.64,3.73,0.06,1009.32
0.99,0.01,0.87,0.23,4.81,0.46,3.39,0.64,3.73,0.06,1009.23
0.991,0.01,0.87,0.23,4.81,0.46,3.39,0.45,2.87,-0.64,1009.23
1.011,-0.03,0.88,0.20,4.81,0.46,3.39,0.45,2.87,-0.64,1009.23
1.012,0.12,0.87,0.24,4.81,0.46,3.39,0.45,2.87,-0.64,1009.23
1.012,0.12,0.87,0.24,-2.41,0.44,2.43,0.45,2.87,-0.64,1009.23
1.054,0.19,0.87,0.28,-2.41,0.44,2.43,0.45,2.87,-0.64,1009.23
1.055,0.21,0.89,0.29,-2.41,0.44,2.43,0.45,2.87,-0.64,1009.23
1.061,0.21,0.89,0.29,-2.41,0.44,2.43,0.73,2.93,-1.09,1009.23
1.067,0.21,0.89,0.29,-2.41,0.44,2.43,0.73,2.93,-1.09,1009.26
1.082,0.21,0.89,0.29,-1.65,-0.88,1.81,0.73,2.93,-1.09,1009.26
1.083,0.32,0.94,0.27,-1.65,-0.88,1.81,0.73,2.93,-1.09,1009.26
1.108,0.32,0.94,0.27,-1.65,-0.88,1.81,0.73,2.93,-1.09,1009.28
1.11,0.33,0.92,0.29,-1.65,-0.88,1.81,0.73,2.93,-1.09,1009.28
1.122,0.28,0.92,0.27,-1.65,-0.88,1.81,0.73,2.93,-1.09,1009.28
1.13,0.28,0.92,0.27,-1.65,-0.88,1.81,1.00,4.19,-1.71,1009.28
1.151,0.28,0.92,0.27,1.53,-0.75,2.40,1.00,4.19,-1.71,1009.28
1.152,0.26,0.95,0.26,1.53,-0.75,2.40,1.00,4.19,-1.71,1009.28
1.153,0.26,0.98,0.30,1.53,-0.75,2.40,1.00,4.19,-1.71,1009.28
1.187,0.25,1.00,0.35,1.53,-0.75,2.40,1.00,4.19,-1.71,1009.28
1.189,0.25,1.00,0.35,1.53,-0.75,2.40,1.00,4.19,-1.71,1009.27
1.201,0.28,1.04,0.32,1.53,-0.75,2.40,1.00,4.19,-1.71,1009.27
1.201,0.28,1.04,0.32,1.53,-0.75,2.40,1.18,4.51,-1.83,1009.27
1.228,0.40,1.07,0.17,1.53,-0.75,2.40,1.18,4.51,-1.83,1009.27
1.229,0.40,1.07,0.17,2.76,-0.39,2.93,1.18,4.51,-1.83,1009.27
1.254,0.57,1.06,0.17,2.76,-0.39,2.93,1.18,4.51,-1.83,1009.27
1.255,0.69,0.93,0.20,2.76,-0.39,2.93,1.18,4.51,-1.83,1009.27
1.269,0.69,0.93,0.20,2.76,-0.39,2.93,1.18,4.51,-1.83,1009.24
1.272,0.69,0.93,0.20,2.76,-0.39,2.93,0.94,4.11,-1.33,1009.24
1.292,0.69,0.93,0.20,3.88,0.64,3.30,0.94,4.11,-1.33,1009.24
1.292,0.77,0.95,0.09,3.88,0.64,3.30,0.94,4.11,-1.33,1009.24
1.293,0.89,0.91,0.09,3.88,0.64,3.30,0.94,4.11,-1.33,1009.24
1.308,0.89,0.91,0.09,3.88,0.64,3.30,0.94,4.11,-1.33,1009.28
1.322,1.07,0.82,0.07,3.88,0.64,3.30,0.94,4.11,-1.33,1009.28
1.345,1.07,0.82,0.07,3.88,0.64,3.30,0.47,3.37,-0.38,1009.28
1.346,1.18,0.73,0.03,3.88,0.64,3.30,0.47,3.37,-0.38,1009.28
1.363,1.18,0.73,0.03,7.43,-0.33,2.29,0.47,3.37,-0.38,1009.28
1.364,1.13,0.64,-0.01,7.43,-0.33,2.29,0.47,3.37,-0.38,1009.28
1.385,1.06,0.63,-0.02,7.43,-0.33,2.29,0.47,3.37,-0.38,1009.28
1.388,1.06,0.63,-0.02,7.43,-0.33,2.29,0.47,3.37,-0.38,1009.14
1.411,1.06,0.63,-0.02,7.43,-0.33,2.29,-0.13,2.43,1.09,1009.14
1.414,0.97,0.63,-0.04,7.43,-0.33,2.29,-0.13,2.43,1.09,1009.14
1.431,1.86,1.27,-0.01,7.43,-0.33,2.29,-0.13,2.43,1.09,1009.14
1.432,0.01,1.11,-0.84,7.43,-0.33,2.29,-0.13,2.43,1.09,1009.14
1.433,0.01,1.11,-0.84,10.05,-2.45,0.96,-0.13,2.43,1.09,1009.14
1.454,-0.77,1.02,-0.11,10.05,-2.45,0.96,-0.13,2.43,1.09,1009.14
1.468,-0.77,1.02,-0.11,10.05,-2.45,0.96,-0.13,2.43,1.09,1009.21
1.482,-0.77,1.02,-0.11,10.05,-2.45,0.96,-0.42,0.42,0.12,1009.21
1.483,0.72,1.09,0.04,10.05,-2.45,0.96,-0.42,0.42,0.12,1009.21
1.502,0.72,1.09,0.04,7.87,-0.15,-2.05,-0.42,0.42,0.12,1009.21
1.503,-0.04,0.99,-0.23,7.87,-0.15,-2.05,-0.42,0.42,0.12,1009.21
1.508,-0.04,0.99,-0.23,7.87,-0.15,-2.05,-0.42,0.42,0.12,1009.37
1.521,0.38,0.94,0.03,7.87,-0.15,-2.05,-0.42,0.42,0.12,1009.37
1.551,0.38,0.94,0.03,7.87,-0.15,-2.05,-0.39,0.28,0.29,1009.37
1.552,0.22,0.92,0.04,7.87,-0.15,-2.05,-0.39,0.28,0.29,1009.37
1.571,0.22,0.92,0.04,-1.31,0.57,-0.55,-0.39,0.28,0.29,1009.37
1.572,0.23,0.92,0.15,-1.31,0.57,-0.55,-0.39,0.28,0.29,1009.37
1.573,0.20,0.96,0.07,-1.31,0.57,-0.55,-0.39,0.28,0.29,1009.37
1.588,0.20,0.96,0.07,-1.31,0.57,-0.55,-0.39,0.28,0.29,1009.27
1.621,0.24,1.01,-0.04,-1.31,0.57,-0.55,-0.39,0.28,0.29,1009.27
1.622,0.23,1.01,-0.01,-1.31,0.57,-0.55,-0.39,0.28,0.29,1009.27
1.624,0.23,1.01,-0.01,-1.31,0.57,-0.55,-0.13,0.23,0.17,1009.27
1.642,0.23,0.98,0.01,-1.31,0.57,-0.55,-0.13,0.23,0.17,1009.27
1.643,0.23,0.98,0.01,0.49,-0.29,0.92,-0.13,0.23,0.17,1009.27
1.653,0.24,0.96,0.03,0.49,-0.29,0.92,-0.13,0.23,0.17,1009.27
1.668,0.24,0.96,0.03,0.49,-0.29,0.92,-0.13,0.23,0.17,1009.34
1.691,0.24,0.96,0.03,0.49,-0.29,0.92,-0.04,0.13,0.09,1009.34
1.693,0.24,0.95,0.05,0.49,-0.29,0.92,-0.04,0.13,0.09,1009.34
1.708,0.23,0.96,0.03,0.49,-0.29,0.92,-0.04,0.13,0.09,1009.34
1.709,0.23,0.96,0.03,0.49,-0.29,0.92,-0.04,0.13,0.09,1009.26
1.711,0.23,0.96,0.01,0.49,-0.29,0.92,-0.04,0.13,0.09,1009.26
1.712,0.23,0.96,0.01,0.48,0.30,0.04,-0.04,0.13,0.09,1009.26
1.747,0.22,0.95,0.01,0.48,0.30,0.04,-0.04,0.13,0.09,1009.26
1.761,0.22,0.95,0.01,0.48,0.30,0.04,0.01,0.05,0.06,1009.26
1.762,0.22,0.95,0.01,0.48,0.30,0.04,0.01,0.05,0.06,1009.26
1.782,0.19,0.94,0.06,0.48,0.30,0.04,0.01,0.05,0.06,1009.26
1.784,0.19,0.94,0.06,0.40,-0.07,0.37,0.01,0.05,0.06,1009.26
1.787,0.19,0.94,0.06,0.40,-0.07,0.37,0.01,0.05,0.06,1009.26
1.831,0.19,0.94,0.06,0.40,-0.07,0.37,0.06,0.00,0.14,1009.26
1.833,0.20,0.95,0.04,0.40,-0.07,0.37,0.06,0.00,0.14,1009.26
1.834,0.21,0.96,0.01,0.40,-0.07,0.37,0.06,0.00,0.14,1009.26
1.851,0.21,0.96,0.01,0.06,-0.14,0.40,0.06,0.00,0.14,1009.26
1.852,0.22,0.96,-0.01,0.06,-0.14,0.40,0.06,0.00,0.14,1009.26
1.853,0.23,0.96,0.01,0.06,-0.14,0.40,0.06,0.00,0.14,1009.26
1.868,0.23,0.96,0.01,0.06,-0.14,0.40,0.06,0.00,0.14,1009.31
1.902,0.23,0.96,0.01,0.06,-0.14,0.40,0.10,-0.06,0.20,1009.31
1.904,0.24,0.96,0.02,0.06,-0.14,0.40,0.10,-0.06,0.20,1009.31
1.904,0.26,0.96,-0.00,0.06,-0.14,0.40,0.10,-0.06,0.20,1009.31
1.908,0.26,0.96,-0.00,0.06,-0.14,0.40,0.10,-0.06,0.20,1009.28
1.922,0.26,0.95,0.01,0.06,-0.14,0.40,0.10,-0.06,0.20,1009.28
1.923,0.26,0.95,0.01,-0.01,0.02,0.31,0.10,-0.06,0.20,1009.28
1.971,0.26,0.95,0.01,-0.01,0.02,0.31,0.14,-0.09,0.17,1009.28
1.973,0.27,0.96,-0.01,-0.01,0.02,0.31,0.14,-0.09,0.17,1009.28
1.974,0.25,0.96,-0.03,-0.01,0.02,0.31,0.14,-0.09,0.17,1009.28
1.984,0.25,0.96,-0.03,-0.01,0.02,0.31,0.14,-0.09,0.17,1009.28
1.988,0.25,0.96,-0.03,-0.01,0.02,0.31,0.14,-0.09,0.17,1009.29
1.993,0.23,0.97,-0.02,-0.01,0.02,0.31,0.14,-0.09,0.17,1009.29
1.995,0.23,0.97,-0.02,0.25,0.03,0.38,0.14,-0.09,0.17,1009.29
2.042,0.23,0.97,-0.02,0.25,0.03,0.38,0.18,-0.12,0.30,1009.29
2.043,0.23,0.97,-0.03,0.25,0.03,0.38,0.18,-0.12,0.30,1009.29
2.044,0.25,0.97,-0.02,0.25,0.03,0.38,0.18,-0.12,0.30,1009.29
2.053,0.23,0.98,-0.03,0.25,0.03,0.38,0.18,-0.12,0.30,1009.29
2.062,0.23,0.98,-0.03,-0.04,0.16,0.24,0.18,-0.12,0.30,1009.29
2.068,0.23,0.98,-0.03,-0.04,0.16,0.24,0.18,-0.12,0.30,1009.24
2.108,0.23,0.98,-0.03,-0.04,0.16,0.24,0.18,-0.12,0.30,1009.23
2.11,0.22,0.99,-0.02,-0.04,0.16,0.24,0.18,-0.12,0.30,1009.23
2.111,0.20,1.01,-0.01,-0.04,0.16,0.24,0.18,-0.12,0.30,1009.23
2.112,0.20,1.01,-0.01,-0.04,0.16,0.24,0.28,-0.25,0.64,1009.23
2.121,0.19,1.01,-0.01,-0.04,0.16,0.24,0.28,-0.25,0.64,1009.23
2.131,0.16,1.09,-0.06,-0.04,0.16,0.24,0.28,-0.25,0.64,1009.23
2.132,0.16,1.09,-0.06,-0.61,0.39,0.41,0.28,-0.25,0.64,1009.23
2.182,0.16,1.09,-0.06,-0.61,0.39,0.41,0.34,-0.35,1.49,1009.23
2.184,0.13,1.19,-0.10,-0.61,0.39,0.41,0.34,-0.35,1.49,1009.23
2.185,0.15,1.27,-0.17,-0.61,0.39,0.41,0.34,-0.35,1.49,1009.23
2.187,0.15,1.27,-0.17,-0.61,0.39,0.41,0.34,-0.35,1.49,1009.31
2.202,0.12,1.31,-0.21,-0.61,0.39,0.41,0.34,-0.35,1.49,1009.31
2.203,0.12,1.31,-0.21,-2.01,1.27,0.59,0.34,-0.35,1.49,1009.31
2.251,0.12,1.31,-0.21,-2.01,1.27,0.59,0.09,-0.24,3.05,1009.31
2.253,0.06,1.32,-0.16,-2.01,1.27,0.59,0.09,-0.24,3.05,1009.31
2.254,-0.01,1.30,-0.03,-2.01,1.27,0.59,0.09,-0.24,3.05,1009.31
2.255,0.06,1.28,0.08,-2.01,1.27,0.59,0.09,-0.24,3.05,1009.31
2.268,0.06,1.28,0.08,-2.01,1.27,0.59,0.09,-0.24,3.05,1009.25
2.271,0.36,1.25,0.36,-2.01,1.27,0.59,0.09,-0.24,3.05,1009.25
2.272,0.36,1.25,0.36,-4.47,4.63,-0.59,0.09,-0.24,3.05,1009.25
2.308,0.42,1.20,0.67,-4.47,4.63,-0.59,0.09,-0.24,3.05,1009.25
2.31,0.42,1.20,0.67,-4.47,4.63,-0.59,0.09,-0.24,3.05,1009.24
2.322,-0.31,0.90,0.42,-4.47,4.63,-0.59,0.09,-0.24,3.05,1009.24
2.323,-0.31,0.90,0.42,-4.47,4.63,-0.59,0.54,-0.51,4.51,1009.24
2.349,1.30,0.65,0.22,-4.47,4.63,-0.59,0.54,-0.51,4.51,1009.24
2.35,1.30,0.65,0.22,-6.31,6.66,2.49,0.54,-0.51,4.51,1009.24
2.385,1.85,1.16,-0.00,-6.31,6.66,2.49,0.54,-0.51,4.51,1009.24
2.387,0.10,0.68,0.34,-6.31,6.66,2.49,0.54,-0.51,4.51,1009.24
2.388,0.10,0.68,0.34,-6.31,6.66,2.49,0.54,-0.51,4.51,1009.29
2.391,0.10,0.68,0.34,-6.31,6.66,2.49,0.27,1.27,0.54,1009.29
2.412,0.10,0.68,0.34,-0.64,2.92,4.06,0.27,1.27,0.54,1009.29
2.413,-0.22,0.64,0.26,-0.64,2.92,4.06,0.27,1.27,0.54,1009.29
2.414,0.04,0.67,0.14,-0.64,2.92,4.06,0.27,1.27,0.54,1009.29
2.454,0.00,0.61,0.18,-0.64,2.92,4.06,0.27,1.27,0.54,1009.29
2.455,0.04,0.64,0.14,-0.64,2.92,4.06,0.27,1.27,0.54,1009.29
2.462,0.04,0.64,0.14,-0.64,2.92,4.06,0.17,1.93,-1.62,1009.29
2.468,0.04,0.64,0.14,-0.64,2.92,4.06,0.17,1.93,-1.62,1009.28
2.483,0.16,0.67,0.12,-0.64,2.92,4.06,0.17,1.93,-1.62,1009.28
2.484,0.16,0.67,0.12,-4.15,0.08,1.73,0.17,1.93,-1.62,1009.28
2.508,0.18,0.71,0.13,-4.15,0.08,1.73,0.17,1.93,-1.62,1009.28
2.509,0.18,0.71,0.13,-4.15,0.08,1.73,0.17,1.93,-1.62,1009.29
2.522,0.20,0.77,0.13,-4.15,0.08,1.73,0.17,1.93,-1.62,1009.29
2.531,0.20,0.77,0.13,-4.15,0.08,1.73,0.26,0.56,-3.40,1009.29
2.552,0.28,0.84,0.13,-4.15,0.08,1.73,0.26,0.56,-3.40,1009.29
2.553,0.33,0.93,0.12,-4.15,0.08,1.73,0.26,0.56,-3.40,1009.29
2.554,0.33,0.93,0.12,-3.31,-2.26,1.06,0.26,0.56,-3.40,1009.29
2.588,0.39,1.05,0.13,-3.31,-2.26,1.06,0.26,0.56,-3.40,1009.29
2.589,0.39,1.05,0.13,-3.31,-2.26,1.06,0.26,0.56,-3.40,1009.32
2.602,0.39,1.05,0.13,-3.31,-2.26,1.06,0.28,0.52,-3.65,1009.32
2.604,0.47,1.15,0.14,-3.31,-2.26,1.06,0.28,0.52,-3.65,1009.32
2.622,0.47,1.15,0.14,0.59,-1.18,0.89,0.28,0.52,-3.65,1009.32
2.624,0.45,1.25,0.13,0.59,-1.18,0.89,0.28,0.52,-3.65,1009.32
2.654,0.42,1.33,0.10,0.59,-1.18,0.89,0.28,0.52,-3.65,1009.32
2.656,0.51,1.37,0.10,0.59,-1.18,0.89,0.28,0.52,-3.65,1009.32
2.668,0.51,1.37,0.10,0.59,-1.18,0.89,0.28,0.52,-3.65,1009.25
2.671,0.51,1.37,0.10,0.59,-1.18,0.89,0.06,0.99,-2.74,1009.25
2.692,0.51,1.37,0.10,3.85,1.92,0.79,0.06,0.99,-2.74,1009.25
2.693,0.64,1.35,0.07,3.85,1.92,0.79,0.06,0.99,-2.74,1009.25
2.694,0.84,1.28,0.06,3.85,1.92,0.79,0.06,0.99,-2.74,1009.25
2.708,0.84,1.28,0.06,3.85,1.92,0.79,0.06,0.99,-2.74,1009.22
2.721,1.12,1.13,0.05,3.85,1.92,0.79,0.06,0.99,-2.74,1009.22
2.743,1.12,1.13,0.05,3.85,1.92,0.79,-0.29,0.66,-2.07,1009.22
2.745,1.43,0.88,-0.05,3.85,1.92,0.79,-0.29,0.66,-2.07,1009.22
2.764,1.66,0.54,0.01,3.85,1.92,0.79,-0.29,0.66,-2.07,1009.22
2.765,1.66,0.54,0.01,6.96,3.52,0.09,-0.29,0.66,-2.07,1009.22
2.787,1.43,0.22,0.13,6.96,3.52,0.09,-0.29,0.66,-2.07,1009.22
2.789,1.43,0.22,0.13,6.96,3.52,0.09,-0.29,0.66,-2.07,1009.25
2.812,1.43,0.22,0.13,6.96,3.52,0.09,-0.24,-0.16,-0.27,1009.25
2.813,0.90,0.29,-0.09,6.96,3.52,0.09,-0.24,-0.16,-0.27,1009.25
2.833,0.76,0.37,-0.10,6.96,3.52,0.09,-0.24,-0.16,-0.27,1009.25
2.834,1.18,0.49,0.03,6.96,3.52,0.09,-0.24,-0.16,-0.27,1009.25
2.834,1.18,0.49,0.03,13.70,-2.09,-0.55,-0.24,-0.16,-0.27,1009.25
2.854,0.31,0.42,0.80,13.70,-2.09,-0.55,-0.24,-0.16,-0.27,1009.25
2.869,0.31,0.42,0.80,13.70,-2.09,-0.55,-0.24,-0.16,-0.27,1009.29
2.882,0.31,0.42,0.80,13.70,-2.09,-0.55,0.81,0.85,2.54,1009.29
2.883,2.55,1.79,0.89,13.70,-2.09,-0.55,0.81,0.85,2.54,1009.29
2.903,2.55,1.79,0.89,8.18,-5.87,-0.31,0.81,0.85,2.54,1009.29
2.904,0.36,1.22,-0.87,8.18,-5.87,-0.31,0.81,0.85,2.54,1009.29
2.909,0.36,1.22,-0.87,8.18,-5.87,-0.31,0.81,0.85,2.54,1009.72
2.921,0.56,1.45,-2.09,8.18,-5.87,-0.31,0.81,0.85,2.54,1009.72
2.953,0.56,1.45,-2.09,8.18,-5.87,-0.31,-0.01,0.53,0.40,1009.72
2.954,0.26,0.96,-0.09,8.18,-5.87,-0.31,-0.01,0.53,0.40,1009.72
2.973,0.26,0.96,-0.09,7.12,2.14,-2.00,-0.01,0.53,0.40,1009.72
2.974,0.23,0.87,0.44,7.12,2.14,-2.00,-0.01,0.53,0.40,1009.72
2.975,0.26,0.89,-0.21,7.12,2.14,-2.00,-0.01,0.53,0.40,1009.72
2.988,0.26,0.89,-0.21,7.12,2.14,-2.00,-0.01,0.53,0.40,1009.47
3.022,0.26,0.89,-0.21,7.12,2.14,-2.00,-0.24,0.27,0.20,1009.47
3.024,0.30,0.89,0.45,7.12,2.14,-2.00,-0.24,0.27,0.20,1009.47
3.024,0.25,0.92,0.32,7.12,2.14,-2.00,-0.24,0.27,0.20,1009.47
3.042,0.25,0.92,0.32,1.49,0.43,-1.99,-0.24,0.27,0.20,1009.47
3.044,0.29,0.97,-0.12,1.49,0.43,-1.99,-0.24,0.27,0.20,1009.47
3.054,0.27,1.00,0.12,1.49,0.43,-1.99,-0.24,0.27,0.20,1009.47
3.068,0.27,1.00,0.12,1.49,0.43,-1.99,-0.24,0.27,0.20,1009.39
3.092,0.27,1.00,0.12,1.49,0.43,-1.99,-0.08,0.12,0.14,1009.39
3.093,0.31,1.01,-0.01,1.49,0.43,-1.99,-0.08,0.12,0.14,1009.39
3.108,0.32,0.96,-0.06,1.49,0.43,-1.99,-0.08,0.12,0.14,1009.39
3.109,0.32,0.96,-0.06,1.49,0.43,-1.99,-0.08,0.12,0.14,1009.32
3.112,0.28,0.94,0.17,1.49,0.43,-1.99,-0.08,0.12,0.14,1009.32
3.112,0.28,0.94,0.17,0.57,-0.15,1.33,-0.08,0.12,0.14,1009.32
3.164,0.28,0.95,0.08,0.57,-0.15,1.33,-0.08,0.12,0.14,1009.32
3.164,0.28,0.93,0.13,0.57,-0.15,1.33,-0.08,0.12,0.14,1009.32
3.165,0.28,0.93,0.13,0.57,-0.15,1.33,-0.10,-0.03,0.04,1009.32
3.182,0.28,0.93,0.13,0.72,0.26,-0.04,-0.10,-0.03,0.04,1009.32
3.183,0.28,0.92,0.12,0.72,0.26,-0.04,-0.10,-0.03,0.04,1009.32
3.188,0.28,0.92,0.12,0.72,0.26,-0.04,-0.10,-0.03,0.04,1009.27
3.233,0.28,0.92,0.12,0.72,0.26,-0.04,0.02,-0.10,-0.00,1009.27
3.234,0.28,0.92,0.10,0.72,0.26,-0.04,0.02,-0.10,-0.00,1009.27
3.235,0.28,0.93,0.09,0.72,0.26,-0.04,0.02,-0.10,-0.00,1009.27
3.252,0.28,0.93,0.09,0.54,-0.19,0.54,0.02,-0.10,-0.00,1009.27
3.253,0.26,0.93,0.09,0.54,-0.19,0.54,0.02,-0.10,-0.00,1009.27
3.254,0.28,0.94,0.07,0.54,-0.19,0.54,0.02,-0.10,-0.00,1009.27
3.268,0.28,0.94,0.07,0.54,-0.19,0.54,0.02,-0.10,-0.00,1009.27
3.303,0.26,0.93,0.10,0.54,-0.19,0.54,0.02,-0.10,-0.00,1009.27
3.305,0.25,0.94,0.09,0.54,-0.19,0.54,0.02,-0.10,-0.00,1009.27
3.305,0.25,0.94,0.09,0.54,-0.19,0.54,0.05,-0.14,0.01,1009.27
3.308,0.25,0.94,0.09,0.54,-0.19,0.54,0.05,-0.14,0.01,1009.36
3.321,0.24,0.94,0.09,0.54,-0.19,0.54,0.05,-0.14,0.01,1009.36
3.322,0.24,0.94,0.09,0.45,-0.18,0.34,0.05,-0.14,0.01,1009.36
3.372,0.24,0.94,0.09,0.45,-0.18,0.34,0.11,-0.18,0.13,1009.36
3.374,0.26,0.95,0.07,0.45,-0.18,0.34,0.11,-0.18,0.13,1009.36
3.374,0.25,0.96,0.06,0.45,-0.18,0.34,0.11,-0.18,0.13,1009.36
3.391,0.25,0.97,0.04,0.45,-0.18,0.34,0.11,-0.18,0.13,1009.36
3.393,0.25,0.97,0.04,0.45,-0.18,0.34,0.11,-0.18,0.13,1009.43
3.393,0.26,0.99,0.03,0.45,-0.18,0.34,0.11,-0.18,0.13,1009.43
3.396,0.26,0.99,0.03,0.08,-0.07,0.54,0.11,-0.18,0.13,1009.43
3.442,0.26,0.99,0.03,0.08,-0.07,0.54,0.04,-0.32,0.37,1009.43
3.445,0.22,1.01,0.02,0.08,-0.07,0.54,0.04,-0.32,0.37,1009.43
3.445,0.21,1.04,-0.01,0.08,-0.07,0.54,0.04,-0.32,0.37,1009.43
3.454,0.19,1.05,-0.04,0.08,-0.07,0.54,0.04,-0.32,0.37,1009.43
3.462,0.19,1.05,-0.04,-0.23,0.31,0.09,0.04,-0.32,0.37,1009.43
3.468,0.19,1.05,-0.04,-0.23,0.31,0.09,0.04,-0.32,0.37,1009.43
3.508,0.19,1.05,-0.04,-0.23,0.31,0.09,0.04,-0.32,0.37,1009.49
3.51,0.23,1.05,-0.03,-0.23,0.31,0.09,0.04,-0.32,0.37,1009.49
3.51,0.23,1.06,-0.03,-0.23,0.31,0.09,0.04,-0.32,0.37,1009.49
3.513,0.23,1.06,-0.03,-0.23,0.31,0.09,-0.26,-0.16,0.97,1009.49
3.52,0.23,1.08,0.01,-0.23,0.31,0.09,-0.26,-0.16,0.97,1009.49
3.532,0.18,1.12,0.04,-0.23,0.31,0.09,-0.26,-0.16,0.97,1009.49
3.533,0.18,1.12,0.04,-1.42,1.21,-0.67,-0.26,-0.16,0.97,1009.49
3.584,0.18,1.12,0.04,-1.42,1.21,-0.67,-0.45,-0.24,2.04,1009.49
3.586,0.15,1.23,0.01,-1.42,1.21,-0.67,-0.45,-0.24,2.04,1009.49
3.586,0.05,1.31,0.01,-1.42,1.21,-0.67,-0.45,-0.24,2.04,1009.49
3.588,0.05,1.31,0.01,-1.42,1.21,-0.67,-0.45,-0.24,2.04,1009.51
3.603,0.05,1.31,0.01,-2.85,2.40,-0.68,-0.45,-0.24,2.04,1009.51
3.604,-0.01,1.44,-0.07,-2.85,2.40,-0.68,-0.45,-0.24,2.04,1009.51
3.652,-0.01,1.44,-0.07,-2.85,2.40,-0.68,-0.84,-0.69,4.43,1009.51
3.654,-0.26,1.52,0.01,-2.85,2.40,-0.68,-0.84,-0.69,4.43,1009.51
3.654,-0.29,1.61,0.06,-2.85,2.40,-0.68,-0.84,-0.69,4.43,1009.51
3.655,0.17,1.56,0.15,-2.85,2.40,-0.68,-0.84,-0.69,4.43,1009.51
3.668,0.17,1.56,0.15,-2.85,2.40,-0.68,-0.84,-0.69,4.43,1009.28
3.672,0.18,1.22,0.49,-2.85,2.40,-0.68,-0.84,-0.69,4.43,1009.28
3.673,0.18,1.22,0.49,-7.18,7.26,-0.97,-0.84,-0.69,4.43,1009.28
3.708,0.15,1.12,0.61,-7.18,7.26,-0.97,-0.84,-0.69,4.43,1009.28
3.71,0.15,1.12,0.61,-7.18,7.26,-0.97,-0.84,-0.69,4.43,1008.64
3.72,0.52,0.94,0.22,-7.18,7.26,-0.97,-0.84,-0.69,4.43,1008.64
3.722,0.52,0.94,0.22,-7.18,7.26,-0.97,-0.65,-0.89,5.69,1008.64
3.743,0.52,0.94,0.22,-8.97,10.54,1.48,-0.65,-0.89,5.69,1008.64
3.745,2.17,0.75,0.26,-8.97,10.54,1.48,-0.65,-0.89,5.69,1008.64
3.785,0.37,0.74,0.39,-8.97,10.54,1.48,-0.65,-0.89,5.69,1008.64
3.787,-0.91,0.68,0.08,-8.97,10.54,1.48,-0.65,-0.89,5.69,1008.64
3.787,-0.91,0.68,0.08,-8.97,10.54,1.48,-0.65,-0.89,5.69,1008.95
3.792,-0.91,0.68,0.08,-8.97,10.54,1.48,-0.49,-0.48,-1.27,1008.95
3.812,-0.11,0.62,0.02,-8.97,10.54,1.48,-0.49,-0.48,-1.27,1008.95
3.814,0.37,0.56,0.13,-8.97,10.54,1.48,-0.49,-0.48,-1.27,1008.95
3.815,0.37,0.56,0.13,1.71,4.16,3.18,-0.49,-0.48,-1.27,1008.95
3.854,0.28,0.60,0.07,1.71,4.16,3.18,-0.49,-0.48,-1.27,1008.95
3.855,0.15,0.67,-0.06,1.71,4.16,3.18,-0.49,-0.48,-1.27,1008.95
3.864,0.15,0.67,-0.06,1.71,4.16,3.18,-0.43,0.42,-3.71,1008.95
3.868,0.15,0.67,-0.06,1.71,4.16,3.18,-0.43,0.42,-3.71,1009.13
3.884,0.09,0.71,-0.10,1.71,4.16,3.18,-0.43,0.42,-3.71,1009.13
3.885,0.09,0.71,-0.10,-8.75,-1.32,-0.01,-0.43,0.42,-3.71,1009.13
3.908,0.26,0.79,-0.11,-8.75,-1.32,-0.01,-0.43,0.42,-3.71,1009.13
3.909,0.26,0.79,-0.11,-8.75,-1.32,-0.01,-0.43,0.42,-3.71,1009.21
3.921,0.43,0.91,-0.14,-8.75,-1.32,-0.01,-0.43,0.42,-3.71,1009.21
3.932,0.43,0.91,-0.14,-8.75,-1.32,-0.01,-0.04,-0.00,-4.98,1009.21
3.954,0.43,0.91,-0.14,-1.37,-2.23,-1.27,-0.04,-0.00,-4.98,1009.21
3.955,0.53,1.00,-0.17,-1.37,-2.23,-1.27,-0.04,-0.00,-4.98,1009.21
3.956,0.50,1.13,-0.21,-1.37,-2.23,-1.27,-0.04,-0.00,-4.98,1009.21
3.984,0.52,1.29,-0.23,-1.37,-2.23,-1.27,-0.04,-0.00,-4.98,1009.21
3.988,0.52,1.29,-0.23,-1.37,-2.23,-1.27,-0.04,-0.00,-4.98,1009.28
4.003,0.52,1.29,-0.23,-1.37,-2.23,-1.27,0.39,0.22,-4.83,1009.28
4.004,0.59,1.41,-0.16,-1.37,-2.23,-1.27,0.39,0.22,-4.83,1009.28
4.023,0.59,1.41,-0.16,4.22,0.25,-2.17,0.39,0.22,-4.83,1009.28
4.025,0.72,1.50,-0.19,4.22,0.25,-2.17,0.39,0.22,-4.83,1009.28
4.054,1.06,1.55,-0.13,4.22,0.25,-2.17,0.39,0.22,-4.83,1009.28
4.055,1.52,1.37,0.04,4.22,0.25,-2.17,0.39,0.22,-4.83,1009.28
4.068,1.52,1.37,0.04,4.22,0.25,-2.17,0.39,0.22,-4.83,1009.22
4.072,1.52,1.37,0.04,4.22,0.25,-2.17,0.69,0.56,-3.62,1009.22
4.093,1.52,1.37,0.04,8.18,4.67,-1.87,0.69,0.56,-3.62,1009.22
4.094,2.05,0.94,0.17,8.18,4.67,-1.87,0.69,0.56,-3.62,1009.22
4.095,2.10,0.46,0.37,8.18,4.67,-1.87,0.69,0.56,-3.62,1009.22
4.108,2.10,0.46,0.37,8.18,4.67,-1.87,0.69,0.56,-3.62,1009.26
4.121,1.87,0.28,0.24,8.18,4.67,-1.87,0.69,0.56,-3.62,1009.26
4.143,1.87,0.28,0.24,8.18,4.67,-1.87,0.40,0.11,-0.63,1009.26
4.144,1.20,0.46,-0.07,8.18,4.67,-1.87,0.40,0.11,-0.63,1009.26
4.163,0.14,1.12,0.24,8.18,4.67,-1.87,0.40,0.11,-0.63,1009.26
4.164,0.14,1.12,0.24,18.04,0.42,1.45,0.40,0.11,-0.63,1009.26
4.187,-0.26,0.78,0.15,18.04,0.42,1.45,0.40,0.11,-0.63,1009.26
4.189,-0.26,0.78,0.15,18.04,0.42,1.45,0.40,0.11,-0.63,1009.36
4.212,-0.26,0.78,0.15,18.04,0.42,1.45,-0.77,0.83,4.28,1009.36
4.214,0.29,1.14,0.14,18.04,0.42,1.45,-0.77,0.83,4.28,1009.36
4.232,1.83,0.79,0.51,18.04,0.42,1.45,-0.77,0.83,4.28,1009.36
4.233,3.02,1.36,0.99,18.04,0.42,1.45,-0.77,0.83,4.28,1009.36
4.234,3.02,1.36,0.99,7.55,-3.45,1.14,-0.77,0.83,4.28,1009.36
4.254,-0.77,1.03,-2.12,7.55,-3.45,1.14,-0.77,0.83,4.28,1009.36
4.268,-0.77,1.03,-2.12,7.55,-3.45,1.14,-0.77,0.83,4.28,1009.65
4.282,-0.77,1.03,-2.12,7.55,-3.45,1.14,0.31,0.37,0.41,1009.65
4.283,0.63,0.96,0.52,7.55,-3.45,1.14,0.31,0.37,0.41,1009.65
4.303,0.33,0.95,0.03,7.55,-3.45,1.14,0.31,0.37,0.41,1009.65
4.304,0.33,0.95,0.03,11.28,1.49,4.46,0.31,0.37,0.41,1009.65
4.308,0.33,0.95,0.03,11.28,1.49,4.46,0.31,0.37,0.41,1009.48
4.321,0.14,0.96,0.21,11.28,1.49,4.46,0.31,0.37,0.41,1009.48
4.354,0.14,0.96,0.21,11.28,1.49,4.46,-0.16,0.10,0.22,1009.48
4.356,0.31,0.99,0.01,11.28,1.49,4.46,-0.16,0.10,0.22,1009.48
4.373,0.31,0.99,0.01,-1.56,0.34,-4.42,-0.16,0.10,0.22,1009.48
4.374,0.26,0.91,0.22,-1.56,0.34,-4.42,-0.16,0.10,0.22,1009.48
4.375,0.29,0.95,0.09,-1.56,0.34,-4.42,-0.16,0.10,0.22,1009.48
4.388,0.29,0.95,0.09,-1.56,0.34,-4.42,-0.16,0.10,0.22,1009.34
4.423,0.29,0.95,0.09,-1.56,0.34,-4.42,0.06,-0.02,0.13,1009.34
4.425,0.32,0.98,-0.02,-1.56,0.34,-4.42,0.06,-0.02,0.13,1009.34
4.425,0.28,0.97,0.01,-1.56,0.34,-4.42,0.06,-0.02,0.13,1009.34
4.443,0.28,0.97,0.01,0.38,0.12,0.81,0.06,-0.02,0.13,1009.34
4.444,0.29,0.95,0.03,0.38,0.12,0.81,0.06,-0.02,0.13,1009.34
4.456,0.29,0.94,0.05,0.38,0.12,0.81,0.06,-0.02,0.13,1009.34
4.469,0.29,0.94,0.05,0.38,0.12,0.81,0.06,-0.02,0.13,1009.30
4.493,0.29,0.94,0.05,0.38,0.12,0.81,0.02,-0.07,0.04,1009.30
4.493,0.27,0.93,0.06,0.38,0.12,0.81,0.02,-0.07,0.04,1009.30
4.509,0.27,0.92,0.09,0.38,0.12,0.81,0.02,-0.07,0.04,1009.30
4.51,0.27,0.92,0.09,0.38,0.12,0.81,0.02,-0.07,0.04,1009.25
4.513,0.28,0.93,0.06,0.38,0.12,0.81,0.02,-0.07,0.04,1009.25
4.514,0.28,0.93,0.06,0.61,0.24,-0.21,0.02,-0.07,0.04,1009.25
4.564,0.28,0.93,0.06,0.61,0.24,-0.21,0.09,-0.12,0.04,1009.25
4.565,0.26,0.94,0.05,0.61,0.24,-0.21,0.09,-0.12,0.04,1009.25
4.566,0.28,0.94,0.03,0.61,0.24,-0.21,0.09,-0.12,0.04,1009.25
4.584,0.27,0.95,0.03,0.61,0.24,-0.21,0.09,-0.12,0.04,1009.25
4.585,0.27,0.95,0.03,0.30,-0.08,0.41,0.09,-0.12,0.04,1009.25
4.589,0.27,0.95,0.03,0.30,-0.08,0.41,0.09,-0.12,0.04,1009.30
4.638,0.27,0.95,0.03,0.30,-0.08,0.41,0.11,-0.12,0.09,1009.30
4.643,0.27,0.94,0.03,0.30,-0.08,0.41,0.11,-0.12,0.09,1009.30
4.644,0.25,0.94,0.05,0.30,-0.08,0.41,0.11,-0.12,0.09,1009.30
4.653,0.25,0.94,0.05,0.19,0.04,0.18,0.11,-0.12,0.09,1009.30
4.654,0.24,0.95,0.04,0.19,0.04,0.18,0.11,-0.12,0.09,1009.30
4.654,0.26,0.97,-0.00,0.19,0.04,0.18,0.11,-0.12,0.09,1009.30
4.668,0.26,0.97,-0.00,0.19,0.04,0.18,0.11,-0.12,0.09,1009.35
4.703,0.26,0.97,-0.00,0.19,0.04,0.18,0.13,-0.21,0.25,1009.35
4.705,0.25,0.97,0.01,0.19,0.04,0.18,0.13,-0.21,0.25,1009.35
4.705,0.25,0.98,0.01,0.19,0.04,0.18,0.13,-0.21,0.25,1009.35
4.708,0.25,0.98,0.01,0.19,0.04,0.18,0.13,-0.21,0.25,1009.33
4.721,0.21,0.99,0.04,0.19,0.04,0.18,0.13,-0.21,0.25,1009.33
4.723,0.21,0.99,0.04,-0.17,0.17,0.28,0.13,-0.21,0.25,1009.33
4.746,0.17,1.01,0.00,-0.17,0.17,0.28,0.13,-0.21,0.25,1009.33
4.772,0.17,1.01,0.00,-0.17,0.17,0.28,0.07,-0.34,0.71,1009.33
4.774,0.20,1.08,-0.12,-0.17,0.17,0.28,0.07,-0.34,0.71,1009.33
4.785,0.21,1.13,-0.16,-0.17,0.17,0.28,0.07,-0.34,0.71,1009.33
4.788,0.21,1.13,-0.16,-0.17,0.17,0.28,0.07,-0.34,0.71,1009.38
4.793,0.17,1.15,-0.06,-0.17,0.17,0.28,0.07,-0.34,0.71,1009.38
4.794,0.17,1.15,-0.06,-1.05,0.64,0.24,0.07,-0.34,0.71,1009.38
4.838,0.14,1.19,-0.03,-1.05,0.64,0.24,0.07,-0.34,0.71,1009.38
4.839,0.16,1.29,-0.10,-1.05,0.64,0.24,0.07,-0.34,0.71,1009.38
4.843,0.16,1.29,-0.10,-1.05,0.64,0.24,-0.25,-0.11,1.78,1009.38
4.854,0.04,1.34,-0.07,-1.05,0.64,0.24,-0.25,-0.11,1.78,1009.38
4.863,0.04,1.34,-0.07,-2.68,2.47,-1.10,-0.25,-0.11,1.78,1009.38
4.869,0.04,1.34,-0.07,-2.68,2.47,-1.10,-0.25,-0.11,1.78,1009.53
4.908,0.04,1.34,-0.07,-2.68,2.47,-1.10,-0.25,-0.11,1.78,1009.39
4.91,-0.12,1.47,-0.12,-2.68,2.47,-1.10,-0.25,-0.11,1.78,1009.39
4.91,-0.38,1.50,-0.04,-2.68,2.47,-1.10,-0.25,-0.11,1.78,1009.39
4.912,-0.38,1.50,-0.04,-2.68,2.47,-1.10,-0.59,-0.40,4.00,1009.39
4.921,-0.38,1.45,-0.04,-2.68,2.47,-1.10,-0.59,-0.40,4.00,1009.39
4.933,0.16,1.50,0.17,-2.68,2.47,-1.10,-0.59,-0.40,4.00,1009.39
4.935,0.16,1.50,0.17,-6.16,6.25,-1.02,-0.59,-0.40,4.00,1009.39
4.982,0.16,1.50,0.17,-6.16,6.25,-1.02,-0.46,-0.86,6.39,1009.39
4.984,0.34,1.19,0.47,-6.16,6.25,-1.02,-0.46,-0.86,6.39,1009.39
4.984,0.39,1.10,0.74,-6.16,6.25,-1.02,-0.46,-0.86,6.39,1009.39
4.987,0.39,1.10,0.74,-6.16,6.25,-1.02,-0.46,-0.86,6.39,1008.83
5.003,0.77,0.70,0.35,-6.16,6.25,-1.02,-0.46,-0.86,6.39,1008.83
5.004,0.77,0.70,0.35,-10.78,11.27,0.20,-0.46,-0.86,6.39,1008.83
5.055,0.77,0.70,0.35,-10.78,11.27,0.20,0.02,0.33,0.25,1008.83
5.059,2.84,1.08,0.01,-10.78,11.27,0.20,0.02,0.33,0.25,1008.83
5.06,0.30,0.64,0.53,-10.78,11.27,0.20,0.02,0.33,0.25,1008.83
5.061,-0.71,0.69,0.12,-10.78,11.27,0.20,0.02,0.33,0.25,1008.83
5.068,-0.71,0.69,0.12,-10.78,11.27,0.20,0.02,0.33,0.25,1008.97
5.072,-0.14,0.59,0.06,-10.78,11.27,0.20,0.02,0.33,0.25,1008.97
5.073,-0.14,0.59,0.06,-1.01,4.93,3.55,0.02,0.33,0.25,1008.97
5.109,0.24,0.48,0.21,-1.01,4.93,3.55,0.02,0.33,0.25,1008.97
5.11,0.24,0.48,0.21,-1.01,4.93,3.55,0.02,0.33,0.25,1009.05
5.121,0.22,0.48,0.16,-1.01,4.93,3.55,0.02,0.33,0.25,1009.05
5.122,0.22,0.48,0.16,-1.01,4.93,3.55,-0.04,1.04,-2.82,1009.05
5.144,0.02,0.56,-0.03,-1.01,4.93,3.55,-0.04,1.04,-2.82,1009.05
5.145,0.02,0.56,-0.03,-3.81,1.32,1.44,-0.04,1.04,-2.82,1009.05
5.188,-0.00,0.64,-0.14,-3.81,1.32,1.44,-0.04,1.04,-2.82,1009.05
5.19,0.19,0.71,-0.10,-3.81,1.32,1.44,-0.04,1.04,-2.82,1009.05
5.191,0.19,0.71,-0.10,-3.81,1.32,1.44,-0.04,1.04,-2.82,1009.19
5.192,0.19,0.71,-0.10,-3.81,1.32,1.44,0.19,0.18,-4.67,1009.19
5.213,0.38,0.81,-0.11,-3.81,1.32,1.44,0.19,0.18,-4.67,1009.19
5.214,0.50,0.96,-0.13,-3.81,1.32,1.44,0.19,0.18,-4.67,1009.19
5.215,0.50,0.96,-0.13,-3.15,-3.07,-0.05,0.19,0.18,-4.67,1009.19
5.254,0.52,1.07,-0.17,-3.15,-3.07,-0.05,0.19,0.18,-4.67,1009.19
5.256,0.51,1.28,-0.24,-3.15,-3.07,-0.05,0.19,0.18,-4.67,1009.19
5.263,0.51,1.28,-0.24,-3.15,-3.07,-0.05,0.36,0.05,-5.09,1009.19
5.268,0.51,1.28,-0.24,-3.15,-3.07,-0.05,0.36,0.05,-5.09,1009.22
5.285,0.57,1.46,-0.25,-3.15,-3.07,-0.05,0.36,0.05,-5.09,1009.22
5.287,0.57,1.46,-0.25,1.62,-1.32,-1.72,0.36,0.05,-5.09,1009.22
5.308,0.78,1.63,-0.27,1.62,-1.32,-1.72,0.36,0.05,-5.09,1009.22
5.31,0.78,1.63,-0.27,1.62,-1.32,-1.72,0.36,0.05,-5.09,1009.22
5.321,1.27,1.62,-0.12,1.62,-1.32,-1.72,0.36,0.05,-5.09,1009.22
5.332,1.27,1.62,-0.12,1.62,-1.32,-1.72,0.56,0.36,-4.59,1009.22
5.355,1.27,1.62,-0.12,6.83,3.65,-2.24,0.56,0.36,-4.59,1009.22
5.357,1.70,1.39,0.08,6.83,3.65,-2.24,0.56,0.36,-4.59,1009.22
5.357,1.61,0.97,0.22,6.83,3.65,-2.24,0.56,0.36,-4.59,1009.22
5.377,1.77,0.70,0.06,6.83,3.65,-2.24,0.56,0.36,-4.59,1009.22
5.388,1.77,0.70,0.06,6.83,3.65,-2.24,0.56,0.36,-4.59,1009.29
5.404,1.77,0.70,0.06,6.83,3.65,-2.24,0.81,-0.28,-2.45,1009.29
5.405,2.33,0.25,0.16,6.83,3.65,-2.24,0.81,-0.28,-2.45,1009.29
5.423,2.33,0.25,0.16,15.31,4.16,0.27,0.81,-0.28,-2.45,1009.29
5.424,0.96,0.74,-0.10,15.31,4.16,0.27,0.81,-0.28,-2.45,1009.29
5.455,-0.04,0.47,0.03,15.31,4.16,0.27,0.81,-0.28,-2.45,1009.29
5.456,-0.42,0.92,0.19,15.31,4.16,0.27,0.81,-0.28,-2.45,1009.29
5.469,-0.42,0.92,0.19,15.31,4.16,0.27,0.81,-0.28,-2.45,1009.42
5.472,-0.42,0.92,0.19,15.31,4.16,0.27,-0.86,0.17,4.55,1009.42
5.493,-0.42,0.92,0.19,12.98,-4.58,-0.24,-0.86,0.17,4.55,1009.42
5.495,1.48,1.17,-0.10,12.98,-4.58,-0.24,-0.86,0.17,4.55,1009.42
5.495,3.04,0.75,2.39,12.98,-4.58,-0.24,-0.86,0.17,4.55,1009.42
5.508,3.04,0.75,2.39,12.98,-4.58,-0.24,-0.86,0.17,4.55,1009.71
5.521,0.23,1.51,-1.15,12.98,-4.58,-0.24,-0.86,0.17,4.55,1009.71
5.543,0.23,1.51,-1.15,12.98,-4.58,-0.24,0.05,0.47,0.84,1009.71
5.544,0.95,1.10,-1.32,12.98,-4.58,-0.24,0.05,0.47,0.84,1009.71
5.566,0.95,1.10,-1.32,8.86,0.19,6.70,0.05,0.47,0.84,1009.71
5.567,-0.00,0.88,0.72,8.86,0.19,6.70,0.05,0.47,0.84,1009.71
5.587,0.29,0.96,-0.05,8.86,0.19,6.70,0.05,0.47,0.84,1009.71
5.588,0.29,0.96,-0.05,8.86,0.19,6.70,0.05,0.47,0.84,1009.40
5.613,0.29,0.96,-0.05,8.86,0.19,6.70,-0.19,0.14,0.24,1009.40
5.614,0.23,0.98,0.26,8.86,0.19,6.70,-0.19,0.14,0.24,1009.40
5.633,0.26,0.95,-0.04,8.86,0.19,6.70,-0.19,0.14,0.24,1009.40
5.634,0.29,0.95,0.22,8.86,0.19,6.70,-0.19,0.14,0.24,1009.40
5.635,0.29,0.95,0.22,1.67,1.98,-5.37,-0.19,0.14,0.24,1009.40
5.654,0.29,0.98,0.01,1.67,1.98,-5.37,-0.19,0.14,0.24,1009.40
5.669,0.29,0.98,0.01,1.67,1.98,-5.37,-0.19,0.14,0.24,1009.27
5.684,0.29,0.98,0.01,1.67,1.98,-5.37,-0.07,-0.01,0.12,1009.27
5.684,0.29,0.98,-0.06,1.67,1.98,-5.37,-0.07,-0.01,0.12,1009.27
5.703,0.28,0.96,0.10,1.67,1.98,-5.37,-0.07,-0.01,0.12,1009.27
5.704,0.28,0.96,0.10,0.22,0.22,0.49,-0.07,-0.01,0.12,1009.27
5.707,0.28,0.96,0.10,0.22,0.22,0.49,-0.07,-0.01,0.12,1009.19
5.72,0.25,0.94,0.07,0.22,0.22,0.49,-0.07,-0.01,0.12,1009.19
5.746,0.26,0.94,0.10,0.22,0.22,0.49,-0.07,-0.01,0.12,1009.19
5.757,0.26,0.94,0.10,0.22,0.22,0.49,-0.08,-0.09,0.02,1009.19
5.774,0.26,0.94,0.10,0.53,0.34,-0.31,-0.08,-0.09,0.02,1009.19
5.775,0.25,0.93,0.10,0.53,0.34,-0.31,-0.08,-0.09,0.02,1009.19
5.775,0.26,0.94,0.07,0.53,0.34,-0.31,-0.08,-0.09,0.02,1009.19
5.789,0.26,0.94,0.07,0.53,0.34,-0.31,-0.08,-0.09,0.02,1009.21
5.823,0.26,0.94,0.07,0.53,0.34,-0.31,-0.02,-0.13,0.01,1009.21
5.825,0.24,0.94,0.07,0.53,0.34,-0.31,-0.02,-0.13,0.01,1009.21
5.826,0.25,0.95,0.05,0.53,0.34,-0.31,-0.02,-0.13,0.01,1009.21
5.844,0.25,0.95,0.05,0.23,0.02,0.28,-0.02,-0.13,0.01,1009.21
5.844,0.22,0.95,0.07,0.23,0.02,0.28,-0.02,-0.13,0.01,1009.21
5.858,0.22,0.95,0.08,0.23,0.02,0.28,-0.02,-0.13,0.01,1009.21
5.871,0.22,0.95,0.08,0.23,0.02,0.28,-0.02,-0.13,0.01,1009.31
5.893,0.22,0.95,0.08,0.23,0.02,0.28,0.01,-0.18,0.10,1009.31
5.895,0.22,0.95,0.08,0.23,0.02,0.28,0.01,-0.18,0.10,1009.31
5.908,0.26,0.97,0.04,0.23,0.02,0.28,0.01,-0.18,0.10,1009.31
5.909,0.26,0.97,0.04,0.23,0.02,0.28,0.01,-0.18,0.10,1009.29
5.913,0.26,0.97,0.05,0.23,0.02,0.28,0.01,-0.18,0.10,1009.29
5.913,0.26,0.97,0.05,-0.05,0.16,0.12,0.01,-0.18,0.10,1009.29
5.964,0.26,0.97,0.05,-0.05,0.16,0.12,-0.01,-0.28,0.19,1009.29
5.965,0.25,0.97,0.03,-0.05,0.16,0.12,-0.01,-0.28,0.19,1009.29
5.966,0.24,0.99,0.03,-0.05,0.16,0.12,-0.01,-0.28,0.19,1009.29
5.985,0.24,0.99,0.03,-0.14,0.29,0.10,-0.01,-0.28,0.19,1009.29
5.986,0.18,1.00,0.04,-0.14,0.29,0.10,-0.01,-0.28,0.19,1009.29
5.988,0.18,1.00,0.04,-0.14,0.29,0.10,-0.01,-0.28,0.19,1009.33
6.033,0.18,1.00,0.04,-0.14,0.29,0.10,-0.13,-0.30,0.67,1009.33
6.035,0.14,1.05,0.01,-0.14,0.29,0.10,-0.13,-0.30,0.67,1009.33
6.035,0.12,1.07,0.02,-0.14,0.29,0.10,-0.13,-0.30,0.67,1009.33
6.053,0.12,1.07,0.02,-1.05,0.86,-0.24,-0.13,-0.30,0.67,1009.33
6.054,0.12,1.09,0.01,-1.05,0.86,-0.24,-0.13,-0.30,0.67,1009.33
6.055,0.15,1.13,-0.00,-1.05,0.86,-0.24,-0.13,-0.30,0.67,1009.33
6.068,0.15,1.13,-0.00,-1.05,0.86,-0.24,-0.13,-0.30,0.67,1009.46
6.094,0.13,1.17,-0.01,-1.05,0.86,-0.24,-0.13,-0.30,0.67,1009.46
6.096,0.14,1.27,-0.09,-1.05,0.86,-0.24,-0.13,-0.30,0.67,1009.46
6.104,0.14,1.27,-0.09,-1.05,0.86,-0.24,-0.43,-0.20,1.76,1009.46
6.108,0.14,1.27,-0.09,-1.05,0.86,-0.24,-0.43,-0.20,1.76,1009.58
6.121,0.07,1.36,-0.09,-1.05,0.86,-0.24,-0.43,-0.20,1.76,1009.58
6.123,0.07,1.36,-0.09,-3.09,2.31,-0.74,-0.43,-0.20,1.76,1009.58
6.173,0.07,1.36,-0.09,-3.09,2.31,-0.74,-0.89,-0.48,3.72,1009.58
6.175,-0.05,1.47,-0.14,-3.09,2.31,-0.74,-0.89,-0.48,3.72,1009.58
6.176,-0.20,1.60,-0.12,-3.09,2.31,-0.74,-0.89,-0.48,3.72,1009.58
6.19,-0.35,1.67,0.07,-3.09,2.31,-0.74,-0.89,-0.48,3.72,1009.58
6.191,-0.35,1.67,0.07,-3.09,2.31,-0.74,-0.89,-0.48,3.72,1009.45
6.193,0.10,1.77,-0.03,-3.09,2.31,-0.74,-0.89,-0.48,3.72,1009.45
6.194,0.10,1.77,-0.03,-5.81,6.00,-1.80,-0.89,-0.48,3.72,1009.45
6.244,0.10,1.77,-0.03,-5.81,6.00,-1.80,-0.93,-0.80,5.96,1009.45
6.245,0.20,1.41,0.40,-5.81,6.00,-1.80,-0.93,-0.80,5.96,1009.45
6.246,-0.14,1.09,0.54,-5.81,6.00,-1.80,-0.93,-0.80,5.96,1009.45
6.254,-0.18,1.12,0.60,-5.81,6.00,-1.80,-0.93,-0.80,5.96,1009.45
6.263,-0.18,1.12,0.60,-10.05,12.89,-1.32,-0.93,-0.80,5.96,1009.45
6.267,-0.18,1.12,0.60,-10.05,12.89,-1.32,-0.93,-0.80,5.96,1008.72
6.309,-0.18,1.12,0.60,-10.05,12.89,-1.32,-0.93,-0.80,5.96,1008.85
6.312,0.93,0.19,0.01,-10.05,12.89,-1.32,-0.93,-0.80,5.96,1008.85
6.313,2.89,1.20,0.86,-10.05,12.89,-1.32,-0.93,-0.80,5.96,1008.85
6.315,2.89,1.20,0.86,-10.05,12.89,-1.32,0.05,-0.65,1.36,1008.85
6.322,-0.79,0.49,0.11,-10.05,12.89,-1.32,0.05,-0.65,1.36,1008.85
6.333,-0.57,0.52,-0.06,-10.05,12.89,-1.32,0.05,-0.65,1.36,1008.85
6.334,-0.57,0.52,-0.06,-8.97,6.20,3.68,0.05,-0.65,1.36,1008.85
6.383,-0.57,0.52,-0.06,-8.97,6.20,3.68,0.53,0.41,-3.19,1008.85
6.385,-0.10,0.46,0.11,-8.97,6.20,3.68,0.53,0.41,-3.19,1008.85
6.386,0.33,0.45,0.25,-8.97,6.20,3.68,0.53,0.41,-3.19,1008.85
6.388,0.33,0.45,0.25,-8.97,6.20,3.68,0.53,0.41,-3.19,1009.15
6.405,0.13,0.54,0.10,-8.97,6.20,3.68,0.53,0.41,-3.19,1009.15
6.408,0.13,0.54,0.10,0.41,0.27,1.90,0.53,0.41,-3.19,1009.15
6.453,0.13,0.54,0.10,0.41,0.27,1.90,0.92,0.64,-5.20,1009.15
6.455,0.10,0.65,0.06,0.41,0.27,1.90,0.92,0.64,-5.20,1009.15
6.456,0.21,0.72,0.10,0.41,0.27,1.90,0.92,0.64,-5.20,1009.15
6.456,0.33,0.89,0.04,0.41,0.27,1.90,0.92,0.64,-5.20,1009.15
6.468,0.33,0.89,0.04,0.41,0.27,1.90,0.92,0.64,-5.20,1009.28
6.475,0.43,1.05,-0.02,0.41,0.27,1.90,0.92,0.64,-5.20,1009.28
6.476,0.43,1.05,-0.02,-2.89,-3.37,0.94,0.92,0.64,-5.20,1009.28
6.508,0.42,1.22,-0.07,-2.89,-3.37,0.94,0.92,0.64,-5.20,1009.28
6.51,0.42,1.22,-0.07,-2.89,-3.37,0.94,0.92,0.64,-5.20,1009.24
6.521,0.41,1.40,-0.09,-2.89,-3.37,0.94,0.92,0.64,-5.20,1009.24
6.523,0.41,1.40,-0.09,-2.89,-3.37,0.94,0.77,0.21,-5.29,1009.24
6.544,0.41,1.40,-0.09,1.99,-0.78,0.35,0.77,0.21,-5.29,1009.24
6.545,0.49,1.56,-0.09,1.99,-0.78,0.35,0.77,0.21,-5.29,1009.24
6.584,0.82,1.71,-0.03,1.99,-0.78,0.35,0.77,0.21,-5.29,1009.24
6.586,1.32,1.65,0.12,1.99,-0.78,0.35,0.77,0.21,-5.29,1009.24
6.589,1.32,1.65,0.12,1.99,-0.78,0.35,0.77,0.21,-5.29,1009.21
6.594,1.32,1.65,0.12,1.99,-0.78,0.35,0.51,0.20,-4.64,1009.21
6.614,1.77,1.43,0.27,1.99,-0.78,0.35,0.51,0.20,-4.64,1009.21
6.616,1.88,0.99,0.32,1.99,-0.78,0.35,0.51,0.20,-4.64,1009.21
6.616,1.88,0.99,0.32,6.58,5.00,-0.44,0.51,0.20,-4.64,1009.21
6.654,2.31,0.42,0.45,6.58,5.00,-0.44,0.51,0.20,-4.64,1009.21
6.655,2.02,0.36,0.12,6.58,5.00,-0.44,0.51,0.20,-4.64,1009.21
6.663,2.02,0.36,0.12,6.58,5.00,-0.44,0.31,0.08,-1.89,1009.21
6.667,2.02,0.36,0.12,6.58,5.00,-0.44,0.31,0.08,-1.89,1009.30
6.684,2.02,0.36,0.12,16.60,4.56,2.26,0.31,0.08,-1.89,1009.30
6.686,0.58,1.21,0.18,16.60,4.56,2.26,0.31,0.08,-1.89,1009.30
6.708,0.09,0.67,-0.26,16.60,4.56,2.26,0.31,0.08,-1.89,1009.30
6.709,0.09,0.67,-0.26,16.60,4.56,2.26,0.31,0.08,-1.89,1009.53
6.721,-0.73,0.89,-0.48,16.60,4.56,2.26,0.31,0.08,-1.89,1009.53
6.733,-0.73,0.89,-0.48,16.60,4.56,2.26,-1.04,0.93,4.47,1009.53
6.745,1.60,1.13,-0.36,16.60,4.56,2.26,-1.04,0.93,4.47,1009.53
6.753,2.25,0.72,2.47,16.60,4.56,2.26,-1.04,0.93,4.47,1009.53
6.754,2.25,0.72,2.47,13.37,-3.80,1.61,-1.04,0.93,4.47,1009.53
6.788,0.78,1.43,-0.94,13.37,-3.80,1.61,-1.04,0.93,4.47,1009.53
6.789,0.78,1.43,-0.94,13.37,-3.80,1.61,-1.04,0.93,4.47,1009.59
6.804,0.80,1.11,-0.33,13.37,-3.80,1.61,-1.04,0.93,4.47,1009.59
6.805,0.80,1.11,-0.33,13.37,-3.80,1.61,-0.08,0.61,1.09,1009.59
6.825,0.07,0.90,0.14,13.37,-3.80,1.61,-0.08,0.61,1.09,1009.59
6.827,0.07,0.90,0.14,5.91,0.67,3.41,-0.08,0.61,1.09,1009.59
6.862,0.38,1.01,-0.06,5.91,0.67,3.41,-0.08,0.61,1.09,1009.59
6.863,0.25,1.01,0.07,5.91,0.67,3.41,-0.08,0.61,1.09,1009.59
6.868,0.25,1.01,0.07,5.91,0.67,3.41,-0.08,0.61,1.09,1009.45
6.874,0.25,1.01,0.07,5.91,0.67,3.41,-0.20,0.09,0.25,1009.45
6.894,0.25,1.01,0.07,3.26,1.94,-3.84,-0.20,0.09,0.25,1009.45
6.895,0.20,0.96,0.13,3.26,1.94,-3.84,-0.20,0.09,0.25,1009.45
6.896,0.26,0.97,0.10,3.26,1.94,-3.84,-0.20,0.09,0.25,1009.45
6.908,0.26,0.97,0.10,3.26,1.94,-3.84,-0.20,0.09,0.25,1009.29
6.922,0.27,0.98,0.06,3.26,1.94,-3.84,-0.20,0.09,0.25,1009.29
6.944,0.27,0.98,0.06,3.26,1.94,-3.84,-0.05,-0.08,0.14,1009.29
6.945,0.26,0.96,0.07,3.26,1.94,-3.84,-0.05,-0.08,0.14,1009.29
6.964,0.25,0.94,0.10,3.26,1.94,-3.84,-0.05,-0.08,0.14,1009.29
6.965,0.25,0.94,0.10,0.11,0.54,0.27,-0.05,-0.08,0.14,1009.29
6.984,0.22,0.94,0.10,0.11,0.54,0.27,-0.05,-0.08,0.14,1009.29
6.989,0.22,0.94,0.10,0.11,0.54,0.27,-0.05,-0.08,0.14,1009.21
7.014,0.22,0.94,0.10,0.11,0.54,0.27,0.06,-0.15,0.09,1009.21
7.015,0.26,0.95,0.06,0.11,0.54,0.27,0.06,-0.15,0.09,1009.21
7.034,0.26,0.95,0.06,0.23,0.29,0.35,0.06,-0.15,0.09,1009.21
7.035,0.26,0.95,0.05,0.23,0.29,0.35,0.06,-0.15,0.09,1009.21
7.036,0.25,0.95,0.05,0.23,0.29,0.35,0.06,-0.15,0.09,1009.21
7.054,0.23,0.96,0.04,0.23,0.29,0.35,0.06,-0.15,0.09,1009.21
7.069,0.23,0.96,0.04,0.23,0.29,0.35,0.06,-0.15,0.09,1009.25
7.085,0.23,0.96,0.04,0.23,0.29,0.35,0.07,-0.21,0.09,1009.25
7.086,0.23,0.96,0.07,0.23,0.29,0.35,0.07,-0.21,0.09,1009.25
7.104,0.23,0.96,0.07,0.12,0.21,0.20,0.07,-0.21,0.09,1009.25
7.105,0.21,0.95,0.08,0.12,0.21,0.20,0.07,-0.21,0.09,1009.25
7.108,0.21,0.95,0.08,0.12,0.21,0.20,0.07,-0.21,0.09,1009.27
7.121,0.22,0.95,0.05,0.12,0.21,0.20,0.07,-0.21,0.09,1009.27
7.155,0.22,0.95,0.05,0.12,0.21,0.20,0.12,-0.29,0.21,1009.27
7.156,0.24,0.95,0.03,0.12,0.21,0.20,0.12,-0.29,0.21,1009.27
7.174,0.24,0.95,0.03,-0.31,0.30,0.34,0.12,-0.29,0.21,1009.27
7.175,0.25,0.97,0.03,-0.31,0.30,0.34,0.12,-0.29,0.21,1009.27
7.175,0.20,0.99,0.03,-0.31,0.30,0.34,0.12,-0.29,0.21,1009.27
7.189,0.20,0.99,0.03,-0.31,0.30,0.34,0.12,-0.29,0.21,1009.31
7.224,0.20,0.99,0.03,-0.31,0.30,0.34,0.05,-0.35,0.55,1009.31
7.226,0.16,1.05,-0.01,-0.31,0.30,0.34,0.05,-0.35,0.55,1009.31
7.227,0.10,1.09,-0.05,-0.31,0.30,0.34,0.05,-0.35,0.55,1009.31
7.244,0.14,1.12,-0.12,-0.31,0.30,0.34,0.05,-0.35,0.55,1009.31
7.244,0.14,1.12,-0.12,-0.73,0.61,0.10,0.05,-0.35,0.55,1009.31
7.254,0.20,1.14,-0.15,-0.73,0.61,0.10,0.05,-0.35,0.55,1009.31
7.268,0.20,1.14,-0.15,-0.73,0.61,0.10,0.05,-0.35,0.55,1009.44
7.294,0.12,1.18,-0.01,-0.73,0.61,0.10,0.05,-0.35,0.55,1009.44
7.297,0.12,1.18,-0.01,-0.73,0.61,0.10,-0.30,-0.04,1.53,1009.44
7.309,0.06,1.25,0.00,-0.73,0.61,0.10,-0.30,-0.04,1.53,1009.44
7.31,0.06,1.25,0.00,-0.73,0.61,0.10,-0.30,-0.04,1.53,1009.51
7.315,0.01,1.38,-0.07,-0.73,0.61,0.10,-0.30,-0.04,1.53,1009.51
7.316,0.01,1.38,-0.07,-2.71,2.27,-1.16,-0.30,-0.04,1.53,1009.51
7.364,0.01,1.38,-0.07,-2.71,2.27,-1.16,-0.58,-0.53,3.45,1009.51
7.365,-0.17,1.49,-0.06,-2.71,2.27,-1.16,-0.58,-0.53,3.45,1009.51
7.366,-0.39,1.61,-0.10,-2.71,2.27,-1.16,-0.58,-0.53,3.45,1009.51
7.384,-0.43,1.70,-0.02,-2.71,2.27,-1.16,-0.58,-0.53,3.45,1009.51
7.385,-0.43,1.70,-0.02,-5.57,5.37,-0.92,-0.58,-0.53,3.45,1009.51
7.387,-0.43,1.70,-0.02,-5.57,5.37,-0.92,-0.58,-0.53,3.45,1009.40
7.434,-0.43,1.70,-0.02,-5.57,5.37,-0.92,-0.71,-0.91,6.17,1009.40
7.436,-0.03,1.62,0.15,-5.57,5.37,-0.92,-0.71,-0.91,6.17,1009.40
7.437,0.17,1.25,0.45,-5.57,5.37,-0.92,-0.71,-0.91,6.17,1009.40
7.455,0.17,1.25,0.45,-11.70,12.13,-0.57,-0.71,-0.91,6.17,1009.40
7.456,-0.03,1.09,0.69,-11.70,12.13,-0.57,-0.71,-0.91,6.17,1009.40
7.457,-0.05,0.85,0.34,-11.70,12.13,-0.57,-0.71,-0.91,6.17,1009.40
7.47,-0.05,0.85,0.34,-11.70,12.13,-0.57,-0.71,-0.91,6.17,1008.71
7.504,-0.05,0.85,0.34,-11.70,12.13,-0.57,0.03,-0.41,2.34,1008.71
7.506,2.34,0.62,0.03,-11.70,12.13,-0.57,0.03,-0.41,2.34,1008.71
7.507,1.95,0.85,0.69,-11.70,12.13,-0.57,0.03,-0.41,2.34,1008.71
7.508,1.95,0.85,0.69,-11.70,12.13,-0.57,0.03,-0.41,2.34,1008.95
7.52,-0.61,0.49,0.12,-11.70,12.13,-0.57,0.03,-0.41,2.34,1008.95
7.524,-0.61,0.49,0.12,-7.90,7.38,4.23,0.03,-0.41,2.34,1008.95
7.579,-0.61,0.49,0.12,-7.90,7.38,4.23,0.20,0.82,-2.31,1008.95
7.583,-0.62,0.48,-0.18,-7.90,7.38,4.23,0.20,0.82,-2.31,1008.95
7.583,-0.10,0.43,0.02,-7.90,7.38,4.23,0.20,0.82,-2.31,1008.95
7.587,0.56,0.38,0.28,-7.90,7.38,4.23,0.20,0.82,-2.31,1008.95
7.588,0.56,0.38,0.28,-7.90,7.38,4.23,0.20,0.82,-2.31,1009.14
7.594,0.56,0.38,0.28,1.99,0.70,1.51,0.20,0.82,-2.31,1009.14
7.595,0.35,0.45,0.15,1.99,0.70,1.51,0.20,0.82,-2.31,1009.14
7.645,0.35,0.45,0.15,1.99,0.70,1.51,0.64,0.49,-4.78,1009.14
7.646,0.02,0.56,-0.02,1.99,0.70,1.51,0.64,0.49,-4.78,1009.14
7.647,0.17,0.65,0.01,1.99,0.70,1.51,0.64,0.49,-4.78,1009.14
7.655,0.51,0.77,0.08,1.99,0.70,1.51,0.64,0.49,-4.78,1009.14
7.664,0.51,0.77,0.08,-3.65,-3.55,0.47,0.64,0.49,-4.78,1009.14
7.668,0.51,0.77,0.08,-3.65,-3.55,0.47,0.64,0.49,-4.78,1009.21
7.709,0.51,0.77,0.08,-3.65,-3.55,0.47,0.64,0.49,-4.78,1009.25
7.711,0.63,0.85,0.13,-3.65,-3.55,0.47,0.64,0.49,-4.78,1009.25
7.711,0.54,0.96,0.04,-3.65,-3.55,0.47,0.64,0.49,-4.78,1009.25
7.714,0.54,0.96,0.04,-3.65,-3.55,0.47,0.88,0.64,-5.38,1009.25
7.72,0.45,1.15,-0.04,-3.65,-3.55,0.47,0.88,0.64,-5.38,1009.25
7.734,0.44,1.35,-0.04,-3.65,-3.55,0.47,0.88,0.64,-5.38,1009.25
7.735,0.44,1.35,-0.04,0.97,-2.22,0.23,0.88,0.64,-5.38,1009.25
7.784,0.44,1.35,-0.04,0.97,-2.22,0.23,1.01,1.25,-4.53,1009.25
7.786,0.54,1.52,0.01,0.97,-2.22,0.23,1.01,1.25,-4.53,1009.25
7.787,0.82,1.61,0.07,0.97,-2.22,0.23,1.01,1.25,-4.53,1009.25
7.787,0.82,1.61,0.07,0.97,-2.22,0.23,1.01,1.25,-4.53,1009.26
7.804,0.82,1.61,0.07,5.60,1.79,0.53,1.01,1.25,-4.53,1009.26
7.806,1.45,1.54,0.22,5.60,1.79,0.53,1.01,1.25,-4.53,1009.26
7.835,1.85,1.25,0.43,5.60,1.79,0.53,1.01,1.25,-4.53,1009.26
7.836,1.77,0.88,0.32,5.60,1.79,0.53,1.01,1.25,-4.53,1009.26
7.854,2.14,0.61,0.25,5.60,1.79,0.53,1.01,1.25,-4.53,1009.26
7.855,2.14,0.61,0.25,5.60,1.79,0.53,0.82,1.29,-3.32,1009.26
7.868,2.14,0.61,0.25,5.60,1.79,0.53,0.82,1.29,-3.32,1009.27
7.885,2.02,0.31,0.31,5.60,1.79,0.53,0.82,1.29,-3.32,1009.27
7.886,2.02,0.31,0.31,12.29,5.99,2.20,0.82,1.29,-3.32,1009.27
7.908,0.74,0.91,-0.09,12.29,5.99,2.20,0.82,1.29,-3.32,1009.27
7.909,0.74,0.91,-0.09,12.29,5.99,2.20,0.82,1.29,-3.32,1009.42
7.921,-1.34,0.98,-0.04,12.29,5.99,2.20,0.82,1.29,-3.32,1009.42
7.926,-1.34,0.98,-0.04,12.29,5.99,2.20,-0.66,1.37,2.72,1009.42
7.946,-0.35,0.99,-0.48,12.29,5.99,2.20,-0.66,1.37,2.72,1009.42
7.947,-0.35,0.99,-0.48,18.10,-2.47,3.32,-0.66,1.37,2.72,1009.42
7.988,2.25,0.76,1.25,18.10,-2.47,3.32,-0.66,1.37,2.72,1009.42
7.99,2.43,1.51,0.57,18.10,-2.47,3.32,-0.66,1.37,2.72,1009.42
7.99,2.43,1.51,0.57,18.10,-2.47,3.32,-0.66,1.37,2.72,1009.34
7.995,2.43,1.51,0.57,18.10,-2.47,3.32,-0.51,0.62,2.16,1009.34
8.014,2.43,1.51,0.57,-1.17,0.84,-1.51,-0.51,0.62,2.16,1009.34
8.015,-0.35,1.03,-1.37,-1.17,0.84,-1.51,-0.51,0.62,2.16,1009.34
8.016,0.62,1.08,-0.02,-1.17,0.84,-1.51,-0.51,0.62,2.16,1009.34
8.055,0.11,1.00,0.10,-1.17,0.84,-1.51,-0.51,0.62,2.16,1009.34
8.056,0.23,0.95,0.22,-1.17,0.84,-1.51,-0.51,0.62,2.16,1009.34
8.066,0.23,0.95,0.22,-1.17,0.84,-1.51,-0.52,0.19,0.33,1009.34
8.067,0.23,0.95,0.22,-1.17,0.84,-1.51,-0.52,0.19,0.33,1009.35
8.084,0.17,0.93,0.12,-1.17,0.84,-1.51,-0.52,0.19,0.33,1009.35
8.086,0.17,0.93,0.12,8.63,1.41,0.67,-0.52,0.19,0.33,1009.35
8.108,0.27,0.96,0.10,8.63,1.41,0.67,-0.52,0.19,0.33,1009.35
8.109,0.27,0.96,0.10,8.63,1.41,0.67,-0.52,0.19,0.33,1009.18
8.121,0.27,0.98,0.04,8.63,1.41,0.67,-0.52,0.19,0.33,1009.18
8.134,0.27,0.98,0.04,8.63,1.41,0.67,-0.10,-0.04,0.32,1009.18
8.154,0.24,0.98,0.04,8.63,1.41,0.67,-0.10,-0.04,0.32,1009.18
8.155,0.26,0.95,0.05,8.63,1.41,0.67,-0.10,-0.04,0.32,1009.18
8.156,0.26,0.95,0.05,-0.42,0.38,1.09,-0.10,-0.04,0.32,1009.18
8.188,0.27,0.94,0.04,-0.42,0.38,1.09,-0.10,-0.04,0.32,1009.18
8.189,0.27,0.94,0.04,-0.42,0.38,1.09,-0.10,-0.04,0.32,1009.14
8.204,0.27,0.94,0.04,-0.42,0.38,1.09,0.03,-0.15,0.25,1009.14
8.206,0.28,0.94,0.06,-0.42,0.38,1.09,0.03,-0.15,0.25,1009.14
8.225,0.28,0.94,0.06,0.16,0.54,0.24,0.03,-0.15,0.25,1009.14
8.226,0.25,0.94,0.05,0.16,0.54,0.24,0.03,-0.15,0.25,1009.14
8.254,0.27,0.94,0.05,0.16,0.54,0.24,0.03,-0.15,0.25,1009.14
8.255,0.24,0.93,0.04,0.16,0.54,0.24,0.03,-0.15,0.25,1009.14
8.268,0.24,0.93,0.04,0.16,0.54,0.24,0.03,-0.15,0.25,1009.16
8.274,0.24,0.93,0.04,0.16,0.54,0.24,0.08,-0.26,0.22,1009.16
8.295,0.24,0.92,0.03,0.16,0.54,0.24,0.08,-0.26,0.22,1009.16
8.297,0.28,0.94,-0.02,0.16,0.54,0.24,0.08,-0.26,0.22,1009.16
8.297,0.28,0.94,-0.02,0.06,0.28,0.34,0.08,-0.26,0.22,1009.16
8.308,0.28,0.94,-0.02,0.06,0.28,0.34,0.08,-0.26,0.22,1009.22
8.321,0.25,0.96,0.02,0.06,0.28,0.34,0.08,-0.26,0.22,1009.22
8.345,0.25,0.96,0.02,0.06,0.28,0.34,0.06,-0.17,0.30,1009.22
8.346,0.28,0.97,-0.01,0.06,0.28,0.34,0.06,-0.17,0.30,1009.22
8.364,0.28,0.97,-0.01,-0.23,0.25,0.07,0.06,-0.17,0.30,1009.22
8.365,0.34,0.95,-0.03,-0.23,0.25,0.07,0.06,-0.17,0.30,1009.22
8.384,0.31,0.95,0.01,-0.23,0.25,0.07,0.06,-0.17,0.30,1009.22
8.388,0.31,0.95,0.01,-0.23,0.25,0.07,0.06,-0.17,0.30,1009.21
8.414,0.31,0.95,0.01,-0.23,0.25,0.07,0.04,-0.15,0.30,1009.21
8.416,0.29,0.97,0.01,-0.23,0.25,0.07,0.04,-0.15,0.30,1009.21
8.435,0.29,0.97,0.01,-0.08,0.56,-0.11,0.04,-0.15,0.30,1009.21
8.436,0.25,0.99,-0.01,-0.08,0.56,-0.11,0.04,-0.15,0.30,1009.21
8.436,0.23,1.01,-0.03,-0.08,0.56,-0.11,0.04,-0.15,0.30,1009.21
8.454,0.20,1.05,-0.03,-0.08,0.56,-0.11,0.04,-0.15,0.30,1009.21
8.468,0.20,1.05,-0.03,-0.08,0.56,-0.11,0.04,-0.15,0.30,1009.27
8.484,0.20,1.05,-0.03,-0.08,0.56,-0.11,0.03,-0.11,0.72,1009.27
8.485,0.15,1.06,-0.00,-0.08,0.56,-0.11,0.03,-0.11,0.72,1009.27
8.505,0.20,1.06,-0.04,-0.08,0.56,-0.11,0.03,-0.11,0.72,1009.27
8.506,0.20,1.06,-0.04,-0.92,1.05,-0.09,0.03,-0.11,0.72,1009.27
8.507,0.20,1.06,-0.04,-0.92,1.05,-0.09,0.03,-0.11,0.72,1009.30
8.521,0.23,1.08,-0.06,-0.92,1.05,-0.09,0.03,-0.11,0.72,1009.30
8.554,0.23,1.08,-0.06,-0.92,1.05,-0.09,0.01,-0.03,1.70,1009.30
8.557,0.20,1.15,-0.07,-0.92,1.05,-0.09,0.01,-0.03,1.70,1009.30
8.558,0.11,1.31,-0.10,-0.92,1.05,-0.09,0.01,-0.03,1.70,1009.30
8.575,-0.04,1.48,-0.16,-0.92,1.05,-0.09,0.01,-0.03,1.70,1009.30
8.576,-0.04,1.48,-0.16,-2.82,2.34,-0.28,0.01,-0.03,1.70,1009.30
8.587,-0.04,1.48,-0.16,-2.82,2.34,-0.28,0.01,-0.03,1.70,1009.34
8.624,-0.04,1.48,-0.16,-2.82,2.34,-0.28,-0.34,-0.23,4.03,1009.34
8.626,-0.33,1.70,-0.26,-2.82,2.34,-0.28,-0.34,-0.23,4.03,1009.34
8.626,-0.53,1.73,-0.23,-2.82,2.34,-0.28,-0.34,-0.23,4.03,1009.34
8.645,-0.53,1.73,-0.23,-5.97,6.51,-1.13,-0.34,-0.23,4.03,1009.34
8.646,-0.01,1.56,0.07,-5.97,6.51,-1.13,-0.34,-0.23,4.03,1009.34
8.668,-0.01,1.56,0.07,-5.97,6.51,-1.13,-0.34,-0.23,4.03,1009.32
8.669,0.73,1.27,0.57,-5.97,6.51,-1.13,-0.34,-0.23,4.03,1009.32
8.694,0.73,1.27,0.57,-5.97,6.51,-1.13,0.61,0.40,6.17,1009.32
8.695,0.11,0.72,0.64,-5.97,6.51,-1.13,0.61,0.40,6.17,1009.32
8.708,0.11,0.72,0.64,-5.97,6.51,-1.13,0.61,0.40,6.17,1009.17
8.709,-0.12,0.54,0.75,-5.97,6.51,-1.13,0.61,0.40,6.17,1009.17
8.714,1.72,0.18,0.61,-5.97,6.51,-1.13,0.61,0.40,6.17,1009.17
8.716,1.72,0.18,0.61,-10.06,12.88,-0.70,0.61,0.40,6.17,1009.17
8.75,2.64,0.89,0.19,-10.06,12.88,-0.70,0.61,0.40,6.17,1009.17
8.765,2.64,0.89,0.19,-10.06,12.88,-0.70,2.49,0.88,0.14,1009.17
8.766,-0.15,0.44,0.23,-10.06,12.88,-0.70,2.49,0.88,0.14,1009.17
8.784,-0.67,0.38,0.22,-10.06,12.88,-0.70,2.49,0.88,0.14,1009.17
8.786,-0.67,0.38,0.22,-2.48,1.52,6.44,2.49,0.88,0.14,1009.17
8.787,-0.67,0.38,0.22,-2.48,1.52,6.44,2.49,0.88,0.14,1009.30
8.836,-0.67,0.38,0.22,-2.48,1.52,6.44,2.71,0.70,-2.20,1009.30
8.838,-0.53,0.43,0.24,-2.48,1.52,6.44,2.71,0.70,-2.20,1009.30
8.838,0.26,0.48,0.38,-2.48,1.52,6.44,2.71,0.70,-2.20,1009.30
8.856,0.26,0.48,0.38,-3.11,-0.29,2.49,2.71,0.70,-2.20,1009.30
8.856,0.93,0.49,0.61,-3.11,-0.29,2.49,2.71,0.70,-2.20,1009.30
8.857,0.75,0.38,0.79,-3.11,-0.29,2.49,2.71,0.70,-2.20,1009.30
8.868,0.75,0.38,0.79,-3.11,-0.29,2.49,2.71,0.70,-2.20,1009.31
8.905,0.75,0.38,0.79,-3.11,-0.29,2.49,3.00,1.09,-4.33,1009.31
8.907,0.21,0.54,0.56,-3.11,-0.29,2.49,3.00,1.09,-4.33,1009.31
8.908,0.34,0.82,0.42,-3.11,-0.29,2.49,3.00,1.09,-4.33,1009.31
8.908,0.34,0.82,0.42,-3.11,-0.29,2.49,3.00,1.09,-4.33,1009.35
8.921,0.83,0.88,0.72,-3.11,-0.29,2.49,3.00,1.09,-4.33,1009.35
8.925,0.83,0.88,0.72,-0.32,-2.94,6.27,3.00,1.09,-4.33,1009.35
8.975,0.83,0.88,0.72,-0.32,-2.94,6.27,2.12,3.24,-4.47,1009.35
8.976,0.86,0.81,0.94,-0.32,-2.94,6.27,2.12,3.24,-4.47,1009.35
8.977,0.66,0.94,0.75,-0.32,-2.94,6.27,2.12,3.24,-4.47,1009.35
8.985,0.41,1.13,0.58,-0.32,-2.94,6.27,2.12,3.24,-4.47,1009.35
8.987,0.41,1.13,0.58,-0.32,-2.94,6.27,2.12,3.24,-4.47,1009.30
8.995,0.32,1.22,0.61,-0.32,-2.94,6.27,2.12,3.24,-4.47,1009.30
8.996,0.32,1.22,0.61,2.06,-1.10,6.89,2.12,3.24,-4.47,1009.30
9.045,0.32,1.22,0.61,2.06,-1.10,6.89,1.20,3.22,-3.72,1009.30
9.047,0.28,1.30,0.63,2.06,-1.10,6.89,1.20,3.22,-3.72,1009.30
9.048,0.33,1.37,0.54,2.06,-1.10,6.89,1.20,3.22,-3.72,1009.30
9.065,0.54,1.40,0.23,2.06,-1.10,6.89,1.20,3.22,-3.72,1009.30
9.066,0.54,1.40,0.23,3.82,1.40,7.60,1.20,3.22,-3.72,1009.30
9.068,0.54,1.40,0.23,3.82,1.40,7.60,1.20,3.22,-3.72,1009.27
9.094,0.77,1.27,0.34,3.82,1.40,7.60,1.20,3.22,-3.72,1009.27
9.095,1.23,1.01,0.40,3.82,1.40,7.60,1.20,3.22,-3.72,1009.27
9.108,1.23,1.01,0.40,3.82,1.40,7.60,1.20,3.22,-3.72,1009.15
9.115,1.23,1.01,0.40,3.82,1.40,7.60,0.51,1.13,-2.48,1009.15
9.12,1.68,0.72,0.42,3.82,1.40,7.60,0.51,1.13,-2.48,1009.15
9.135,1.68,0.72,0.42,4.11,4.14,5.27,0.51,1.13,-2.48,1009.15
9.136,2.20,0.46,0.37,4.11,4.14,5.27,0.51,1.13,-2.48,1009.15
9.184,2.01,0.33,0.27,4.11,4.14,5.27,0.51,1.13,-2.48,1009.15
9.186,1.17,0.34,0.20,4.11,4.14,5.27,0.51,1.13,-2.48,1009.15
9.186,1.17,0.34,0.20,4.11,4.14,5.27,-0.21,1.93,-0.21,1009.15
9.187,1.17,0.34,0.20,4.11,4.14,5.27,-0.21,1.93,-0.21,1009.13
9.205,1.17,0.34,0.20,14.21,-1.20,4.55,-0.21,1.93,-0.21,1009.13
9.206,0.11,1.80,0.35,14.21,-1.20,4.55,-0.21,1.93,-0.21,1009.13
9.254,0.09,1.01,-0.70,14.21,-1.20,4.55,-0.21,1.93,-0.21,1009.13
9.256,2.45,0.81,-0.88,14.21,-1.20,4.55,-0.21,1.93,-0.21,1009.13
9.257,0.08,1.41,0.50,14.21,-1.20,4.55,-0.21,1.93,-0.21,1009.13
9.257,0.08,1.41,0.50,14.21,-1.20,4.55,-0.36,2.04,1.86,1009.13
9.267,0.08,1.41,0.50,14.21,-1.20,4.55,-0.36,2.04,1.86,1009.30
9.274,0.27,0.99,-0.52,14.21,-1.20,4.55,-0.36,2.04,1.86,1009.30
9.275,0.27,0.99,-0.52,6.72,-1.01,2.31,-0.36,2.04,1.86,1009.30
9.308,0.48,0.99,-0.17,6.72,-1.01,2.31,-0.36,2.04,1.86,1009.30
9.31,0.48,0.99,-0.17,6.72,-1.01,2.31,-0.36,2.04,1.86,1009.35
9.321,0.08,0.91,0.22,6.72,-1.01,2.31,-0.36,2.04,1.86,1009.35
9.324,0.08,0.91,0.22,6.72,-1.01,2.31,-0.50,0.29,0.44,1009.35
9.345,0.29,0.90,0.13,6.72,-1.01,2.31,-0.50,0.29,0.44,1009.35
9.346,0.29,0.90,0.13,6.15,1.88,-4.38,-0.50,0.29,0.44,1009.35
9.385,0.30,0.95,0.04,6.15,1.88,-4.38,-0.50,0.29,0.44,1009.35
9.386,0.31,0.98,0.00,6.15,1.88,-4.38,-0.50,0.29,0.44,1009.35
9.388,0.31,0.98,0.00,6.15,1.88,-4.38,-0.50,0.29,0.44,1009.25
9.398,0.31,0.98,0.00,6.15,1.88,-4.38,-0.20,0.03,0.30,1009.25
9.416,0.29,0.99,-0.02,6.15,1.88,-4.38,-0.20,0.03,0.30,1009.25
9.417,0.25,0.97,-0.01,6.15,1.88,-4.38,-0.20,0.03,0.30,1009.25
9.417,0.25,0.97,-0.01,0.24,0.28,0.41,-0.20,0.03,0.30,1009.25
9.455,0.25,0.94,0.06,0.24,0.28,0.41,-0.20,0.03,0.30,1009.25
9.469,0.25,0.94,0.06,0.24,0.28,0.41,-0.05,-0.05,0.35,1009.25
9.471,0.27,0.92,0.08,0.24,0.28,0.41,-0.05,-0.05,0.35,1009.25
9.472,0.27,0.92,0.08,0.24,0.28,0.41,-0.05,-0.05,0.35,1009.24
9.485,0.27,0.92,0.08,0.03,0.75,-0.18,-0.05,-0.05,0.35,1009.24
9.486,0.31,0.94,0.02,0.03,0.75,-0.18,-0.05,-0.05,0.35,1009.24
9.508,0.31,0.94,0.02,0.03,0.75,-0.18,-0.05,-0.05,0.35,1009.21
9.509,0.31,0.95,-0.03,0.03,0.75,-0.18,-0.05,-0.05,0.35,1009.21
9.521,0.31,0.94,-0.03,0.03,0.75,-0.18,-0.05,-0.05,0.35,1009.21
9.535,0.31,0.94,-0.03,0.03,0.75,-0.18,0.05,-0.00,0.40,1009.21
9.555,0.31,0.94,-0.03,-0.29,0.44,0.29,0.05,-0.00,0.40,1009.21
9.556,0.32,0.93,-0.00,-0.29,0.44,0.29,0.05,-0.00,0.40,1009.21
9.557,0.31,0.91,0.02,-0.29,0.44,0.29,0.05,-0.00,0.40,1009.21
9.586,0.30,0.91,0.03,-0.29,0.44,0.29,0.05,-0.00,0.40,1009.21
9.588,0.30,0.91,0.03,-0.29,0.44,0.29,0.05,-0.00,0.40,1009.22
9.606,0.30,0.91,0.03,-0.29,0.44,0.29,0.08,-0.07,0.49,1009.22
9.607,0.32,0.91,0.03,-0.29,0.44,0.29,0.08,-0.07,0.49,1009.22
9.625,0.32,0.91,0.03,-0.27,0.47,-0.12,0.08,-0.07,0.49,1009.22
9.626,0.36,0.91,0.02,-0.27,0.47,-0.12,0.08,-0.07,0.49,1009.22
9.654,0.37,0.91,0.02,-0.27,0.47,-0.12,0.08,-0.07,0.49,1009.22
9.669,0.38,0.92,-0.04,-0.27,0.47,-0.12,0.08,-0.07,0.49,1009.22
9.675,0.38,0.92,-0.04,-0.27,0.47,-0.12,0.08,-0.07,0.49,1009.27
9.675,0.38,0.92,-0.04,-0.27,0.47,-0.12,0.15,-0.17,0.51,1009.27
9.695,0.38,0.92,-0.04,-0.44,0.44,0.38,0.15,-0.17,0.51,1009.27
9.697,0.36,0.94,-0.05,-0.44,0.44,0.38,0.15,-0.17,0.51,1009.27
9.697,0.32,0.96,-0.03,-0.44,0.44,0.38,0.15,-0.17,0.51,1009.27
9.708,0.32,0.96,-0.03,-0.44,0.44,0.38,0.15,-0.17,0.51,1009.28
9.721,0.34,0.97,-0.03,-0.44,0.44,0.38,0.15,-0.17,0.51,1009.28
9.745,0.34,0.97,-0.03,-0.44,0.44,0.38,0.20,-0.16,0.79,1009.28
9.747,0.34,0.99,-0.07,-0.44,0.44,0.38,0.20,-0.16,0.79,1009.28
9.765,0.36,1.01,-0.11,-0.44,0.44,0.38,0.20,-0.16,0.79,1009.28
9.766,0.36,1.01,-0.11,-0.71,0.88,-0.05,0.20,-0.16,0.79,1009.28
9.786,0.36,1.01,-0.13,-0.71,0.88,-0.05,0.20,-0.16,0.79,1009.28
9.788,0.36,1.01,-0.13,-0.71,0.88,-0.05,0.20,-0.16,0.79,1009.29
9.815,0.36,1.01,-0.13,-0.71,0.88,-0.05,0.17,-0.03,1.42,1009.29
9.816,0.37,1.04,-0.13,-0.71,0.88,-0.05,0.17,-0.03,1.42,1009.29
9.835,0.37,1.04,-0.13,-1.70,2.00,-0.42,0.17,-0.03,1.42,1009.29
9.836,0.35,1.11,-0.16,-1.70,2.00,-0.42,0.17,-0.03,1.42,1009.29
9.837,0.30,1.24,-0.22,-1.70,2.00,-0.42,0.17,-0.03,1.42,1009.29
9.855,0.16,1.41,-0.29,-1.70,2.00,-0.42,0.17,-0.03,1.42,1009.29
9.87,0.16,1.41,-0.29,-1.70,2.00,-0.42,0.17,-0.03,1.42,1009.31
9.886,0.16,1.41,-0.29,-1.70,2.00,-0.42,0.00,-0.03,2.88,1009.31
9.887,-0.04,1.51,-0.28,-1.70,2.00,-0.42,0.00,-0.03,2.88,1009.31
9.905,-0.04,1.51,-0.28,-3.47,4.61,-1.29,0.00,-0.03,2.88,1009.31
9.906,-0.11,1.46,-0.15,-3.47,4.61,-1.29,0.00,-0.03,2.88,1009.31
9.907,-0.11,1.46,-0.15,-3.47,4.61,-1.29,0.00,-0.03,2.88,1009.15
9.921,0.21,1.34,0.05,-3.47,4.61,-1.29,0.00,-0.03,2.88,1009.15
9.955,0.21,1.34,0.05,-3.47,4.61,-1.29,0.28,0.37,5.13,1009.15
9.957,0.94,1.19,0.79,-3.47,4.61,-1.29,0.28,0.37,5.13,1009.15
9.976,0.94,1.19,0.79,-8.47,10.75,-1.82,0.28,0.37,5.13,1009.15
9.978,0.25,0.98,0.57,-8.47,10.75,-1.82,0.28,0.37,5.13,1009.15
9.978,0.28,0.88,1.11,-8.47,10.75,-1.82,0.28,0.37,5.13,1009.15
9.988,0.28,0.88,1.11,-8.47,10.75,-1.82,0.28,0.37,5.13,1009.37
10.025,0.28,0.88,1.11,-8.47,10.75,-1.82,2.40,1.36,2.54,1009.37
10.026,1.49,0.28,0.42,-8.47,10.75,-1.82,2.40,1.36,2.54,1009.37
10.027,2.99,1.18,-0.13,-8.47,10.75,-1.82,2.40,1.36,2.54,1009.37
10.045,2.99,1.18,-0.13,-3.92,7.04,6.86,2.40,1.36,2.54,1009.37
10.047,-0.44,0.72,-0.24,-3.92,7.04,6.86,2.40,1.36,2.54,1009.37
10.068,-0.74,0.66,0.49,-3.92,7.04,6.86,2.40,1.36,2.54,1009.37
10.069,-0.74,0.66,0.49,-3.92,7.04,6.86,2.40,1.36,2.54,1009.27
10.095,-0.74,0.66,0.49,-3.92,7.04,6.86,2.22,1.48,-1.38,1009.27
10.096,-0.17,0.51,0.31,-3.92,7.04,6.86,2.22,1.48,-1.38,1009.27
10.108,0.51,0.61,0.30,-3.92,7.04,6.86,2.22,1.48,-1.38,1009.27
10.109,0.51,0.61,0.30,-3.92,7.04,6.86,2.22,1.48,-1.38,1009.40
10.115,0.52,0.60,0.33,-3.92,7.04,6.86,2.22,1.48,-1.38,1009.40
10.115,0.52,0.60,0.33,2.06,2.71,0.42,2.22,1.48,-1.38,1009.40
10.17,0.11,0.54,0.48,2.06,2.71,0.42,2.22,1.48,-1.38,1009.40
10.172,0.10,0.59,0.56,2.06,2.71,0.42,2.22,1.48,-1.38,1009.40
10.173,0.10,0.59,0.56,2.06,2.71,0.42,2.82,0.89,-3.38,1009.40
10.185,0.36,0.71,0.54,2.06,2.71,0.42,2.82,0.89,-3.38,1009.40
10.186,0.36,0.71,0.54,-5.14,-0.75,3.58,2.82,0.89,-3.38,1009.40
10.187,0.36,0.71,0.54,-5.14,-0.75,3.58,2.82,0.89,-3.38,1009.39
10.235,0.36,0.71,0.54,-5.14,-0.75,3.58,2.86,1.18,-4.32,1009.39
10.237,0.53,0.82,0.61,-5.14,-0.75,3.58,2.86,1.18,-4.32,1009.39
10.238,0.56,0.86,0.74,-5.14,-0.75,3.58,2.86,1.18,-4.32,1009.39
10.254,0.61,1.02,0.65,-5.14,-0.75,3.58,2.86,1.18,-4.32,1009.39
10.255,0.59,1.22,0.52,-5.14,-0.75,3.58,2.86,1.18,-4.32,1009.39
10.255,0.59,1.22,0.52,-2.04,-1.69,6.13,2.86,1.18,-4.32,1009.39
10.268,0.59,1.22,0.52,-2.04,-1.69,6.13,2.86,1.18,-4.32,1009.36
10.305,0.59,1.22,0.52,-2.04,-1.69,6.13,1.82,2.13,-4.47,1009.36
10.307,0.49,1.33,0.53,-2.04,-1.69,6.13,1.82,2.13,-4.47,1009.36
10.307,0.51,1.40,0.54,-2.04,-1.69,6.13,1.82,2.13,-4.47,1009.36
10.308,0.51,1.40,0.54,-2.04,-1.69,6.13,1.82,2.13,-4.47,1009.26
10.321,0.59,1.41,0.50,-2.04,-1.69,6.13,1.82,2.13,-4.47,1009.26
10.326,0.59,1.41,0.50,3.68,1.00,7.41,1.82,2.13,-4.47,1009.26
10.376,0.59,1.41,0.50,3.68,1.00,7.41,0.30,1.64,-3.45,1009.26
10.378,0.77,1.47,0.15,3.68,1.00,7.41,0.30,1.64,-3.45,1009.26
10.379,0.97,1.33,0.27,3.68,1.00,7.41,0.30,1.64,-3.45,1009.26
10.379,1.56,0.93,0.63,3.68,1.00,7.41,0.30,1.64,-3.45,1009.26
10.395,1.56,0.93,0.63,3.68,1.00,7.41,0.30,1.64,-3.45,1009.26
10.396,1.56,0.93,0.63,5.17,4.47,5.57,0.30,1.64,-3.45,1009.26
10.397,2.15,0.48,0.62,5.17,4.47,5.57,0.30,1.64,-3.45,1009.26
10.446,2.15,0.48,0.62,5.17,4.47,5.57,-0.10,0.69,-1.07,1009.26
10.447,2.26,0.11,0.58,5.17,4.47,5.57,-0.10,0.69,-1.07,1009.26
10.448,1.72,0.13,0.29,5.17,4.47,5.57,-0.10,0.69,-1.07,1009.26
10.465,0.01,0.42,0.02,5.17,4.47,5.57,-0.10,0.69,-1.07,1009.26
10.465,0.01,0.42,0.02,13.00,0.62,5.15,-0.10,0.69,-1.07,1009.26
10.468,0.01,0.42,0.02,13.00,0.62,5.15,-0.10,0.69,-1.07,1009.30
10.508,0.01,0.42,0.02,13.00,0.62,5.15,-0.10,0.69,-1.07,1009.33
10.509,0.48,1.11,0.01,13.00,0.62,5.15,-0.10,0.69,-1.07,1009.33
10.51,2.01,1.41,-1.05,13.00,0.62,5.15,-0.10,0.69,-1.07,1009.33
10.523,2.01,1.41,-1.05,13.00,0.62,5.15,-0.83,1.85,3.09,1009.33
10.525,2.43,0.58,0.57,13.00,0.62,5.15,-0.83,1.85,3.09,1009.33
10.535,2.43,0.58,0.57,9.33,-5.76,2.93,-0.83,1.85,3.09,1009.33
10.536,-0.11,1.29,0.14,9.33,-5.76,2.93,-0.83,1.85,3.09,1009.33
10.585,0.80,0.94,-0.83,9.33,-5.76,2.93,-0.83,1.85,3.09,1009.33
10.586,0.08,0.85,0.28,9.33,-5.76,2.93,-0.83,1.85,3.09,1009.33
10.586,0.08,0.85,0.28,9.33,-5.76,2.93,-0.30,0.51,0.19,1009.33
10.587,0.08,0.85,0.28,9.33,-5.76,2.93,-0.30,0.51,0.19,1009.30
10.606,0.08,0.85,0.28,9.86,2.25,-1.46,-0.30,0.51,0.19,1009.30
10.607,0.33,0.94,0.25,9.86,2.25,-1.46,-0.30,0.51,0.19,1009.30
10.655,0.28,0.92,0.09,9.86,2.25,-1.46,-0.30,0.51,0.19,1009.30
10.656,0.33,0.95,0.08,9.86,2.25,-1.46,-0.30,0.51,0.19,1009.30
10.657,0.33,0.95,0.08,9.86,2.25,-1.46,-0.15,0.15,0.27,1009.30
10.668,0.33,0.95,0.08,9.86,2.25,-1.46,-0.15,0.15,0.27,1009.17
10.668,0.44,0.98,-0.07,9.86,2.25,-1.46,-0.15,0.15,0.27,1009.17
10.676,0.37,0.98,-0.05,9.86,2.25,-1.46,-0.15,0.15,0.27,1009.17
10.677,0.37,0.98,-0.05,0.69,0.17,-1.04,-0.15,0.15,0.27,1009.17
10.708,0.35,0.95,0.01,0.69,0.17,-1.04,-0.15,0.15,0.27,1009.17
10.709,0.35,0.95,0.01,0.69,0.17,-1.04,-0.15,0.15,0.27,1009.17
10.721,0.32,0.93,0.07,0.69,0.17,-1.04,-0.15,0.15,0.27,1009.17
10.725,0.32,0.93,0.07,0.69,0.17,-1.04,-0.13,-0.05,0.16,1009.17
10.746,0.32,0.93,0.07,0.42,0.69,-0.35,-0.13,-0.05,0.16,1009.17
10.747,0.35,0.90,0.09,0.42,0.69,-0.35,-0.13,-0.05,0.16,1009.17
10.788,0.35,0.90,0.10,0.42,0.69,-0.35,-0.13,-0.05,0.16,1009.17
10.789,0.35,0.90,0.06,0.42,0.69,-0.35,-0.13,-0.05,0.16,1009.17
10.789,0.35,0.90,0.06,0.42,0.69,-0.35,-0.13,-0.05,0.16,1009.19
10.795,0.35,0.90,0.06,0.42,0.69,-0.35,0.04,-0.17,0.14,1009.19
10.816,0.35,0.90,0.06,0.09,0.35,0.35,0.04,-0.17,0.14,1009.19
10.817,0.34,0.91,0.03,0.09,0.35,0.35,0.04,-0.17,0.14,1009.19
10.818,0.37,0.92,0.01,0.09,0.35,0.35,0.04,-0.17,0.14,1009.19
10.854,0.36,0.92,0.00,0.09,0.35,0.35,0.04,-0.17,0.14,1009.19
10.867,0.31,0.91,0.02,0.09,0.35,0.35,0.04,-0.17,0.14,1009.19
10.868,0.31,0.91,0.02,0.09,0.35,0.35,0.07,-0.21,0.15,1009.19
10.868,0.31,0.91,0.02,0.09,0.35,0.35,0.07,-0.21,0.15,1009.28
10.886,0.37,0.91,0.01,0.09,0.35,0.35,0.07,-0.21,0.15,1009.28
10.887,0.37,0.91,0.01,0.06,0.24,0.23,0.07,-0.21,0.15,1009.28
10.908,0.34,0.93,-0.02,0.06,0.24,0.23,0.07,-0.21,0.15,1009.28
10.909,0.34,0.93,-0.02,0.06,0.24,0.23,0.07,-0.21,0.15,1009.36
10.922,0.37,0.95,-0.03,0.06,0.24,0.23,0.07,-0.21,0.15,1009.36
10.936,0.37,0.95,-0.03,0.06,0.24,0.23,0.05,-0.24,0.24,1009.36
10.955,0.37,0.95,-0.03,-0.20,0.36,-0.01,0.05,-0.24,0.24,1009.36
10.957,0.34,0.96,-0.05,-0.20,0.36,-0.01,0.05,-0.24,0.24,1009.36
10.957,0.30,1.01,-0.07,-0.20,0.36,-0.01,0.05,-0.24,0.24,1009.36
10.991,0.24,1.04,-0.08,-0.20,0.36,-0.01,0.05,-0.24,0.24,1009.36
10.993,0.24,1.04,-0.08,-0.20,0.36,-0.01,0.05,-0.24,0.24,1009.42
11.008,0.24,1.04,-0.08,-0.20,0.36,-0.01,-0.05,-0.22,0.73,1009.42
11.01,0.21,1.07,-0.07,-0.20,0.36,-0.01,-0.05,-0.22,0.73,1009.42
11.026,0.21,1.07,-0.07,-0.79,1.12,-0.60,-0.05,-0.22,0.73,1009.42
11.027,0.24,1.08,-0.10,-0.79,1.12,-0.60,-0.05,-0.22,0.73,1009.42
11.054,0.25,1.14,-0.08,-0.79,1.12,-0.60,-0.05,-0.22,0.73,1009.42
11.069,0.19,1.19,-0.03,-0.79,1.12,-0.60,-0.05,-0.22,0.73,1009.42
11.07,0.19,1.19,-0.03,-0.79,1.12,-0.60,-0.05,-0.22,0.73,1009.29
11.076,0.19,1.19,-0.03,-0.79,1.12,-0.60,-0.09,-0.12,1.95,1009.29
11.077,0.17,1.28,-0.09,-0.79,1.12,-0.60,-0.09,-0.12,1.95,1009.29
11.096,0.04,1.36,-0.15,-0.79,1.12,-0.60,-0.09,-0.12,1.95,1009.29
11.097,0.04,1.36,-0.15,-3.15,2.95,-0.92,-0.09,-0.12,1.95,1009.29
11.108,0.04,1.36,-0.15,-3.15,2.95,-0.92,-0.09,-0.12,1.95,1009.25
11.121,-0.12,1.50,-0.20,-3.15,2.95,-0.92,-0.09,-0.12,1.95,1009.25
11.145,-0.12,1.50,-0.20,-3.15,2.95,-0.92,-0.31,-0.18,4.22,1009.25
11.147,-0.23,1.60,-0.05,-3.15,2.95,-0.92,-0.31,-0.18,4.22,1009.25
11.165,-0.36,1.48,-0.07,-3.15,2.95,-0.92,-0.31,-0.18,4.22,1009.25
11.166,-0.36,1.48,-0.07,-6.25,7.13,-1.09,-0.31,-0.18,4.22,1009.25
11.185,0.42,1.35,0.08,-6.25,7.13,-1.09,-0.31,-0.18,4.22,1009.25
11.188,0.42,1.35,0.08,-6.25,7.13,-1.09,-0.31,-0.18,4.22,1009.15
11.215,0.42,1.35,0.08,-6.25,7.13,-1.09,-0.41,-0.10,7.05,1009.15
11.217,0.73,1.29,1.26,-6.25,7.13,-1.09,-0.41,-0.10,7.05,1009.15
11.236,0.73,1.29,1.26,-10.89,13.40,-1.22,-0.41,-0.10,7.05,1009.15
11.237,0.22,1.28,1.23,-10.89,13.40,-1.22,-0.41,-0.10,7.05,1009.15
11.238,1.12,0.45,0.56,-10.89,13.40,-1.22,-0.41,-0.10,7.05,1009.15
11.277,4.11,1.67,-0.14,-10.89,13.40,-1.22,-0.41,-0.10,7.05,1009.15
11.278,4.11,1.67,-0.14,-10.89,13.40,-1.22,-0.41,-0.10,7.05,1009.38
11.285,-0.72,0.80,-0.42,-10.89,13.40,-1.22,-0.41,-0.10,7.05,1009.38
11.286,-0.72,0.80,-0.42,-10.89,13.40,-1.22,0.94,0.66,0.08,1009.38
11.307,-0.72,0.80,-0.42,-1.82,7.33,7.96,0.94,0.66,0.08,1009.38
11.309,-0.67,0.75,0.05,-1.82,7.33,7.96,0.94,0.66,0.08,1009.38
11.31,-0.67,0.75,0.05,-1.82,7.33,7.96,0.94,0.66,0.08,1009.24
11.331,-0.49,0.44,0.38,-1.82,7.33,7.96,0.94,0.66,0.08,1009.24
11.356,-0.49,0.44,0.38,-1.82,7.33,7.96,0.40,1.00,-3.71,1009.24
11.357,0.17,0.49,0.32,-1.82,7.33,7.96,0.40,1.00,-3.71,1009.24
11.376,0.17,0.49,0.32,-0.54,4.14,-1.82,0.40,1.00,-3.71,1009.24
11.377,0.25,0.62,-0.02,-0.54,4.14,-1.82,0.40,1.00,-3.71,1009.24
11.377,0.14,0.68,-0.08,-0.54,4.14,-1.82,0.40,1.00,-3.71,1009.24
11.39,0.14,0.68,-0.08,-0.54,4.14,-1.82,0.40,1.00,-3.71,1009.28
11.427,0.14,0.68,-0.08,-0.54,4.14,-1.82,0.62,-0.23,-5.53,1009.28
11.428,0.31,0.73,0.00,-0.54,4.14,-1.82,0.62,-0.23,-5.53,1009.28
11.428,0.52,0.82,0.02,-0.54,4.14,-1.82,0.62,-0.23,-5.53,1009.28
11.446,0.52,0.82,0.02,-3.40,-2.36,0.48,0.62,-0.23,-5.53,1009.28
11.448,0.62,0.91,0.02,-3.40,-2.36,0.48,0.62,-0.23,-5.53,1009.28
11.475,0.64,1.07,-0.07,-3.40,-2.36,0.48,0.62,-0.23,-5.53,1009.28
11.476,0.64,1.07,-0.07,-3.40,-2.36,0.48,0.62,-0.23,-5.53,1009.26
11.496,0.64,1.07,-0.07,-3.40,-2.36,0.48,0.74,0.25,-5.53,1009.26
11.497,0.59,1.29,-0.14,-3.40,-2.36,0.48,0.74,0.25,-5.53,1009.26
11.508,0.59,1.29,-0.14,-3.40,-2.36,0.48,0.74,0.25,-5.53,1009.23
11.509,0.69,1.55,-0.17,-3.40,-2.36,0.48,0.74,0.25,-5.53,1009.23
11.515,0.69,1.55,-0.17,3.66,-0.72,-0.22,0.74,0.25,-5.53,1009.23
11.516,1.35,1.67,-0.17,3.66,-0.72,-0.22,0.74,0.25,-5.53,1009.23
11.567,1.35,1.67,-0.17,3.66,-0.72,-0.22,0.98,0.61,-5.12,1009.23
11.568,2.11,1.42,0.23,3.66,-0.72,-0.22,0.98,0.61,-5.12,1009.23
11.568,1.99,0.99,0.59,3.66,-0.72,-0.22,0.98,0.61,-5.12,1009.23
11.585,1.99,0.99,0.59,9.68,5.12,-1.07,0.98,0.61,-5.12,1009.23
11.587,1.92,0.65,0.24,9.68,5.12,-1.07,0.98,0.61,-5.12,1009.23
11.587,1.92,0.65,0.24,9.68,5.12,-1.07,0.98,0.61,-5.12,1009.37
11.597,2.49,0.12,0.50,9.68,5.12,-1.07,0.98,0.61,-5.12,1009.37
11.637,2.49,0.12,0.50,9.68,5.12,-1.07,0.33,0.09,0.84,1009.37
11.639,0.82,0.28,0.68,9.68,5.12,-1.07,0.33,0.09,0.84,1009.37
11.654,1.28,-0.01,0.39,9.68,5.12,-1.07,0.33,0.09,0.84,1009.37
11.657,0.08,1.47,-0.83,9.68,5.12,-1.07,0.33,0.09,0.84,1009.37
11.657,0.08,1.47,-0.83,19.10,-0.20,3.90,0.33,0.09,0.84,1009.37
11.669,0.08,1.47,-0.83,19.10,-0.20,3.90,0.33,0.09,0.84,1009.50
11.708,0.08,1.47,-0.83,19.10,-0.20,3.90,-1.11,0.99,3.69,1009.50
11.709,2.03,1.06,-0.99,19.10,-0.20,3.90,-1.11,0.99,3.69,1009.50
11.709,2.42,0.95,0.89,19.10,-0.20,3.90,-1.11,0.99,3.69,1009.50
11.71,2.42,0.95,0.89,19.10,-0.20,3.90,-1.11,0.99,3.69,1009.57
11.727,0.74,1.02,1.17,19.10,-0.20,3.90,-1.11,0.99,3.69,1009.57
11.728,0.74,1.02,1.17,7.09,-3.99,1.26,-1.11,0.99,3.69,1009.57
11.746,0.76,0.97,-1.26,7.09,-3.99,1.26,-1.11,0.99,3.69,1009.57
11.776,0.76,0.97,-1.26,7.09,-3.99,1.26,-0.12,0.38,0.58,1009.57
11.777,0.55,0.98,0.83,7.09,-3.99,1.26,-0.12,0.38,0.58,1009.57
11.785,0.45,0.99,-0.20,7.09,-3.99,1.26,-0.12,0.38,0.58,1009.57
11.788,0.45,0.99,-0.20,7.09,-3.99,1.26,-0.12,0.38,0.58,1009.10
11.796,0.38,0.98,0.04,7.09,-3.99,1.26,-0.12,0.38,0.58,1009.10
11.797,0.38,0.98,0.04,12.03,1.22,0.62,-0.12,0.38,0.58,1009.10
11.847,0.38,0.98,0.04,12.03,1.22,0.62,-0.22,0.00,0.13,1009.10
11.848,0.36,0.98,0.02,12.03,1.22,0.62,-0.22,0.00,0.13,1009.10
11.848,0.37,0.98,0.04,12.03,1.22,0.62,-0.22,0.00,0.13,1009.10
11.866,0.37,0.98,0.04,2.19,0.79,-0.50,-0.22,0.00,0.13,1009.10
11.867,0.33,0.95,0.07,2.19,0.79,-0.50,-0.22,0.00,0.13,1009.10
11.874,0.33,0.95,0.07,2.19,0.79,-0.50,-0.22,0.00,0.13,1009.25
11.908,0.33,0.95,0.07,2.19,0.79,-0.50,-0.22,0.00,0.13,1009.23
11.91,0.34,0.92,0.12,2.19,0.79,-0.50,-0.22,0.00,0.13,1009.23
11.911,0.29,0.90,0.16,2.19,0.79,-0.50,-0.22,0.00,0.13,1009.23
11.915,0.29,0.90,0.16,2.19,0.79,-0.50,-0.06,-0.23,0.13,1009.23
11.921,0.31,0.89,0.16,2.19,0.79,-0.50,-0.06,-0.23,0.13,1009.23
11.937,0.31,0.89,0.16,0.16,0.77,-0.07,-0.06,-0.23,0.13,1009.23
11.939,0.32,0.88,0.13,0.16,0.77,-0.07,-0.06,-0.23,0.13,1009.23
11.984,0.36,0.90,0.06,0.16,0.77,-0.07,-0.06,-0.23,0.13,1009.23
11.986,0.38,0.92,0.00,0.16,0.77,-0.07,-0.06,-0.23,0.13,1009.23
11.986,0.38,0.92,0.00,0.16,0.77,-0.07,0.12,-0.38,0.15,1009.23
11.987,0.38,0.92,0.00,0.16,0.77,-0.07,0.12,-0.38,0.15,1009.25
12.007,0.34,0.92,0.02,0.16,0.77,-0.07,0.12,-0.38,0.15,1009.25
12.008,0.34,0.92,0.02,-0.36,0.10,0.99,0.12,-0.38,0.15,1009.25
12.054,0.28,0.92,0.09,-0.36,0.10,0.99,0.12,-0.38,0.15,1009.25
12.056,0.25,0.92,0.07,-0.36,0.10,0.99,0.12,-0.38,0.15,1009.25
12.057,0.25,0.92,0.07,-0.36,0.10,0.99,0.07,-0.44,0.28,1009.25
12.067,0.33,0.96,-0.01,-0.36,0.10,0.99,0.07,-0.44,0.28,1009.25
12.068,0.33,0.96,-0.01,-0.36,0.10,0.99,0.07,-0.44,0.28,1009.28
12.076,0.33,1.01,-0.04,-0.36,0.10,0.99,0.07,-0.44,0.28,1009.28
12.076,0.33,1.01,-0.04,-0.24,0.38,0.05,0.07,-0.44,0.28,1009.28
12.108,0.24,1.05,-0.01,-0.24,0.38,0.05,0.07,-0.44,0.28,1009.28
12.109,0.24,1.05,-0.01,-0.24,0.38,0.05,0.07,-0.44,0.28,1009.30
12.122,0.16,1.08,-0.04,-0.24,0.38,0.05,0.07,-0.44,0.28,1009.30
12.125,0.16,1.08,-0.04,-0.24,0.38,0.05,-0.05,-0.39,0.79,1009.30
12.146,0.25,1.10,-0.12,-0.24,0.38,0.05,-0.05,-0.39,0.79,1009.30
12.147,0.25,1.10,-0.12,-1.34,1.10,-0.07,-0.05,-0.39,0.79,1009.30
12.187,0.34,1.13,-0.18,-1.34,1.10,-0.07,-0.05,-0.39,0.79,1009.30
12.189,0.24,1.22,-0.09,-1.34,1.10,-0.07,-0.05,-0.39,0.79,1009.30
12.189,0.24,1.22,-0.09,-1.34,1.10,-0.07,-0.05,-0.39,0.79,1009.40
12.195,0.24,1.22,-0.09,-1.34,1.10,-0.07,-0.38,0.02,1.99,1009.40
12.216,0.24,1.22,-0.09,-3.27,3.13,-1.25,-0.38,0.02,1.99,1009.40
12.217,0.09,1.33,-0.05,-3.27,3.13,-1.25,-0.38,0.02,1.99,1009.40
12.218,-0.00,1.50,-0.13,-3.27,3.13,-1.25,-0.38,0.02,1.99,1009.40
12.236,-0.31,1.70,-0.12,-3.27,3.13,-1.25,-0.38,0.02,1.99,1009.40
12.266,-0.31,1.70,-0.12,-3.27,3.13,-1.25,-0.92,-0.56,4.68,1009.40
12.267,-0.66,1.80,-0.07,-3.27,3.13,-1.25,-0.92,-0.56,4.68,1009.40
12.268,-0.66,1.80,-0.07,-3.27,3.13,-1.25,-0.92,-0.56,4.68,1009.45
12.286,-0.66,1.80,-0.07,-6.65,8.27,-1.74,-0.92,-0.56,4.68,1009.45
12.288,-0.27,1.63,-0.08,-6.65,8.27,-1.74,-0.92,-0.56,4.68,1009.45
12.308,0.65,1.36,0.59,-6.65,8.27,-1.74,-0.92,-0.56,4.68,1009.45
12.309,0.65,1.36,0.59,-6.65,8.27,-1.74,-0.92,-0.56,4.68,1009.06
12.322,0.32,1.32,1.11,-6.65,8.27,-1.74,-0.92,-0.56,4.68,1009.06
12.337,0.32,1.32,1.11,-6.65,8.27,-1.74,-0.88,-0.74,7.43,1009.06
12.357,0.32,1.32,1.11,-11.72,15.29,-0.74,-0.88,-0.74,7.43,1009.06
12.359,0.04,1.16,0.74,-11.72,15.29,-0.74,-0.88,-0.74,7.43,1009.06
12.36,3.58,0.82,0.24,-11.72,15.29,-0.74,-0.88,-0.74,7.43,1009.06
12.388,1.45,1.19,0.33,-11.72,15.29,-0.74,-0.88,-0.74,7.43,1009.06
12.389,1.45,1.19,0.33,-11.72,15.29,-0.74,-0.88,-0.74,7.43,1009.25
12.41,1.45,1.19,0.33,-11.72,15.29,-0.74,0.21,0.14,-1.63,1009.25
12.412,-1.57,0.72,-0.20,-11.72,15.29,-0.74,0.21,0.14,-1.63,1009.25
12.428,-1.57,0.72,-0.20,3.44,7.60,6.21,0.21,0.14,-1.63,1009.25
12.429,-0.55,0.66,-0.04,3.44,7.60,6.21,0.21,0.14,-1.63,1009.25
12.462,0.06,0.54,0.10,3.44,7.60,6.21,0.21,0.14,-1.63,1009.25
12.468,0.29,0.55,0.13,3.44,7.60,6.21,0.21,0.14,-1.63,1009.25
12.469,0.29,0.55,0.13,3.44,7.60,6.21,0.21,0.14,-1.63,1009.17
12.476,0.29,0.55,0.13,3.44,7.60,6.21,0.08,0.66,-4.48,1009.17
12.499,0.29,0.55,0.13,-8.69,1.70,-0.59,0.08,0.66,-4.48,1009.17
12.5,0.04,0.67,-0.15,-8.69,1.70,-0.59,0.08,0.66,-4.48,1009.17
12.5,0.06,0.74,-0.16,-8.69,1.70,-0.59,0.08,0.66,-4.48,1009.17
12.508,0.06,0.74,-0.16,-8.69,1.70,-0.59,0.08,0.66,-4.48,1009.21
12.522,0.33,0.83,-0.05,-8.69,1.70,-0.59,0.08,0.66,-4.48,1009.21
12.546,0.33,0.83,-0.05,-8.69,1.70,-0.59,0.39,-0.36,-5.95,1009.21
12.548,0.50,1.02,-0.10,-8.69,1.70,-0.59,0.39,-0.36,-5.95,1009.21
12.566,0.68,1.21,-0.21,-8.69,1.70,-0.59,0.39,-0.36,-5.95,1009.21
12.567,0.68,1.21,-0.21,-1.99,-2.16,-0.72,0.39,-0.36,-5.95,1009.21
12.584,0.75,1.46,-0.18,-1.99,-2.16,-0.72,0.39,-0.36,-5.95,1009.21
12.594,0.75,1.46,-0.18,-1.99,-2.16,-0.72,0.39,-0.36,-5.95,1009.26
12.616,0.75,1.46,-0.18,-1.99,-2.16,-0.72,0.78,0.65,-5.96,1009.26
12.618,1.09,1.70,-0.15,-1.99,-2.16,-0.72,0.78,0.65,-5.96,1009.26
12.636,1.09,1.70,-0.15,5.30,1.37,-1.34,0.78,0.65,-5.96,1009.26
12.638,1.53,1.79,-0.23,5.30,1.37,-1.34,0.78,0.65,-5.96,1009.26
12.638,1.89,1.58,0.15,5.30,1.37,-1.34,0.78,0.65,-5.96,1009.26
12.669,1.89,1.58,0.15,5.30,1.37,-1.34,0.78,0.65,-5.96,1009.26
12.669,2.33,0.74,0.87,5.30,1.37,-1.34,0.78,0.65,-5.96,1009.26
12.686,2.33,0.74,0.87,5.30,1.37,-1.34,1.20,0.60,-4.06,1009.26
12.688,2.81,0.14,0.47,5.30,1.37,-1.34,1.20,0.60,-4.06,1009.26
12.696,2.45,0.07,0.24,5.30,1.37,-1.34,1.20,0.60,-4.06,1009.26
12.708,2.45,0.07,0.24,14.99,7.22,-0.31,1.20,0.60,-4.06,1009.26
12.71,2.45,0.07,0.24,14.99,7.22,-0.31,1.20,0.60,-4.06,1009.42
12.721,-0.17,0.30,0.40,14.99,7.22,-0.31,1.20,0.60,-4.06,1009.42
12.746,1.18,0.55,-0.01,14.99,7.22,-0.31,1.20,0.60,-4.06,1009.42
12.758,1.18,0.55,-0.01,14.99,7.22,-0.31,-0.49,1.26,4.52,1009.42
12.776,1.18,0.55,-0.01,17.13,-4.08,4.72,-0.49,1.26,4.52,1009.42
12.778,1.13,1.56,-0.75,17.13,-4.08,4.72,-0.49,1.26,4.52,1009.42
12.778,3.16,1.02,-0.10,17.13,-4.08,4.72,-0.49,1.26,4.52,1009.42
12.793,3.16,1.02,-0.10,17.13,-4.08,4.72,-0.49,1.26,4.52,1009.65
12.826,3.16,1.02,-0.10,17.13,-4.08,4.72,-0.77,0.59,1.28,1009.65
12.828,1.44,1.21,1.96,17.13,-4.08,4.72,-0.77,0.59,1.28,1009.65
12.83,0.55,0.96,-1.77,17.13,-4.08,4.72,-0.77,0.59,1.28,1009.65
12.847,0.55,0.96,-1.77,13.73,-1.37,-2.29,-0.77,0.59,1.28,1009.65
12.848,0.26,0.90,0.98,13.73,-1.37,-2.29,-0.77,0.59,1.28,1009.65
12.868,0.33,1.01,-0.15,13.73,-1.37,-2.29,-0.77,0.59,1.28,1009.65
12.869,0.33,1.01,-0.15,13.73,-1.37,-2.29,-0.77,0.59,1.28,1009.02
12.896,0.33,1.01,-0.15,13.73,-1.37,-2.29,-0.24,0.09,0.34,1009.02
12.898,0.46,0.99,-0.04,13.73,-1.37,-2.29,-0.24,0.09,0.34,1009.02
12.908,0.28,0.97,0.21,13.73,-1.37,-2.29,-0.24,0.09,0.34,1009.02
12.909,0.28,0.97,0.21,13.73,-1.37,-2.29,-0.24,0.09,0.34,1009.24
12.916,0.38,0.96,0.05,13.73,-1.37,-2.29,-0.24,0.09,0.34,1009.24
12.917,0.38,0.96,0.05,3.22,1.19,2.52,-0.24,0.09,0.34,1009.24
12.967,0.38,0.96,0.05,3.22,1.19,2.52,-0.12,-0.20,0.15,1009.24
12.968,0.42,0.96,0.04,3.22,1.19,2.52,-0.12,-0.20,0.15,1009.24
12.969,0.34,0.94,0.06,3.22,1.19,2.52,-0.12,-0.20,0.15,1009.24
12.986,0.35,0.92,0.11,3.22,1.19,2.52,-0.12,-0.20,0.15,1009.24
12.987,0.35,0.92,0.11,0.78,0.92,-0.24,-0.12,-0.20,0.15,1009.24
12.996,0.35,0.92,0.11,0.78,0.92,-0.24,-0.12,-0.20,0.15,1009.19
13.037,0.35,0.92,0.11,0.78,0.92,-0.24,0.07,-0.47,0.09,1009.19
13.038,0.30,0.90,0.13,0.78,0.92,-0.24,0.07,-0.47,0.09,1009.19
13.039,0.26,0.89,0.20,0.78,0.92,-0.24,0.07,-0.47,0.09,1009.19
13.054,0.26,0.89,0.15,0.78,0.92,-0.24,0.07,-0.47,0.09,1009.19
13.057,0.32,0.91,0.04,0.78,0.92,-0.24,0.07,-0.47,0.09,1009.19
13.057,0.32,0.91,0.04,0.20,0.43,0.42,0.07,-0.47,0.09,1009.19
13.068,0.32,0.91,0.04,0.20,0.43,0.42,0.07,-0.47,0.09,1009.24
13.106,0.32,0.91,0.04,0.20,0.43,0.42,0.14,-0.59,0.24,1009.24
13.107,0.31,0.95,-0.01,0.20,0.43,0.42,0.14,-0.59,0.24,1009.24
13.108,0.24,0.96,0.02,0.20,0.43,0.42,0.14,-0.59,0.24,1009.24
13.108,0.24,0.96,0.02,0.20,0.43,0.42,0.14,-0.59,0.24,1009.24
13.121,0.21,0.94,0.08,0.20,0.43,0.42,0.14,-0.59,0.24,1009.24
13.126,0.21,0.94,0.08,-0.75,0.13,1.07,0.14,-0.59,0.24,1009.24
13.18,0.21,0.94,0.08,-0.75,0.13,1.07,0.06,-0.38,0.64,1009.24
13.181,0.33,0.95,-0.00,-0.75,0.13,1.07,0.06,-0.38,0.64,1009.24
13.184,0.33,0.97,-0.08,-0.75,0.13,1.07,0.06,-0.38,0.64,1009.24
13.185,0.33,1.01,-0.05,-0.75,0.13,1.07,0.06,-0.38,0.64,1009.24
13.187,0.33,1.01,-0.05,-0.75,0.13,1.07,0.06,-0.38,0.64,1009.30
13.198,0.27,1.05,-0.02,-0.75,0.13,1.07,0.06,-0.38,0.64,1009.30
13.199,0.27,1.05,-0.02,-1.44,0.85,0.16,0.06,-0.38,0.64,1009.30
13.247,0.24,1.09,-0.04,-1.44,0.85,0.16,0.06,-0.38,0.64,1009.30
13.248,0.28,1.12,-0.12,-1.44,0.85,0.16,0.06,-0.38,0.64,1009.30
13.249,0.28,1.12,-0.12,-1.44,0.85,0.16,-0.13,-0.20,1.34,1009.30
13.266,0.28,1.19,-0.20,-1.44,0.85,0.16,-0.13,-0.20,1.34,1009.30
13.267,0.28,1.19,-0.20,-1.74,1.87,-0.65,-0.13,-0.20,1.34,1009.30
13.268,0.28,1.19,-0.20,-1.74,1.87,-0.65,-0.13,-0.20,1.34,1009.39
13.296,0.17,1.34,-0.19,-1.74,1.87,-0.65,-0.13,-0.20,1.34,1009.39
13.297,-0.05,1.52,-0.15,-1.74,1.87,-0.65,-0.13,-0.20,1.34,1009.39
13.314,-0.05,1.52,-0.15,-1.74,1.87,-0.65,-0.13,-0.20,1.34,1009.40
13.316,-0.05,1.52,-0.15,-1.74,1.87,-0.65,-0.45,0.11,3.06,1009.40
13.321,-0.36,1.72,-0.13,-1.74,1.87,-0.65,-0.45,0.11,3.06,1009.40
13.337,-0.77,1.83,-0.13,-1.74,1.87,-0.65,-0.45,0.11,3.06,1009.40
13.338,-0.77,1.83,-0.13,-4.28,5.00,-1.82,-0.45,0.11,3.06,1009.40
13.385,-0.69,1.67,-0.14,-4.28,5.00,-1.82,-0.45,0.11,3.06,1009.40
13.387,0.45,1.35,0.16,-4.28,5.00,-1.82,-0.45,0.11,3.06,1009.40
13.387,0.45,1.35,0.16,-4.28,5.00,-1.82,-1.44,-0.71,6.96,1009.40
13.387,0.45,1.35,0.16,-4.28,5.00,-1.82,-1.44,-0.71,6.96,1009.18
13.406,0.45,1.35,0.16,-12.04,13.91,-1.54,-1.44,-0.71,6.96,1009.18
13.408,0.82,1.19,1.76,-12.04,13.91,-1.54,-1.44,-0.71,6.96,1009.18
13.454,0.54,1.12,0.67,-12.04,13.91,-1.54,-1.44,-0.71,6.96,1009.18
13.456,3.74,1.26,-0.03,-12.04,13.91,-1.54,-1.44,-0.71,6.96,1009.18
13.46,3.74,1.26,-0.03,-12.04,13.91,-1.54,0.47,-0.57,2.82,1009.18
13.468,0.47,1.06,0.27,-12.04,13.91,-1.54,0.47,-0.57,2.82,1009.18
13.469,0.47,1.06,0.27,-12.04,13.91,-1.54,0.47,-0.57,2.82,1009.31
13.477,-1.24,0.73,0.02,-12.04,13.91,-1.54,0.47,-0.57,2.82,1009.31
13.478,-1.24,0.73,0.02,-6.59,11.32,5.99,0.47,-0.57,2.82,1009.31
13.518,-0.35,0.58,0.07,-6.59,11.32,5.99,0.47,-0.57,2.82,1009.31
13.519,-0.35,0.58,0.07,-6.59,11.32,5.99,0.47,-0.57,2.82,1009.20
13.521,0.15,0.57,0.07,-6.59,11.32,5.99,0.47,-0.57,2.82,1009.20
13.526,0.15,0.57,0.07,-6.59,11.32,5.99,0.24,1.14,-2.95,1009.20
13.548,0.15,0.57,0.07,1.38,4.92,0.58,0.24,1.14,-2.95,1009.20
13.549,0.25,0.57,0.08,1.38,4.92,0.58,0.24,1.14,-2.95,1009.20
13.588,0.02,0.62,-0.01,1.38,4.92,0.58,0.24,1.14,-2.95,1009.20
13.589,-0.01,0.74,-0.13,1.38,4.92,0.58,0.24,1.14,-2.95,1009.20
13.59,-0.01,0.74,-0.13,1.38,4.92,0.58,0.24,1.14,-2.95,1009.25
13.601,-0.01,0.74,-0.13,1.38,4.92,0.58,0.70,-0.19,-5.41,1009.25
13.617,-0.01,0.74,-0.13,-5.08,-1.77,0.40,0.70,-0.19,-5.41,1009.25
13.618,0.30,0.88,-0.15,-5.08,-1.77,0.40,0.70,-0.19,-5.41,1009.25
13.618,0.51,1.00,-0.08,-5.08,-1.77,0.40,0.70,-0.19,-5.41,1009.25
13.654,0.65,1.08,-0.07,-5.08,-1.77,0.40,0.70,-0.19,-5.41,1009.25
13.666,0.65,1.08,-0.07,-5.08,-1.77,0.40,0.66,-0.27,-6.03,1009.25
13.668,0.65,1.31,-0.13,-5.08,-1.77,0.40,0.66,-0.27,-6.03,1009.25
13.668,0.65,1.31,-0.13,-5.08,-1.77,0.40,0.66,-0.27,-6.03,1009.27
13.687,0.65,1.31,-0.13,0.31,-0.73,-0.94,0.66,-0.27,-6.03,1009.27
13.688,0.85,1.61,-0.14,0.31,-0.73,-0.94,0.66,-0.27,-6.03,1009.27
13.708,1.22,1.77,-0.23,0.31,-0.73,-0.94,0.66,-0.27,-6.03,1009.27
13.709,1.22,1.77,-0.23,0.31,-0.73,-0.94,0.66,-0.27,-6.03,1009.24
13.721,1.60,1.68,-0.14,0.31,-0.73,-0.94,0.66,-0.27,-6.03,1009.24
13.737,1.60,1.68,-0.14,0.31,-0.73,-0.94,0.38,0.75,-5.42,1009.24
13.746,2.23,1.19,0.51,0.31,-0.73,-0.94,0.38,0.75,-5.42,1009.24
13.758,2.72,0.37,0.75,0.31,-0.73,-0.94,0.38,0.75,-5.42,1009.24
13.759,2.72,0.37,0.75,8.67,4.58,-0.76,0.38,0.75,-5.42,1009.24
13.784,2.62,0.16,0.42,8.67,4.58,-0.76,0.38,0.75,-5.42,1009.24
13.787,2.62,0.16,0.42,8.67,4.58,-0.76,0.38,0.75,-5.42,1009.35
13.819,2.09,0.25,0.01,8.67,4.58,-0.76,0.38,0.75,-5.42,1009.35
13.821,2.09,0.25,0.01,8.67,4.58,-0.76,0.36,0.08,-1.61,1009.35
13.827,0.10,0.51,0.81,8.67,4.58,-0.76,0.36,0.08,-1.61,1009.35
13.828,0.10,0.51,0.81,20.02,2.35,3.23,0.36,0.08,-1.61,1009.35
13.855,0.12,0.46,-1.05,20.02,2.35,3.23,0.36,0.08,-1.61,1009.35
13.868,0.35,1.22,-1.55,20.02,2.35,3.23,0.36,0.08,-1.61,1009.35
13.869,0.35,1.22,-1.55,20.02,2.35,3.23,0.36,0.08,-1.61,1009.42
13.877,0.35,1.22,-1.55,20.02,2.35,3.23,-1.52,1.81,5.22,1009.42
13.898,0.35,1.22,-1.55,11.07,-6.49,2.63,-1.52,1.81,5.22,1009.42
13.899,3.84,0.80,1.84,11.07,-6.49,2.63,-1.52,1.81,5.22,1009.42
13.9,1.01,1.24,1.39,11.07,-6.49,2.63,-1.52,1.81,5.22,1009.42
13.914,1.01,1.24,1.39,11.07,-6.49,2.63,-1.52,1.81,5.22,1009.24
13.921,1.12,1.08,-2.44,11.07,-6.49,2.63,-1.52,1.81,5.22,1009.24
13.947,1.12,1.08,-2.44,11.07,-6.49,2.63,0.31,0.59,0.81,1009.24
13.949,0.19,0.93,1.40,11.07,-6.49,2.63,0.31,0.59,0.81,1009.24
13.967,0.19,0.93,1.40,11.25,2.08,1.77,0.31,0.59,0.81,1009.24
13.968,0.53,1.01,-0.58,11.25,2.08,1.77,0.31,0.59,0.81,1009.24
13.984,0.37,0.97,0.29,11.25,2.08,1.77,0.31,0.59,0.81,1009.24
13.987,0.37,0.97,0.29,11.25,2.08,1.77,0.31,0.59,0.81,1009.43
14.017,0.37,0.97,0.29,11.25,2.08,1.77,-0.27,-0.04,0.24,1009.43
14.018,0.32,0.94,0.08,11.25,2.08,1.77,-0.27,-0.04,0.24,1009.43
14.037,0.32,0.94,0.08,2.34,1.20,-4.77,-0.27,-0.04,0.24,1009.43
14.038,0.41,0.96,0.07,2.34,1.20,-4.77,-0.27,-0.04,0.24,1009.43
14.039,0.36,0.95,0.07,2.34,1.20,-4.77,-0.27,-0.04,0.24,1009.43
14.068,0.39,0.92,0.06,2.34,1.20,-4.77,-0.27,-0.04,0.24,1009.43
14.07,0.39,0.92,0.06,2.34,1.20,-4.77,-0.27,-0.04,0.24,1009.18
14.087,0.39,0.92,0.06,2.34,1.20,-4.77,-0.09,-0.28,0.09,1009.18
14.087,0.31,0.88,0.18,2.34,1.20,-4.77,-0.09,-0.28,0.09,1009.18
14.107,0.31,0.88,0.18,-0.01,0.72,0.48,-0.09,-0.28,0.09,1009.18
14.108,0.34,0.87,0.14,-0.01,0.72,0.48,-0.09,-0.28,0.09,1009.18
14.109,0.34,0.87,0.14,-0.01,0.72,0.48,-0.09,-0.28,0.09,1009.19
14.121,0.30,0.88,0.13,-0.01,0.72,0.48,-0.09,-0.28,0.09,1009.19
14.157,0.30,0.88,0.13,-0.01,0.72,0.48,0.09,-0.38,0.10,1009.19
14.158,0.32,0.89,0.11,-0.01,0.72,0.48,0.09,-0.38,0.10,1009.19
14.177,0.34,0.92,0.04,-0.01,0.72,0.48,0.09,-0.38,0.10,1009.19
14.178,0.33,0.93,0.02,-0.01,0.72,0.48,0.09,-0.38,0.10,1009.19
14.178,0.33,0.93,0.02,-0.26,0.13,0.85,0.09,-0.38,0.10,1009.19
14.188,0.33,0.93,0.02,-0.26,0.13,0.85,0.09,-0.38,0.10,1009.18
14.227,0.33,0.93,0.02,-0.26,0.13,0.85,0.05,-0.39,0.20,1009.18
14.228,0.32,0.93,0.03,-0.26,0.13,0.85,0.05,-0.39,0.20,1009.18
14.229,0.32,0.93,0.05,-0.26,0.13,0.85,0.05,-0.39,0.20,1009.18
14.247,0.33,0.94,0.02,-0.26,0.13,0.85,0.05,-0.39,0.20,1009.18
14.249,0.33,0.94,0.02,-0.52,0.36,0.32,0.05,-0.39,0.20,1009.18
14.268,0.28,0.98,0.04,-0.52,0.36,0.32,0.05,-0.39,0.20,1009.18
14.27,0.28,0.98,0.04,-0.52,0.36,0.32,0.05,-0.39,0.20,1009.25
14.3,0.28,0.98,0.04,-0.52,0.36,0.32,0.00,-0.35,0.55,1009.25
14.301,0.22,1.02,-0.00,-0.52,0.36,0.32,0.00,-0.35,0.55,1009.25
14.308,0.26,1.06,-0.04,-0.52,0.36,0.32,0.00,-0.35,0.55,1009.25
14.309,0.26,1.06,-0.04,-0.52,0.36,0.32,0.00,-0.35,0.55,1009.33
14.32,0.25,1.09,-0.05,-0.52,0.36,0.32,0.00,-0.35,0.55,1009.33
14.321,0.25,1.09,-0.05,-1.00,0.86,0.06,0.00,-0.35,0.55,1009.33
14.367,0.25,1.09,-0.05,-1.00,0.86,0.06,-0.23,-0.10,1.44,1009.33
14.369,0.30,1.09,-0.12,-1.00,0.86,0.06,-0.23,-0.10,1.44,1009.33
14.369,0.29,1.15,-0.10,-1.00,0.86,0.06,-0.23,-0.10,1.44,1009.33
14.384,0.14,1.25,-0.04,-1.00,0.86,0.06,-0.23,-0.10,1.44,1009.33
14.387,0.14,1.25,-0.04,-2.71,2.50,-0.60,-0.23,-0.10,1.44,1009.33
14.388,0.14,1.25,-0.04,-2.71,2.50,-0.60,-0.23,-0.10,1.44,1009.37
14.417,0.05,1.44,-0.12,-2.71,2.50,-0.60,-0.23,-0.10,1.44,1009.37
14.419,-0.20,1.61,-0.10,-2.71,2.50,-0.60,-0.23,-0.10,1.44,1009.37
14.437,-0.20,1.61,-0.10,-2.71,2.50,-0.60,-0.72,-0.32,3.42,1009.37
14.454,-0.47,1.74,-0.25,-2.71,2.50,-0.60,-0.72,-0.32,3.42,1009.37
14.457,-0.41,1.68,-0.09,-2.71,2.50,-0.60,-0.72,-0.32,3.42,1009.37
14.457,-0.41,1.68,-0.09,-5.04,5.85,-1.49,-0.72,-0.32,3.42,1009.37
14.468,-0.41,1.68,-0.09,-5.04,5.85,-1.49,-0.72,-0.32,3.42,1009.39
14.507,-0.41,1.68,-0.09,-5.04,5.85,-1.49,-1.34,-0.87,6.70,1009.39
14.508,0.29,1.50,0.26,-5.04,5.85,-1.49,-1.34,-0.87,6.70,1009.39
14.509,0.50,1.16,0.82,-5.04,5.85,-1.49,-1.34,-0.87,6.70,1009.39
14.509,0.50,1.16,0.82,-5.04,5.85,-1.49,-1.34,-0.87,6.70,1009.05
14.521,0.60,1.39,0.95,-5.04,5.85,-1.49,-1.34,-0.87,6.70,1009.05
14.527,0.60,1.39,0.95,-11.89,13.96,-1.79,-1.34,-0.87,6.70,1009.05
14.583,0.60,1.39,0.95,-11.89,13.96,-1.79,-0.01,-0.66,0.96,1009.05
14.584,1.54,0.44,0.17,-11.89,13.96,-1.79,-0.01,-0.66,0.96,1009.05
14.585,2.47,1.63,0.20,-11.89,13.96,-1.79,-0.01,-0.66,0.96,1009.05
14.586,-1.54,0.67,-0.02,-11.89,13.96,-1.79,-0.01,-0.66,0.96,1009.05
14.592,-1.54,0.67,-0.02,-11.89,13.96,-1.79,-0.01,-0.66,0.96,1009.22
14.6,-0.41,0.70,0.07,-11.89,13.96,-1.79,-0.01,-0.66,0.96,1009.22
14.601,-0.41,0.70,0.07,-3.56,8.92,6.04,-0.01,-0.66,0.96,1009.22
14.648,0.18,0.61,-0.01,-3.56,8.92,6.04,-0.01,-0.66,0.96,1009.22
14.649,0.30,0.59,0.12,-3.56,8.92,6.04,-0.01,-0.66,0.96,1009.22
14.65,0.30,0.59,0.12,-3.56,8.92,6.04,0.03,0.53,-3.17,1009.22
14.668,0.30,0.59,0.12,-2.73,3.42,0.11,0.03,0.53,-3.17,1009.22
14.669,-0.01,0.63,-0.03,-2.73,3.42,0.11,0.03,0.53,-3.17,1009.22
14.669,-0.01,0.63,-0.03,-2.73,3.42,0.11,0.03,0.53,-3.17,1009.22
14.709,-0.01,0.63,-0.03,-2.73,3.42,0.11,0.03,0.53,-3.17,1009.28
14.71,0.08,0.75,-0.15,-2.73,3.42,0.11,0.03,0.53,-3.17,1009.28
14.71,0.27,0.84,-0.15,-2.73,3.42,0.11,0.03,0.53,-3.17,1009.28
14.717,0.27,0.84,-0.15,-2.73,3.42,0.11,0.48,-0.31,-5.33,1009.28
14.72,0.44,0.94,-0.17,-2.73,3.42,0.11,0.48,-0.31,-5.33,1009.28
14.737,0.44,0.94,-0.17,-3.35,-1.72,0.01,0.48,-0.31,-5.33,1009.28
14.739,0.63,1.03,-0.20,-3.35,-1.72,0.01,0.48,-0.31,-5.33,1009.28
14.785,0.70,1.14,-0.19,-3.35,-1.72,0.01,0.48,-0.31,-5.33,1009.28
14.786,0.77,1.31,-0.19,-3.35,-1.72,0.01,0.48,-0.31,-5.33,1009.28
14.787,0.77,1.31,-0.19,-3.35,-1.72,0.01,0.78,0.38,-5.41,1009.28
14.788,0.77,1.31,-0.19,-3.35,-1.72,0.01,0.78,0.38,-5.41,1009.24
14.807,0.95,1.43,-0.20,-3.35,-1.72,0.01,0.78,0.38,-5.41,1009.24
14.809,0.95,1.43,-0.20,2.31,-0.03,-1.27,0.78,0.38,-5.41,1009.24
14.854,1.40,1.47,-0.11,2.31,-0.03,-1.27,0.78,0.38,-5.41,1009.24
14.856,1.89,1.24,0.31,2.31,-0.03,-1.27,0.78,0.38,-5.41,1009.24
14.857,1.89,1.24,0.31,2.31,-0.03,-1.27,1.07,0.66,-4.59,1009.24
14.868,2.00,0.89,0.35,2.31,-0.03,-1.27,1.07,0.66,-4.59,1009.24
14.869,2.00,0.89,0.35,2.31,-0.03,-1.27,1.07,0.66,-4.59,1009.30
14.878,2.15,0.63,0.12,2.31,-0.03,-1.27,1.07,0.66,-4.59,1009.30
14.879,2.15,0.63,0.12,9.23,3.89,-0.83,1.07,0.66,-4.59,1009.30
14.897,2.25,0.37,0.23,9.23,3.89,-0.83,1.07,0.66,-4.59,1009.30
14.908,2.25,0.37,0.23,9.23,3.89,-0.83,1.07,0.66,-4.59,1009.35
14.922,1.98,0.13,0.39,9.23,3.89,-0.83,1.07,0.66,-4.59,1009.35
14.935,1.98,0.13,0.39,9.23,3.89,-0.83,0.09,0.74,-0.61,1009.35
14.947,0.30,0.30,-0.02,9.23,3.89,-0.83,0.09,0.74,-0.61,1009.35
14.948,0.30,0.30,-0.02,18.50,0.60,2.89,0.09,0.74,-0.61,1009.35
14.984,-0.06,1.36,-0.51,18.50,0.60,2.89,0.09,0.74,-0.61,1009.35
14.984,0.48,1.03,-0.97,18.50,0.60,2.89,0.09,0.74,-0.61,1009.35
14.988,0.48,1.03,-0.97,18.50,0.60,2.89,0.09,0.74,-0.61,1009.58
14.997,0.48,1.03,-0.97,18.50,0.60,2.89,-1.43,1.36,3.80,1009.58
15.018,0.48,1.03,-0.97,11.03,-4.99,1.85,-1.43,1.36,3.80,1009.58
15.019,3.19,0.82,2.84,11.03,-4.99,1.85,-1.43,1.36,3.80,1009.58
15.019,0.36,1.26,-0.92,11.03,-4.99,1.85,-1.43,1.36,3.80,1009.58
15.055,0.90,1.00,-0.47,11.03,-4.99,1.85,-1.43,1.36,3.80,1009.58
15.067,0.90,1.00,-0.47,11.03,-4.99,1.85,-0.07,0.37,0.59,1009.58
15.068,0.10,0.92,0.06,11.03,-4.99,1.85,-0.07,0.37,0.59,1009.58
15.069,0.10,0.92,0.06,11.03,-4.99,1.85,-0.07,0.37,0.59,1009.22
15.087,0.60,1.05,0.02,11.03,-4.99,1.85,-0.07,0.37,0.59,1009.22
15.088,0.60,1.05,0.02,7.27,2.18,0.93,-0.07,0.37,0.59,1009.22
15.108,0.28,0.98,0.03,7.27,2.18,0.93,-0.07,0.37,0.59,1009.22
15.109,0.28,0.98,0.03,7.27,2.18,0.93,-0.07,0.37,0.59,1009.33
15.121,0.27,0.97,0.14,7.27,2.18,0.93,-0.07,0.37,0.59,1009.33
15.137,0.27,0.97,0.14,7.27,2.18,0.93,-0.28,-0.02,0.25,1009.33
15.157,0.27,0.97,0.14,1.55,0.93,-1.36,-0.28,-0.02,0.25,1009.33
15.159,0.38,0.98,0.04,1.55,0.93,-1.36,-0.28,-0.02,0.25,1009.33
15.159,0.35,0.95,0.07,1.55,0.93,-1.36,-0.28,-0.02,0.25,1009.33
15.185,0.32,0.94,0.07,1.55,0.93,-1.36,-0.28,-0.02,0.25,1009.33
15.187,0.32,0.94,0.07,1.55,0.93,-1.36,-0.28,-0.02,0.25,1009.20
15.207,0.32,0.94,0.07,1.55,0.93,-1.36,-0.08,-0.24,0.14,1009.20
15.208,0.31,0.91,0.11,1.55,0.93,-1.36,-0.08,-0.24,0.14,1009.20
15.228,0.31,0.90,0.12,1.55,0.93,-1.36,-0.08,-0.24,0.14,1009.20
15.229,0.31,0.90,0.12,0.11,0.81,0.38,-0.08,-0.24,0.14,1009.20
15.254,0.29,0.90,0.11,0.11,0.81,0.38,-0.08,-0.24,0.14,1009.20
15.268,0.30,0.90,0.08,0.11,0.81,0.38,-0.08,-0.24,0.14,1009.20
15.269,0.30,0.90,0.08,0.11,0.81,0.38,-0.08,-0.24,0.14,1009.18
15.277,0.30,0.90,0.08,0.11,0.81,0.38,0.11,-0.33,0.12,1009.18
15.301,0.30,0.90,0.08,-0.24,0.27,0.82,0.11,-0.33,0.12,1009.18
15.302,0.33,0.91,0.02,-0.24,0.27,0.82,0.11,-0.33,0.12,1009.18
15.304,0.31,0.92,0.03,-0.24,0.27,0.82,0.11,-0.33,0.12,1009.18
15.308,0.31,0.92,0.03,-0.24,0.27,0.82,0.11,-0.33,0.12,1009.21
15.321,0.31,0.93,0.01,-0.24,0.27,0.82,0.11,-0.33,0.12,1009.21
15.347,0.31,0.93,0.01,-0.24,0.27,0.82,0.09,-0.31,0.15,1009.21
15.349,0.29,0.93,0.02,-0.24,0.27,0.82,0.09,-0.31,0.15,1009.21
15.373,0.32,0.92,0.03,-0.24,0.27,0.82,0.09,-0.31,0.15,1009.21
15.375,0.32,0.92,0.03,-0.34,0.27,0.44,0.09,-0.31,0.15,1009.21
15.388,0.32,0.93,0.02,-0.34,0.27,0.44,0.09,-0.31,0.15,1009.21
15.389,0.32,0.93,0.02,-0.34,0.27,0.44,0.09,-0.31,0.15,1009.26
15.418,0.32,0.93,0.02,-0.34,0.27,0.44,0.13,-0.28,0.26,1009.26
15.419,0.29,0.94,0.03,-0.34,0.27,0.44,0.13,-0.28,0.26,1009.26
15.438,0.29,0.94,0.03,-0.57,0.53,0.31,0.13,-0.28,0.26,1009.26
15.439,0.30,0.98,-0.01,-0.57,0.53,0.31,0.13,-0.28,0.26,1009.26
15.44,0.27,1.03,-0.05,-0.57,0.53,0.31,0.13,-0.28,0.26,1009.26
15.469,0.20,1.08,-0.10,-0.57,0.53,0.31,0.13,-0.28,0.26,1009.26
15.47,0.20,1.08,-0.10,-0.57,0.53,0.31,0.13,-0.28,0.26,1009.34
15.488,0.20,1.08,-0.10,-0.57,0.53,0.31,0.03,-0.24,0.73,1009.34
15.489,0.23,1.09,-0.13,-0.57,0.53,0.31,0.03,-0.24,0.73,1009.34
15.508,0.26,1.10,-0.09,-0.57,0.53,0.31,0.03,-0.24,0.73,1009.34
15.509,0.26,1.10,-0.09,-1.27,1.24,0.08,0.03,-0.24,0.73,1009.34
15.51,0.26,1.10,-0.09,-1.27,1.24,0.08,0.03,-0.24,0.73,1009.37
15.522,0.21,1.11,-0.06,-1.27,1.24,0.08,0.03,-0.24,0.73,1009.37
15.558,0.21,1.11,-0.06,-1.27,1.24,0.08,-0.14,-0.05,1.80,1009.37
15.56,0.21,1.20,-0.09,-1.27,1.24,0.08,-0.14,-0.05,1.80,1009.37
15.56,0.13,1.33,-0.15,-1.27,1.24,0.08,-0.14,-0.05,1.80,1009.37
15.577,-0.03,1.47,-0.15,-1.27,1.24,0.08,-0.14,-0.05,1.80,1009.37
15.578,-0.03,1.47,-0.15,-3.11,3.07,-0.89,-0.14,-0.05,1.80,1009.37
15.588,-0.03,1.47,-0.15,-3.11,3.07,-0.89,-0.14,-0.05,1.80,1009.34
15.627,-0.03,1.47,-0.15,-3.11,3.07,-0.89,-0.42,-0.41,4.10,1009.34
15.629,-0.19,1.59,-0.16,-3.11,3.07,-0.89,-0.42,-0.41,4.10,1009.34
15.629,-0.37,1.61,-0.16,-3.11,3.07,-0.89,-0.42,-0.41,4.10,1009.34
15.647,-0.37,1.61,-0.16,-6.36,7.39,-1.15,-0.42,-0.41,4.10,1009.34
15.649,-0.14,1.46,-0.02,-6.36,7.39,-1.15,-0.42,-0.41,4.10,1009.34
15.668,0.51,1.22,0.41,-6.36,7.39,-1.15,-0.42,-0.41,4.10,1009.34
15.67,0.51,1.22,0.41,-6.36,7.39,-1.15,-0.42,-0.41,4.10,1008.99
15.706,0.53,1.02,0.78,-6.36,7.39,-1.15,-0.42,-0.41,4.10,1008.99
15.707,0.53,1.02,0.78,-6.36,7.39,-1.15,-0.25,-0.09,6.36,1008.99
15.708,0.35,0.78,0.77,-6.36,7.39,-1.15,-0.25,-0.09,6.36,1008.99
15.709,0.35,0.78,0.77,-6.36,7.39,-1.15,-0.25,-0.09,6.36,1009.26
15.729,2.17,0.35,0.20,-6.36,7.39,-1.15,-0.25,-0.09,6.36,1009.26
15.73,2.17,0.35,0.20,-10.17,12.51,-0.58,-0.25,-0.09,6.36,1009.26
15.746,1.95,1.02,0.52,-10.17,12.51,-0.58,-0.25,-0.09,6.36,1009.26
15.77,1.95,1.02,0.52,-10.17,12.51,-0.58,1.31,0.19,-0.32,1009.26
15.771,-0.99,0.49,-0.04,-10.17,12.51,-0.58,1.31,0.19,-0.32,1009.26
15.784,-0.39,0.49,0.20,-10.17,12.51,-0.58,1.31,0.19,-0.32,1009.26
15.789,-0.39,0.49,0.20,-10.17,12.51,-0.58,1.31,0.19,-0.32,1009.26
15.789,-0.39,0.49,0.20,0.78,4.09,5.68,1.31,0.19,-0.32,1009.26
15.839,0.03,0.40,0.25,0.78,4.09,5.68,1.31,0.19,-0.32,1009.26
15.839,0.46,0.45,0.32,0.78,4.09,5.68,1.31,0.19,-0.32,1009.26
15.84,0.46,0.45,0.32,0.78,4.09,5.68,1.88,1.16,-2.66,1009.26
15.855,0.27,0.49,0.30,0.78,4.09,5.68,1.88,1.16,-2.66,1009.26
15.858,0.18,0.53,0.34,0.78,4.09,5.68,1.88,1.16,-2.66,1009.26
15.859,0.18,0.53,0.34,-5.91,0.70,2.08,1.88,1.16,-2.66,1009.26
15.868,0.18,0.53,0.34,-5.91,0.70,2.08,1.88,1.16,-2.66,1009.33
15.907,0.27,0.64,0.29,-5.91,0.70,2.08,1.88,1.16,-2.66,1009.33
15.908,0.37,0.73,0.34,-5.91,0.70,2.08,1.88,1.16,-2.66,1009.33
15.909,0.37,0.73,0.34,-5.91,0.70,2.08,2.47,1.19,-4.66,1009.33
15.909,0.37,0.73,0.34,-5.91,0.70,2.08,2.47,1.19,-4.66,1009.30
15.922,0.45,0.83,0.43,-5.91,0.70,2.08,2.47,1.19,-4.66,1009.30
15.928,0.45,0.83,0.43,-2.28,-2.78,3.60,2.47,1.19,-4.66,1009.30
15.978,0.45,0.83,0.43,-2.28,-2.78,3.60,2.28,1.52,-4.80,1009.30
15.98,0.49,1.01,0.39,-2.28,-2.78,3.60,2.28,1.52,-4.80,1009.30
15.981,0.48,1.22,0.39,-2.28,-2.78,3.60,2.28,1.52,-4.80,1009.30
15.988,0.57,1.40,0.41,-2.28,-2.78,3.60,2.28,1.52,-4.80,1009.30
15.988,0.57,1.40,0.41,-2.28,-2.78,3.60,2.28,1.52,-4.80,1009.27
16.006,0.75,1.49,0.43,-2.28,-2.78,3.60,2.28,1.52,-4.80,1009.27
16.007,0.75,1.49,0.43,1.22,-1.11,4.66,2.28,1.52,-4.80,1009.27
16.049,0.75,1.49,0.43,1.22,-1.11,4.66,1.65,2.04,-3.87,1009.27
16.051,0.91,1.50,0.52,1.22,-1.11,4.66,1.65,2.04,-3.87,1009.27
16.051,1.20,1.42,0.66,1.22,-1.11,4.66,1.65,2.04,-3.87,1009.27
16.069,1.54,1.25,0.50,1.22,-1.11,4.66,1.65,2.04,-3.87,1009.27
16.07,1.54,1.25,0.50,1.22,-1.11,4.66,1.65,2.04,-3.87,1009.26
16.07,1.54,1.25,0.50,5.02,4.07,5.57,1.65,2.04,-3.87,1009.26
16.078,1.79,0.97,0.31,5.02,4.07,5.57,1.65,2.04,-3.87,1009.26
16.108,1.79,0.97,0.31,5.02,4.07,5.57,1.65,2.04,-3.87,1009.31
16.109,1.77,0.58,0.43,5.02,4.07,5.57,1.65,2.04,-3.87,1009.31
16.122,1.77,0.58,0.43,5.02,4.07,5.57,-0.20,1.78,-2.41,1009.31
16.123,1.62,0.20,0.73,5.02,4.07,5.57,-0.20,1.78,-2.41,1009.31
16.138,1.62,0.20,0.73,12.55,4.05,6.34,-0.20,1.78,-2.41,1009.31
16.14,1.20,0.58,0.47,12.55,4.05,6.34,-0.20,1.78,-2.41,1009.31
16.187,1.00,0.23,0.12,12.55,4.05,6.34,-0.20,1.78,-2.41,1009.31
16.189,0.86,1.41,-0.50,12.55,4.05,6.34,-0.20,1.78,-2.41,1009.31
16.189,0.86,1.41,-0.50,12.55,4.05,6.34,-0.13,3.78,2.07,1009.31
16.19,0.86,1.41,-0.50,12.55,4.05,6.34,-0.13,3.78,2.07,1009.43
16.209,0.86,1.41,-0.50,13.05,-3.78,5.50,-0.13,3.78,2.07,1009.43
16.211,0.10,0.93,-1.44,13.05,-3.78,5.50,-0.13,3.78,2.07,1009.43
16.255,2.81,0.78,0.74,13.05,-3.78,5.50,-0.13,3.78,2.07,1009.43
16.256,-0.41,1.17,0.06,13.05,-3.78,5.50,-0.13,3.78,2.07,1009.43
16.259,-0.41,1.17,0.06,13.05,-3.78,5.50,-1.01,0.64,0.99,1009.43
16.268,0.78,1.03,-0.59,13.05,-3.78,5.50,-1.01,0.64,0.99,1009.43
16.269,0.78,1.03,-0.59,13.05,-3.78,5.50,-1.01,0.64,0.99,1009.34
16.278,0.28,0.92,0.18,13.05,-3.78,5.50,-1.01,0.64,0.99,1009.34
16.279,0.28,0.92,0.18,6.77,-0.41,-6.61,-1.01,0.64,0.99,1009.34
16.312,0.21,0.93,0.15,6.77,-0.41,-6.61,-1.01,0.64,0.99,1009.34
16.313,0.21,0.93,0.15,6.77,-0.41,-6.61,-1.01,0.64,0.99,1009.14
16.324,0.43,0.95,0.03,6.77,-0.41,-6.61,-1.01,0.64,0.99,1009.14
16.328,0.43,0.95,0.03,6.77,-0.41,-6.61,-0.41,0.22,0.46,1009.14
16.349,0.38,0.94,0.07,6.77,-0.41,-6.61,-0.41,0.22,0.46,1009.14
16.35,0.38,0.94,0.07,2.64,1.08,2.60,-0.41,0.22,0.46,1009.14
16.386,0.39,0.96,0.02,2.64,1.08,2.60,-0.41,0.22,0.46,1009.14
16.386,0.37,0.98,-0.07,2.64,1.08,2.60,-0.41,0.22,0.46,1009.14
16.389,0.37,0.98,-0.07,2.64,1.08,2.60,-0.41,0.22,0.46,1009.20
16.398,0.37,0.98,-0.07,2.64,1.08,2.60,-0.08,-0.03,0.25,1009.20
16.418,0.37,0.98,-0.07,0.19,0.56,0.64,-0.08,-0.03,0.25,1009.20
16.419,0.35,0.94,-0.01,0.19,0.56,0.64,-0.08,-0.03,0.25,1009.20
16.42,0.32,0.91,0.03,0.19,0.56,0.64,-0.08,-0.03,0.25,1009.20
16.454,0.35,0.92,0.01,0.19,0.56,0.64,-0.08,-0.03,0.25,1009.20
16.468,0.35,0.91,-0.01,0.19,0.56,0.64,-0.08,-0.03,0.25,1009.20
16.469,0.35,0.91,-0.01,0.19,0.56,0.64,-0.08,-0.03,0.25,1009.22
16.47,0.35,0.91,-0.01,0.19,0.56,0.64,0.03,-0.12,0.20,1009.22
16.488,0.35,0.91,-0.01,0.18,0.65,-0.28,0.03,-0.12,0.20,1009.22
16.489,0.36,0.91,-0.03,0.18,0.65,-0.28,0.03,-0.12,0.20,1009.22
16.509,0.36,0.91,-0.03,0.18,0.65,-0.28,0.03,-0.12,0.20,1009.22
16.51,0.33,0.91,-0.02,0.18,0.65,-0.28,0.03,-0.12,0.20,1009.22
16.524,0.33,0.91,-0.02,0.18,0.65,-0.28,0.03,-0.12,0.20,1009.22
16.538,0.33,0.91,-0.02,0.18,0.65,-0.28,0.07,-0.13,0.21,1009.22
16.558,0.33,0.91,-0.02,0.00,0.36,-0.11,0.07,-0.13,0.21,1009.22
16.559,0.33,0.90,0.01,0.00,0.36,-0.11,0.07,-0.13,0.21,1009.22
16.56,0.35,0.90,-0.02,0.00,0.36,-0.11,0.07,-0.13,0.21,1009.22
16.584,0.37,0.91,-0.03,0.00,0.36,-0.11,0.07,-0.13,0.21,1009.22
16.589,0.37,0.91,-0.03,0.00,0.36,-0.11,0.07,-0.13,0.21,1009.24
16.613,0.37,0.91,-0.03,0.00,0.36,-0.11,0.11,-0.16,0.24,1009.24
16.614,0.39,0.93,-0.04,0.00,0.36,-0.11,0.11,-0.16,0.24,1009.24
16.629,0.36,0.95,-0.07,0.00,0.36,-0.11,0.11,-0.16,0.24,1009.24
16.63,0.36,0.95,-0.07,-0.28,0.34,0.00,0.11,-0.16,0.24,1009.24
16.655,0.33,0.97,-0.07,-0.28,0.34,0.00,0.11,-0.16,0.24,1009.24
16.669,0.33,0.97,-0.07,-0.28,0.34,0.00,0.11,-0.16,0.24,1009.26
16.669,0.29,1.01,-0.09,-0.28,0.34,0.00,0.11,-0.16,0.24,1009.26
16.678,0.29,1.01,-0.09,-0.28,0.34,0.00,0.10,-0.23,0.42,1009.26
16.699,0.29,1.01,-0.09,-0.29,0.78,-0.26,0.10,-0.23,0.42,1009.26
16.7,0.25,1.03,-0.07,-0.29,0.78,-0.26,0.10,-0.23,0.42,1009.26
16.7,0.24,1.02,-0.07,-0.29,0.78,-0.26,0.10,-0.23,0.42,1009.26
16.711,0.24,1.02,-0.07,-0.29,0.78,-0.26,0.10,-0.23,0.42,1009.32
16.727,0.30,1.02,-0.09,-0.29,0.78,-0.26,0.10,-0.23,0.42,1009.32
16.747,0.29,1.05,-0.09,-0.29,0.78,-0.26,0.10,-0.23,0.42,1009.32
16.747,0.29,1.05,-0.09,-0.29,0.78,-0.26,0.11,-0.16,1.22,1009.32
16.769,0.30,1.10,-0.11,-0.29,0.78,-0.26,0.11,-0.16,1.22,1009.32
16.77,0.30,1.10,-0.11,-2.12,1.98,-0.41,0.11,-0.16,1.22,1009.32
16.784,0.32,1.18,-0.17,-2.12,1.98,-0.41,0.11,-0.16,1.22,1009.32
16.788,0.32,1.18,-0.17,-2.12,1.98,-0.41,0.11,-0.16,1.22,1009.27
16.799,0.23,1.26,-0.20,-2.12,1.98,-0.41,0.11,-0.16,1.22,1009.27
16.822,0.23,1.26,-0.20,-2.12,1.98,-0.41,0.17,-0.00,2.39,1009.27
16.841,0.23,1.26,-0.20,-3.22,3.62,-0.62,0.17,-0.00,2.39,1009.27
16.843,0.07,1.36,-0.20,-3.22,3.62,-0.62,0.17,-0.00,2.39,1009.27
16.843,-0.06,1.44,-0.19,-3.22,3.62,-0.62,0.17,-0.00,2.39,1009.27
16.869,-0.09,1.45,-0.09,-3.22,3.62,-0.62,0.17,-0.00,2.39,1009.27
16.87,-0.09,1.45,-0.09,-3.22,3.62,-0.62,0.17,-0.00,2.39,1009.26
16.888,-0.09,1.45,-0.09,-3.22,3.62,-0.62,-0.28,-0.01,4.86,1009.26
16.889,-0.00,1.24,-0.10,-3.22,3.62,-0.62,-0.28,-0.01,4.86,1009.26
16.91,0.64,1.14,0.52,-3.22,3.62,-0.62,-0.28,-0.01,4.86,1009.26
16.912,0.64,1.14,0.52,-3.22,3.62,-0.62,-0.28,-0.01,4.86,1009.44
16.912,0.64,1.14,0.52,-7.13,8.84,-1.59,-0.28,-0.01,4.86,1009.44
16.928,0.52,0.94,0.90,-7.13,8.84,-1.59,-0.28,-0.01,4.86,1009.44
16.959,0.52,0.94,0.90,-7.13,8.84,-1.59,1.25,0.49,5.27,1009.44
16.96,0.53,0.63,0.71,-7.13,8.84,-1.59,1.25,0.49,5.27,1009.44
16.979,0.53,0.63,0.71,-6.59,9.56,2.44,1.25,0.49,5.27,1009.44
16.98,2.55,0.65,0.34,-6.59,9.56,2.44,1.25,0.49,5.27,1009.44
16.981,2.33,1.05,-0.22,-6.59,9.56,2.44,1.25,0.49,5.27,1009.44
16.989,2.33,1.05,-0.22,-6.59,9.56,2.44,1.25,0.49,5.27,1009.41
17.028,2.33,1.05,-0.22,-6.59,9.56,2.44,1.65,1.30,-1.91,1009.41
17.029,-0.87,0.69,0.19,-6.59,9.56,2.44,1.65,1.30,-1.91,1009.41
17.03,-0.63,0.57,0.32,-6.59,9.56,2.44,1.65,1.30,-1.91,1009.41
17.049,0.02,0.58,0.17,-6.59,9.56,2.44,1.65,1.30,-1.91,1009.41
17.05,0.02,0.58,0.17,7.41,4.05,3.24,1.65,1.30,-1.91,1009.41
17.068,0.44,0.61,0.23,7.41,4.05,3.24,1.65,1.30,-1.91,1009.41
17.069,0.44,0.61,0.23,7.41,4.05,3.24,1.65,1.30,-1.91,1009.35
17.099,0.44,0.61,0.23,7.41,4.05,3.24,2.20,0.63,-3.24,1009.35
17.1,0.13,0.57,0.41,7.41,4.05,3.24,2.20,0.63,-3.24,1009.35
17.108,0.13,0.57,0.41,7.41,4.05,3.24,2.20,0.63,-3.24,1009.36
17.109,0.18,0.63,0.42,7.41,4.05,3.24,2.20,0.63,-3.24,1009.36
17.125,0.18,0.63,0.42,-10.48,0.07,2.37,2.20,0.63,-3.24,1009.36
17.126,0.37,0.71,0.41,-10.48,0.07,2.37,2.20,0.63,-3.24,1009.36
17.169,0.37,0.71,0.41,-10.48,0.07,2.37,2.50,0.90,-4.83,1009.36
17.17,0.42,0.79,0.44,-10.48,0.07,2.37,2.50,0.90,-4.83,1009.36
17.171,0.39,0.90,0.50,-10.48,0.07,2.37,2.50,0.90,-4.83,1009.36
17.188,0.52,1.00,0.62,-10.48,0.07,2.37,2.50,0.90,-4.83,1009.36
17.189,0.52,1.00,0.62,-10.48,0.07,2.37,2.50,0.90,-4.83,1009.33
17.189,0.52,1.00,0.62,-2.02,-1.70,4.66,2.50,0.90,-4.83,1009.33
17.239,0.52,1.00,0.62,-2.02,-1.70,4.66,2.08,2.26,-5.07,1009.33
17.24,0.58,1.20,0.53,-2.02,-1.70,4.66,2.08,2.26,-5.07,1009.33
17.24,0.53,1.41,0.48,-2.02,-1.70,4.66,2.08,2.26,-5.07,1009.33
17.254,0.67,1.55,0.50,-2.02,-1.70,4.66,2.08,2.26,-5.07,1009.33
17.258,1.07,1.57,0.47,-2.02,-1.70,4.66,2.08,2.26,-5.07,1009.33
17.259,1.07,1.57,0.47,2.74,0.25,6.38,2.08,2.26,-5.07,1009.33
17.268,1.07,1.57,0.47,2.74,0.25,6.38,2.08,2.26,-5.07,1009.28
17.308,1.07,1.57,0.47,2.74,0.25,6.38,2.08,2.26,-5.07,1009.30
17.309,1.07,1.57,0.47,2.74,0.25,6.38,1.33,3.33,-4.58,1009.30
17.31,1.62,1.46,0.10,2.74,0.25,6.38,1.33,3.33,-4.58,1009.30
17.311,1.55,1.06,0.71,2.74,0.25,6.38,1.33,3.33,-4.58,1009.30
17.329,1.61,0.69,0.76,2.74,0.25,6.38,1.33,3.33,-4.58,1009.30
17.329,1.61,0.69,0.76,7.41,5.40,6.40,1.33,3.33,-4.58,1009.30
17.379,1.61,0.69,0.76,7.41,5.40,6.40,-0.05,1.85,-0.72,1009.30
17.379,1.82,0.51,0.66,7.41,5.40,6.40,-0.05,1.85,-0.72,1009.30
17.38,2.10,0.07,0.66,7.41,5.40,6.40,-0.05,1.85,-0.72,1009.30
17.385,1.12,0.73,0.67,7.41,5.40,6.40,-0.05,1.85,-0.72,1009.30
17.388,1.12,0.73,0.67,7.41,5.40,6.40,-0.05,1.85,-0.72,1009.47
17.398,1.32,0.66,-0.11,7.41,5.40,6.40,-0.05,1.85,-0.72,1009.47
17.399,1.32,0.66,-0.11,14.83,0.78,6.46,-0.05,1.85,-0.72,1009.47
17.449,1.32,0.66,-0.11,14.83,0.78,6.46,-1.28,2.20,2.87,1009.47
17.45,-0.23,1.24,-1.62,14.83,0.78,6.46,-1.28,2.20,2.87,1009.47
17.45,2.00,0.96,-0.55,14.83,0.78,6.46,-1.28,2.20,2.87,1009.47
17.47,2.24,1.15,2.35,14.83,0.78,6.46,-1.28,2.20,2.87,1009.47
17.471,2.24,1.15,2.35,12.93,-4.22,4.93,-1.28,2.20,2.87,1009.47
17.472,2.24,1.15,2.35,12.93,-4.22,4.93,-1.28,2.20,2.87,1009.20
17.508,2.24,1.15,2.35,12.93,-4.22,4.93,-1.28,2.20,2.87,1009.14
17.509,-0.60,0.87,-1.69,12.93,-4.22,4.93,-1.28,2.20,2.87,1009.14
17.51,0.80,0.97,0.57,12.93,-4.22,4.93,-1.28,2.20,2.87,1009.14
17.527,0.80,0.97,0.57,12.93,-4.22,4.93,-0.50,0.47,0.45,1009.14
17.528,0.16,0.98,-0.21,12.93,-4.22,4.93,-0.50,0.47,0.45,1009.14
17.539,0.48,0.96,0.09,12.93,-4.22,4.93,-0.50,0.47,0.45,1009.14
17.54,0.48,0.96,0.09,5.48,1.71,-1.63,-0.50,0.47,0.45,1009.14
17.585,0.38,0.89,0.16,5.48,1.71,-1.63,-0.50,0.47,0.45,1009.14
17.586,0.46,0.91,0.08,5.48,1.71,-1.63,-0.50,0.47,0.45,1009.14
17.589,0.46,0.91,0.08,5.48,1.71,-1.63,-0.50,0.47,0.45,1009.01
17.59,0.46,0.91,0.08,5.48,1.71,-1.63,-0.33,0.04,0.37,1009.01
17.609,0.46,0.91,0.08,2.04,0.77,-1.60,-0.33,0.04,0.37,1009.01
17.61,0.39,0.93,0.01,2.04,0.77,-1.60,-0.33,0.04,0.37,1009.01
17.654,0.39,0.94,0.02,2.04,0.77,-1.60,-0.33,0.04,0.37,1009.01
17.655,0.39,0.92,0.01,2.04,0.77,-1.60,-0.33,0.04,0.37,1009.01
17.659,0.39,0.92,0.01,2.04,0.77,-1.60,-0.07,-0.19,0.14,1009.01
17.668,0.39,0.90,0.02,2.04,0.77,-1.60,-0.07,-0.19,0.14,1009.01
17.669,0.39,0.90,0.02,2.04,0.77,-1.60,-0.07,-0.19,0.14,1009.11
17.679,0.37,0.90,0.03,2.04,0.77,-1.60,-0.07,-0.19,0.14,1009.11
17.681,0.37,0.90,0.03,0.78,0.26,0.57,-0.07,-0.19,0.14,1009.11
17.711,0.36,0.88,0.02,0.78,0.26,0.57,-0.07,-0.19,0.14,1009.11
17.713,0.36,0.88,0.02,0.78,0.26,0.57,-0.07,-0.19,0.14,1009.17
17.734,0.39,0.89,-0.01,0.78,0.26,0.57,-0.07,-0.19,0.14,1009.17
17.735,0.39,0.89,-0.01,0.78,0.26,0.57,0.04,-0.23,0.07,1009.17
17.745,0.35,0.89,-0.00,0.78,0.26,0.57,0.04,-0.23,0.07,1009.17
17.748,0.35,0.89,-0.00,0.52,0.22,0.13,0.04,-0.23,0.07,1009.17
17.786,0.36,0.91,-0.02,0.52,0.22,0.13,0.04,-0.23,0.07,1009.17
17.787,0.35,0.92,-0.03,0.52,0.22,0.13,0.04,-0.23,0.07,1009.17
17.788,0.35,0.92,-0.03,0.52,0.22,0.13,0.04,-0.23,0.07,1009.21
17.799,0.35,0.92,-0.03,0.52,0.22,0.13,0.01,-0.23,0.11,1009.21
17.826,0.34,0.90,-0.00,0.52,0.22,0.13,0.01,-0.23,0.11,1009.21
17.826,0.34,0.88,0.04,0.52,0.22,0.13,0.01,-0.23,0.11,1009.21
17.827,0.34,0.88,0.04,0.23,0.06,-0.02,0.01,-0.23,0.11,1009.21
17.854,0.34,0.90,0.03,0.23,0.06,-0.02,0.01,-0.23,0.11,1009.21
17.869,0.31,0.96,-0.07,0.23,0.06,-0.02,0.01,-0.23,0.11,1009.21
17.87,0.31,0.96,-0.07,0.23,0.06,-0.02,0.01,-0.23,0.11,1009.22
17.87,0.31,0.96,-0.07,0.23,0.06,-0.02,0.07,-0.21,0.28,1009.22
17.89,0.31,0.96,-0.07,-0.18,0.26,0.07,0.07,-0.21,0.28,1009.22
17.891,0.32,1.03,-0.12,-0.18,0.26,0.07,0.07,-0.21,0.28,1009.22
17.909,0.27,1.08,-0.14,-0.18,0.26,0.07,0.07,-0.21,0.28,1009.22
17.91,0.27,1.08,-0.14,-0.18,0.26,0.07,0.07,-0.21,0.28,1009.27
17.927,0.22,1.10,-0.13,-0.18,0.26,0.07,0.07,-0.21,0.28,1009.27
17.948,0.22,1.10,-0.13,-0.18,0.26,0.07,-0.03,-0.10,0.93,1009.27
17.959,0.22,1.10,-0.13,-1.16,1.33,-0.59,-0.03,-0.10,0.93,1009.27
17.96,0.24,1.11,-0.14,-1.16,1.33,-0.59,-0.03,-0.10,0.93,1009.27
17.96,0.28,1.14,-0.17,-1.16,1.33,-0.59,-0.03,-0.10,0.93,1009.27
17.989,0.25,1.20,-0.18,-1.16,1.33,-0.59,-0.03,-0.10,0.93,1009.27
17.99,0.25,1.20,-0.18,-1.16,1.33,-0.59,-0.03,-0.10,0.93,1009.22
17.999,0.18,1.37,-0.26,-1.16,1.33,-0.59,-0.03,-0.10,0.93,1009.22
18.008,0.18,1.37,-0.26,-1.16,1.33,-0.59,-0.14,0.18,2.30,1009.22
18.028,-0.06,1.55,-0.27,-1.16,1.33,-0.59,-0.14,0.18,2.30,1009.22
18.029,-0.06,1.55,-0.27,-3.41,3.65,-1.53,-0.14,0.18,2.30,1009.22
18.054,-0.31,1.68,-0.35,-3.41,3.65,-1.53,-0.14,0.18,2.30,1009.22
18.069,-0.32,1.61,-0.23,-3.41,3.65,-1.53,-0.14,0.18,2.30,1009.22
18.07,-0.32,1.61,-0.23,-3.41,3.65,-1.53,-0.14,0.18,2.30,1009.22
18.079,-0.32,1.61,-0.23,-3.41,3.65,-1.53,-0.67,0.23,5.23,1009.22
18.1,-0.32,1.61,-0.23,-7.51,9.51,-3.04,-0.67,0.23,5.23,1009.22
18.101,0.18,1.18,-0.09,-7.51,9.51,-3.04,-0.67,0.23,5.23,1009.22
18.101,1.00,1.04,0.68,-7.51,9.51,-3.04,-0.67,0.23,5.23,1009.22
18.109,1.00,1.04,0.68,-7.51,9.51,-3.04,-0.67,0.23,5.23,1009.28
18.128,0.56,0.96,1.33,-7.51,9.51,-3.04,-0.67,0.23,5.23,1009.28
18.149,0.56,0.96,1.33,-7.51,9.51,-3.04,1.02,0.92,5.60,1009.28
18.15,0.32,0.35,0.90,-7.51,9.51,-3.04,1.02,0.92,5.60,1009.28
18.17,0.32,0.35,0.90,-6.86,10.40,0.12,1.02,0.92,5.60,1009.28
18.171,3.12,1.36,-0.27,-6.86,10.40,0.12,1.02,0.92,5.60,1009.28
18.189,-0.41,0.89,-0.09,-6.86,10.40,0.12,1.02,0.92,5.60,1009.28
18.19,-0.41,0.89,-0.09,-6.86,10.40,0.12,1.02,0.92,5.60,1009.56
18.22,-0.41,0.89,-0.09,-6.86,10.40,0.12,2.03,-0.59,-1.81,1009.56
18.221,-1.05,0.62,0.53,-6.86,10.40,0.12,2.03,-0.59,-1.81,1009.56
18.239,-1.05,0.62,0.53,3.49,4.86,5.43,2.03,-0.59,-1.81,1009.56
18.241,0.01,0.56,0.47,3.49,4.86,5.43,2.03,-0.59,-1.81,1009.56
18.241,0.61,0.70,0.28,3.49,4.86,5.43,2.03,-0.59,-1.81,1009.56
18.268,0.52,0.71,0.32,3.49,4.86,5.43,2.03,-0.59,-1.81,1009.56
18.27,0.52,0.71,0.32,3.49,4.86,5.43,2.03,-0.59,-1.81,1009.41
18.289,0.19,0.67,0.60,3.49,4.86,5.43,2.03,-0.59,-1.81,1009.41
18.29,0.19,0.67,0.60,3.49,4.86,5.43,2.72,0.64,-4.07,1009.41
18.31,0.19,0.67,0.60,-9.45,-0.19,4.06,2.72,0.64,-4.07,1009.41
18.311,0.19,0.67,0.60,-9.45,-0.19,4.06,2.72,0.64,-4.07,1009.40
18.311,0.20,0.77,0.60,-9.45,-0.19,4.06,2.72,0.64,-4.07,1009.40
18.327,0.33,0.92,0.60,-9.45,-0.19,4.06,2.72,0.64,-4.07,1009.40
18.36,0.33,0.92,0.60,-9.45,-0.19,4.06,2.68,1.28,-5.02,1009.40
18.36,0.43,0.98,0.78,-9.45,-0.19,4.06,2.68,1.28,-5.02,1009.40
18.38,0.61,1.10,0.79,-9.45,-0.19,4.06,2.68,1.28,-5.02,1009.40
18.381,0.63,1.27,0.73,-9.45,-0.19,4.06,2.68,1.28,-5.02,1009.40
18.381,0.63,1.27,0.73,-0.98,-0.88,6.30,2.68,1.28,-5.02,1009.40
18.389,0.63,1.27,0.73,-0.98,-0.88,6.30,2.68,1.28,-5.02,1009.37
18.428,0.63,1.27,0.73,-0.98,-0.88,6.30,1.87,2.53,-4.76,1009.37
18.429,0.71,1.44,0.65,-0.98,-0.88,6.30,1.87,2.53,-4.76,1009.37
18.43,0.76,1.53,0.56,-0.98,-0.88,6.30,1.87,2.53,-4.76,1009.37
18.449,0.95,1.58,0.06,-0.98,-0.88,6.30,1.87,2.53,-4.76,1009.37
18.45,0.95,1.58,0.06,3.58,1.78,8.67,1.87,2.53,-4.76,1009.37
18.469,0.96,1.36,0.26,3.58,1.78,8.67,1.87,2.53,-4.76,1009.37
18.47,0.96,1.36,0.26,3.58,1.78,8.67,1.87,2.53,-4.76,1009.25
18.5,1.30,1.00,0.65,3.58,1.78,8.67,1.87,2.53,-4.76,1009.25
18.501,1.30,1.00,0.65,3.58,1.78,8.67,-0.33,1.43,-3.20,1009.25
18.501,1.84,0.60,0.76,3.58,1.78,8.67,-0.33,1.43,-3.20,1009.25
18.511,1.84,0.60,0.76,3.58,1.78,8.67,-0.33,1.43,-3.20,1009.38
18.519,1.84,0.60,0.76,7.97,5.54,4.58,-0.33,1.43,-3.20,1009.38
18.519,2.11,0.27,0.61,7.97,5.54,4.58,-0.33,1.43,-3.20,1009.38
18.57,2.11,0.08,0.40,7.97,5.54,4.58,-0.33,1.43,-3.20,1009.38
18.57,0.38,0.14,0.37,7.97,5.54,4.58,-0.33,1.43,-3.20,1009.38
18.571,0.38,0.14,0.37,7.97,5.54,4.58,-0.80,-0.61,-0.08,1009.38
18.585,0.75,-0.16,1.23,7.97,5.54,4.58,-0.80,-0.61,-0.08,1009.38
18.589,0.75,-0.16,1.23,7.97,5.54,4.58,-0.80,-0.61,-0.08,1009.33
18.59,0.75,-0.16,1.23,14.34,-2.04,6.82,-0.80,-0.61,-0.08,1009.33
18.639,0.75,-0.16,1.23,14.34,-2.04,6.82,-0.20,1.66,2.80,1009.33
18.64,1.98,1.54,-2.07,14.34,-2.04,6.82,-0.20,1.66,2.80,1009.33
18.641,2.71,0.50,-2.65,14.34,-2.04,6.82,-0.20,1.66,2.80,1009.33
18.654,1.29,1.32,3.73,14.34,-2.04,6.82,-0.20,1.66,2.80,1009.33
18.659,1.29,1.32,3.73,8.84,-7.02,3.88,-0.20,1.66,2.80,1009.33
18.66,0.29,0.94,-2.78,8.84,-7.02,3.88,-0.20,1.66,2.80,1009.33
18.669,0.29,0.94,-2.78,8.84,-7.02,3.88,-0.20,1.66,2.80,1009.63
18.712,0.29,0.94,-2.78,8.84,-7.02,3.88,-0.38,0.45,0.33,1009.63
18.721,0.29,0.94,-2.78,8.84,-7.02,3.88,-0.38,0.45,0.33,1009.38
18.721,0.62,0.94,1.24,8.84,-7.02,3.88,-0.38,0.45,0.33,1009.38
18.722,0.03,0.91,-0.43,8.84,-7.02,3.88,-0.38,0.45,0.33,1009.38
18.722,0.59,1.00,0.08,8.84,-7.02,3.88,-0.38,0.45,0.33,1009.38
18.729,0.59,1.00,0.08,11.95,1.72,-8.96,-0.38,0.45,0.33,1009.38
18.746,0.40,0.94,0.00,11.95,1.72,-8.96,-0.38,0.45,0.33,1009.38
18.78,0.40,0.94,0.00,11.95,1.72,-8.96,-0.21,-0.01,0.12,1009.38
18.781,0.35,0.95,0.02,11.95,1.72,-8.96,-0.21,-0.01,0.12,1009.38
18.785,0.40,0.98,-0.03,11.95,1.72,-8.96,-0.21,-0.01,0.12,1009.38
18.788,0.40,0.98,-0.03,11.95,1.72,-8.96,-0.21,-0.01,0.12,1009.31
18.8,0.36,0.92,0.05,11.95,1.72,-8.96,-0.21,-0.01,0.12,1009.31
18.801,0.36,0.92,0.05,0.79,0.59,2.01,-0.21,-0.01,0.12,1009.31
18.85,0.36,0.92,0.05,0.79,0.59,2.01,-0.08,-0.19,0.08,1009.31
18.851,0.35,0.89,0.10,0.79,0.59,2.01,-0.08,-0.19,0.08,1009.31
18.851,0.32,0.88,0.11,0.79,0.59,2.01,-0.08,-0.19,0.08,1009.31
18.869,0.35,0.89,0.08,0.79,0.59,2.01,-0.08,-0.19,0.08,1009.31
18.87,0.35,0.89,0.08,0.54,0.59,0.03,-0.08,-0.19,0.08,1009.31
18.871,0.35,0.89,0.08,0.54,0.59,0.03,-0.08,-0.19,0.08,1009.25
18.912,0.39,0.90,0.01,0.54,0.59,0.03,-0.08,-0.19,0.08,1009.25
18.918,0.38,0.92,-0.02,0.54,0.59,0.03,-0.08,-0.19,0.08,1009.25
18.918,0.38,0.92,-0.02,0.54,0.59,0.03,-0.08,-0.19,0.08,1009.24
18.919,0.38,0.92,-0.02,0.54,0.59,0.03,0.04,-0.21,0.08,1009.24
18.921,0.35,0.92,0.00,0.54,0.59,0.03,0.04,-0.21,0.08,1009.24
18.939,0.31,0.90,0.07,0.54,0.59,0.03,0.04,-0.21,0.08,1009.24
18.941,0.31,0.90,0.07,0.12,0.00,0.64,0.04,-0.21,0.08,1009.24
18.986,0.25,0.91,0.10,0.12,0.00,0.64,0.04,-0.21,0.08,1009.24
18.987,0.31,0.93,0.01,0.12,0.00,0.64,0.04,-0.21,0.08,1009.24
18.989,0.31,0.93,0.01,0.12,0.00,0.64,0.04,-0.21,0.08,1009.27
18.99,0.31,0.93,0.01,0.12,0.00,0.64,0.07,-0.36,0.22,1009.27
19.01,0.31,0.93,0.01,0.01,0.28,0.08,0.07,-0.36,0.22,1009.27
19.01,0.31,0.95,0.02,0.01,0.28,0.08,0.07,-0.36,0.22,1009.27
19.054,0.31,0.98,-0.01,0.01,0.28,0.08,0.07,-0.36,0.22,1009.27
19.056,0.29,1.06,-0.07,0.01,0.28,0.08,0.07,-0.36,0.22,1009.27
19.058,0.29,1.06,-0.07,0.01,0.28,0.08,0.07,-0.57,0.66,1009.27
19.068,0.29,1.06,-0.07,0.01,0.28,0.08,0.07,-0.57,0.66,1009.20
19.069,0.07,1.13,-0.08,0.01,0.28,0.08,0.07,-0.57,0.66,1009.20
19.079,0.07,1.13,-0.08,-1.13,0.74,0.39,0.07,-0.57,0.66,1009.20
19.08,0.29,1.11,-0.19,-1.13,0.74,0.39,0.07,-0.57,0.66,1009.20
19.114,0.38,1.13,-0.19,-1.13,0.74,0.39,0.07,-0.57,0.66,1009.20
19.115,0.38,1.13,-0.19,-1.13,0.74,0.39,0.07,-0.57,0.66,1009.28
19.121,0.22,1.21,-0.06,-1.13,0.74,0.39,0.07,-0.57,0.66,1009.28
19.135,0.22,1.21,-0.06,-1.13,0.74,0.39,-0.17,-0.05,1.87,1009.28
19.15,0.18,1.33,-0.07,-1.13,0.74,0.39,-0.17,-0.05,1.87,1009.28
19.151,0.18,1.33,-0.07,-3.01,2.96,-1.01,-0.17,-0.05,1.87,1009.28
19.16,-0.03,1.48,-0.05,-3.01,2.96,-1.01,-0.17,-0.05,1.87,1009.28
19.185,-0.36,1.65,0.05,-3.01,2.96,-1.01,-0.17,-0.05,1.87,1009.28
19.189,-0.36,1.65,0.05,-3.01,2.96,-1.01,-0.17,-0.05,1.87,1009.40
19.199,-0.36,1.65,0.05,-3.01,2.96,-1.01,-0.40,-0.38,4.16,1009.40
19.219,-0.36,1.65,0.05,-5.32,6.91,-1.00,-0.40,-0.38,4.16,1009.40
19.221,-0.55,1.69,0.08,-5.32,6.91,-1.00,-0.40,-0.38,4.16,1009.40
19.221,-0.08,1.63,-0.12,-5.32,6.91,-1.00,-0.40,-0.38,4.16,1009.40
19.254,0.67,1.35,0.52,-5.32,6.91,-1.00,-0.40,-0.38,4.16,1009.40
19.269,0.66,1.21,1.01,-5.32,6.91,-1.00,-0.40,-0.38,4.16,1009.40
19.27,0.66,1.21,1.01,-5.32,6.91,-1.00,-0.40,-0.38,4.16,1009.26
19.271,0.66,1.21,1.01,-5.32,6.91,-1.00,-0.65,-0.86,6.97,1009.26
19.289,0.66,1.21,1.01,-11.85,13.88,0.30,-0.65,-0.86,6.97,1009.26
19.291,1.18,-0.05,1.15,-11.85,13.88,0.30,-0.65,-0.86,6.97,1009.26
19.319,3.88,2.11,-0.36,-11.85,13.88,0.30,-0.65,-0.86,6.97,1009.26
19.32,3.88,2.11,-0.36,-11.85,13.88,0.30,-0.65,-0.86,6.97,1008.86
19.321,-0.94,0.85,-0.52,-11.85,13.88,0.30,-0.65,-0.86,6.97,1008.86
19.339,-0.94,0.85,-0.52,-11.85,13.88,0.30,0.29,1.34,-0.46,1008.86
19.359,-0.94,0.85,-0.52,4.55,7.07,6.59,0.29,1.34,-0.46,1008.86
19.361,-0.81,0.76,-0.35,4.55,7.07,6.59,0.29,1.34,-0.46,1008.86
19.361,0.20,0.75,-0.07,4.55,7.07,6.59,0.29,1.34,-0.46,1008.86
19.387,0.11,0.50,-0.30,4.55,7.07,6.59,0.29,1.34,-0.46,1008.86
19.388,0.11,0.50,-0.30,4.55,7.07,6.59,0.29,1.34,-0.46,1009.25
19.409,0.11,0.50,-0.30,4.55,7.07,6.59,-0.26,-0.91,-3.61,1009.25
19.41,-0.50,0.47,-0.39,4.55,7.07,6.59,-0.26,-0.91,-3.61,1009.25
19.429,0.26,0.50,-0.53,4.55,7.07,6.59,-0.26,-0.91,-3.61,1009.25
19.43,0.26,0.50,-0.53,-6.67,3.19,-3.45,-0.26,-0.91,-3.61,1009.25
19.454,0.78,0.54,-0.68,-6.67,3.19,-3.45,-0.26,-0.91,-3.61,1009.25
19.468,0.78,0.54,-0.68,-6.67,3.19,-3.45,-0.26,-0.91,-3.61,1009.11
19.468,0.88,0.59,-0.59,-6.67,3.19,-3.45,-0.26,-0.91,-3.61,1009.11
19.479,0.88,0.59,-0.59,-6.67,3.19,-3.45,-0.13,-0.19,-4.54,1009.11
19.501,0.88,0.59,-0.59,-4.22,-2.89,-4.52,-0.13,-0.19,-4.54,1009.11
19.502,0.53,0.61,-0.46,-4.22,-2.89,-4.52,-0.13,-0.19,-4.54,1009.11
19.502,0.51,0.77,-0.25,-4.22,-2.89,-4.52,-0.13,-0.19,-4.54,1009.11
19.509,0.51,0.77,-0.25,-4.22,-2.89,-4.52,-0.13,-0.19,-4.54,1009.34
19.522,0.61,0.96,-0.12,-4.22,-2.89,-4.52,-0.13,-0.19,-4.54,1009.34
19.55,0.61,0.96,-0.12,-4.22,-2.89,-4.52,0.83,1.44,-4.98,1009.34
19.551,0.67,1.17,-0.29,-4.22,-2.89,-4.52,0.83,1.44,-4.98,1009.34
19.57,0.75,1.33,-0.35,-4.22,-2.89,-4.52,0.83,1.44,-4.98,1009.34
19.571,0.75,1.33,-0.35,4.73,-2.63,-4.22,0.83,1.44,-4.98,1009.34
19.584,0.82,1.47,-0.38,4.73,-2.63,-4.22,0.83,1.44,-4.98,1009.34
19.587,0.82,1.47,-0.38,4.73,-2.63,-4.22,0.83,1.44,-4.98,1009.22
19.619,0.82,1.47,-0.38,4.73,-2.63,-4.22,1.39,-0.13,-4.50,1009.22
19.621,0.97,1.61,-0.46,4.73,-2.63,-4.22,1.39,-0.13,-4.50,1009.22
19.64,1.41,1.54,-0.28,4.73,-2.63,-4.22,1.39,-0.13,-4.50,1009.22
19.641,1.85,0.97,0.50,4.73,-2.63,-4.22,1.39,-0.13,-4.50,1009.22
19.641,1.85,0.97,0.50,7.41,2.63,-1.56,1.39,-0.13,-4.50,1009.22
19.659,2.43,0.15,0.64,7.41,2.63,-1.56,1.39,-0.13,-4.50,1009.22
19.669,2.43,0.15,0.64,7.41,2.63,-1.56,1.39,-0.13,-4.50,1009.46
19.69,2.43,0.15,0.64,7.41,2.63,-1.56,0.22,-2.08,-1.55,1009.46
19.691,2.80,-0.24,0.49,7.41,2.63,-1.56,0.22,-2.08,-1.55,1009.46
19.709,2.11,-0.05,0.59,7.41,2.63,-1.56,0.22,-2.08,-1.55,1009.46
19.71,2.11,-0.05,0.59,7.41,2.63,-1.56,0.22,-2.08,-1.55,1009.43
19.711,2.11,-0.05,0.59,13.26,4.48,-0.14,0.22,-2.08,-1.55,1009.43
19.722,-0.92,1.60,-0.48,13.26,4.48,-0.14,0.22,-2.08,-1.55,1009.43
19.748,-1.53,1.13,0.20,13.26,4.48,-0.14,0.22,-2.08,-1.55,1009.43
19.764,-1.53,1.13,0.20,13.26,4.48,-0.14,-1.03,1.23,4.41,1009.43
19.779,-1.53,1.13,0.20,16.05,-2.63,4.85,-1.03,1.23,4.41,1009.43
19.78,2.46,0.97,-0.56,16.05,-2.63,4.85,-1.03,1.23,4.41,1009.43
19.781,2.63,0.97,1.38,16.05,-2.63,4.85,-1.03,1.23,4.41,1009.43
19.787,2.63,0.97,1.38,16.05,-2.63,4.85,-1.03,1.23,4.41,1009.57
19.83,2.63,0.97,1.38,16.05,-2.63,4.85,-0.68,0.57,1.05,1009.57
19.831,0.65,1.08,0.71,16.05,-2.63,4.85,-0.68,0.57,1.05,1009.57
19.831,1.04,1.01,-1.38,16.05,-2.63,4.85,-0.68,0.57,1.05,1009.57
19.851,1.04,1.01,-1.38,6.15,-2.30,0.94,-0.68,0.57,1.05,1009.57
19.852,0.37,0.96,0.68,6.15,-2.30,0.94,-0.68,0.57,1.05,1009.57
19.869,0.55,1.01,-0.30,6.15,-2.30,0.94,-0.68,0.57,1.05,1009.57
19.87,0.55,1.01,-0.30,6.15,-2.30,0.94,-0.68,0.57,1.05,1009.17
19.9,0.55,1.01,-0.30,6.15,-2.30,0.94,-0.33,0.04,0.15,1009.17
19.901,0.34,0.95,0.23,6.15,-2.30,0.94,-0.33,0.04,0.15,1009.17
19.909,0.33,0.93,0.08,6.15,-2.30,0.94,-0.33,0.04,0.15,1009.17
19.91,0.33,0.93,0.08,6.15,-2.30,0.94,-0.33,0.04,0.15,1009.26
19.92,0.33,0.93,0.08,3.24,1.24,-0.73,-0.33,0.04,0.15,1009.26
19.921,0.34,0.94,0.16,3.24,1.24,-0.73,-0.33,0.04,0.15,1009.26
19.971,0.34,0.94,0.16,3.24,1.24,-0.73,-0.07,-0.21,0.14,1009.26
19.972,0.34,0.93,0.08,3.24,1.24,-0.73,-0.07,-0.21,0.14,1009.26
19.973,0.35,0.90,0.12,3.24,1.24,-0.73,-0.07,-0.21,0.14,1009.26
19.987,0.35,0.89,0.11,3.24,1.24,-0.73,-0.07,-0.21,0.14,1009.26
19.989,0.35,0.89,0.11,3.24,1.24,-0.73,-0.07,-0.21,0.14,1009.25
19.989,0.35,0.89,0.11,0.36,0.63,0.30,-0.07,-0.21,0.14,1009.25
20.039,0.35,0.89,0.11,0.36,0.63,0.30,0.13,-0.32,0.16,1009.25
20.041,0.34,0.88,0.11,0.36,0.63,0.30,0.13,-0.32,0.16,1009.25
20.041,0.32,0.89,0.08,0.36,0.63,0.30,0.13,-0.32,0.16,1009.25
20.054,0.34,0.91,0.03,0.36,0.63,0.30,0.13,-0.32,0.16,1009.25
20.059,0.37,0.92,0.00,0.36,0.63,0.30,0.13,-0.32,0.16,1009.25
20.06,0.37,0.92,0.00,-0.03,0.19,0.76,0.13,-0.32,0.16,1009.25
20.068,0.37,0.92,0.00,-0.03,0.19,0.76,0.13,-0.32,0.16,1009.27
20.116,0.37,0.92,0.00,-0.03,0.19,0.76,0.13,-0.32,0.16,1009.30
20.118,0.36,0.92,-0.00,-0.03,0.19,0.76,0.13,-0.32,0.16,1009.30
20.12,0.32,0.93,0.02,-0.03,0.19,0.76,0.13,-0.32,0.16,1009.30
20.121,0.32,0.93,0.02,-0.03,0.19,0.76,0.09,-0.37,0.24,1009.30
20.121,0.33,0.93,0.02,-0.03,0.19,0.76,0.09,-0.37,0.24,1009.30
20.136,0.33,0.93,0.02,-0.29,0.24,0.34,0.09,-0.37,0.24,1009.30
20.18,0.33,0.93,0.02,-0.29,0.24,0.34,0.06,-0.51,0.45,1009.30
20.181,0.35,0.93,0.00,-0.29,0.24,0.34,0.06,-0.51,0.45,1009.30
20.182,0.36,0.96,-0.01,-0.29,0.24,0.34,0.06,-0.51,0.45,1009.30
20.187,0.34,1.01,-0.05,-0.29,0.24,0.34,0.06,-0.51,0.45,1009.30
20.188,0.34,1.01,-0.05,-0.29,0.24,0.34,0.06,-0.51,0.45,1009.27
20.199,0.17,1.10,-0.02,-0.29,0.24,0.34,0.06,-0.51,0.45,1009.27
20.2,0.17,1.10,-0.02,-0.62,0.61,0.14,0.06,-0.51,0.45,1009.27
20.249,0.17,1.10,-0.02,-0.62,0.61,0.14,-0.17,-0.31,1.37,1009.27
20.251,0.11,1.15,-0.17,-0.62,0.61,0.14,-0.17,-0.31,1.37,1009.27
20.251,0.39,1.17,-0.27,-0.62,0.61,0.14,-0.17,-0.31,1.37,1009.27
20.268,0.21,1.27,-0.18,-0.62,0.61,0.14,-0.17,-0.31,1.37,1009.27
20.269,0.21,1.27,-0.18,-0.62,0.61,0.14,-0.17,-0.31,1.37,1009.21
20.27,0.21,1.27,-0.18,-2.03,2.00,-0.30,-0.17,-0.31,1.37,1009.21
20.3,0.10,1.40,-0.11,-2.03,2.00,-0.30,-0.17,-0.31,1.37,1009.21
20.301,-0.05,1.56,-0.16,-2.03,2.00,-0.30,-0.17,-0.31,1.37,1009.21
20.308,-0.05,1.56,-0.16,-2.03,2.00,-0.30,-0.17,-0.31,1.37,1009.35
20.319,-0.05,1.56,-0.16,-2.03,2.00,-0.30,-0.60,-0.00,3.43,1009.35
20.321,-0.46,1.75,-0.14,-2.03,2.00,-0.30,-0.60,-0.00,3.43,1009.35
20.34,-0.46,1.75,-0.14,-4.94,5.89,-2.23,-0.60,-0.00,3.43,1009.35
20.341,-0.71,1.80,-0.11,-4.94,5.89,-2.23,-0.60,-0.00,3.43,1009.35
20.387,-0.10,1.57,0.04,-4.94,5.89,-2.23,-0.60,-0.00,3.43,1009.35
20.389,0.76,1.30,0.84,-4.94,5.89,-2.23,-0.60,-0.00,3.43,1009.35
20.389,0.76,1.30,0.84,-4.94,5.89,-2.23,-0.60,-0.00,3.43,1009.34
20.39,0.76,1.30,0.84,-4.94,5.89,-2.23,-1.47,-0.70,7.14,1009.34
20.415,0.46,1.28,0.83,-4.94,5.89,-2.23,-1.47,-0.70,7.14,1009.34
20.416,0.46,1.28,0.83,-12.25,14.36,-1.58,-1.47,-0.70,7.14,1009.34
20.456,0.76,0.58,0.74,-12.25,14.36,-1.58,-1.47,-0.70,7.14,1009.34
20.457,4.21,1.45,-0.07,-12.25,14.36,-1.58,-1.47,-0.70,7.14,1009.34
20.461,4.21,1.45,-0.07,-12.25,14.36,-1.58,-0.02,-0.41,1.92,1009.34
20.469,-0.25,0.80,0.22,-12.25,14.36,-1.58,-0.02,-0.41,1.92,1009.34
20.47,-0.25,0.80,0.22,-12.25,14.36,-1.58,-0.02,-0.41,1.92,1009.23
20.48,-1.01,0.65,0.05,-12.25,14.36,-1.58,-0.02,-0.41,1.92,1009.23
20.481,-1.01,0.65,0.05,-4.99,10.52,5.60,-0.02,-0.41,1.92,1009.23
20.508,-0.20,0.58,0.10,-4.99,10.52,5.60,-0.02,-0.41,1.92,1009.23
