time,gFx,gFy,gFz,ax,ay,az,wx,wy,wz,P
0.002,-0.07,0.98,0.04,0.04,0.01,0.08,-0.00,0.01,-0.00,1009.32
0.027,-0.07,0.98,0.04,0.04,0.01,0.08,-0.00,0.01,-0.00,1009.32
0.028,-0.07,0.98,0.04,0.04,0.01,0.08,-0.00,0.01,-0.00,1009.31
0.037,-0.07,0.98,0.04,0.04,0.01,0.08,-0.01,0.01,0.00,1009.31
0.047,-0.07,0.98,0.04,-0.00,0.00,-0.05,-0.01,0.01,0.00,1009.31
0.047,-0.07,0.98,0.04,-0.00,0.00,-0.05,-0.01,0.01,0.00,1009.31
0.065,-0.07,0.98,0.04,-0.00,0.00,-0.05,-0.01,0.01,0.00,1009.31
0.107,-0.07,0.98,0.04,-0.00,0.00,-0.05,-0.01,0.01,0.00,1009.30
0.108,-0.06,0.98,0.04,-0.00,0.00,-0.05,-0.01,0.01,0.00,1009.30
0.108,-0.07,0.98,0.04,-0.00,0.00,-0.05,-0.01,0.01,0.00,1009.30
0.109,-0.07,0.98,0.04,-0.00,0.00,-0.05,-0.01,0.01,0.00,1009.30
0.117,-0.07,0.98,0.04,-0.00,0.00,-0.05,-0.01,0.01,0.00,1009.30
0.118,-0.07,0.98,0.04,0.01,-0.00,-0.02,-0.01,0.01,0.00,1009.30
0.177,-0.07,0.98,0.04,0.01,-0.00,-0.02,-0.02,0.01,0.01,1009.30
0.178,-0.07,0.98,0.03,0.01,-0.00,-0.02,-0.02,0.01,0.01,1009.30
0.178,-0.07,0.98,0.04,0.01,-0.00,-0.02,-0.02,0.01,0.01,1009.30
0.186,-0.07,0.98,0.04,0.01,-0.00,-0.02,-0.02,0.01,0.01,1009.30
0.187,-0.07,0.98,0.04,0.01,-0.00,-0.02,-0.02,0.01,0.01,1009.31
0.187,-0.07,0.98,0.04,0.06,0.01,-0.01,-0.02,0.01,0.01,1009.31
0.198,-0.06,0.98,0.04,0.06,0.01,-0.01,-0.02,0.01,0.01,1009.31
0.226,-0.07,0.98,0.04,0.06,0.01,-0.01,-0.02,0.01,0.01,1009.31
0.227,-0.07,0.98,0.04,0.06,0.01,-0.01,-0.02,0.01,0.01,1009.29
0.247,-0.07,0.98,0.04,0.06,0.01,-0.01,-0.02,0.01,0.00,1009.29
0.247,-0.06,0.98,0.04,0.06,0.01,-0.01,-0.02,0.01,0.00,1009.29
0.257,-0.06,0.98,0.04,0.00,0.00,-0.03,-0.02,0.01,0.00,1009.29
0.258,-0.07,0.98,0.04,0.00,0.00,-0.03,-0.02,0.01,0.00,1009.29
0.307,-0.07,0.98,0.04,0.00,0.00,-0.03,-0.02,0.01,0.00,1009.29
0.307,-0.06,0.98,0.04,0.00,0.00,-0.03,-0.02,0.01,0.00,1009.29
0.308,-0.06,0.98,0.04,0.00,0.00,-0.03,-0.02,0.01,0.00,1009.31
0.317,-0.06,0.98,0.04,0.00,0.00,-0.03,-0.02,0.01,0.00,1009.31
0.329,-0.07,0.98,0.05,0.00,0.00,-0.03,-0.02,0.01,0.00,1009.31
0.329,-0.07,0.98,0.05,0.04,0.00,-0.01,-0.02,0.01,0.00,1009.31
0.339,-0.07,0.98,0.04,0.04,0.00,-0.01,-0.02,0.01,0.00,1009.31
0.386,-0.07,0.98,0.04,0.04,0.00,-0.01,-0.02,0.01,0.00,1009.30
0.387,-0.07,0.98,0.04,0.04,0.00,-0.01,-0.02,0.01,0.00,1009.30
0.387,-0.06,0.98,0.04,0.04,0.00,-0.01,-0.02,0.01,0.00,1009.30
0.387,-0.06,0.98,0.04,0.04,0.00,-0.01,-0.02,0.01,0.01,1009.30
0.397,-0.06,0.98,0.04,0.04,-0.00,-0.01,-0.02,0.01,0.01,1009.30
0.398,-0.07,0.98,0.05,0.04,-0.00,-0.01,-0.02,0.01,0.01,1009.30
0.427,-0.07,0.98,0.05,0.04,-0.00,-0.01,-0.02,0.01,0.01,1009.32
0.427,-0.06,0.98,0.05,0.04,-0.00,-0.01,-0.02,0.01,0.01,1009.32
0.458,-0.06,0.98,0.05,0.04,-0.00,-0.01,-0.00,0.01,0.00,1009.32
0.458,-0.07,0.98,0.05,0.04,-0.00,-0.01,-0.00,0.01,0.00,1009.32
0.465,-0.06,0.98,0.05,0.04,-0.00,-0.01,-0.00,0.01,0.00,1009.32
0.467,-0.06,0.98,0.05,0.02,0.01,-0.01,-0.00,0.01,0.00,1009.32
0.506,-0.06,0.98,0.05,0.02,0.01,-0.01,-0.00,0.01,0.00,1009.30
0.506,-0.07,0.98,0.04,0.02,0.01,-0.01,-0.00,0.01,0.00,1009.30
0.507,-0.06,0.98,0.05,0.02,0.01,-0.01,-0.00,0.01,0.00,1009.30
0.527,-0.06,0.98,0.05,0.02,0.01,-0.01,0.01,-0.00,0.01,1009.30
0.528,-0.07,0.98,0.05,0.02,0.01,-0.01,0.01,-0.00,0.01,1009.30
0.537,-0.07,0.98,0.05,0.03,0.00,0.02,0.01,-0.00,0.01,1009.30
0.537,-0.07,0.98,0.03,0.03,0.00,0.02,0.01,-0.00,0.01,1009.30
0.586,-0.07,0.98,0.03,0.03,0.00,0.02,0.01,-0.00,0.01,1009.32
0.587,-0.07,0.98,0.03,0.03,0.00,0.02,0.01,-0.00,0.01,1009.32
0.588,-0.05,0.98,0.05,0.03,0.00,0.02,0.01,-0.00,0.01,1009.32
0.597,-0.05,0.98,0.05,0.03,0.00,0.02,0.01,-0.01,0.01,1009.32
0.598,-0.05,0.98,0.05,0.03,0.00,0.02,0.01,-0.01,0.01,1009.32
0.606,-0.05,0.98,0.05,0.03,0.00,-0.02,0.01,-0.01,0.01,1009.32
0.625,-0.07,0.97,0.06,0.03,0.00,-0.02,0.01,-0.01,0.01,1009.32
0.626,-0.07,0.97,0.06,0.03,0.00,-0.02,0.01,-0.01,0.01,1009.28
0.665,-0.06,0.98,0.03,0.03,0.00,-0.02,0.01,-0.01,0.01,1009.28
0.666,-0.08,0.98,0.03,0.03,0.00,-0.02,0.01,-0.01,0.01,1009.28
0.667,-0.08,0.98,0.03,0.03,0.00,-0.02,0.04,-0.02,0.01,1009.28
0.677,-0.06,0.99,0.02,0.03,0.00,-0.02,0.04,-0.02,0.01,1009.28
0.677,-0.06,0.99,0.02,0.08,-0.01,0.05,0.04,-0.02,0.01,1009.28
0.706,-0.04,0.98,0.04,0.08,-0.01,0.05,0.04,-0.02,0.01,1009.28
0.707,-0.04,0.98,0.04,0.08,-0.01,0.05,0.04,-0.02,0.01,1009.30
0.732,-0.07,0.98,0.05,0.08,-0.01,0.05,0.04,-0.02,0.01,1009.30
0.736,-0.07,0.98,0.05,0.08,-0.01,0.05,0.02,-0.02,0.01,1009.30
0.747,-0.05,0.98,0.03,0.08,-0.01,0.05,0.02,-0.02,0.01,1009.30
0.748,-0.05,0.98,0.03,-0.04,0.02,-0.07,0.02,-0.02,0.01,1009.30
0.786,-0.05,0.98,0.03,-0.04,0.02,-0.07,0.02,-0.02,0.01,1009.29
0.787,-0.07,0.99,0.02,-0.04,0.02,-0.07,0.02,-0.02,0.01,1009.29
0.788,-0.06,0.98,0.04,-0.04,0.02,-0.07,0.02,-0.02,0.01,1009.29
0.798,-0.07,0.98,0.04,-0.04,0.02,-0.07,0.02,-0.02,0.01,1009.29
0.806,-0.07,0.98,0.04,-0.04,0.02,-0.07,0.01,-0.02,0.01,1009.29
0.817,-0.07,0.98,0.04,0.09,0.01,0.00,0.01,-0.02,0.01,1009.29
0.818,-0.03,0.97,0.06,0.09,0.01,0.00,0.01,-0.02,0.01,1009.29
0.825,-0.03,0.97,0.06,0.09,0.01,0.00,0.01,-0.02,0.01,1009.32
0.865,-0.05,0.97,0.04,0.09,0.01,0.00,0.01,-0.02,0.01,1009.32
0.866,-0.06,0.98,0.02,0.09,0.01,0.00,0.01,-0.02,0.01,1009.32
0.877,-0.06,0.98,0.02,0.09,0.01,0.00,0.03,-0.04,-0.02,1009.32
0.887,-0.06,0.98,0.02,0.08,0.00,0.03,0.03,-0.04,-0.02,1009.32
0.888,-0.06,0.98,0.03,0.08,0.00,0.03,0.03,-0.04,-0.02,1009.32
0.907,-0.03,0.97,0.05,0.08,0.00,0.03,0.03,-0.04,-0.02,1009.32
0.908,-0.03,0.97,0.05,0.08,0.00,0.03,0.03,-0.04,-0.02,1009.28
0.932,-0.08,0.98,0.02,0.08,0.00,0.03,0.03,-0.04,-0.02,1009.28
0.947,-0.07,0.99,0.02,0.08,0.00,0.03,0.03,-0.04,-0.02,1009.28
0.949,-0.07,0.99,0.02,0.08,0.00,0.03,0.00,-0.03,-0.04,1009.28
0.959,-0.02,0.97,0.05,0.08,0.00,0.03,0.00,-0.03,-0.04,1009.28
0.959,-0.02,0.97,0.05,0.09,-0.03,-0.07,0.00,-0.03,-0.04,1009.28
0.986,-0.04,0.96,0.07,0.09,-0.03,-0.07,0.00,-0.03,-0.04,1009.28
0.987,-0.04,0.96,0.07,0.09,-0.03,-0.07,0.00,-0.03,-0.04,1009.34
0.998,-0.08,0.96,0.03,0.09,-0.03,-0.07,0.00,-0.03,-0.04,1009.34
1.017,-0.08,0.96,0.03,0.09,-0.03,-0.07,0.01,-0.05,-0.09,1009.34
1.025,-0.08,0.96,0.03,0.09,-0.03,-0.07,0.01,-0.05,-0.09,1009.38
1.026,-0.09,0.98,0.02,0.09,-0.03,-0.07,0.01,-0.05,-0.09,1009.38
1.026,-0.09,0.98,0.02,0.13,-0.01,-0.01,0.01,-0.05,-0.09,1009.38
1.065,0.02,0.98,0.07,0.13,-0.01,-0.01,0.01,-0.05,-0.09,1009.38
1.066,0.01,0.98,0.06,0.13,-0.01,-0.01,0.01,-0.05,-0.09,1009.38
1.087,0.01,0.98,0.06,0.13,-0.01,-0.01,0.05,-0.13,-0.22,1009.38
1.088,-0.15,0.99,-0.01,0.13,-0.01,-0.01,0.05,-0.13,-0.22,1009.38
1.098,-0.13,0.98,0.01,0.13,-0.01,-0.01,0.05,-0.13,-0.22,1009.38
1.099,-0.13,0.98,0.01,0.12,-0.07,0.04,0.05,-0.13,-0.22,1009.38
1.105,-0.13,0.98,0.01,0.12,-0.07,0.04,0.05,-0.13,-0.22,1009.49
1.133,-0.10,0.98,0.05,0.12,-0.07,0.04,0.05,-0.13,-0.22,1009.49
1.157,-0.10,0.98,0.05,0.12,-0.07,0.04,0.01,-0.06,-0.14,1009.49
1.158,-0.11,1.01,0.00,0.12,-0.07,0.04,0.01,-0.06,-0.14,1009.49
1.168,-0.11,1.01,0.00,0.13,0.06,-0.03,0.01,-0.06,-0.14,1009.49
1.169,-0.07,1.02,0.02,0.13,0.06,-0.03,0.01,-0.06,-0.14,1009.49
1.186,-0.10,0.98,0.08,0.13,0.06,-0.03,0.01,-0.06,-0.14,1009.49
1.187,-0.10,0.98,0.08,0.13,0.06,-0.03,0.01,-0.06,-0.14,1009.49
1.198,-0.11,0.96,0.09,0.13,0.06,-0.03,0.01,-0.06,-0.14,1009.49
1.226,-0.13,0.99,-0.03,0.13,0.06,-0.03,0.01,-0.06,-0.14,1009.49
1.227,-0.13,0.99,-0.03,0.13,0.06,-0.03,0.01,-0.06,-0.14,1009.41
1.227,-0.13,0.99,-0.03,0.13,0.06,-0.03,0.08,-0.01,-0.11,1009.41
1.237,-0.13,0.99,-0.03,0.00,0.19,0.02,0.08,-0.01,-0.11,1009.41
1.238,-0.12,1.01,-0.07,0.00,0.19,0.02,0.08,-0.01,-0.11,1009.41
1.266,-0.10,1.00,-0.02,0.00,0.19,0.02,0.08,-0.01,-0.11,1009.41
1.297,-0.10,1.00,-0.02,0.00,0.19,0.02,-0.03,0.03,-0.08,1009.41
1.298,-0.06,0.98,0.07,0.00,0.19,0.02,-0.03,0.03,-0.08,1009.41
1.306,-0.11,0.95,0.08,0.00,0.19,0.02,-0.03,0.03,-0.08,1009.41
1.307,-0.11,0.95,0.08,0.00,0.19,0.02,-0.03,0.03,-0.08,1009.34
1.307,-0.11,0.95,0.08,-0.11,0.05,-0.16,-0.03,0.03,-0.08,1009.34
1.334,-0.08,0.96,0.12,-0.11,0.05,-0.16,-0.03,0.03,-0.08,1009.34
1.338,-0.09,0.97,0.04,-0.11,0.05,-0.16,-0.03,0.03,-0.08,1009.34
1.367,-0.09,0.97,0.04,-0.11,0.05,-0.16,0.14,0.04,-0.15,1009.34
1.368,-0.12,0.99,-0.03,-0.11,0.05,-0.16,0.14,0.04,-0.15,1009.34
1.378,-0.12,0.99,-0.03,0.18,-0.04,0.30,0.14,0.04,-0.15,1009.34
1.379,-0.08,1.00,-0.01,0.18,-0.04,0.30,0.14,0.04,-0.15,1009.34
1.385,-0.08,1.00,-0.01,0.18,-0.04,0.30,0.14,0.04,-0.15,1009.29
1.399,-0.08,0.99,0.03,0.18,-0.04,0.30,0.14,0.04,-0.15,1009.29
1.426,-0.10,0.97,0.04,0.18,-0.04,0.30,0.14,0.04,-0.15,1009.29
1.427,-0.10,0.97,0.04,0.18,-0.04,0.30,0.14,0.04,-0.15,1009.26
1.437,-0.10,0.97,0.04,0.18,-0.04,0.30,0.12,0.10,-0.26,1009.26
1.447,-0.10,0.98,0.02,0.18,-0.04,0.30,0.12,0.10,-0.26,1009.26
1.448,-0.10,0.98,0.02,0.21,0.05,-0.03,0.12,0.10,-0.26,1009.26
1.467,-0.04,0.99,0.07,0.21,0.05,-0.03,0.12,0.10,-0.26,1009.26
1.506,-0.04,0.99,0.07,0.21,0.05,-0.03,0.12,0.10,-0.26,1009.29
1.507,-0.10,0.97,0.09,0.21,0.05,-0.03,0.12,0.10,-0.26,1009.29
1.507,-0.12,0.97,0.03,0.21,0.05,-0.03,0.12,0.10,-0.26,1009.29
1.507,-0.12,0.97,0.03,0.21,0.05,-0.03,0.24,0.26,-0.47,1009.29
1.517,-0.12,1.00,-0.03,0.21,0.05,-0.03,0.24,0.26,-0.47,1009.29
1.518,-0.12,1.00,-0.03,0.46,0.08,0.26,0.24,0.26,-0.47,1009.29
1.578,-0.12,1.00,-0.03,0.46,0.08,0.26,0.19,0.41,-0.74,1009.29
1.579,-0.10,1.04,-0.02,0.46,0.08,0.26,0.19,0.41,-0.74,1009.29
1.58,-0.09,1.06,-0.03,0.46,0.08,0.26,0.19,0.41,-0.74,1009.29
1.585,-0.06,1.11,-0.03,0.46,0.08,0.26,0.19,0.41,-0.74,1009.29
1.586,-0.06,1.11,-0.03,0.46,0.08,0.26,0.19,0.41,-0.74,1009.38
1.587,-0.06,1.11,-0.03,0.56,0.12,0.43,0.19,0.41,-0.74,1009.38
1.598,-0.03,1.17,-0.01,0.56,0.12,0.43,0.19,0.41,-0.74,1009.38
1.626,-0.07,1.18,-0.08,0.56,0.12,0.43,0.19,0.41,-0.74,1009.38
1.627,-0.07,1.18,-0.08,0.56,0.12,0.43,0.19,0.41,-0.74,1009.44
1.647,-0.07,1.18,-0.08,0.56,0.12,0.43,-0.11,0.54,-1.43,1009.44
1.648,-0.12,1.19,-0.17,0.56,0.12,0.43,-0.11,0.54,-1.43,1009.44
1.657,-0.14,1.22,-0.25,0.56,0.12,0.43,-0.11,0.54,-1.43,1009.44
1.657,-0.14,1.22,-0.25,1.28,1.08,-0.00,-0.11,0.54,-1.43,1009.44
1.706,-0.14,1.22,-0.25,1.28,1.08,-0.00,-0.11,0.54,-1.43,1009.44
1.707,-0.09,1.32,-0.29,1.28,1.08,-0.00,-0.11,0.54,-1.43,1009.44
1.707,0.03,1.45,-0.25,1.28,1.08,-0.00,-0.11,0.54,-1.43,1009.44
1.718,0.03,1.45,-0.25,1.28,1.08,-0.00,-0.64,0.14,-2.50,1009.44
1.728,0.22,1.55,-0.13,1.28,1.08,-0.00,-0.64,0.14,-2.50,1009.44
1.729,0.22,1.55,-0.13,2.05,2.39,-1.28,-0.64,0.14,-2.50,1009.44
1.786,0.22,1.55,-0.13,2.05,2.39,-1.28,-0.64,0.14,-2.50,1009.24
1.787,0.37,1.59,-0.02,2.05,2.39,-1.28,-0.64,0.14,-2.50,1009.24
1.788,0.43,1.61,0.08,2.05,2.39,-1.28,-0.64,0.14,-2.50,1009.24
1.788,0.13,1.54,0.11,2.05,2.39,-1.28,-0.64,0.14,-2.50,1009.24
1.788,0.13,1.54,0.11,2.05,2.39,-1.28,-1.37,0.51,-4.93,1009.24
1.799,0.13,1.54,0.11,5.66,5.72,-2.24,-1.37,0.51,-4.93,1009.24
1.8,-0.36,1.47,0.30,5.66,5.72,-2.24,-1.37,0.51,-4.93,1009.24
1.826,-0.49,1.22,0.56,5.66,5.72,-2.24,-1.37,0.51,-4.93,1009.24
1.827,-0.49,1.22,0.56,5.66,5.72,-2.24,-1.37,0.51,-4.93,1008.64
1.858,-0.49,1.22,0.56,5.66,5.72,-2.24,-0.50,0.59,-3.27,1008.64
1.859,-1.03,0.07,-0.33,5.66,5.72,-2.24,-0.50,0.59,-3.27,1008.64
1.865,-0.76,0.58,0.19,5.66,5.72,-2.24,-0.50,0.59,-3.27,1008.64
1.867,-0.76,0.58,0.19,8.57,8.78,0.79,-0.50,0.59,-3.27,1008.64
1.906,-0.76,0.58,0.19,8.57,8.78,0.79,-0.50,0.59,-3.27,1008.83
1.907,1.03,0.88,-0.19,8.57,8.78,0.79,-0.50,0.59,-3.27,1008.83
1.907,0.77,0.68,-0.13,8.57,8.78,0.79,-0.50,0.59,-3.27,1008.83
1.927,0.77,0.68,-0.13,8.57,8.78,0.79,-0.40,0.05,1.63,1008.83
1.928,0.42,0.39,0.30,8.57,8.78,0.79,-0.40,0.05,1.63,1008.83
1.938,0.42,0.39,0.30,2.88,0.62,0.28,-0.40,0.05,1.63,1008.83
1.939,0.10,0.40,0.13,2.88,0.62,0.28,-0.40,0.05,1.63,1008.83
1.986,0.10,0.40,0.13,2.88,0.62,0.28,-0.40,0.05,1.63,1009.04
1.987,0.15,0.57,-0.10,2.88,0.62,0.28,-0.40,0.05,1.63,1009.04
1.988,0.22,0.74,-0.21,2.88,0.62,0.28,-0.40,0.05,1.63,1009.04
1.998,0.22,0.74,-0.21,2.88,0.62,0.28,0.60,1.29,3.84,1009.04
1.999,0.02,0.87,-0.32,2.88,0.62,0.28,0.60,1.29,3.84,1009.04
2.007,0.02,0.87,-0.32,11.81,-1.32,0.03,0.60,1.29,3.84,1009.04
2.025,-0.19,0.89,-0.26,11.81,-1.32,0.03,0.60,1.29,3.84,1009.04
2.026,-0.19,0.89,-0.26,11.81,-1.32,0.03,0.60,1.29,3.84,1009.26
2.065,-0.25,0.94,-0.17,11.81,-1.32,0.03,0.60,1.29,3.84,1009.26
2.067,-0.18,1.12,-0.12,11.81,-1.32,0.03,0.60,1.29,3.84,1009.26
2.067,-0.18,1.12,-0.12,11.81,-1.32,0.03,0.72,-0.22,4.74,1009.26
2.079,-0.14,1.33,-0.05,11.81,-1.32,0.03,0.72,-0.22,4.74,1009.26
2.08,-0.14,1.33,-0.05,5.20,-1.07,-1.88,0.72,-0.22,4.74,1009.26
2.106,-0.12,1.56,-0.02,5.20,-1.07,-1.88,0.72,-0.22,4.74,1009.26
2.107,-0.12,1.56,-0.02,5.20,-1.07,-1.88,0.72,-0.22,4.74,1009.33
2.134,0.01,1.81,0.01,5.20,-1.07,-1.88,0.72,-0.22,4.74,1009.33
2.138,0.01,1.81,0.01,5.20,-1.07,-1.88,0.53,-1.14,4.37,1009.33
2.148,-0.06,2.05,0.02,5.20,-1.07,-1.88,0.53,-1.14,4.37,1009.33
2.149,-0.06,2.05,0.02,-0.64,1.33,-0.51,0.53,-1.14,4.37,1009.33
2.186,-0.06,2.05,0.02,-0.64,1.33,-0.51,0.53,-1.14,4.37,1009.26
2.187,-0.56,2.05,0.06,-0.64,1.33,-0.51,0.53,-1.14,4.37,1009.26
2.188,-1.27,1.71,0.21,-0.64,1.33,-0.51,0.53,-1.14,4.37,1009.26
2.205,-2.11,1.05,0.56,-0.64,1.33,-0.51,0.53,-1.14,4.37,1009.26
2.207,-2.11,1.05,0.56,-0.64,1.33,-0.51,-1.05,0.91,3.48,1009.26
2.218,-2.88,0.47,0.66,-0.64,1.33,-0.51,-1.05,0.91,3.48,1009.26
2.219,-2.88,0.47,0.66,-2.21,8.54,0.87,-1.05,0.91,3.48,1009.26
2.227,-2.88,0.47,0.66,-2.21,8.54,0.87,-1.05,0.91,3.48,1009.22
2.265,-2.19,1.02,-0.11,-2.21,8.54,0.87,-1.05,0.91,3.48,1009.22
2.267,-1.85,1.07,-0.61,-2.21,8.54,0.87,-1.05,0.91,3.48,1009.22
2.278,-1.85,1.07,-0.61,-2.21,8.54,0.87,-0.03,0.35,-0.98,1009.22
2.29,-0.15,1.69,-0.20,-2.21,8.54,0.87,-0.03,0.35,-0.98,1009.22
2.291,-0.15,1.69,-0.20,-21.49,2.72,3.95,-0.03,0.35,-0.98,1009.22
2.306,0.48,1.40,-1.42,-21.49,2.72,3.95,-0.03,0.35,-0.98,1009.22
2.307,0.48,1.40,-1.42,-21.49,2.72,3.95,-0.03,0.35,-0.98,1009.66
2.333,-0.94,1.11,-0.32,-21.49,2.72,3.95,-0.03,0.35,-0.98,1009.66
2.338,-1.37,0.96,0.14,-21.49,2.72,3.95,-0.03,0.35,-0.98,1009.66
2.347,-1.37,0.96,0.14,-21.49,2.72,3.95,-0.18,-1.19,-3.05,1009.66
2.358,-0.36,0.90,0.56,-21.49,2.72,3.95,-0.18,-1.19,-3.05,1009.66
2.359,-0.36,0.90,0.56,-13.19,2.91,-5.11,-0.18,-1.19,-3.05,1009.66
2.387,-0.44,0.98,-0.23,-13.19,2.91,-5.11,-0.18,-1.19,-3.05,1009.66
2.388,-0.44,0.98,-0.23,-13.19,2.91,-5.11,-0.18,-1.19,-3.05,1009.64
2.399,-0.17,0.99,0.06,-13.19,2.91,-5.11,-0.18,-1.19,-3.05,1009.64
2.422,-0.17,0.99,0.06,-13.19,2.91,-5.11,0.27,-0.31,-0.88,1009.64
2.426,-0.17,0.99,0.06,-13.19,2.91,-5.11,0.27,-0.31,-0.88,1009.76
2.427,-0.43,1.09,-0.33,-13.19,2.91,-5.11,0.27,-0.31,-0.88,1009.76
2.428,-0.43,1.09,-0.33,-4.55,0.64,-0.29,0.27,-0.31,-0.88,1009.76
2.465,-0.24,0.99,0.04,-4.55,0.64,-0.29,0.27,-0.31,-0.88,1009.76
2.466,-0.17,1.01,0.00,-4.55,0.64,-0.29,0.27,-0.31,-0.88,1009.76
2.487,-0.17,1.01,0.00,-4.55,0.64,-0.29,0.14,-0.05,-0.30,1009.76
2.489,-0.15,1.02,0.00,-4.55,0.64,-0.29,0.14,-0.05,-0.30,1009.76
2.498,-0.15,1.02,0.00,-1.96,0.41,-1.24,0.14,-0.05,-0.30,1009.76
2.499,-0.19,0.98,0.00,-1.96,0.41,-1.24,0.14,-0.05,-0.30,1009.76
2.505,-0.19,0.98,0.00,-1.96,0.41,-1.24,0.14,-0.05,-0.30,1009.45
2.532,-0.14,0.98,0.02,-1.96,0.41,-1.24,0.14,-0.05,-0.30,1009.45
2.558,-0.14,0.98,0.02,-1.96,0.41,-1.24,0.33,0.10,-0.30,1009.45
2.559,-0.11,0.95,0.06,-1.96,0.41,-1.24,0.33,0.10,-0.30,1009.45
2.567,-0.11,0.95,0.06,-0.17,0.28,0.43,0.33,0.10,-0.30,1009.45
2.568,-0.12,0.95,0.01,-0.17,0.28,0.43,0.33,0.10,-0.30,1009.45
2.585,-0.13,0.94,0.00,-0.17,0.28,0.43,0.33,0.10,-0.30,1009.45
2.586,-0.13,0.94,0.00,-0.17,0.28,0.43,0.33,0.10,-0.30,1009.16
2.599,-0.24,0.94,-0.13,-0.17,0.28,0.43,0.33,0.10,-0.30,1009.16
2.625,-0.21,0.94,-0.13,-0.17,0.28,0.43,0.33,0.10,-0.30,1009.16
2.627,-0.21,0.94,-0.13,-0.17,0.28,0.43,0.33,0.10,-0.30,1009.09
2.627,-0.21,0.94,-0.13,-0.17,0.28,0.43,0.36,0.28,-0.39,1009.09
2.639,-0.20,0.95,-0.09,-0.17,0.28,0.43,0.36,0.28,-0.39,1009.09
2.639,-0.20,0.95,-0.09,0.53,-0.10,0.84,0.36,0.28,-0.39,1009.09
2.666,-0.17,0.95,-0.04,0.53,-0.10,0.84,0.36,0.28,-0.39,1009.09
2.699,-0.19,0.95,-0.05,0.53,-0.10,0.84,0.36,0.28,-0.39,1009.09
2.7,-0.19,0.95,-0.05,0.53,-0.10,0.84,0.28,0.29,-0.41,1009.09
2.706,-0.21,0.96,-0.09,0.53,-0.10,0.84,0.28,0.29,-0.41,1009.09
2.707,-0.21,0.96,-0.09,0.53,-0.10,0.84,0.28,0.29,-0.41,1009.23
2.707,-0.21,0.96,-0.09,-0.07,-0.19,-0.25,0.28,0.29,-0.41,1009.23
2.731,-0.19,1.00,-0.13,-0.07,-0.19,-0.25,0.28,0.29,-0.41,1009.23
2.768,-0.19,1.00,-0.13,-0.07,-0.19,-0.25,0.23,0.29,-0.71,1009.23
2.769,-0.14,1.06,-0.11,-0.07,-0.19,-0.25,0.23,0.29,-0.71,1009.23
2.769,-0.08,1.17,-0.21,-0.07,-0.19,-0.25,0.23,0.29,-0.71,1009.23
2.778,-0.09,1.21,-0.23,-0.07,-0.19,-0.25,0.23,0.29,-0.71,1009.23
2.779,-0.09,1.21,-0.23,0.35,0.08,0.37,0.23,0.29,-0.71,1009.23
2.785,-0.09,1.21,-0.23,0.35,0.08,0.37,0.23,0.29,-0.71,1009.36
2.798,-0.11,1.28,-0.27,0.35,0.08,0.37,0.23,0.29,-0.71,1009.36
2.826,-0.11,1.28,-0.27,0.35,0.08,0.37,0.23,0.29,-0.71,1009.48
2.827,-0.06,1.36,-0.29,0.35,0.08,0.37,0.23,0.29,-0.71,1009.48
2.838,-0.06,1.36,-0.29,0.35,0.08,0.37,0.09,-0.11,-1.82,1009.48
2.848,-0.06,1.36,-0.29,1.70,1.85,-0.55,0.09,-0.11,-1.82,1009.48
2.848,0.00,1.47,-0.25,1.70,1.85,-0.55,0.09,-0.11,-1.82,1009.48
2.865,0.16,1.63,-0.20,1.70,1.85,-0.55,0.09,-0.11,-1.82,1009.48
2.906,0.16,1.63,-0.20,1.70,1.85,-0.55,0.09,-0.11,-1.82,1009.36
2.907,0.36,1.74,-0.10,1.70,1.85,-0.55,0.09,-0.11,-1.82,1009.36
2.907,0.59,1.77,0.15,1.70,1.85,-0.55,0.09,-0.11,-1.82,1009.36
2.908,0.59,1.77,0.15,1.70,1.85,-0.55,-0.44,0.13,-4.08,1009.36
2.918,0.59,1.77,0.15,3.89,4.98,-1.40,-0.44,0.13,-4.08,1009.36
2.919,0.56,1.74,0.15,3.89,4.98,-1.40,-0.44,0.13,-4.08,1009.36
2.978,0.56,1.74,0.15,3.89,4.98,-1.40,0.19,0.71,-5.49,1009.36
2.979,0.03,1.55,0.76,3.89,4.98,-1.40,0.19,0.71,-5.49,1009.36
2.98,-0.53,1.19,0.74,3.89,4.98,-1.40,0.19,0.71,-5.49,1009.36
2.986,-1.92,0.59,-1.14,3.89,4.98,-1.40,0.19,0.71,-5.49,1009.36
2.988,-1.92,0.59,-1.14,3.89,4.98,-1.40,0.19,0.71,-5.49,1008.91
2.988,-1.92,0.59,-1.14,11.17,10.06,1.25,0.19,0.71,-5.49,1008.91
2.999,-0.19,0.71,0.48,11.17,10.06,1.25,0.19,0.71,-5.49,1008.91
3.028,0.67,0.88,0.16,11.17,10.06,1.25,0.19,0.71,-5.49,1008.91
3.029,0.67,0.88,0.16,11.17,10.06,1.25,0.19,0.71,-5.49,1008.98
3.048,0.67,0.88,0.16,11.17,10.06,1.25,-0.29,-1.98,1.05,1008.98
3.049,0.90,0.70,-0.05,11.17,10.06,1.25,-0.29,-1.98,1.05,1008.98
3.058,0.90,0.70,-0.05,-0.25,5.58,2.98,-0.29,-1.98,1.05,1008.98
3.059,0.72,0.39,0.37,-0.25,5.58,2.98,-0.29,-1.98,1.05,1008.98
3.106,0.26,0.40,-0.08,-0.25,5.58,2.98,-0.29,-1.98,1.05,1008.98
3.107,-0.06,0.37,-0.15,-0.25,5.58,2.98,-0.29,-1.98,1.05,1008.98
3.107,-0.06,0.37,-0.15,-0.25,5.58,2.98,-0.29,-1.98,1.05,1009.10
3.121,-0.06,0.37,-0.15,-0.25,5.58,2.98,-0.41,1.10,3.43,1009.10
3.128,-0.06,0.37,-0.15,14.98,-0.01,1.81,-0.41,1.10,3.43,1009.10
3.129,-0.07,0.55,-0.37,14.98,-0.01,1.81,-0.41,1.10,3.43,1009.10
3.148,-0.03,0.80,-0.55,14.98,-0.01,1.81,-0.41,1.10,3.43,1009.10
3.188,-0.03,0.80,-0.55,14.98,-0.01,1.81,-0.41,1.10,3.43,1009.22
3.189,-0.09,0.87,-0.37,14.98,-0.01,1.81,-0.41,1.10,3.43,1009.22
3.19,-0.03,0.99,-0.21,14.98,-0.01,1.81,-0.41,1.10,3.43,1009.22
3.191,-0.03,0.99,-0.21,14.98,-0.01,1.81,0.17,-0.33,4.91,1009.22
3.198,-0.03,0.99,-0.21,5.59,-3.10,-1.97,0.17,-0.33,4.91,1009.22
3.2,-0.08,1.19,-0.21,5.59,-3.10,-1.97,0.17,-0.33,4.91,1009.22
3.226,-0.16,1.40,-0.23,5.59,-3.10,-1.97,0.17,-0.33,4.91,1009.22
3.228,-0.16,1.40,-0.23,5.59,-3.10,-1.97,0.17,-0.33,4.91,1009.26
3.258,-0.15,1.68,-0.32,5.59,-3.10,-1.97,0.17,-0.33,4.91,1009.26
3.259,-0.15,1.68,-0.32,5.59,-3.10,-1.97,0.31,-0.75,4.81,1009.26
3.265,-0.21,1.99,-0.44,5.59,-3.10,-1.97,0.31,-0.75,4.81,1009.26
3.269,-0.21,1.99,-0.44,1.58,0.52,-2.37,0.31,-0.75,4.81,1009.26
3.306,-0.21,1.99,-0.44,1.58,0.52,-2.37,0.31,-0.75,4.81,1009.18
3.307,-0.63,2.07,-0.27,1.58,0.52,-2.37,0.31,-0.75,4.81,1009.18
3.307,-1.38,1.73,0.33,1.58,0.52,-2.37,0.31,-0.75,4.81,1009.18
3.328,-1.38,1.73,0.33,1.58,0.52,-2.37,-0.08,0.79,3.92,1009.18
3.329,-1.78,1.39,0.47,1.58,0.52,-2.37,-0.08,0.79,3.92,1009.18
3.341,-2.58,1.04,0.30,1.58,0.52,-2.37,-0.08,0.79,3.92,1009.18
3.342,-2.58,1.04,0.30,-2.79,7.59,-2.62,-0.08,0.79,3.92,1009.18
3.386,-2.58,1.04,0.30,-2.79,7.59,-2.62,-0.08,0.79,3.92,1009.36
3.388,-2.41,0.91,-0.17,-2.79,7.59,-2.62,-0.08,0.79,3.92,1009.36
3.388,-1.78,0.89,-0.26,-2.79,7.59,-2.62,-0.08,0.79,3.92,1009.36
3.399,-1.78,0.89,-0.26,-2.79,7.59,-2.62,-0.88,0.20,-0.33,1009.36
3.399,-2.26,0.75,-0.06,-2.79,7.59,-2.62,-0.88,0.20,-0.33,1009.36
3.408,-2.26,0.75,-0.06,-19.91,5.34,3.07,-0.88,0.20,-0.33,1009.36
3.427,0.17,1.25,0.98,-19.91,5.34,3.07,-0.88,0.20,-0.33,1009.36
3.428,0.17,1.25,0.98,-19.91,5.34,3.07,-0.88,0.20,-0.33,1009.23
3.465,1.77,1.83,-1.54,-19.91,5.34,3.07,-0.88,0.20,-0.33,1009.23
3.467,-0.53,0.93,-0.62,-19.91,5.34,3.07,-0.88,0.20,-0.33,1009.23
3.468,-0.53,0.93,-0.62,-19.91,5.34,3.07,-0.20,-1.11,-3.64,1009.23
3.479,-1.74,0.73,0.87,-19.91,5.34,3.07,-0.20,-1.11,-3.64,1009.23
3.48,-1.74,0.73,0.87,-21.77,-1.13,-1.13,-0.20,-1.11,-3.64,1009.23
3.506,-0.22,0.96,0.39,-21.77,-1.13,-1.13,-0.20,-1.11,-3.64,1009.23
3.508,-0.22,0.96,0.39,-21.77,-1.13,-1.13,-0.20,-1.11,-3.64,1009.74
3.532,-1.07,1.04,-0.92,-21.77,-1.13,-1.13,-0.20,-1.11,-3.64,1009.74
3.541,-1.07,1.04,-0.92,-21.77,-1.13,-1.13,0.55,-0.55,-1.36,1009.74
3.548,-1.07,1.04,-0.92,2.69,2.60,-1.33,0.55,-0.55,-1.36,1009.74
3.549,-0.22,1.04,-0.12,2.69,2.60,-1.33,0.55,-0.55,-1.36,1009.74
3.586,-0.22,1.04,-0.12,2.69,2.60,-1.33,0.55,-0.55,-1.36,1009.73
3.587,-0.35,1.05,-0.15,2.69,2.60,-1.33,0.55,-0.55,-1.36,1009.73
3.588,-0.30,0.98,0.05,2.69,2.60,-1.33,0.55,-0.55,-1.36,1009.73
3.598,-0.22,0.96,0.10,2.69,2.60,-1.33,0.55,-0.55,-1.36,1009.73
3.608,-0.22,0.96,0.10,2.69,2.60,-1.33,-0.02,-0.09,-0.38,1009.73
3.618,-0.22,1.00,-0.02,2.69,2.60,-1.33,-0.02,-0.09,-0.38,1009.73
3.619,-0.22,1.00,-0.02,-3.38,0.53,-1.89,-0.02,-0.09,-0.38,1009.73
3.625,-0.22,1.00,-0.02,-3.38,0.53,-1.89,-0.02,-0.09,-0.38,1009.35
3.665,-0.24,0.99,-0.00,-3.38,0.53,-1.89,-0.02,-0.09,-0.38,1009.35
3.667,-0.22,0.97,-0.01,-3.38,0.53,-1.89,-0.02,-0.09,-0.38,1009.35
3.678,-0.22,0.97,-0.01,-3.38,0.53,-1.89,0.13,0.04,-0.24,1009.35
3.689,-0.21,0.96,0.01,-3.38,0.53,-1.89,0.13,0.04,-0.24,1009.35
3.69,-0.21,0.96,0.01,-0.20,0.36,0.32,0.13,0.04,-0.24,1009.35
3.706,-0.16,0.94,0.09,-0.20,0.36,0.32,0.13,0.04,-0.24,1009.35
3.707,-0.16,0.94,0.09,-0.20,0.36,0.32,0.13,0.04,-0.24,1009.04
3.732,-0.19,0.92,0.06,-0.20,0.36,0.32,0.13,0.04,-0.24,1009.04
3.748,-0.19,0.92,0.06,-0.20,0.36,0.32,0.28,0.25,-0.30,1009.04
3.749,-0.22,0.94,-0.03,-0.20,0.36,0.32,0.28,0.25,-0.30,1009.04
3.758,-0.23,0.95,-0.08,-0.20,0.36,0.32,0.28,0.25,-0.30,1009.04
3.759,-0.23,0.95,-0.08,0.03,0.15,0.35,0.28,0.25,-0.30,1009.04
3.787,-0.22,0.95,-0.05,0.03,0.15,0.35,0.28,0.25,-0.30,1009.04
3.788,-0.22,0.95,-0.05,0.03,0.15,0.35,0.28,0.25,-0.30,1009.06
3.799,-0.23,0.96,-0.10,0.03,0.15,0.35,0.28,0.25,-0.30,1009.06
3.818,-0.23,0.96,-0.10,0.03,0.15,0.35,0.20,0.27,-0.37,1009.06
3.827,-0.21,0.99,-0.14,0.03,0.15,0.35,0.20,0.27,-0.37,1009.06
3.828,-0.21,0.99,-0.14,0.03,0.15,0.35,0.20,0.27,-0.37,1009.26
3.829,-0.21,0.99,-0.14,0.30,-0.12,0.54,0.20,0.27,-0.37,1009.26
3.865,-0.21,1.02,-0.13,0.30,-0.12,0.54,0.20,0.27,-0.37,1009.26
3.867,-0.17,1.07,-0.14,0.30,-0.12,0.54,0.20,0.27,-0.37,1009.26
3.888,-0.17,1.07,-0.14,0.30,-0.12,0.54,-0.05,0.14,-0.72,1009.26
3.89,-0.16,1.11,-0.08,0.30,-0.12,0.54,-0.05,0.14,-0.72,1009.26
3.898,-0.11,1.17,-0.08,0.30,-0.12,0.54,-0.05,0.14,-0.72,1009.26
3.899,-0.11,1.17,-0.08,0.43,0.31,-0.37,-0.05,0.14,-0.72,1009.26
3.905,-0.11,1.17,-0.08,0.43,0.31,-0.37,-0.05,0.14,-0.72,1009.43
3.932,-0.13,1.21,-0.14,0.43,0.31,-0.37,-0.05,0.14,-0.72,1009.43
3.958,-0.17,1.25,-0.23,0.43,0.31,-0.37,-0.05,0.14,-0.72,1009.43
3.96,-0.17,1.25,-0.23,0.43,0.31,-0.37,-0.32,0.09,-1.65,1009.43
3.968,-0.14,1.31,-0.14,0.43,0.31,-0.37,-0.32,0.09,-1.65,1009.43
3.968,-0.14,1.31,-0.14,1.61,1.79,-0.41,-0.32,0.09,-1.65,1009.43
3.987,0.01,1.48,-0.15,1.61,1.79,-0.41,-0.32,0.09,-1.65,1009.43
3.987,0.01,1.48,-0.15,1.61,1.79,-0.41,-0.32,0.09,-1.65,1009.63
3.999,0.21,1.71,-0.27,1.61,1.79,-0.41,-0.32,0.09,-1.65,1009.63
4.027,0.45,1.85,-0.18,1.61,1.79,-0.41,-0.32,0.09,-1.65,1009.63
4.028,0.45,1.85,-0.18,1.61,1.79,-0.41,-0.32,0.09,-1.65,1009.60
4.03,0.45,1.85,-0.18,1.61,1.79,-0.41,-1.03,0.31,-3.52,1009.60
4.039,0.61,1.78,0.18,1.61,1.79,-0.41,-1.03,0.31,-3.52,1009.60
4.04,0.61,1.78,0.18,3.05,3.93,-1.26,-1.03,0.31,-3.52,1009.60
4.065,0.24,1.72,0.12,3.05,3.93,-1.26,-1.03,0.31,-3.52,1009.60
4.099,0.24,1.72,0.12,3.05,3.93,-1.26,-0.72,0.98,-6.45,1009.60
4.1,-0.19,1.61,0.78,3.05,3.93,-1.26,-0.72,0.98,-6.45,1009.60
4.105,-0.50,1.06,0.56,3.05,3.93,-1.26,-0.72,0.98,-6.45,1009.60
4.106,-0.50,1.06,0.56,3.05,3.93,-1.26,-0.72,0.98,-6.45,1008.84
4.108,-0.50,1.06,0.56,10.24,10.10,-1.09,-0.72,0.98,-6.45,1008.84
4.132,-2.01,0.26,-0.68,10.24,10.10,-1.09,-0.72,0.98,-6.45,1008.84
4.169,-2.01,0.26,-0.68,10.24,10.10,-1.09,-0.54,-0.33,0.32,1008.84
4.171,0.66,0.69,0.24,10.24,10.10,-1.09,-0.54,-0.33,0.32,1008.84
4.172,0.66,0.72,-0.00,10.24,10.10,-1.09,-0.54,-0.33,0.32,1008.84
4.178,0.50,0.48,-0.02,10.24,10.10,-1.09,-0.54,-0.33,0.32,1008.84
4.179,0.50,0.48,-0.02,4.69,7.04,3.17,-0.54,-0.33,0.32,1008.84
4.185,0.50,0.48,-0.02,4.69,7.04,3.17,-0.54,-0.33,0.32,1008.88
4.198,0.39,0.37,0.13,4.69,7.04,3.17,-0.54,-0.33,0.32,1008.88
4.228,-0.02,0.42,-0.22,4.69,7.04,3.17,-0.54,-0.33,0.32,1008.88
4.231,-0.02,0.42,-0.22,4.69,7.04,3.17,-0.54,-0.33,0.32,1009.10
4.238,-0.02,0.42,-0.22,4.69,7.04,3.17,-0.79,0.47,3.70,1009.10
4.248,0.05,0.48,-0.30,4.69,7.04,3.17,-0.79,0.47,3.70,1009.10
4.249,0.05,0.48,-0.30,10.09,1.80,-0.57,-0.79,0.47,3.70,1009.10
4.265,0.11,0.71,-0.57,10.09,1.80,-0.57,-0.79,0.47,3.70,1009.10
4.306,0.11,0.71,-0.57,10.09,1.80,-0.57,-0.79,0.47,3.70,1009.19
4.308,0.01,0.91,-0.62,10.09,1.80,-0.57,-0.79,0.47,3.70,1009.19
4.308,-0.16,1.08,-0.53,10.09,1.80,-0.57,-0.79,0.47,3.70,1009.19
4.309,-0.16,1.08,-0.53,10.09,1.80,-0.57,-0.12,0.96,5.37,1009.19
4.318,-0.16,1.32,-0.59,10.09,1.80,-0.57,-0.12,0.96,5.37,1009.19
4.319,-0.16,1.32,-0.59,7.19,-2.89,-1.98,-0.12,0.96,5.37,1009.19
4.345,-0.20,1.53,-0.70,7.19,-2.89,-1.98,-0.12,0.96,5.37,1009.19
4.379,-0.20,1.53,-0.70,7.19,-2.89,-1.98,0.15,1.19,4.64,1009.19
4.38,-0.14,1.79,-0.79,7.19,-2.89,-1.98,0.15,1.19,4.64,1009.19
4.385,-0.20,1.97,-0.75,7.19,-2.89,-1.98,0.15,1.19,4.64,1009.19
4.386,-0.20,1.97,-0.75,7.19,-2.89,-1.98,0.15,1.19,4.64,1009.30
4.388,-0.20,1.97,-0.75,1.92,1.35,-5.48,0.15,1.19,4.64,1009.30
4.399,-0.74,1.95,-0.71,1.92,1.35,-5.48,0.15,1.19,4.64,1009.30
4.429,-0.74,1.95,-0.71,1.92,1.35,-5.48,0.15,1.19,4.64,1009.21
4.432,-1.78,1.44,-0.30,1.92,1.35,-5.48,0.15,1.19,4.64,1009.21
4.448,-1.78,1.44,-0.30,1.92,1.35,-5.48,-0.42,1.08,3.10,1009.21
4.45,-2.02,1.08,0.01,1.92,1.35,-5.48,-0.42,1.08,3.10,1009.21
4.459,-2.14,0.84,-0.05,1.92,1.35,-5.48,-0.42,1.08,3.10,1009.21
4.46,-2.14,0.84,-0.05,-1.98,8.12,-6.92,-0.42,1.08,3.10,1009.21
4.506,-2.14,0.84,-0.05,-1.98,8.12,-6.92,-0.42,1.08,3.10,1009.27
4.508,-2.49,0.64,0.06,-1.98,8.12,-6.92,-0.42,1.08,3.10,1009.27
4.508,-1.45,0.94,-0.01,-1.98,8.12,-6.92,-0.42,1.08,3.10,1009.27
4.519,-1.45,0.94,-0.01,-1.98,8.12,-6.92,-0.17,0.14,1.12,1009.27
4.528,-1.70,0.78,0.11,-1.98,8.12,-6.92,-0.17,0.14,1.12,1009.27
4.529,-1.70,0.78,0.11,-19.78,2.65,-1.63,-0.17,0.14,1.12,1009.27
4.586,-1.70,0.78,0.11,-19.78,2.65,-1.63,-0.17,0.14,1.12,1009.46
4.588,-1.97,0.65,0.35,-19.78,2.65,-1.63,-0.17,0.14,1.12,1009.46
4.589,1.77,1.99,0.09,-19.78,2.65,-1.63,-0.17,0.14,1.12,1009.46
4.59,1.28,1.45,-0.53,-19.78,2.65,-1.63,-0.17,0.14,1.12,1009.46
4.59,1.28,1.45,-0.53,-19.78,2.65,-1.63,-0.25,-0.32,-3.15,1009.46
4.599,-1.48,0.85,-0.12,-19.78,2.65,-1.63,-0.25,-0.32,-3.15,1009.46
4.6,-1.48,0.85,-0.12,-19.86,-1.96,0.95,-0.25,-0.32,-3.15,1009.46
4.628,-1.28,0.73,1.12,-19.86,-1.96,0.95,-0.25,-0.32,-3.15,1009.46
4.629,-1.28,0.73,1.12,-19.86,-1.96,0.95,-0.25,-0.32,-3.15,1009.54
4.659,-1.28,0.73,1.12,-19.86,-1.96,0.95,0.34,-0.44,-1.67,1009.54
4.66,-0.51,1.09,-0.59,-19.86,-1.96,0.95,0.34,-0.44,-1.67,1009.54
4.665,-0.69,1.03,-0.31,-19.86,-1.96,0.95,0.34,-0.44,-1.67,1009.54
4.668,-0.69,1.03,-0.31,2.84,3.61,-1.20,0.34,-0.44,-1.67,1009.54
4.706,-0.69,1.03,-0.31,2.84,3.61,-1.20,0.34,-0.44,-1.67,1009.74
4.707,-0.30,1.02,-0.18,2.84,3.61,-1.20,0.34,-0.44,-1.67,1009.74
4.708,-0.26,0.99,-0.02,2.84,3.61,-1.20,0.34,-0.44,-1.67,1009.74
4.729,-0.26,0.99,-0.02,2.84,3.61,-1.20,-0.08,-0.10,-0.39,1009.74
4.729,-0.23,0.99,0.01,2.84,3.61,-1.20,-0.08,-0.10,-0.39,1009.74
4.745,-0.21,0.98,0.08,2.84,3.61,-1.20,-0.08,-0.10,-0.39,1009.74
4.746,-0.21,0.98,0.08,-5.17,0.12,0.41,-0.08,-0.10,-0.39,1009.74
4.786,-0.21,0.98,0.08,-5.17,0.12,0.41,-0.08,-0.10,-0.39,1009.38
4.788,-0.22,0.99,0.02,-5.17,0.12,0.41,-0.08,-0.10,-0.39,1009.38
4.789,-0.23,0.98,-0.03,-5.17,0.12,0.41,-0.08,-0.10,-0.39,1009.38
4.799,-0.22,0.97,-0.00,-5.17,0.12,0.41,-0.08,-0.10,-0.39,1009.38
4.8,-0.22,0.97,-0.00,-5.17,0.12,0.41,0.04,0.03,-0.21,1009.38
4.809,-0.22,0.97,-0.00,-0.69,0.38,0.10,0.04,0.03,-0.21,1009.38
4.826,-0.21,0.96,-0.00,-0.69,0.38,0.10,0.04,0.03,-0.21,1009.38
4.827,-0.21,0.96,-0.00,-0.69,0.38,0.10,0.04,0.03,-0.21,1009.16
4.865,-0.18,0.95,0.08,-0.69,0.38,0.10,0.04,0.03,-0.21,1009.16
4.867,-0.18,0.95,0.04,-0.69,0.38,0.10,0.04,0.03,-0.21,1009.16
4.868,-0.18,0.95,0.04,-0.69,0.38,0.10,0.11,0.18,-0.18,1009.16
4.879,-0.18,0.95,0.05,-0.69,0.38,0.10,0.11,0.18,-0.18,1009.16
4.88,-0.18,0.95,0.05,-0.03,0.30,0.07,0.11,0.18,-0.18,1009.16
4.906,-0.19,0.96,0.00,-0.03,0.30,0.07,0.11,0.18,-0.18,1009.16
4.908,-0.19,0.96,0.00,-0.03,0.30,0.07,0.11,0.18,-0.18,1009.12
4.932,-0.18,0.96,-0.01,-0.03,0.30,0.07,0.11,0.18,-0.18,1009.12
4.947,-0.18,0.96,-0.01,-0.03,0.30,0.07,0.21,0.36,-0.31,1009.12
4.948,-0.18,0.96,-0.01,0.52,0.12,0.73,0.21,0.36,-0.31,1009.12
4.949,-0.17,0.97,0.00,0.52,0.12,0.73,0.21,0.36,-0.31,1009.12
4.986,-0.19,1.00,-0.09,0.52,0.12,0.73,0.21,0.36,-0.31,1009.12
4.988,-0.20,1.03,-0.14,0.52,0.12,0.73,0.21,0.36,-0.31,1009.12
4.989,-0.20,1.03,-0.14,0.52,0.12,0.73,0.21,0.36,-0.31,1009.21
5.009,-0.17,1.06,-0.13,0.52,0.12,0.73,0.21,0.36,-0.31,1009.21
5.01,-0.17,1.06,-0.13,0.52,0.12,0.73,0.09,0.24,-0.60,1009.21
5.018,-0.18,1.08,-0.11,0.52,0.12,0.73,0.09,0.24,-0.60,1009.21
5.019,-0.18,1.08,-0.11,0.75,0.31,0.32,0.09,0.24,-0.60,1009.21
5.025,-0.18,1.08,-0.11,0.75,0.31,0.32,0.09,0.24,-0.60,1009.41
5.065,-0.14,1.14,-0.07,0.75,0.31,0.32,0.09,0.24,-0.60,1009.41
5.067,-0.13,1.18,-0.12,0.75,0.31,0.32,0.09,0.24,-0.60,1009.41
5.079,-0.13,1.18,-0.12,0.75,0.31,0.32,-0.26,0.19,-1.24,1009.41
5.089,-0.18,1.18,-0.18,0.75,0.31,0.32,-0.26,0.19,-1.24,1009.41
5.089,-0.18,1.18,-0.18,1.10,1.22,-0.74,-0.26,0.19,-1.24,1009.41
5.106,-0.21,1.21,-0.16,1.10,1.22,-0.74,-0.26,0.19,-1.24,1009.41
5.107,-0.21,1.21,-0.16,1.10,1.22,-0.74,-0.26,0.19,-1.24,1009.57
5.132,-0.07,1.35,-0.09,1.10,1.22,-0.74,-0.26,0.19,-1.24,1009.57
5.149,-0.07,1.35,-0.09,1.10,1.22,-0.74,-0.55,0.05,-2.38,1009.57
5.15,0.10,1.58,-0.08,1.10,1.22,-0.74,-0.55,0.05,-2.38,1009.57
5.159,0.35,1.81,0.00,1.10,1.22,-0.74,-0.55,0.05,-2.38,1009.57
5.16,0.35,1.81,0.00,2.24,2.70,-0.97,-0.55,0.05,-2.38,1009.57
5.186,0.62,1.90,0.08,2.24,2.70,-0.97,-0.55,0.05,-2.38,1009.57
5.187,0.62,1.90,0.08,2.24,2.70,-0.97,-0.55,0.05,-2.38,1009.59
5.219,0.42,1.79,-0.04,2.24,2.70,-0.97,-0.55,0.05,-2.38,1009.59
5.22,0.42,1.79,-0.04,2.24,2.70,-0.97,-1.35,0.84,-5.42,1009.59
5.23,-0.14,1.65,0.14,2.24,2.70,-0.97,-1.35,0.84,-5.42,1009.59
5.231,-0.14,1.65,0.14,2.24,2.70,-0.97,-1.35,0.84,-5.42,1009.03
5.231,-0.14,1.65,0.14,6.26,7.13,-0.69,-1.35,0.84,-5.42,1009.03
5.265,-0.44,1.39,0.75,6.26,7.13,-0.69,-1.35,0.84,-5.42,1009.03
5.267,-0.98,0.22,-0.18,6.26,7.13,-0.69,-1.35,0.84,-5.42,1009.03
5.289,-0.98,0.22,-0.18,6.26,7.13,-0.69,-0.80,1.24,-3.32,1009.03
5.29,-0.32,1.00,0.15,6.26,7.13,-0.69,-0.80,1.24,-3.32,1009.03
5.299,-0.32,1.00,0.15,10.07,11.95,1.60,-0.80,1.24,-3.32,1009.03
5.3,0.53,0.67,-0.08,10.07,11.95,1.60,-0.80,1.24,-3.32,1009.03
5.305,0.53,0.67,-0.08,10.07,11.95,1.60,-0.80,1.24,-3.32,1008.83
5.332,0.14,0.44,-0.19,10.07,11.95,1.60,-0.80,1.24,-3.32,1008.83
5.339,0.27,0.33,0.04,10.07,11.95,1.60,-0.80,1.24,-3.32,1008.83
5.36,0.27,0.33,0.04,10.07,11.95,1.60,-1.05,-0.20,2.09,1008.83
5.37,0.27,0.33,0.04,5.60,2.73,0.72,-1.05,-0.20,2.09,1008.83
5.37,-0.02,0.29,-0.11,5.60,2.73,0.72,-1.05,-0.20,2.09,1008.83
5.386,-0.06,0.34,-0.19,5.60,2.73,0.72,-1.05,-0.20,2.09,1008.83
5.387,-0.06,0.34,-0.19,5.60,2.73,0.72,-1.05,-0.20,2.09,1008.99
5.43,-0.06,0.34,-0.19,5.60,2.73,0.72,-1.05,-0.20,2.09,1009.14
5.433,0.26,0.55,-0.26,5.60,2.73,0.72,-1.05,-0.20,2.09,1009.14
5.434,0.20,0.82,-0.49,5.60,2.73,0.72,-1.05,-0.20,2.09,1009.14
5.437,0.20,0.82,-0.49,5.60,2.73,0.72,-0.64,0.92,5.08,1009.14
5.439,0.20,0.82,-0.49,7.95,-2.76,-1.22,-0.64,0.92,5.08,1009.14
5.44,-0.12,0.95,-0.56,7.95,-2.76,-1.22,-0.64,0.92,5.08,1009.14
5.466,-0.19,1.09,-0.64,7.95,-2.76,-1.22,-0.64,0.92,5.08,1009.14
5.5,-0.19,1.09,-0.64,7.95,-2.76,-1.22,-0.23,1.25,4.83,1009.14
5.501,-0.08,1.36,-0.80,7.95,-2.76,-1.22,-0.23,1.25,4.83,1009.14
5.506,-0.21,1.55,-0.79,7.95,-2.76,-1.22,-0.23,1.25,4.83,1009.14
5.506,-0.21,1.55,-0.79,7.95,-2.76,-1.22,-0.23,1.25,4.83,1009.31
5.509,-0.21,1.55,-0.79,5.28,-1.21,-3.88,-0.23,1.25,4.83,1009.31
5.532,-0.71,1.53,-0.52,5.28,-1.21,-3.88,-0.23,1.25,4.83,1009.31
5.569,-0.71,1.53,-0.52,5.28,-1.21,-3.88,-0.18,0.98,3.94,1009.31
5.571,-0.66,1.70,-0.46,5.28,-1.21,-3.88,-0.18,0.98,3.94,1009.31
5.571,-1.03,1.70,-0.51,5.28,-1.21,-3.88,-0.18,0.98,3.94,1009.31
5.579,-1.28,1.54,-0.22,5.28,-1.21,-3.88,-0.18,0.98,3.94,1009.31
5.58,-1.28,1.54,-0.22,-0.69,4.12,-6.78,-0.18,0.98,3.94,1009.31
5.585,-1.28,1.54,-0.22,-0.69,4.12,-6.78,-0.18,0.98,3.94,1009.33
5.631,-1.28,1.54,-0.22,-0.69,4.12,-6.78,-0.18,0.98,3.94,1009.30
5.632,-1.46,1.37,-0.11,-0.69,4.12,-6.78,-0.18,0.98,3.94,1009.30
5.633,-1.92,1.07,-0.15,-0.69,4.12,-6.78,-0.18,0.98,3.94,1009.30
5.639,-1.92,1.07,-0.15,-0.69,4.12,-6.78,-0.44,1.98,2.51,1009.30
5.649,-2.23,0.63,-0.04,-0.69,4.12,-6.78,-0.44,1.98,2.51,1009.30
5.65,-2.23,0.63,-0.04,-10.14,6.53,-3.78,-0.44,1.98,2.51,1009.30
5.667,-1.92,0.62,-0.12,-10.14,6.53,-3.78,-0.44,1.98,2.51,1009.30
5.706,-1.92,0.62,-0.12,-10.14,6.53,-3.78,-0.44,1.98,2.51,1009.41
5.708,-0.45,1.03,0.58,-10.14,6.53,-3.78,-0.44,1.98,2.51,1009.41
5.708,-0.09,1.36,-0.68,-10.14,6.53,-3.78,-0.44,1.98,2.51,1009.41
5.709,-0.09,1.36,-0.68,-10.14,6.53,-3.78,0.26,0.51,-2.44,1009.41
5.719,0.35,1.26,-0.66,-10.14,6.53,-3.78,0.26,0.51,-2.44,1009.41
5.719,0.35,1.26,-0.66,-19.87,0.06,-1.22,0.26,0.51,-2.44,1009.41
5.78,0.35,1.26,-0.66,-19.87,0.06,-1.22,0.14,-0.45,-2.10,1009.41
5.781,-1.37,1.00,-0.27,-19.87,0.06,-1.22,0.14,-0.45,-2.10,1009.41
5.782,-0.97,0.93,0.45,-19.87,0.06,-1.22,0.14,-0.45,-2.10,1009.41
5.785,-0.27,1.02,-0.17,-19.87,0.06,-1.22,0.14,-0.45,-2.10,1009.41
5.786,-0.27,1.02,-0.17,-19.87,0.06,-1.22,0.14,-0.45,-2.10,1009.68
5.789,-0.27,1.02,-0.17,-2.07,1.77,-2.30,0.14,-0.45,-2.10,1009.68
5.832,-0.27,1.02,-0.17,-2.07,1.77,-2.30,0.14,-0.45,-2.10,1009.52
5.833,-0.26,0.95,-0.16,-2.07,1.77,-2.30,0.14,-0.45,-2.10,1009.52
5.834,-0.53,0.87,0.45,-2.07,1.77,-2.30,0.14,-0.45,-2.10,1009.52
5.849,-0.53,0.87,0.45,-2.07,1.77,-2.30,0.22,-0.28,-0.71,1009.52
5.85,-0.22,1.01,-0.16,-2.07,1.77,-2.30,0.22,-0.28,-0.71,1009.52
5.86,-0.29,0.99,-0.07,-2.07,1.77,-2.30,0.22,-0.28,-0.71,1009.52
5.861,-0.29,0.99,-0.07,-5.73,0.33,-0.61,0.22,-0.28,-0.71,1009.52
5.906,-0.29,0.99,-0.07,-5.73,0.33,-0.61,0.22,-0.28,-0.71,1009.45
5.908,-0.25,0.98,0.03,-5.73,0.33,-0.61,0.22,-0.28,-0.71,1009.45
5.908,-0.26,1.00,-0.10,-5.73,0.33,-0.61,0.22,-0.28,-0.71,1009.45
5.919,-0.26,1.00,-0.10,-5.73,0.33,-0.61,0.20,-0.10,-0.32,1009.45
5.932,-0.29,0.97,-0.07,-5.73,0.33,-0.61,0.20,-0.10,-0.32,1009.45
5.933,-0.29,0.97,-0.07,-0.98,0.17,1.02,0.20,-0.10,-0.32,1009.45
5.987,-0.27,0.95,-0.02,-0.98,0.17,1.02,0.20,-0.10,-0.32,1009.45
5.988,-0.25,0.96,-0.04,-0.98,0.17,1.02,0.20,-0.10,-0.32,1009.45
5.989,-0.22,0.95,-0.00,-0.98,0.17,1.02,0.20,-0.10,-0.32,1009.45
5.99,-0.22,0.95,-0.00,-0.98,0.17,1.02,0.20,-0.10,-0.32,1009.28
5.991,-0.22,0.95,-0.00,-0.98,0.17,1.02,0.04,0.02,-0.12,1009.28
5.999,-0.22,0.94,0.05,-0.98,0.17,1.02,0.04,0.02,-0.12,1009.28
5.999,-0.22,0.94,0.05,-0.15,0.44,-0.12,0.04,0.02,-0.12,1009.28
6.032,-0.23,0.94,0.03,-0.15,0.44,-0.12,0.04,0.02,-0.12,1009.28
6.033,-0.23,0.94,0.03,-0.15,0.44,-0.12,0.04,0.02,-0.12,1009.19
6.06,-0.23,0.94,0.03,-0.15,0.44,-0.12,0.12,0.12,-0.11,1009.19
6.063,-0.22,0.96,-0.02,-0.15,0.44,-0.12,0.12,0.12,-0.11,1009.19
6.065,-0.20,0.96,0.02,-0.15,0.44,-0.12,0.12,0.12,-0.11,1009.19
6.069,-0.20,0.96,0.02,0.18,0.17,0.29,0.12,0.12,-0.11,1009.19
6.106,-0.20,0.96,0.02,0.18,0.17,0.29,0.12,0.12,-0.11,1009.22
6.107,-0.23,0.95,-0.03,0.18,0.17,0.29,0.12,0.12,-0.11,1009.22
6.108,-0.19,0.96,-0.03,0.18,0.17,0.29,0.12,0.12,-0.11,1009.22
6.132,-0.21,0.97,0.03,0.18,0.17,0.29,0.12,0.12,-0.11,1009.22
6.134,-0.21,0.97,0.03,0.18,0.17,0.29,0.16,0.19,-0.21,1009.22
6.139,-0.23,0.96,-0.04,0.18,0.17,0.29,0.16,0.19,-0.21,1009.22
6.14,-0.23,0.96,-0.04,0.46,0.18,0.50,0.16,0.19,-0.21,1009.22
6.186,-0.23,0.96,-0.04,0.46,0.18,0.50,0.16,0.19,-0.21,1009.30
6.188,-0.21,0.99,-0.02,0.46,0.18,0.50,0.16,0.19,-0.21,1009.30
6.188,-0.18,1.01,0.01,0.46,0.18,0.50,0.16,0.19,-0.21,1009.30
6.199,-0.18,1.01,0.01,0.46,0.18,0.50,0.19,0.36,-0.39,1009.30
6.211,-0.19,1.04,-0.06,0.46,0.18,0.50,0.19,0.36,-0.39,1009.30
6.214,-0.19,1.04,-0.06,0.64,0.36,0.32,0.19,0.36,-0.39,1009.30
6.228,-0.13,1.11,-0.08,0.64,0.36,0.32,0.19,0.36,-0.39,1009.30
6.229,-0.13,1.11,-0.08,0.64,0.36,0.32,0.19,0.36,-0.39,1009.36
6.267,-0.10,1.16,-0.18,0.64,0.36,0.32,0.19,0.36,-0.39,1009.36
6.269,-0.14,1.18,-0.15,0.64,0.36,0.32,0.19,0.36,-0.39,1009.36
6.269,-0.14,1.18,-0.15,0.64,0.36,0.32,-0.12,0.47,-1.01,1009.36
6.283,-0.14,1.18,-0.15,1.19,1.03,0.46,-0.12,0.47,-1.01,1009.36
6.284,-0.10,1.31,-0.22,1.19,1.03,0.46,-0.12,0.47,-1.01,1009.36
6.306,-0.09,1.44,-0.32,1.19,1.03,0.46,-0.12,0.47,-1.01,1009.36
6.307,-0.09,1.44,-0.32,1.19,1.03,0.46,-0.12,0.47,-1.01,1009.46
6.333,0.03,1.66,-0.31,1.19,1.03,0.46,-0.12,0.47,-1.01,1009.46
6.339,0.03,1.66,-0.31,1.19,1.03,0.46,-1.05,0.50,-2.42,1009.46
6.349,0.03,1.66,-0.31,2.61,3.03,-0.99,-1.05,0.50,-2.42,1009.46
6.35,0.37,1.88,0.09,2.61,3.03,-0.99,-1.05,0.50,-2.42,1009.46
6.387,0.37,1.88,0.09,2.61,3.03,-0.99,-1.05,0.50,-2.42,1009.39
6.388,0.51,1.82,0.02,2.61,3.03,-0.99,-1.05,0.50,-2.42,1009.39
6.388,0.33,1.76,-0.04,2.61,3.03,-0.99,-1.05,0.50,-2.42,1009.39
6.411,0.00,1.57,0.25,2.61,3.03,-0.99,-1.05,0.50,-2.42,1009.39
6.412,0.00,1.57,0.25,2.61,3.03,-0.99,-1.78,1.30,-5.11,1009.39
6.42,0.00,1.57,0.25,6.97,8.72,-1.59,-1.78,1.30,-5.11,1009.39
6.421,-0.68,0.58,0.54,6.97,8.72,-1.59,-1.78,1.30,-5.11,1009.39
6.426,-0.68,0.58,0.54,6.97,8.72,-1.59,-1.78,1.30,-5.11,1008.80
6.465,-0.03,0.65,0.20,6.97,8.72,-1.59,-1.78,1.30,-5.11,1008.80
6.466,0.42,0.71,-0.21,6.97,8.72,-1.59,-1.78,1.30,-5.11,1008.80
6.479,0.42,0.71,-0.21,6.97,8.72,-1.59,-1.53,1.50,-0.86,1008.80
6.489,0.42,0.71,-0.21,7.36,7.49,2.40,-1.53,1.50,-0.86,1008.80
6.49,-0.16,0.38,-0.03,7.36,7.49,2.40,-1.53,1.50,-0.86,1008.80
6.506,0.38,0.45,-0.08,7.36,7.49,2.40,-1.53,1.50,-0.86,1008.80
6.508,0.38,0.45,-0.08,7.36,7.49,2.40,-1.53,1.50,-0.86,1008.99
6.534,0.33,0.48,-0.15,7.36,7.49,2.40,-1.53,1.50,-0.86,1008.99
6.55,0.33,0.48,-0.15,7.36,7.49,2.40,-1.51,0.76,2.54,1008.99
6.551,0.21,0.52,-0.24,7.36,7.49,2.40,-1.51,0.76,2.54,1008.99
6.559,0.05,0.63,-0.52,7.36,7.49,2.40,-1.51,0.76,2.54,1008.99
6.56,0.05,0.63,-0.52,8.35,-0.64,-0.31,-1.51,0.76,2.54,1008.99
6.586,-0.12,0.70,-0.71,8.35,-0.64,-0.31,-1.51,0.76,2.54,1008.99
6.587,-0.12,0.70,-0.71,8.35,-0.64,-0.31,-1.51,0.76,2.54,1009.05
6.62,-0.12,0.70,-0.71,8.35,-0.64,-0.31,-0.95,1.67,3.90,1009.05
6.621,-0.20,0.79,-0.82,8.35,-0.64,-0.31,-0.95,1.67,3.90,1009.05
6.625,-0.21,0.90,-0.84,8.35,-0.64,-0.31,-0.95,1.67,3.90,1009.05
6.626,-0.21,0.90,-0.84,8.35,-0.64,-0.31,-0.95,1.67,3.90,1009.21
6.634,-0.21,0.90,-0.84,7.89,-2.20,-2.84,-0.95,1.67,3.90,1009.21
6.665,-0.14,1.09,-0.82,7.89,-2.20,-2.84,-0.95,1.67,3.90,1009.21
6.667,-0.15,1.30,-0.84,7.89,-2.20,-2.84,-0.95,1.67,3.90,1009.21
6.689,-0.15,1.30,-0.84,7.89,-2.20,-2.84,-0.12,1.45,4.07,1009.21
6.691,-0.24,1.45,-0.75,7.89,-2.20,-2.84,-0.12,1.45,4.07,1009.21
6.7,-0.38,1.64,-0.75,7.89,-2.20,-2.84,-0.12,1.45,4.07,1009.21
6.701,-0.38,1.64,-0.75,1.61,-0.58,-7.69,-0.12,1.45,4.07,1009.21
6.705,-0.38,1.64,-0.75,1.61,-0.58,-7.69,-0.12,1.45,4.07,1009.28
6.734,-0.55,1.74,-0.74,1.61,-0.58,-7.69,-0.12,1.45,4.07,1009.28
6.76,-0.55,1.74,-0.74,1.61,-0.58,-7.69,0.02,1.94,2.53,1009.28
6.761,-0.64,1.68,-0.59,1.61,-0.58,-7.69,0.02,1.94,2.53,1009.28
6.769,-1.00,1.41,-0.36,1.61,-0.58,-7.69,0.02,1.94,2.53,1009.28
6.77,-1.00,1.41,-0.36,-1.39,4.53,-7.24,0.02,1.94,2.53,1009.28
6.786,-1.05,1.15,-0.02,-1.39,4.53,-7.24,0.02,1.94,2.53,1009.28
6.788,-1.05,1.15,-0.02,-1.39,4.53,-7.24,0.02,1.94,2.53,1009.34
6.826,-1.05,1.15,-0.02,-1.39,4.53,-7.24,0.02,1.94,2.53,1009.26
6.827,-1.64,1.00,-0.34,-1.39,4.53,-7.24,0.02,1.94,2.53,1009.26
6.828,-1.70,0.44,0.26,-1.39,4.53,-7.24,0.02,1.94,2.53,1009.26
6.837,-1.70,0.44,0.26,-1.39,4.53,-7.24,-0.50,2.87,1.68,1009.26
6.839,-0.99,0.82,-0.27,-1.39,4.53,-7.24,-0.50,2.87,1.68,1009.26
6.84,-0.99,0.82,-0.27,-7.97,5.65,-4.10,-0.50,2.87,1.68,1009.26
6.865,-1.24,0.70,-0.17,-7.97,5.65,-4.10,-0.50,2.87,1.68,1009.26
6.9,-1.45,0.55,0.14,-7.97,5.65,-4.10,-0.50,2.87,1.68,1009.26
6.901,-1.45,0.55,0.14,-7.97,5.65,-4.10,0.10,1.74,-1.40,1009.26
6.905,1.12,1.74,0.20,-7.97,5.65,-4.10,0.10,1.74,-1.40,1009.26
6.906,1.12,1.74,0.20,-7.97,5.65,-4.10,0.10,1.74,-1.40,1009.37
6.909,1.12,1.74,0.20,-14.47,-1.49,-1.12,0.10,1.74,-1.40,1009.37
6.933,0.34,1.38,-1.21,-14.47,-1.49,-1.12,0.10,1.74,-1.40,1009.37
6.97,0.34,1.38,-1.21,-14.47,-1.49,-1.12,0.11,-0.19,-2.29,1009.37
6.971,-1.16,0.88,0.54,-14.47,-1.49,-1.12,0.11,-0.19,-2.29,1009.37
6.972,-0.90,1.00,0.08,-14.47,-1.49,-1.12,0.11,-0.19,-2.29,1009.37
6.983,-0.53,0.99,-0.11,-14.47,-1.49,-1.12,0.11,-0.19,-2.29,1009.37
6.984,-0.53,0.99,-0.11,-2.99,1.19,-1.94,0.11,-0.19,-2.29,1009.37
6.985,-0.53,0.99,-0.11,-2.99,1.19,-1.94,0.11,-0.19,-2.29,1009.63
7.026,-0.53,0.99,-0.11,-2.99,1.19,-1.94,0.11,-0.19,-2.29,1009.50
7.027,-0.22,0.96,-0.28,-2.99,1.19,-1.94,0.11,-0.19,-2.29,1009.50
7.027,-0.28,0.91,0.25,-2.99,1.19,-1.94,0.11,-0.19,-2.29,1009.50
7.039,-0.28,0.91,0.25,-2.99,1.19,-1.94,0.20,-0.28,-0.59,1009.50
7.051,-0.31,0.98,0.11,-2.99,1.19,-1.94,0.20,-0.28,-0.59,1009.50
7.052,-0.31,0.98,0.11,-5.37,0.32,0.75,0.20,-0.28,-0.59,1009.50
7.066,-0.32,1.00,-0.27,-5.37,0.32,0.75,0.20,-0.28,-0.59,1009.50
7.107,-0.21,1.01,-0.00,-5.37,0.32,0.75,0.20,-0.28,-0.59,1009.50
7.108,-0.20,1.00,0.05,-5.37,0.32,0.75,0.20,-0.28,-0.59,1009.50
7.108,-0.20,1.00,0.05,-5.37,0.32,0.75,0.20,-0.28,-0.59,1009.48
7.109,-0.20,1.00,0.05,-5.37,0.32,0.75,0.01,-0.07,-0.20,1009.48
7.12,-0.20,1.00,0.05,-0.69,0.12,0.09,0.01,-0.07,-0.20,1009.48
7.121,-0.22,1.00,-0.08,-0.69,0.12,0.09,0.01,-0.07,-0.20,1009.48
7.18,-0.22,1.00,-0.08,-0.69,0.12,0.09,-0.06,0.03,-0.14,1009.48
7.182,-0.19,0.98,0.05,-0.69,0.12,0.09,-0.06,0.03,-0.14,1009.48
7.182,-0.22,0.95,0.08,-0.69,0.12,0.09,-0.06,0.03,-0.14,1009.48
7.185,-0.20,0.95,0.07,-0.69,0.12,0.09,-0.06,0.03,-0.14,1009.48
7.186,-0.20,0.95,0.07,-0.69,0.12,0.09,-0.06,0.03,-0.14,1009.31
7.189,-0.20,0.95,0.07,-0.07,0.57,-0.26,-0.06,0.03,-0.14,1009.31
7.226,-0.20,0.95,0.07,-0.07,0.57,-0.26,-0.06,0.03,-0.14,1009.25
7.227,-0.18,0.96,0.12,-0.07,0.57,-0.26,-0.06,0.03,-0.14,1009.25
7.228,-0.22,0.96,0.01,-0.07,0.57,-0.26,-0.06,0.03,-0.14,1009.25
7.25,-0.21,0.96,-0.00,-0.07,0.57,-0.26,-0.06,0.03,-0.14,1009.25
7.251,-0.21,0.96,-0.00,-0.07,0.57,-0.26,0.12,0.15,-0.14,1009.25
7.259,-0.20,0.96,-0.01,-0.07,0.57,-0.26,0.12,0.15,-0.14,1009.25
7.26,-0.20,0.96,-0.01,0.30,0.18,0.93,0.12,0.15,-0.14,1009.25
7.306,-0.20,0.96,-0.01,0.30,0.18,0.93,0.12,0.15,-0.14,1009.31
7.308,-0.16,0.96,0.07,0.30,0.18,0.93,0.12,0.15,-0.14,1009.31
7.309,-0.17,0.96,0.09,0.30,0.18,0.93,0.12,0.15,-0.14,1009.31
7.32,-0.17,0.96,0.09,0.30,0.18,0.93,0.17,0.24,-0.24,1009.31
7.331,-0.16,0.97,0.07,0.30,0.18,0.93,0.17,0.24,-0.24,1009.31
7.333,-0.16,0.97,0.07,0.30,0.20,0.49,0.17,0.24,-0.24,1009.31
7.386,-0.16,0.97,0.07,0.30,0.20,0.49,0.17,0.24,-0.24,1009.35
7.387,-0.18,0.98,0.02,0.30,0.20,0.49,0.17,0.24,-0.24,1009.35
7.387,-0.20,1.00,-0.04,0.30,0.20,0.49,0.17,0.24,-0.24,1009.35
7.388,-0.21,1.01,-0.07,0.30,0.20,0.49,0.17,0.24,-0.24,1009.35
7.389,-0.21,1.01,-0.07,0.30,0.20,0.49,0.26,0.35,-0.47,1009.35
7.4,-0.21,1.01,-0.07,0.87,0.31,1.22,0.26,0.35,-0.47,1009.35
7.401,-0.20,1.06,-0.07,0.87,0.31,1.22,0.26,0.35,-0.47,1009.35
7.426,-0.07,1.16,-0.12,0.87,0.31,1.22,0.26,0.35,-0.47,1009.35
7.427,-0.07,1.16,-0.12,0.87,0.31,1.22,0.26,0.35,-0.47,1009.36
7.46,-0.10,1.19,-0.15,0.87,0.31,1.22,0.26,0.35,-0.47,1009.36
7.461,-0.10,1.19,-0.15,0.87,0.31,1.22,-0.15,0.34,-1.05,1009.36
7.465,-0.13,1.21,-0.13,0.87,0.31,1.22,-0.15,0.34,-1.05,1009.36
7.469,-0.13,1.21,-0.13,0.86,0.90,0.12,-0.15,0.34,-1.05,1009.36
7.506,-0.13,1.21,-0.13,0.86,0.90,0.12,-0.15,0.34,-1.05,1009.48
7.507,-0.16,1.21,-0.17,0.86,0.90,0.12,-0.15,0.34,-1.05,1009.48
7.507,-0.19,1.23,-0.21,0.86,0.90,0.12,-0.15,0.34,-1.05,1009.48
7.535,-0.19,1.23,-0.21,0.86,0.90,0.12,-0.61,0.05,-2.12,1009.48
7.536,-0.12,1.31,-0.15,0.86,0.90,0.12,-0.61,0.05,-2.12,1009.48
7.54,-0.12,1.31,-0.15,2.58,2.83,-0.77,-0.61,0.05,-2.12,1009.48
7.541,-0.02,1.41,-0.14,2.58,2.83,-0.77,-0.61,0.05,-2.12,1009.48
7.586,-0.02,1.41,-0.14,2.58,2.83,-0.77,-0.61,0.05,-2.12,1009.58
7.588,0.17,1.58,-0.14,2.58,2.83,-0.77,-0.61,0.05,-2.12,1009.58
7.588,0.40,1.76,-0.20,2.58,2.83,-0.77,-0.61,0.05,-2.12,1009.58
7.6,0.40,1.76,-0.20,2.58,2.83,-0.77,-1.43,0.25,-4.23,1009.58
7.61,0.56,1.79,-0.06,2.58,2.83,-0.77,-1.43,0.25,-4.23,1009.58
7.611,0.56,1.79,-0.06,3.84,4.61,-1.48,-1.43,0.25,-4.23,1009.58
7.626,0.19,1.62,0.26,3.84,4.61,-1.48,-1.43,0.25,-4.23,1009.58
7.627,0.19,1.62,0.26,3.84,4.61,-1.48,-1.43,0.25,-4.23,1009.14
7.665,-0.40,1.40,0.61,3.84,4.61,-1.48,-1.43,0.25,-4.23,1009.14
7.667,-0.21,1.30,0.90,3.84,4.61,-1.48,-1.43,0.25,-4.23,1009.14
7.669,-0.21,1.30,0.90,3.84,4.61,-1.48,-1.27,1.28,-6.55,1009.14
7.681,-1.24,-0.16,-0.19,3.84,4.61,-1.48,-1.27,1.28,-6.55,1009.14
7.682,-1.24,-0.16,-0.19,11.22,10.77,-1.51,-1.27,1.28,-6.55,1009.14
7.706,-1.73,0.79,0.08,11.22,10.77,-1.51,-1.27,1.28,-6.55,1009.14
7.708,-1.73,0.79,0.08,11.22,10.77,-1.51,-1.27,1.28,-6.55,1008.81
7.737,0.79,0.79,-0.06,11.22,10.77,-1.51,-1.27,1.28,-6.55,1008.81
7.74,0.79,0.79,-0.06,11.22,10.77,-1.51,-0.71,0.57,0.81,1008.81
7.751,0.79,0.79,-0.06,3.76,6.23,4.25,-0.71,0.57,0.81,1008.81
7.752,0.43,0.58,-0.26,3.76,6.23,4.25,-0.71,0.57,0.81,1008.81
7.786,0.43,0.58,-0.26,3.76,6.23,4.25,-0.71,0.57,0.81,1008.96
7.788,0.10,0.29,0.08,3.76,6.23,4.25,-0.71,0.57,0.81,1008.96
7.789,0.05,0.20,0.14,3.76,6.23,4.25,-0.71,0.57,0.81,1008.96
7.81,-0.03,0.32,-0.19,3.76,6.23,4.25,-0.71,0.57,0.81,1008.96
7.811,-0.03,0.32,-0.19,3.76,6.23,4.25,-0.39,0.09,3.61,1008.96
7.82,-0.03,0.32,-0.19,7.14,2.26,-0.82,-0.39,0.09,3.61,1008.96
7.821,0.11,0.42,-0.18,7.14,2.26,-0.82,-0.39,0.09,3.61,1008.96
7.825,0.11,0.42,-0.18,7.14,2.26,-0.82,-0.39,0.09,3.61,1009.13
7.865,0.06,0.59,-0.30,7.14,2.26,-0.82,-0.39,0.09,3.61,1009.13
7.867,-0.13,0.77,-0.42,7.14,2.26,-0.82,-0.39,0.09,3.61,1009.13
7.882,-0.13,0.77,-0.42,7.14,2.26,-0.82,0.31,0.57,5.45,1009.13
7.89,-0.13,0.77,-0.42,7.03,-3.63,-0.35,0.31,0.57,5.45,1009.13
7.891,-0.15,0.92,-0.38,7.03,-3.63,-0.35,0.31,0.57,5.45,1009.13
7.906,-0.05,1.22,-0.37,7.03,-3.63,-0.35,0.31,0.57,5.45,1009.13
7.908,-0.05,1.22,-0.37,7.03,-3.63,-0.35,0.31,0.57,5.45,1009.30
7.938,-0.05,1.59,-0.35,7.03,-3.63,-0.35,0.31,0.57,5.45,1009.30
7.952,-0.05,1.59,-0.35,7.03,-3.63,-0.35,0.16,0.87,5.06,1009.30
7.953,-0.61,1.71,-0.22,7.03,-3.63,-0.35,0.16,0.87,5.06,1009.30
7.96,-0.88,1.78,-0.24,7.03,-3.63,-0.35,0.16,0.87,5.06,1009.30
7.96,-0.88,1.78,-0.24,2.84,-0.62,-3.08,0.16,0.87,5.06,1009.30
7.986,-0.93,1.96,-0.45,2.84,-0.62,-3.08,0.16,0.87,5.06,1009.30
7.987,-0.93,1.96,-0.45,2.84,-0.62,-3.08,0.16,0.87,5.06,1009.35
8.02,-0.93,1.96,-0.45,2.84,-0.62,-3.08,-0.53,2.52,4.17,1009.35
8.022,-1.19,1.52,-0.14,2.84,-0.62,-3.08,-0.53,2.52,4.17,1009.35
8.025,-1.96,1.57,-0.45,2.84,-0.62,-3.08,-0.53,2.52,4.17,1009.35
8.026,-1.96,1.57,-0.45,2.84,-0.62,-3.08,-0.53,2.52,4.17,1009.20
8.03,-1.96,1.57,-0.45,-3.92,6.76,-2.11,-0.53,2.52,4.17,1009.20
8.066,-2.37,0.84,-0.25,-3.92,6.76,-2.11,-0.53,2.52,4.17,1009.20
8.067,-3.06,0.30,-0.17,-3.92,6.76,-2.11,-0.53,2.52,4.17,1009.20
8.091,-3.06,0.30,-0.17,-3.92,6.76,-2.11,-0.09,0.17,-0.94,1009.20
8.092,-1.08,0.79,0.41,-3.92,6.76,-2.11,-0.09,0.17,-0.94,1009.20
8.101,-1.17,1.62,-1.48,-3.92,6.76,-2.11,-0.09,0.17,-0.94,1009.20
8.101,-1.17,1.62,-1.48,-15.56,6.49,-3.31,-0.09,0.17,-0.94,1009.20
8.106,-1.17,1.62,-1.48,-15.56,6.49,-3.31,-0.09,0.17,-0.94,1009.43
8.134,0.54,1.21,-0.56,-15.56,6.49,-3.31,-0.09,0.17,-0.94,1009.43
8.161,0.54,1.21,-0.56,-15.56,6.49,-3.31,-0.05,-0.92,-2.73,1009.43
8.161,-1.59,0.98,-0.59,-15.56,6.49,-3.31,-0.05,-0.92,-2.73,1009.43
8.171,-1.59,0.98,-0.59,-18.34,-1.14,-3.18,-0.05,-0.92,-2.73,1009.43
8.177,-1.17,0.92,1.01,-18.34,-1.14,-3.18,-0.05,-0.92,-2.73,1009.43
8.186,-0.10,0.99,-0.72,-18.34,-1.14,-3.18,-0.05,-0.92,-2.73,1009.43
8.187,-0.10,0.99,-0.72,-18.34,-1.14,-3.18,-0.05,-0.92,-2.73,1009.63
8.226,-0.10,0.99,-0.72,-18.34,-1.14,-3.18,-0.05,-0.92,-2.73,1009.62
8.228,-0.54,0.86,0.59,-18.34,-1.14,-3.18,-0.05,-0.92,-2.73,1009.62
8.228,-0.21,0.98,0.02,-18.34,-1.14,-3.18,-0.05,-0.92,-2.73,1009.62
8.23,-0.21,0.98,0.02,-18.34,-1.14,-3.18,0.20,-0.30,-0.72,1009.62
8.24,-0.36,1.01,-0.20,-18.34,-1.14,-3.18,0.20,-0.30,-0.72,1009.62
8.241,-0.36,1.01,-0.20,-4.45,0.91,-0.64,0.20,-0.30,-0.72,1009.62
8.277,-0.26,1.00,0.01,-4.45,0.91,-0.64,0.20,-0.30,-0.72,1009.62
8.3,-0.26,1.00,0.01,-4.45,0.91,-0.64,0.08,-0.07,-0.30,1009.62
8.302,-0.27,1.00,-0.05,-4.45,0.91,-0.64,0.08,-0.07,-0.30,1009.62
8.305,-0.28,0.99,-0.06,-4.45,0.91,-0.64,0.08,-0.07,-0.30,1009.62
8.306,-0.28,0.99,-0.06,-4.45,0.91,-0.64,0.08,-0.07,-0.30,1009.42
8.31,-0.28,0.99,-0.06,-1.03,0.08,0.10,0.08,-0.07,-0.30,1009.42
8.338,-0.29,0.95,-0.03,-1.03,0.08,0.10,0.08,-0.07,-0.30,1009.42
8.371,-0.29,0.95,-0.03,-1.03,0.08,0.10,0.03,0.05,-0.12,1009.42
8.372,-0.23,0.95,0.06,-1.03,0.08,0.10,0.03,0.05,-0.12,1009.42
8.373,-0.20,0.95,0.08,-1.03,0.08,0.10,0.03,0.05,-0.12,1009.42
8.38,-0.20,0.95,0.06,-1.03,0.08,0.10,0.03,0.05,-0.12,1009.42
8.381,-0.20,0.95,0.06,-0.28,0.57,0.08,0.03,0.05,-0.12,1009.42
8.385,-0.20,0.95,0.06,-0.28,0.57,0.08,0.03,0.05,-0.12,1009.15
8.426,-0.20,0.95,0.06,-0.28,0.57,0.08,0.03,0.05,-0.12,1009.19
8.427,-0.22,0.93,0.08,-0.28,0.57,0.08,0.03,0.05,-0.12,1009.19
8.428,-0.24,0.94,0.00,-0.28,0.57,0.08,0.03,0.05,-0.12,1009.19
8.44,-0.24,0.94,0.00,-0.28,0.57,0.08,0.22,0.14,-0.17,1009.19
8.458,-0.23,0.94,-0.01,-0.28,0.57,0.08,0.22,0.14,-0.17,1009.19
8.459,-0.23,0.94,-0.01,0.32,0.16,0.99,0.22,0.14,-0.17,1009.19
8.473,-0.20,0.96,0.01,0.32,0.16,0.99,0.22,0.14,-0.17,1009.19
8.506,-0.20,0.96,0.01,0.32,0.16,0.99,0.22,0.14,-0.17,1009.22
8.508,-0.22,0.96,-0.02,0.32,0.16,0.99,0.22,0.14,-0.17,1009.22
8.509,-0.22,0.97,0.00,0.32,0.16,0.99,0.22,0.14,-0.17,1009.22
8.51,-0.22,0.97,0.00,0.32,0.16,0.99,0.22,0.26,-0.27,1009.22
8.52,-0.22,0.97,0.00,0.39,0.10,0.82,0.22,0.26,-0.27,1009.22
8.522,-0.20,0.98,-0.01,0.39,0.10,0.82,0.22,0.26,-0.27,1009.22
8.58,-0.20,0.98,-0.01,0.39,0.10,0.82,0.20,0.38,-0.50,1009.22
8.582,-0.22,1.00,-0.05,0.39,0.10,0.82,0.20,0.38,-0.50,1009.22
8.583,-0.22,1.01,-0.06,0.39,0.10,0.82,0.20,0.38,-0.50,1009.22
8.587,-0.18,1.08,-0.09,0.39,0.10,0.82,0.20,0.38,-0.50,1009.22
8.587,-0.18,1.08,-0.09,0.39,0.10,0.82,0.20,0.38,-0.50,1009.32
8.59,-0.18,1.08,-0.09,0.69,0.44,0.78,0.20,0.38,-0.50,1009.32
8.626,-0.18,1.08,-0.09,0.69,0.44,0.78,0.20,0.38,-0.50,1009.38
8.627,-0.09,1.18,-0.20,0.69,0.44,0.78,0.20,0.38,-0.50,1009.38
8.628,-0.24,1.12,-0.19,0.69,0.44,0.78,0.20,0.38,-0.50,1009.38
8.656,-0.24,1.12,-0.19,0.69,0.44,0.78,-0.19,0.20,-1.18,1009.38
8.657,-0.23,1.15,-0.22,0.69,0.44,0.78,-0.19,0.20,-1.18,1009.38
8.66,-0.23,1.15,-0.22,1.25,1.38,0.17,-0.19,0.20,-1.18,1009.38
8.661,-0.15,1.26,-0.16,1.25,1.38,0.17,-0.19,0.20,-1.18,1009.38
8.707,-0.15,1.26,-0.16,1.25,1.38,0.17,-0.19,0.20,-1.18,1009.49
8.709,-0.07,1.40,-0.01,1.25,1.38,0.17,-0.19,0.20,-1.18,1009.49
8.709,0.07,1.61,0.07,1.25,1.38,0.17,-0.19,0.20,-1.18,1009.49
8.72,0.07,1.61,0.07,1.25,1.38,0.17,-0.45,0.18,-2.50,1009.49
8.73,0.33,1.72,0.14,1.25,1.38,0.17,-0.45,0.18,-2.50,1009.49
8.731,0.33,1.72,0.14,2.09,2.86,-1.11,-0.45,0.18,-2.50,1009.49
8.786,0.33,1.72,0.14,2.09,2.86,-1.11,-0.45,0.18,-2.50,1009.26
8.788,0.44,1.74,0.03,2.09,2.86,-1.11,-0.45,0.18,-2.50,1009.26
8.788,0.33,1.79,-0.12,2.09,2.86,-1.11,-0.45,0.18,-2.50,1009.26
8.789,0.07,1.50,0.11,2.09,2.86,-1.11,-0.45,0.18,-2.50,1009.26
8.79,0.07,1.50,0.11,2.09,2.86,-1.11,-0.90,1.01,-5.37,1009.26
8.8,-0.58,0.98,0.43,2.09,2.86,-1.11,-0.90,1.01,-5.37,1009.26
8.801,-0.58,0.98,0.43,7.08,8.00,1.31,-0.90,1.01,-5.37,1009.26
8.826,-1.11,0.37,-0.33,7.08,8.00,1.31,-0.90,1.01,-5.37,1009.26
8.827,-1.11,0.37,-0.33,7.08,8.00,1.31,-0.90,1.01,-5.37,1008.91
8.861,0.68,0.72,-0.03,7.08,8.00,1.31,-0.90,1.01,-5.37,1008.91
8.862,0.68,0.72,-0.03,7.08,8.00,1.31,-1.02,0.40,-1.35,1008.91
8.865,-0.10,0.42,-0.16,7.08,8.00,1.31,-1.02,0.40,-1.35,1008.91
8.874,-0.10,0.42,-0.16,8.10,9.11,1.96,-1.02,0.40,-1.35,1008.91
8.906,-0.10,0.42,-0.16,8.10,9.11,1.96,-1.02,0.40,-1.35,1009.02
8.907,0.32,0.41,-0.08,8.10,9.11,1.96,-1.02,0.40,-1.35,1009.02
8.908,0.27,0.42,-0.10,8.10,9.11,1.96,-1.02,0.40,-1.35,1009.02
8.93,0.27,0.42,-0.10,8.10,9.11,1.96,-0.92,-0.18,2.94,1009.02
8.932,0.04,0.45,-0.10,8.10,9.11,1.96,-0.92,-0.18,2.94,1009.02
8.94,0.04,0.45,-0.10,6.42,-0.81,-1.25,-0.92,-0.18,2.94,1009.02
8.941,0.07,0.67,-0.30,6.42,-0.81,-1.25,-0.92,-0.18,2.94,1009.02
8.986,0.07,0.67,-0.30,6.42,-0.81,-1.25,-0.92,-0.18,2.94,1009.08
8.987,0.00,0.86,-0.45,6.42,-0.81,-1.25,-0.92,-0.18,2.94,1009.08
8.987,-0.20,0.96,-0.52,6.42,-0.81,-1.25,-0.92,-0.18,2.94,1009.08
9.001,-0.20,0.96,-0.52,6.42,-0.81,-1.25,-0.41,1.01,4.28,1009.08
9.01,-0.20,0.96,-0.52,7.55,-2.40,-1.42,-0.41,1.01,4.28,1009.08
9.011,-0.25,1.06,-0.54,7.55,-2.40,-1.42,-0.41,1.01,4.28,1009.08
9.026,-0.25,1.06,-0.54,7.55,-2.40,-1.42,-0.41,1.01,4.28,1009.17
9.028,-0.18,1.12,-0.51,7.55,-2.40,-1.42,-0.41,1.01,4.28,1009.17
9.065,-0.20,1.23,-0.57,7.55,-2.40,-1.42,-0.41,1.01,4.28,1009.17
9.067,-0.22,1.30,-0.55,7.55,-2.40,-1.42,-0.41,1.01,4.28,1009.17
9.075,-0.22,1.30,-0.55,7.55,-2.40,-1.42,0.20,1.13,3.94,1009.17
9.081,-0.19,1.42,-0.60,7.55,-2.40,-1.42,0.20,1.13,3.94,1009.17
9.081,-0.19,1.42,-0.60,1.89,0.91,-4.51,0.20,1.13,3.94,1009.17
9.106,-0.36,1.46,-0.51,1.89,0.91,-4.51,0.20,1.13,3.94,1009.17
9.107,-0.36,1.46,-0.51,1.89,0.91,-4.51,0.20,1.13,3.94,1009.26
9.132,-0.33,2.42,-0.76,1.89,0.91,-4.51,0.20,1.13,3.94,1009.26
9.142,-0.33,2.42,-0.76,1.89,0.91,-4.51,0.23,0.36,2.43,1009.26
9.151,-1.11,0.75,-0.32,1.89,0.91,-4.51,0.23,0.36,2.43,1009.26
9.151,-1.11,0.75,-0.32,-0.86,3.37,-4.76,0.23,0.36,2.43,1009.26
9.187,-1.11,0.75,-0.32,-0.86,3.37,-4.76,0.23,0.36,2.43,1009.30
9.188,-0.78,1.12,-0.17,-0.86,3.37,-4.76,0.23,0.36,2.43,1009.30
9.189,-1.05,1.22,-0.37,-0.86,3.37,-4.76,0.23,0.36,2.43,1009.30
9.211,-1.29,0.88,0.07,-0.86,3.37,-4.76,0.23,0.36,2.43,1009.30
9.213,-1.29,0.88,0.07,-0.86,3.37,-4.76,0.45,0.49,1.64,1009.30
9.221,-1.60,0.82,-0.12,-0.86,3.37,-4.76,0.45,0.49,1.64,1009.30
9.222,-1.60,0.82,-0.12,-6.27,4.75,-3.44,0.45,0.49,1.64,1009.30
9.225,-1.60,0.82,-0.12,-6.27,4.75,-3.44,0.45,0.49,1.64,1009.35
9.265,-1.68,0.64,0.10,-6.27,4.75,-3.44,0.45,0.49,1.64,1009.35
9.266,-1.70,0.60,0.24,-6.27,4.75,-3.44,0.45,0.49,1.64,1009.35
9.281,-1.70,0.60,0.24,-6.27,4.75,-3.44,0.11,0.81,-0.23,1009.35
9.291,-1.70,0.60,0.24,-13.02,0.73,-0.32,0.11,0.81,-0.23,1009.35
9.292,-1.40,0.98,0.21,-13.02,0.73,-0.32,0.11,0.81,-0.23,1009.35
9.31,-0.81,1.20,-0.08,-13.02,0.73,-0.32,0.11,0.81,-0.23,1009.35
9.317,-0.81,1.20,-0.08,-13.02,0.73,-0.32,0.11,0.81,-0.23,1009.35
9.332,1.01,1.25,-0.01,-13.02,0.73,-0.32,0.11,0.81,-0.23,1009.35
9.356,1.01,1.25,-0.01,-13.02,0.73,-0.32,-0.98,-0.09,-2.45,1009.35
9.363,-0.65,0.89,0.20,-13.02,0.73,-0.32,-0.98,-0.09,-2.45,1009.35
9.363,-0.65,0.89,0.20,-14.55,-1.42,1.03,-0.98,-0.09,-2.45,1009.35
9.364,-0.86,0.87,0.50,-14.55,-1.42,1.03,-0.98,-0.09,-2.45,1009.35
9.387,-0.38,0.90,0.17,-14.55,-1.42,1.03,-0.98,-0.09,-2.45,1009.35
9.388,-0.38,0.90,0.17,-14.55,-1.42,1.03,-0.98,-0.09,-2.45,1009.55
9.421,-0.38,0.90,0.17,-14.55,-1.42,1.03,0.03,-0.27,-0.97,1009.55
9.423,-0.53,0.95,-0.14,-14.55,-1.42,1.03,0.03,-0.27,-0.97,1009.55
9.425,-0.58,1.02,-0.16,-14.55,-1.42,1.03,0.03,-0.27,-0.97,1009.55
9.426,-0.58,1.02,-0.16,-14.55,-1.42,1.03,0.03,-0.27,-0.97,1009.79
9.43,-0.58,1.02,-0.16,-0.89,0.75,3.86,0.03,-0.27,-0.97,1009.79
9.465,-0.22,1.09,-0.25,-0.89,0.75,3.86,0.03,-0.27,-0.97,1009.79
9.466,-0.26,1.03,-0.10,-0.89,0.75,3.86,0.03,-0.27,-0.97,1009.79
9.491,-0.26,1.03,-0.10,-0.89,0.75,3.86,-0.33,-0.03,-0.21,1009.79
9.492,-0.29,0.99,-0.05,-0.89,0.75,3.86,-0.33,-0.03,-0.21,1009.79
9.501,-0.16,0.99,0.06,-0.89,0.75,3.86,-0.33,-0.03,-0.21,1009.79
9.501,-0.16,0.99,0.06,-2.52,0.36,-0.21,-0.33,-0.03,-0.21,1009.79
9.505,-0.16,0.99,0.06,-2.52,0.36,-0.21,-0.33,-0.03,-0.21,1009.56
9.532,-0.16,0.98,0.15,-2.52,0.36,-0.21,-0.33,-0.03,-0.21,1009.56
9.561,-0.16,0.98,0.15,-2.52,0.36,-0.21,-0.17,0.11,-0.21,1009.56
9.562,-0.19,0.95,0.15,-2.52,0.36,-0.21,-0.17,0.11,-0.21,1009.56
9.576,-0.21,0.95,0.07,-2.52,0.36,-0.21,-0.17,0.11,-0.21,1009.56
9.577,-0.21,0.95,0.07,-0.13,0.72,-0.26,-0.17,0.11,-0.21,1009.56
9.586,-0.22,0.96,0.02,-0.13,0.72,-0.26,-0.17,0.11,-0.21,1009.56
9.587,-0.22,0.96,0.02,-0.13,0.72,-0.26,-0.17,0.11,-0.21,1009.25
9.626,-0.22,0.96,0.02,-0.13,0.72,-0.26,-0.17,0.11,-0.21,1009.18
9.628,-0.20,0.96,0.04,-0.13,0.72,-0.26,-0.17,0.11,-0.21,1009.18
9.629,-0.19,0.96,0.05,-0.13,0.72,-0.26,-0.17,0.11,-0.21,1009.18
9.631,-0.19,0.96,0.05,-0.13,0.72,-0.26,-0.01,0.30,-0.21,1009.18
9.641,-0.19,0.96,0.05,0.36,0.18,1.28,-0.01,0.30,-0.21,1009.18
9.642,-0.20,0.94,0.08,0.36,0.18,1.28,-0.01,0.30,-0.21,1009.18
9.665,-0.21,0.94,0.08,0.36,0.18,1.28,-0.01,0.30,-0.21,1009.18
9.701,-0.21,0.94,0.08,0.36,0.18,1.28,0.08,0.49,-0.30,1009.18
9.702,-0.18,0.96,0.07,0.36,0.18,1.28,0.08,0.49,-0.30,1009.18
9.705,-0.18,0.96,0.06,0.36,0.18,1.28,0.08,0.49,-0.30,1009.18
9.706,-0.18,0.96,0.06,0.36,0.18,1.28,0.08,0.49,-0.30,1009.23
9.711,-0.18,0.96,0.06,0.40,0.18,0.76,0.08,0.49,-0.30,1009.23
9.732,-0.19,0.96,0.05,0.40,0.18,0.76,0.08,0.49,-0.30,1009.23
9.772,-0.19,0.96,0.05,0.40,0.18,0.76,0.23,0.34,-0.55,1009.23
9.772,-0.23,0.97,0.00,0.40,0.18,0.76,0.23,0.34,-0.55,1009.23
9.773,-0.18,1.02,-0.08,0.40,0.18,0.76,0.23,0.34,-0.55,1009.23
9.782,-0.18,1.06,-0.03,0.40,0.18,0.76,0.23,0.34,-0.55,1009.23
9.782,-0.18,1.06,-0.03,0.71,0.24,1.10,0.23,0.34,-0.55,1009.23
9.786,-0.18,1.06,-0.03,0.71,0.24,1.10,0.23,0.34,-0.55,1009.24
9.827,-0.18,1.06,-0.03,0.71,0.24,1.10,0.23,0.34,-0.55,1009.38
9.829,-0.13,1.13,-0.06,0.71,0.24,1.10,0.23,0.34,-0.55,1009.38
9.83,-0.13,1.18,-0.12,0.71,0.24,1.10,0.23,0.34,-0.55,1009.38
9.841,-0.13,1.18,-0.12,0.71,0.24,1.10,0.08,0.15,-1.23,1009.38
9.852,-0.13,1.18,-0.12,1.07,0.89,0.41,0.08,0.15,-1.23,1009.38
9.853,-0.14,1.23,-0.18,1.07,0.89,0.41,0.08,0.15,-1.23,1009.38
9.867,-0.20,1.24,-0.26,1.07,0.89,0.41,0.08,0.15,-1.23,1009.38
9.881,-0.22,1.28,-0.30,1.07,0.89,0.41,0.08,0.15,-1.23,1009.38
9.906,-0.10,1.39,-0.21,1.07,0.89,0.41,0.08,0.15,-1.23,1009.38
9.907,-0.10,1.39,-0.21,1.07,0.89,0.41,0.08,0.15,-1.23,1009.46
9.911,-0.10,1.39,-0.21,1.07,0.89,0.41,-0.43,-0.24,-2.37,1009.46
9.922,0.09,1.57,-0.10,1.07,0.89,0.41,-0.43,-0.24,-2.37,1009.46
9.923,0.09,1.57,-0.10,2.48,2.95,-0.66,-0.43,-0.24,-2.37,1009.46
9.982,0.09,1.57,-0.10,2.48,2.95,-0.66,-0.84,0.23,-4.95,1009.46
9.983,0.36,1.76,0.08,2.48,2.95,-0.66,-0.84,0.23,-4.95,1009.46
9.984,0.55,1.83,0.18,2.48,2.95,-0.66,-0.84,0.23,-4.95,1009.46
9.985,0.44,1.80,0.13,2.48,2.95,-0.66,-0.84,0.23,-4.95,1009.46
9.986,0.44,1.80,0.13,2.48,2.95,-0.66,-0.84,0.23,-4.95,1009.31
9.991,0.44,1.80,0.13,4.52,5.75,-1.88,-0.84,0.23,-4.95,1009.31
10.027,0.44,1.80,0.13,4.52,5.75,-1.88,-0.84,0.23,-4.95,1008.75
10.028,-0.17,1.55,0.15,4.52,5.75,-1.88,-0.84,0.23,-4.95,1008.75
10.029,-0.33,1.44,0.93,4.52,5.75,-1.88,-0.84,0.23,-4.95,1008.75
10.051,-0.33,1.44,0.93,4.52,5.75,-1.88,0.03,0.57,-6.19,1008.75
10.052,-0.83,0.17,0.35,4.52,5.75,-1.88,0.03,0.57,-6.19,1008.75
10.061,-2.52,0.69,-0.11,4.52,5.75,-1.88,0.03,0.57,-6.19,1008.75
10.062,-2.52,0.69,-0.11,11.75,12.16,1.34,0.03,0.57,-6.19,1008.75
10.106,-2.52,0.69,-0.11,11.75,12.16,1.34,0.03,0.57,-6.19,1009.02
10.108,0.74,0.76,-0.07,11.75,12.16,1.34,0.03,0.57,-6.19,1009.02
10.109,0.61,0.77,-0.05,11.75,12.16,1.34,0.03,0.57,-6.19,1009.02
10.121,0.61,0.77,-0.05,11.75,12.16,1.34,0.49,-0.38,1.71,1009.02
10.132,0.61,0.77,-0.05,-1.74,5.48,3.83,0.49,-0.38,1.71,1009.02
10.132,0.27,0.40,0.13,-1.74,5.48,3.83,0.49,-0.38,1.71,1009.02
10.187,0.27,0.40,0.13,-1.74,5.48,3.83,0.49,-0.38,1.71,1009.14
10.188,-0.04,0.19,0.28,-1.74,5.48,3.83,0.49,-0.38,1.71,1009.14
10.189,0.15,0.38,0.10,-1.74,5.48,3.83,0.49,-0.38,1.71,1009.14
10.189,0.20,0.51,0.09,-1.74,5.48,3.83,0.49,-0.38,1.71,1009.14
10.191,0.20,0.51,0.09,-1.74,5.48,3.83,1.01,0.39,4.53,1009.14
10.202,0.07,0.64,0.07,-1.74,5.48,3.83,1.01,0.39,4.53,1009.14
10.203,0.07,0.64,0.07,12.72,1.21,0.65,1.01,0.39,4.53,1009.14
10.226,-0.06,0.82,-0.00,12.72,1.21,0.65,1.01,0.39,4.53,1009.14
10.228,-0.06,0.82,-0.00,12.72,1.21,0.65,1.01,0.39,4.53,1009.31
10.261,-0.17,1.01,-0.09,12.72,1.21,0.65,1.01,0.39,4.53,1009.31
10.262,-0.17,1.01,-0.09,12.72,1.21,0.65,0.94,0.22,5.72,1009.31
10.265,-0.25,1.17,-0.04,12.72,1.21,0.65,0.94,0.22,5.72,1009.31
10.279,-0.25,1.17,-0.04,7.13,-2.43,1.96,0.94,0.22,5.72,1009.31
10.307,-0.25,1.17,-0.04,7.13,-2.43,1.96,0.94,0.22,5.72,1009.30
10.307,-0.23,1.46,-0.12,7.13,-2.43,1.96,0.94,0.22,5.72,1009.30
10.308,-0.37,1.71,-0.09,7.13,-2.43,1.96,0.94,0.22,5.72,1009.30
10.332,-0.37,1.71,-0.09,7.13,-2.43,1.96,0.33,-0.93,5.41,1009.30
10.333,-0.44,1.99,-0.18,7.13,-2.43,1.96,0.33,-0.93,5.41,1009.30
10.341,-0.44,1.99,-0.18,1.14,1.55,0.77,0.33,-0.93,5.41,1009.30
10.342,-0.63,2.18,-0.23,1.14,1.55,0.77,0.33,-0.93,5.41,1009.30
10.387,-0.63,2.18,-0.23,1.14,1.55,0.77,0.33,-0.93,5.41,1009.09
10.388,-1.40,1.95,0.12,1.14,1.55,0.77,0.33,-0.93,5.41,1009.09
10.388,-2.08,1.14,0.81,1.14,1.55,0.77,0.33,-0.93,5.41,1009.09
10.403,-2.08,1.14,0.81,1.14,1.55,0.77,-0.42,0.81,4.61,1009.09
10.403,-2.34,1.10,0.23,1.14,1.55,0.77,-0.42,0.81,4.61,1009.09
10.411,-2.34,1.10,0.23,-4.65,9.27,-0.43,-0.42,0.81,4.61,1009.09
10.426,-2.34,1.10,0.23,-4.65,9.27,-0.43,-0.42,0.81,4.61,1009.35
10.426,-2.89,0.75,-0.10,-4.65,9.27,-0.43,-0.42,0.81,4.61,1009.35
10.466,-2.18,0.70,-0.29,-4.65,9.27,-0.43,-0.42,0.81,4.61,1009.35
10.468,-0.39,1.82,-0.30,-4.65,9.27,-0.43,-0.42,0.81,4.61,1009.35
10.482,-0.39,1.82,-0.30,-4.65,9.27,-0.43,-0.39,-0.91,-1.87,1009.35
10.482,0.04,1.24,-0.78,-4.65,9.27,-0.43,-0.39,-0.91,-1.87,1009.35
10.482,0.04,1.24,-0.78,-23.12,3.78,4.00,-0.39,-0.91,-1.87,1009.35
10.506,-0.43,1.17,-0.59,-23.12,3.78,4.00,-0.39,-0.91,-1.87,1009.35
10.507,-0.43,1.17,-0.59,-23.12,3.78,4.00,-0.39,-0.91,-1.87,1009.56
10.532,-1.51,0.91,0.01,-23.12,3.78,4.00,-0.39,-0.91,-1.87,1009.56
10.542,-1.51,0.91,0.01,-23.12,3.78,4.00,-0.30,-0.82,-3.53,1009.56
10.553,-1.19,0.71,1.17,-23.12,3.78,4.00,-0.30,-0.82,-3.53,1009.56
10.553,-1.19,0.71,1.17,-10.49,2.16,-3.43,-0.30,-0.82,-3.53,1009.56
10.587,-1.19,0.71,1.17,-10.49,2.16,-3.43,-0.30,-0.82,-3.53,1009.56
10.588,-0.63,1.00,-0.62,-10.49,2.16,-3.43,-0.30,-0.82,-3.53,1009.56
10.589,-0.52,0.97,0.03,-10.49,2.16,-3.43,-0.30,-0.82,-3.53,1009.56
10.612,-0.30,1.06,-0.25,-10.49,2.16,-3.43,-0.30,-0.82,-3.53,1009.56
10.613,-0.30,1.06,-0.25,-10.49,2.16,-3.43,0.06,-0.25,-0.64,1009.56
10.622,-0.26,1.00,-0.02,-10.49,2.16,-3.43,0.06,-0.25,-0.64,1009.56
10.622,-0.26,1.00,-0.02,-7.69,0.06,0.79,0.06,-0.25,-0.64,1009.56
10.63,-0.26,1.00,-0.02,-7.69,0.06,0.79,0.06,-0.25,-0.64,1009.66
10.665,-0.28,0.98,0.02,-7.69,0.06,0.79,0.06,-0.25,-0.64,1009.66
10.667,-0.21,1.00,0.01,-7.69,0.06,0.79,0.06,-0.25,-0.64,1009.66
10.683,-0.21,1.00,0.01,-7.69,0.06,0.79,-0.06,0.02,-0.28,1009.66
10.692,-0.30,0.97,0.00,-7.69,0.06,0.79,-0.06,0.02,-0.28,1009.66
10.694,-0.30,0.97,0.00,-1.50,0.66,-0.41,-0.06,0.02,-0.28,1009.66
10.707,-0.23,0.96,0.03,-1.50,0.66,-0.41,-0.06,0.02,-0.28,1009.66
10.708,-0.23,0.96,0.03,-1.50,0.66,-0.41,-0.06,0.02,-0.28,1009.36
10.732,-0.23,0.96,0.01,-1.50,0.66,-0.41,-0.06,0.02,-0.28,1009.36
10.752,-0.23,0.96,0.01,-1.50,0.66,-0.41,0.11,0.15,-0.20,1009.36
10.753,-0.21,0.95,0.03,-1.50,0.66,-0.41,0.11,0.15,-0.20,1009.36
10.766,-0.21,0.95,0.03,-0.02,0.49,0.62,0.11,0.15,-0.20,1009.36
10.767,-0.22,0.93,0.03,-0.02,0.49,0.62,0.11,0.15,-0.20,1009.36
10.786,-0.24,0.93,-0.00,-0.02,0.49,0.62,0.11,0.15,-0.20,1009.36
10.787,-0.24,0.93,-0.00,-0.02,0.49,0.62,0.11,0.15,-0.20,1009.19
10.822,-0.24,0.93,-0.00,-0.02,0.49,0.62,0.21,0.29,-0.23,1009.19
10.824,-0.25,0.94,-0.03,-0.02,0.49,0.62,0.21,0.29,-0.23,1009.19
10.825,-0.24,0.94,-0.03,-0.02,0.49,0.62,0.21,0.29,-0.23,1009.19
10.826,-0.24,0.94,-0.03,-0.02,0.49,0.62,0.21,0.29,-0.23,1009.16
10.832,-0.24,0.94,-0.03,0.39,0.18,0.91,0.21,0.29,-0.23,1009.16
10.866,-0.22,0.96,-0.05,0.39,0.18,0.91,0.21,0.29,-0.23,1009.16
10.867,-0.21,0.98,-0.05,0.39,0.18,0.91,0.21,0.29,-0.23,1009.16
10.893,-0.19,1.00,-0.03,0.39,0.18,0.91,0.21,0.29,-0.23,1009.16
10.894,-0.19,1.00,-0.03,0.39,0.18,0.91,0.14,0.43,-0.37,1009.16
10.901,-0.18,1.03,-0.04,0.39,0.18,0.91,0.14,0.43,-0.37,1009.16
10.902,-0.18,1.03,-0.04,0.38,0.17,0.58,0.14,0.43,-0.37,1009.16
10.906,-0.18,1.03,-0.04,0.38,0.17,0.58,0.14,0.43,-0.37,1009.17
10.932,-0.06,1.20,-0.11,0.38,0.17,0.58,0.14,0.43,-0.37,1009.17
10.963,-0.06,1.20,-0.11,0.38,0.17,0.58,0.01,0.33,-1.14,1009.17
10.967,-0.08,1.23,-0.17,0.38,0.17,0.58,0.01,0.33,-1.14,1009.17
10.981,-0.10,1.27,-0.26,0.38,0.17,0.58,0.01,0.33,-1.14,1009.17
10.982,-0.10,1.27,-0.26,1.05,0.85,0.52,0.01,0.33,-1.14,1009.17
10.986,-0.10,1.27,-0.26,1.05,0.85,0.52,0.01,0.33,-1.14,1009.29
10.987,-0.15,1.28,-0.31,1.05,0.85,0.52,0.01,0.33,-1.14,1009.29
11.023,-0.14,1.33,-0.30,1.05,0.85,0.52,0.01,0.33,-1.14,1009.29
11.026,-0.04,1.46,-0.21,1.05,0.85,0.52,0.01,0.33,-1.14,1009.29
11.027,-0.04,1.46,-0.21,1.05,0.85,0.52,0.01,0.33,-1.14,1009.42
11.031,-0.04,1.46,-0.21,1.05,0.85,0.52,-0.38,-0.22,-2.60,1009.42
11.041,-0.04,1.46,-0.21,3.00,3.51,-0.93,-0.38,-0.22,-2.60,1009.42
11.042,0.13,1.60,-0.12,3.00,3.51,-0.93,-0.38,-0.22,-2.60,1009.42
11.065,0.49,1.81,-0.02,3.00,3.51,-0.93,-0.38,-0.22,-2.60,1009.42
11.102,0.49,1.81,-0.02,3.00,3.51,-0.93,-1.11,0.24,-5.54,1009.42
11.103,0.82,1.88,-0.06,3.00,3.51,-0.93,-1.11,0.24,-5.54,1009.42
11.108,0.39,1.72,0.24,3.00,3.51,-0.93,-1.11,0.24,-5.54,1009.42
11.109,0.39,1.72,0.24,3.00,3.51,-0.93,-1.11,0.24,-5.54,1009.24
11.112,0.39,1.72,0.24,5.26,6.37,-1.60,-1.11,0.24,-5.54,1009.24
11.132,-0.46,1.56,0.29,5.26,6.37,-1.60,-1.11,0.24,-5.54,1009.24
11.172,-0.46,1.56,0.29,5.26,6.37,-1.60,0.11,0.59,-5.86,1009.24
11.173,-0.25,1.35,0.98,5.26,6.37,-1.60,0.11,0.59,-5.86,1009.24
11.174,-1.42,-0.14,-0.02,5.26,6.37,-1.60,0.11,0.59,-5.86,1009.24
11.182,-2.31,0.90,-0.52,5.26,6.37,-1.60,0.11,0.59,-5.86,1009.24
11.182,-2.31,0.90,-0.52,12.21,12.59,1.06,0.11,0.59,-5.86,1009.24
11.185,-2.31,0.90,-0.52,12.21,12.59,1.06,0.11,0.59,-5.86,1008.95
11.227,1.04,0.89,0.01,12.21,12.59,1.06,0.11,0.59,-5.86,1008.95
11.228,0.54,0.68,-0.22,12.21,12.59,1.06,0.11,0.59,-5.86,1008.95
11.229,0.54,0.68,-0.22,12.21,12.59,1.06,0.11,0.59,-5.86,1009.10
11.242,0.54,0.68,-0.22,12.21,12.59,1.06,0.33,-1.31,2.19,1009.10
11.253,0.27,0.42,0.02,12.21,12.59,1.06,0.33,-1.31,2.19,1009.10
11.254,0.27,0.42,0.02,-2.60,5.25,2.30,0.33,-1.31,2.19,1009.10
11.266,-0.07,0.19,0.30,-2.60,5.25,2.30,0.33,-1.31,2.19,1009.10
11.306,-0.07,0.19,0.30,-2.60,5.25,2.30,0.33,-1.31,2.19,1009.13
11.307,0.15,0.35,0.12,-2.60,5.25,2.30,0.33,-1.31,2.19,1009.13
11.308,0.20,0.56,-0.02,-2.60,5.25,2.30,0.33,-1.31,2.19,1009.13
11.311,0.20,0.56,-0.02,-2.60,5.25,2.30,0.68,0.20,4.91,1009.13
11.321,0.07,0.73,-0.06,-2.60,5.25,2.30,0.68,0.20,4.91,1009.13
11.322,0.07,0.73,-0.06,13.37,1.35,-0.30,0.68,0.20,4.91,1009.13
11.383,0.07,0.73,-0.06,13.37,1.35,-0.30,0.59,0.43,5.93,1009.13
11.384,-0.04,0.89,-0.13,13.37,1.35,-0.30,0.59,0.43,5.93,1009.13
11.384,-0.15,1.06,-0.23,13.37,1.35,-0.30,0.59,0.43,5.93,1009.13
11.386,-0.24,1.24,-0.29,13.37,1.35,-0.30,0.59,0.43,5.93,1009.13
11.387,-0.24,1.24,-0.29,13.37,1.35,-0.30,0.59,0.43,5.93,1009.23
11.392,-0.24,1.24,-0.29,6.75,-2.39,0.97,0.59,0.43,5.93,1009.23
11.427,-0.24,1.24,-0.29,6.75,-2.39,0.97,0.59,0.43,5.93,1009.20
11.428,-0.29,1.49,-0.32,6.75,-2.39,0.97,0.59,0.43,5.93,1009.20
11.428,-0.60,1.81,-0.51,6.75,-2.39,0.97,0.59,0.43,5.93,1009.20
11.452,-0.60,1.81,-0.51,6.75,-2.39,0.97,0.60,-0.48,5.86,1009.20
11.453,-1.15,1.96,-0.54,6.75,-2.39,0.97,0.60,-0.48,5.86,1009.20
11.464,-1.12,1.80,0.51,6.75,-2.39,0.97,0.60,-0.48,5.86,1009.20
11.466,-1.12,1.80,0.51,0.77,1.99,-1.46,0.60,-0.48,5.86,1009.20
11.502,-1.24,1.74,0.62,0.77,1.99,-1.46,0.60,-0.48,5.86,1009.20
11.504,-1.97,1.67,-0.08,0.77,1.99,-1.46,0.60,-0.48,5.86,1009.20
11.505,-1.97,1.67,-0.08,0.77,1.99,-1.46,0.60,-0.48,5.86,1009.35
11.521,-1.97,1.67,-0.08,0.77,1.99,-1.46,0.36,-0.14,4.17,1009.35
11.532,-3.39,0.70,0.44,0.77,1.99,-1.46,0.36,-0.14,4.17,1009.35
11.534,-3.39,0.70,0.44,-9.65,8.54,-0.62,0.36,-0.14,4.17,1009.35
11.586,-3.39,0.70,0.44,-9.65,8.54,-0.62,0.36,-0.14,4.17,1009.36
11.587,-2.27,0.63,0.56,-9.65,8.54,-0.62,0.36,-0.14,4.17,1009.36
11.588,-2.14,0.98,0.30,-9.65,8.54,-0.62,0.36,-0.14,4.17,1009.36
11.588,1.24,1.30,-1.21,-9.65,8.54,-0.62,0.36,-0.14,4.17,1009.36
11.591,1.24,1.30,-1.21,-9.65,8.54,-0.62,-0.40,-0.69,-2.82,1009.36
11.602,0.23,0.95,-0.29,-9.65,8.54,-0.62,-0.40,-0.69,-2.82,1009.36
11.603,0.23,0.95,-0.29,-24.19,3.16,4.91,-0.40,-0.69,-2.82,1009.36
11.637,0.23,0.95,-0.29,-24.19,3.16,4.91,-0.40,-0.69,-2.82,1009.53
11.638,-1.10,0.89,0.07,-24.19,3.16,4.91,-0.40,-0.69,-2.82,1009.53
11.663,-1.10,0.89,0.07,-24.19,3.16,4.91,-0.70,-0.74,-3.47,1009.53
11.664,-1.44,0.85,0.47,-24.19,3.16,4.91,-0.70,-0.74,-3.47,1009.53
11.665,-0.77,0.93,0.12,-24.19,3.16,4.91,-0.70,-0.74,-3.47,1009.53
11.671,-0.77,0.93,0.12,-4.30,0.86,-1.86,-0.70,-0.74,-3.47,1009.53
11.707,-0.77,0.93,0.12,-4.30,0.86,-1.86,-0.70,-0.74,-3.47,1009.71
11.708,-0.83,0.91,0.06,-4.30,0.86,-1.86,-0.70,-0.74,-3.47,1009.71
11.708,-0.51,1.02,-0.09,-4.30,0.86,-1.86,-0.70,-0.74,-3.47,1009.71
11.732,-0.51,1.02,-0.09,-4.30,0.86,-1.86,-0.33,-0.27,-0.84,1009.71
11.733,-0.50,1.01,-0.12,-4.30,0.86,-1.86,-0.33,-0.27,-0.84,1009.71
11.743,-0.31,0.99,0.03,-4.30,0.86,-1.86,-0.33,-0.27,-0.84,1009.71
11.744,-0.31,0.99,0.03,-8.41,-0.42,2.28,-0.33,-0.27,-0.84,1009.71
11.786,-0.31,0.99,0.03,-8.41,-0.42,2.28,-0.33,-0.27,-0.84,1009.50
11.787,-0.28,0.96,0.09,-8.41,-0.42,2.28,-0.33,-0.27,-0.84,1009.50
11.787,-0.24,1.00,0.07,-8.41,-0.42,2.28,-0.33,-0.27,-0.84,1009.50
11.802,-0.24,1.00,0.07,-8.41,-0.42,2.28,-0.22,0.08,-0.34,1009.50
11.812,-0.26,0.95,0.11,-8.41,-0.42,2.28,-0.22,0.08,-0.34,1009.50
11.813,-0.26,0.95,0.11,-1.98,0.76,-0.15,-0.22,0.08,-0.34,1009.50
11.827,-0.31,0.92,0.06,-1.98,0.76,-0.15,-0.22,0.08,-0.34,1009.50
11.828,-0.31,0.92,0.06,-1.98,0.76,-0.15,-0.22,0.08,-0.34,1009.17
11.865,-0.29,0.94,0.04,-1.98,0.76,-0.15,-0.22,0.08,-0.34,1009.17
11.866,-0.24,0.93,0.10,-1.98,0.76,-0.15,-0.22,0.08,-0.34,1009.17
11.872,-0.24,0.93,0.10,-1.98,0.76,-0.15,0.05,0.24,-0.22,1009.17
11.882,-0.26,0.91,0.09,-1.98,0.76,-0.15,0.05,0.24,-0.22,1009.17
11.883,-0.26,0.91,0.09,0.16,0.44,0.93,0.05,0.24,-0.22,1009.17
11.907,-0.22,0.94,0.06,0.16,0.44,0.93,0.05,0.24,-0.22,1009.17
11.908,-0.22,0.94,0.06,0.16,0.44,0.93,0.05,0.24,-0.22,1009.12
11.933,-0.24,0.94,0.04,0.16,0.44,0.93,0.05,0.24,-0.22,1009.12
11.942,-0.24,0.94,0.04,0.16,0.44,0.93,0.22,0.43,-0.28,1009.12
11.952,-0.24,0.94,0.04,0.30,0.16,0.98,0.22,0.43,-0.28,1009.12
11.953,-0.24,0.95,0.02,0.30,0.16,0.98,0.22,0.43,-0.28,1009.12
11.986,-0.24,0.95,0.02,0.30,0.16,0.98,0.22,0.43,-0.28,1009.19
11.987,-0.27,0.96,-0.07,0.30,0.16,0.98,0.22,0.43,-0.28,1009.19
11.988,-0.26,0.97,-0.07,0.30,0.16,0.98,0.22,0.43,-0.28,1009.19
12.013,-0.27,0.99,-0.10,0.30,0.16,0.98,0.22,0.43,-0.28,1009.19
12.014,-0.27,0.99,-0.10,0.30,0.16,0.98,0.12,0.36,-0.48,1009.19
12.023,-0.23,1.04,-0.09,0.30,0.16,0.98,0.12,0.36,-0.48,1009.19
12.023,-0.23,1.04,-0.09,0.78,0.38,0.70,0.12,0.36,-0.48,1009.19
12.025,-0.23,1.04,-0.09,0.78,0.38,0.70,0.12,0.36,-0.48,1009.30
12.066,-0.19,1.10,-0.02,0.78,0.38,0.70,0.12,0.36,-0.48,1009.30
12.067,-0.17,1.17,-0.11,0.78,0.38,0.70,0.12,0.36,-0.48,1009.30
12.083,-0.17,1.17,-0.11,0.78,0.38,0.70,-0.15,0.29,-1.06,1009.30
12.092,-0.18,1.21,-0.16,0.78,0.38,0.70,-0.15,0.29,-1.06,1009.30
12.093,-0.18,1.21,-0.16,0.95,0.99,-0.26,-0.15,0.29,-1.06,1009.30
12.106,-0.22,1.24,-0.27,0.95,0.99,-0.26,-0.15,0.29,-1.06,1009.30
12.107,-0.22,1.24,-0.27,0.95,0.99,-0.26,-0.15,0.29,-1.06,1009.45
12.132,-0.23,1.30,-0.27,0.95,0.99,-0.26,-0.15,0.29,-1.06,1009.45
12.143,-0.10,1.43,-0.09,0.95,0.99,-0.26,-0.15,0.29,-1.06,1009.45
12.152,-0.10,1.43,-0.09,0.95,0.99,-0.26,-0.63,-0.03,-2.26,1009.45
12.162,-0.10,1.43,-0.09,2.43,3.01,-0.69,-0.63,-0.03,-2.26,1009.45
12.164,0.12,1.63,-0.12,2.43,3.01,-0.69,-0.63,-0.03,-2.26,1009.45
12.186,0.40,1.88,-0.10,2.43,3.01,-0.69,-0.63,-0.03,-2.26,1009.45
12.188,0.40,1.88,-0.10,2.43,3.01,-0.69,-0.63,-0.03,-2.26,1009.54
12.223,0.40,1.88,-0.10,2.43,3.01,-0.69,-1.71,0.38,-5.18,1009.54
12.224,0.63,1.93,-0.24,2.43,3.01,-0.69,-1.71,0.38,-5.18,1009.54
12.227,0.41,1.78,-0.31,2.43,3.01,-0.69,-1.71,0.38,-5.18,1009.54
12.228,0.41,1.78,-0.31,2.43,3.01,-0.69,-1.71,0.38,-5.18,1009.28
12.232,0.41,1.78,-0.31,4.78,6.34,-1.69,-1.71,0.38,-5.18,1009.28
12.266,-0.44,1.41,0.51,4.78,6.34,-1.69,-1.71,0.38,-5.18,1009.28
12.267,-0.31,1.46,0.80,4.78,6.34,-1.69,-1.71,0.38,-5.18,1009.28
12.294,-0.31,1.46,0.80,4.78,6.34,-1.69,-0.88,1.01,-6.37,1009.28
12.295,-0.45,0.25,0.34,4.78,6.34,-1.69,-0.88,1.01,-6.37,1009.28
12.303,-3.00,0.32,0.07,4.78,6.34,-1.69,-0.88,1.01,-6.37,1009.28
12.304,-3.00,0.32,0.07,11.65,13.01,-1.65,-0.88,1.01,-6.37,1009.28
12.306,-3.00,0.32,0.07,11.65,13.01,-1.65,-0.88,1.01,-6.37,1009.05
12.333,0.25,0.70,-0.26,11.65,13.01,-1.65,-0.88,1.01,-6.37,1009.05
12.367,0.69,0.73,-0.12,11.65,13.01,-1.65,-0.88,1.01,-6.37,1009.05
12.369,0.69,0.73,-0.12,11.65,13.01,-1.65,-0.22,0.36,1.91,1009.05
12.372,0.37,0.40,-0.11,11.65,13.01,-1.65,-0.22,0.36,1.91,1009.05
12.373,0.37,0.40,-0.11,-2.07,5.24,4.27,-0.22,0.36,1.91,1009.05
12.388,-0.06,0.16,0.12,-2.07,5.24,4.27,-0.22,0.36,1.91,1009.05
12.389,-0.06,0.16,0.12,-2.07,5.24,4.27,-0.22,0.36,1.91,1009.12
12.426,-0.06,0.16,0.12,-2.07,5.24,4.27,-0.22,0.36,1.91,1009.16
12.428,-0.23,0.18,0.01,-2.07,5.24,4.27,-0.22,0.36,1.91,1009.16
12.428,0.17,0.37,-0.04,-2.07,5.24,4.27,-0.22,0.36,1.91,1009.16
12.432,0.17,0.37,-0.04,-2.07,5.24,4.27,-0.08,0.00,4.43,1009.16
12.442,0.14,0.52,0.03,-2.07,5.24,4.27,-0.08,0.00,4.43,1009.16
12.443,0.14,0.52,0.03,12.12,1.55,-1.28,-0.08,0.00,4.43,1009.16
12.466,-0.07,0.72,-0.17,12.12,1.55,-1.28,-0.08,0.00,4.43,1009.16
12.503,-0.07,0.72,-0.17,12.12,1.55,-1.28,0.29,0.77,6.26,1009.16
12.504,-0.26,0.91,-0.36,12.12,1.55,-1.28,0.29,0.77,6.26,1009.16
12.507,-0.25,1.07,-0.37,12.12,1.55,-1.28,0.29,0.77,6.26,1009.16
12.507,-0.25,1.07,-0.37,12.12,1.55,-1.28,0.29,0.77,6.26,1009.28
12.513,-0.25,1.07,-0.37,6.42,-3.40,0.35,0.29,0.77,6.26,1009.28
12.532,-0.16,1.44,-0.47,6.42,-3.40,0.35,0.29,0.77,6.26,1009.28
12.578,-0.16,1.44,-0.47,6.42,-3.40,0.35,0.27,0.05,6.01,1009.28
12.579,-0.36,1.70,-0.43,6.42,-3.40,0.35,0.27,0.05,6.01,1009.28
12.58,-1.05,1.76,-0.44,6.42,-3.40,0.35,0.27,0.05,6.01,1009.28
12.586,-0.93,2.02,-0.45,6.42,-3.40,0.35,0.27,0.05,6.01,1009.28
12.587,-0.93,2.02,-0.45,1.04,0.73,-2.61,0.27,0.05,6.01,1009.28
12.587,-0.93,2.02,-0.45,1.04,0.73,-2.61,0.27,0.05,6.01,1009.31
12.627,-0.93,2.02,-0.45,1.04,0.73,-2.61,0.27,0.05,6.01,1009.23
12.628,-1.18,2.00,-0.22,1.04,0.73,-2.61,0.27,0.05,6.01,1009.23
12.629,-1.41,1.40,0.61,1.04,0.73,-2.61,0.27,0.05,6.01,1009.23
12.643,-1.41,1.40,0.61,1.04,0.73,-2.61,0.17,1.25,3.81,1009.23
12.644,-2.93,1.15,-0.26,1.04,0.73,-2.61,0.17,1.25,3.81,1009.23
12.653,-2.93,1.15,-0.26,-7.42,8.23,-3.56,0.17,1.25,3.81,1009.23
12.665,-2.48,0.52,0.17,-7.42,8.23,-3.56,0.17,1.25,3.81,1009.23
12.707,-2.48,0.52,0.17,-7.42,8.23,-3.56,0.17,1.25,3.81,1009.33
12.708,-2.11,0.61,-0.06,-7.42,8.23,-3.56,0.17,1.25,3.81,1009.33
12.709,-0.08,1.86,0.15,-7.42,8.23,-3.56,0.17,1.25,3.81,1009.33
12.713,-0.08,1.86,0.15,-7.42,8.23,-3.56,-0.38,0.22,-2.23,1009.33
12.722,-0.08,1.86,0.15,-21.16,4.55,1.00,-0.38,0.22,-2.23,1009.33
12.724,1.11,1.12,-1.16,-21.16,4.55,1.00,-0.38,0.22,-2.23,1009.33
12.782,1.11,1.12,-1.16,-21.16,4.55,1.00,-0.24,-0.80,-3.62,1009.33
12.783,-0.52,1.02,-0.33,-21.16,4.55,1.00,-0.24,-0.80,-3.62,1009.33
12.784,-1.65,0.86,0.37,-21.16,4.55,1.00,-0.24,-0.80,-3.62,1009.33
12.785,-0.92,0.88,0.63,-21.16,4.55,1.00,-0.24,-0.80,-3.62,1009.33
12.786,-0.92,0.88,0.63,-21.16,4.55,1.00,-0.24,-0.80,-3.62,1009.69
12.792,-0.92,0.88,0.63,-5.47,1.30,-2.25,-0.24,-0.80,-3.62,1009.69
12.827,-0.92,0.88,0.63,-5.47,1.30,-2.25,-0.24,-0.80,-3.62,1009.60
12.827,-0.90,0.97,-0.51,-5.47,1.30,-2.25,-0.24,-0.80,-3.62,1009.60
12.828,-0.52,0.93,0.06,-5.47,1.30,-2.25,-0.24,-0.80,-3.62,1009.60
12.853,-0.40,0.99,0.07,-5.47,1.30,-2.25,-0.24,-0.80,-3.62,1009.60
12.854,-0.40,0.99,0.07,-5.47,1.30,-2.25,0.12,-0.33,-0.88,1009.60
12.867,-0.47,0.97,-0.32,-5.47,1.30,-2.25,0.12,-0.33,-0.88,1009.60
12.868,-0.47,0.97,-0.32,-7.48,0.03,2.10,0.12,-0.33,-0.88,1009.60
12.907,-0.47,0.97,-0.32,-7.48,0.03,2.10,0.12,-0.33,-0.88,1009.30
12.908,-0.32,0.95,0.11,-7.48,0.03,2.10,0.12,-0.33,-0.88,1009.30
12.908,-0.30,0.95,0.15,-7.48,0.03,2.10,0.12,-0.33,-0.88,1009.30
12.923,-0.30,0.95,0.15,-7.48,0.03,2.10,-0.13,0.04,-0.26,1009.30
12.933,-0.30,0.95,0.15,-2.23,0.51,-1.66,-0.13,0.04,-0.26,1009.30
12.934,-0.31,0.97,-0.00,-2.23,0.51,-1.66,-0.13,0.04,-0.26,1009.30
12.986,-0.31,0.97,-0.00,-2.23,0.51,-1.66,-0.13,0.04,-0.26,1009.19
12.987,-0.32,0.96,0.03,-2.23,0.51,-1.66,-0.13,0.04,-0.26,1009.19
12.988,-0.29,0.96,-0.05,-2.23,0.51,-1.66,-0.13,0.04,-0.26,1009.19
12.988,-0.29,0.94,0.00,-2.23,0.51,-1.66,-0.13,0.04,-0.26,1009.19
12.992,-0.29,0.94,0.00,-2.23,0.51,-1.66,-0.05,0.15,-0.14,1009.19
13.002,-0.29,0.94,0.00,-0.02,0.44,0.95,-0.05,0.15,-0.14,1009.19
13.004,-0.27,0.92,0.09,-0.02,0.44,0.95,-0.05,0.15,-0.14,1009.19
13.027,-0.26,0.90,0.15,-0.02,0.44,0.95,-0.05,0.15,-0.14,1009.19
13.028,-0.26,0.90,0.15,-0.02,0.44,0.95,-0.05,0.15,-0.14,1009.14
13.067,-0.28,0.91,0.13,-0.02,0.44,0.95,-0.05,0.15,-0.14,1009.14
13.069,-0.28,0.91,0.13,-0.02,0.44,0.95,0.11,0.29,-0.15,1009.14
13.071,-0.28,0.93,0.01,-0.02,0.44,0.95,0.11,0.29,-0.15,1009.14
13.075,-0.28,0.93,0.01,0.24,0.36,0.31,0.11,0.29,-0.15,1009.14
13.106,-0.28,0.94,-0.02,0.24,0.36,0.31,0.11,0.29,-0.15,1009.14
13.108,-0.26,0.95,-0.01,0.24,0.36,0.31,0.11,0.29,-0.15,1009.14
13.108,-0.26,0.95,-0.01,0.24,0.36,0.31,0.11,0.29,-0.15,1009.21
13.132,-0.26,0.97,0.00,0.24,0.36,0.31,0.11,0.29,-0.15,1009.21
13.134,-0.26,0.97,0.00,0.24,0.36,0.31,0.12,0.35,-0.22,1009.21
13.142,-0.23,1.00,0.01,0.24,0.36,0.31,0.12,0.35,-0.22,1009.21
13.143,-0.23,1.00,0.01,0.49,0.12,1.11,0.12,0.35,-0.22,1009.21
13.186,-0.23,1.00,0.01,0.49,0.12,1.11,0.12,0.35,-0.22,1009.26
13.187,-0.25,1.04,-0.09,0.49,0.12,1.11,0.12,0.35,-0.22,1009.26
13.188,-0.18,1.11,-0.15,0.49,0.12,1.11,0.12,0.35,-0.22,1009.26
13.202,-0.18,1.11,-0.15,0.49,0.12,1.11,-0.02,0.27,-0.62,1009.26
13.213,-0.18,1.11,-0.15,0.79,0.67,0.45,-0.02,0.27,-0.62,1009.26
13.214,-0.20,1.12,-0.08,0.79,0.67,0.45,-0.02,0.27,-0.62,1009.26
13.226,-0.17,1.17,-0.15,0.79,0.67,0.45,-0.02,0.27,-0.62,1009.26
13.227,-0.17,1.17,-0.15,0.79,0.67,0.45,-0.02,0.27,-0.62,1009.36
13.269,-0.20,1.19,-0.06,0.79,0.67,0.45,-0.02,0.27,-0.62,1009.36
13.27,-0.18,1.25,-0.15,0.79,0.67,0.45,-0.02,0.27,-0.62,1009.36
13.273,-0.18,1.25,-0.15,0.79,0.67,0.45,-0.55,0.20,-1.56,1009.36
13.289,-0.13,1.35,-0.19,0.79,0.67,0.45,-0.55,0.20,-1.56,1009.36
13.29,-0.13,1.35,-0.19,1.78,2.13,-0.62,-0.55,0.20,-1.56,1009.36
13.306,-0.06,1.50,-0.23,1.78,2.13,-0.62,-0.55,0.20,-1.56,1009.36
13.307,-0.06,1.50,-0.23,1.78,2.13,-0.62,-0.55,0.20,-1.56,1009.47
13.332,0.19,1.72,-0.28,1.78,2.13,-0.62,-0.55,0.20,-1.56,1009.47
13.342,0.19,1.72,-0.28,1.78,2.13,-0.62,-1.77,0.50,-3.36,1009.47
13.353,0.19,1.72,-0.28,3.22,4.16,-1.25,-1.77,0.50,-3.36,1009.47
13.354,0.34,1.93,-0.42,3.22,4.16,-1.25,-1.77,0.50,-3.36,1009.47
13.386,0.34,1.93,-0.42,3.22,4.16,-1.25,-1.77,0.50,-3.36,1009.43
13.387,0.57,1.85,-0.33,3.22,4.16,-1.25,-1.77,0.50,-3.36,1009.43
13.387,0.19,1.55,0.19,3.22,4.16,-1.25,-1.77,0.50,-3.36,1009.43
13.412,0.19,1.55,0.19,3.22,4.16,-1.25,-2.74,1.14,-6.44,1009.43
13.414,-0.56,1.34,0.86,3.22,4.16,-1.25,-2.74,1.14,-6.44,1009.43
13.422,-0.95,0.98,0.41,3.22,4.16,-1.25,-2.74,1.14,-6.44,1009.43
13.423,-0.95,0.98,0.41,9.03,10.69,-3.87,-2.74,1.14,-6.44,1009.43
13.425,-0.95,0.98,0.41,9.03,10.69,-3.87,-2.74,1.14,-6.44,1008.88
13.47,-1.28,0.03,0.45,9.03,10.69,-3.87,-2.74,1.14,-6.44,1008.88
13.471,0.03,0.65,0.27,9.03,10.69,-3.87,-2.74,1.14,-6.44,1008.88
13.49,0.03,0.65,0.27,9.03,10.69,-3.87,-1.21,1.86,-0.49,1008.88
13.493,0.03,0.65,0.27,6.00,10.25,2.85,-1.21,1.86,-0.49,1008.88
13.494,0.33,0.78,-0.67,6.00,10.25,2.85,-1.21,1.86,-0.49,1008.88
13.506,-0.05,0.40,-0.57,6.00,10.25,2.85,-1.21,1.86,-0.49,1008.88
13.507,-0.05,0.40,-0.57,6.00,10.25,2.85,-1.21,1.86,-0.49,1009.11
13.532,-0.04,0.19,0.05,6.00,10.25,2.85,-1.21,1.86,-0.49,1009.11
13.553,-0.04,0.19,0.05,6.00,10.25,2.85,-1.06,-0.51,3.31,1009.11
13.554,-0.06,0.19,0.08,6.00,10.25,2.85,-1.06,-0.51,3.31,1009.11
13.57,-0.02,0.38,-0.32,6.00,10.25,2.85,-1.06,-0.51,3.31,1009.11
13.571,-0.02,0.38,-0.32,5.90,0.87,-1.10,-1.06,-0.51,3.31,1009.11
13.59,0.13,0.48,-0.38,5.90,0.87,-1.10,-1.06,-0.51,3.31,1009.11
13.591,0.13,0.48,-0.38,5.90,0.87,-1.10,-1.06,-0.51,3.31,1009.13
13.623,0.13,0.48,-0.38,5.90,0.87,-1.10,-0.39,1.53,5.42,1009.13
13.625,0.05,0.64,-0.58,5.90,0.87,-1.10,-0.39,1.53,5.42,1009.13
13.625,-0.22,0.81,-0.74,5.90,0.87,-1.10,-0.39,1.53,5.42,1009.13
13.626,-0.22,0.81,-0.74,5.90,0.87,-1.10,-0.39,1.53,5.42,1009.27
13.632,-0.22,0.81,-0.74,6.51,-3.47,-1.65,-0.39,1.53,5.42,1009.27
13.67,-0.29,1.07,-0.78,6.51,-3.47,-1.65,-0.39,1.53,5.42,1009.27
13.672,-0.17,1.50,-0.77,6.51,-3.47,-1.65,-0.39,1.53,5.42,1009.27
13.693,-0.17,1.50,-0.77,6.51,-3.47,-1.65,-0.24,1.83,5.12,1009.27
13.694,-0.32,1.92,-0.76,6.51,-3.47,-1.65,-0.24,1.83,5.12,1009.27
13.703,-0.32,1.92,-0.76,3.48,-1.46,-5.78,-0.24,1.83,5.12,1009.27
13.704,-1.23,1.71,-0.41,3.48,-1.46,-5.78,-0.24,1.83,5.12,1009.27
13.705,-1.23,1.71,-0.41,3.48,-1.46,-5.78,-0.24,1.83,5.12,1009.36
13.732,-0.94,1.87,-0.67,3.48,-1.46,-5.78,-0.24,1.83,5.12,1009.36
13.77,-1.54,1.39,-0.44,3.48,-1.46,-5.78,-0.24,1.83,5.12,1009.36
13.776,-1.54,1.39,-0.44,3.48,-1.46,-5.78,-0.40,3.42,4.05,1009.36
13.777,-1.25,1.40,-0.54,3.48,-1.46,-5.78,-0.40,3.42,4.05,1009.36
13.778,-1.25,1.40,-0.54,-3.99,6.77,-6.10,-0.40,3.42,4.05,1009.36
13.791,-2.29,0.91,-0.62,-3.99,6.77,-6.10,-0.40,3.42,4.05,1009.36
13.792,-2.29,0.91,-0.62,-3.99,6.77,-6.10,-0.40,3.42,4.05,1009.37
13.826,-2.29,0.91,-0.62,-3.99,6.77,-6.10,-0.40,3.42,4.05,1009.38
13.828,-2.29,0.45,-0.18,-3.99,6.77,-6.10,-0.40,3.42,4.05,1009.38
13.829,-1.07,1.06,0.04,-3.99,6.77,-6.10,-0.40,3.42,4.05,1009.38
13.833,-1.07,1.06,0.04,-3.99,6.77,-6.10,0.11,0.94,0.13,1009.38
13.844,-1.08,0.98,0.09,-3.99,6.77,-6.10,0.11,0.94,0.13,1009.38
13.845,-1.08,0.98,0.09,-13.96,5.35,-5.54,0.11,0.94,0.13,1009.38
13.876,-0.25,1.23,-1.35,-13.96,5.35,-5.54,0.11,0.94,0.13,1009.38
13.903,-0.25,1.23,-1.35,-13.96,5.35,-5.54,-0.04,-0.19,-3.02,1009.38
13.904,-0.77,1.03,0.16,-13.96,5.35,-5.54,-0.04,-0.19,-3.02,1009.38
13.905,-1.07,0.98,0.18,-13.96,5.35,-5.54,-0.04,-0.19,-3.02,1009.38
13.906,-1.07,0.98,0.18,-13.96,5.35,-5.54,-0.04,-0.19,-3.02,1009.52
13.913,-1.07,0.98,0.18,-15.77,-1.43,-0.27,-0.04,-0.19,-3.02,1009.52
13.933,-0.59,0.91,0.02,-15.77,-1.43,-0.27,-0.04,-0.19,-3.02,1009.52
13.973,-0.59,0.91,0.02,-15.77,-1.43,-0.27,0.03,-0.56,-0.98,1009.52
13.974,-0.42,0.87,-0.05,-15.77,-1.43,-0.27,0.03,-0.56,-0.98,1009.52
13.975,-0.46,0.90,0.25,-15.77,-1.43,-0.27,0.03,-0.56,-0.98,1009.52
13.994,-0.44,0.99,0.24,-15.77,-1.43,-0.27,0.03,-0.56,-0.98,1009.52
13.995,-0.44,0.99,0.24,-4.68,1.24,-2.50,0.03,-0.56,-0.98,1009.52
13.996,-0.44,0.99,0.24,-4.68,1.24,-2.50,0.03,-0.56,-0.98,1009.45
14.026,-0.44,0.99,0.24,-4.68,1.24,-2.50,0.03,-0.56,-0.98,1009.40
14.027,-0.36,1.01,-0.30,-4.68,1.24,-2.50,0.03,-0.56,-0.98,1009.40
14.027,-0.30,1.01,-0.00,-4.68,1.24,-2.50,0.03,-0.56,-0.98,1009.40
14.044,-0.30,1.01,-0.00,-4.68,1.24,-2.50,0.12,-0.06,-0.37,1009.40
14.053,-0.32,1.00,-0.04,-4.68,1.24,-2.50,0.12,-0.06,-0.37,1009.40
14.054,-0.32,1.00,-0.04,-1.91,-0.07,1.57,0.12,-0.06,-0.37,1009.40
14.071,-0.37,0.96,-0.10,-1.91,-0.07,1.57,0.12,-0.06,-0.37,1009.40
14.107,-0.37,0.96,-0.10,-1.91,-0.07,1.57,0.12,-0.06,-0.37,1009.20
14.108,-0.29,0.95,0.07,-1.91,-0.07,1.57,0.12,-0.06,-0.37,1009.20
14.108,-0.29,0.94,0.08,-1.91,-0.07,1.57,0.12,-0.06,-0.37,1009.20
14.113,-0.29,0.94,0.08,-1.91,-0.07,1.57,-0.14,0.08,-0.15,1009.20
14.124,-0.29,0.94,0.08,-0.49,0.80,-0.83,-0.14,0.08,-0.15,1009.20
14.125,-0.28,0.94,0.03,-0.49,0.80,-0.83,-0.14,0.08,-0.15,1009.20
14.185,-0.28,0.94,0.03,-0.49,0.80,-0.83,-0.02,0.25,-0.11,1009.20
14.187,-0.27,0.92,0.11,-0.49,0.80,-0.83,-0.02,0.25,-0.11,1009.20
14.187,-0.27,0.92,0.11,-0.49,0.80,-0.83,-0.02,0.25,-0.11,1009.20
14.188,-0.26,0.94,0.05,-0.49,0.80,-0.83,-0.02,0.25,-0.11,1009.20
14.188,-0.26,0.94,0.05,-0.49,0.80,-0.83,-0.02,0.25,-0.11,1009.16
14.193,-0.26,0.94,0.05,-0.10,0.30,0.63,-0.02,0.25,-0.11,1009.16
14.227,-0.28,0.95,0.04,-0.10,0.30,0.63,-0.02,0.25,-0.11,1009.16
14.228,-0.26,0.95,0.01,-0.10,0.30,0.63,-0.02,0.25,-0.11,1009.16
14.229,-0.26,0.95,0.01,-0.10,0.30,0.63,-0.02,0.25,-0.11,1009.21
14.253,-0.26,0.95,0.01,-0.10,0.30,0.63,0.02,0.39,-0.19,1009.21
14.254,-0.25,0.94,0.05,-0.10,0.30,0.63,0.02,0.39,-0.19,1009.21
14.263,-0.27,0.94,0.06,-0.10,0.30,0.63,0.02,0.39,-0.19,1009.21
14.263,-0.27,0.94,0.06,0.25,0.16,1.06,0.02,0.39,-0.19,1009.21
14.306,-0.27,0.94,0.06,0.25,0.16,1.06,0.02,0.39,-0.19,1009.26
14.307,-0.25,0.97,0.04,0.25,0.16,1.06,0.02,0.39,-0.19,1009.26
14.308,-0.26,0.99,0.00,0.25,0.16,1.06,0.02,0.39,-0.19,1009.26
14.323,-0.26,0.99,0.00,0.25,0.16,1.06,0.06,0.36,-0.39,1009.26
14.332,-0.21,1.04,-0.08,0.25,0.16,1.06,0.06,0.36,-0.39,1009.26
14.333,-0.21,1.04,-0.08,0.46,0.34,0.74,0.06,0.36,-0.39,1009.26
14.353,-0.22,1.07,-0.04,0.46,0.34,0.74,0.06,0.36,-0.39,1009.26
14.386,-0.22,1.07,-0.04,0.46,0.34,0.74,0.06,0.36,-0.39,1009.36
14.388,-0.21,1.10,-0.05,0.46,0.34,0.74,0.06,0.36,-0.39,1009.36
14.388,-0.21,1.15,-0.11,0.46,0.34,0.74,0.06,0.36,-0.39,1009.36
14.393,-0.21,1.15,-0.11,0.46,0.34,0.74,-0.22,0.26,-0.99,1009.36
14.403,-0.21,1.15,-0.11,1.02,1.08,0.27,-0.22,0.26,-0.99,1009.36
14.404,-0.19,1.18,-0.04,1.02,1.08,0.27,-0.22,0.26,-0.99,1009.36
14.426,-0.19,1.18,-0.04,1.02,1.08,0.27,-0.22,0.26,-0.99,1009.42
14.428,-0.23,1.18,-0.11,1.02,1.08,0.27,-0.22,0.26,-0.99,1009.42
14.465,-0.23,1.18,-0.11,1.02,1.08,0.27,-0.76,0.19,-1.97,1009.42
14.468,-0.27,1.20,-0.21,1.02,1.08,0.27,-0.76,0.19,-1.97,1009.42
14.468,-0.20,1.31,-0.13,1.02,1.08,0.27,-0.76,0.19,-1.97,1009.42
14.48,-0.20,1.31,-0.13,2.02,2.56,-0.29,-0.76,0.19,-1.97,1009.42
14.506,-0.20,1.31,-0.13,2.02,2.56,-0.29,-0.76,0.19,-1.97,1009.49
14.507,0.00,1.57,-0.14,2.02,2.56,-0.29,-0.76,0.19,-1.97,1009.49
14.508,0.26,1.84,-0.17,2.02,2.56,-0.29,-0.76,0.19,-1.97,1009.49
14.532,0.51,1.96,-0.28,2.02,2.56,-0.29,-0.76,0.19,-1.97,1009.49
14.534,0.51,1.96,-0.28,2.02,2.56,-0.29,-1.85,0.40,-4.19,1009.49
14.544,0.41,1.68,0.04,2.02,2.56,-0.29,-1.85,0.40,-4.19,1009.49
14.545,0.41,1.68,0.04,3.28,4.58,-1.57,-1.85,0.40,-4.19,1009.49
14.586,0.41,1.68,0.04,3.28,4.58,-1.57,-1.85,0.40,-4.19,1008.99
14.587,-0.35,1.34,0.78,3.28,4.58,-1.57,-1.85,0.40,-4.19,1008.99
14.588,-0.45,1.34,0.81,3.28,4.58,-1.57,-1.85,0.40,-4.19,1008.99
14.604,-0.45,1.34,0.81,3.28,4.58,-1.57,-1.58,1.36,-5.94,1008.99
14.614,-0.45,1.34,0.81,11.00,12.09,-2.28,-1.58,1.36,-5.94,1008.99
14.615,-1.18,0.11,0.01,11.00,12.09,-2.28,-1.58,1.36,-5.94,1008.99
14.626,-0.89,0.95,0.08,11.00,12.09,-2.28,-1.58,1.36,-5.94,1008.99
14.627,-0.89,0.95,0.08,11.00,12.09,-2.28,-1.58,1.36,-5.94,1009.18
14.666,0.66,0.79,-0.26,11.00,12.09,-2.28,-1.58,1.36,-5.94,1009.18
14.667,0.10,0.48,-0.38,11.00,12.09,-2.28,-1.58,1.36,-5.94,1009.18
14.675,0.10,0.48,-0.38,11.00,12.09,-2.28,-1.25,1.09,1.25,1009.18
14.685,-0.06,0.29,-0.10,11.00,12.09,-2.28,-1.25,1.09,1.25,1009.18
14.685,-0.06,0.29,-0.10,0.94,6.05,4.07,-1.25,1.09,1.25,1009.18
14.707,-0.17,0.25,-0.01,0.94,6.05,4.07,-1.25,1.09,1.25,1009.18
14.708,-0.17,0.25,-0.01,0.94,6.05,4.07,-1.25,1.09,1.25,1009.16
14.733,0.15,0.41,-0.07,0.94,6.05,4.07,-1.25,1.09,1.25,1009.16
14.744,0.15,0.41,-0.07,0.94,6.05,4.07,-0.71,0.38,4.84,1009.16
14.754,0.43,0.67,-0.20,0.94,6.05,4.07,-0.71,0.38,4.84,1009.16
14.755,0.43,0.67,-0.20,9.99,0.94,-2.11,-0.71,0.38,4.84,1009.16
14.786,0.43,0.67,-0.20,9.99,0.94,-2.11,-0.71,0.38,4.84,1009.21
14.787,0.07,0.89,-0.46,9.99,0.94,-2.11,-0.71,0.38,4.84,1009.21
14.788,-0.29,1.01,-0.62,9.99,0.94,-2.11,-0.71,0.38,4.84,1009.21
14.813,-0.29,1.01,-0.62,9.99,0.94,-2.11,-0.38,1.80,5.60,1009.21
14.815,-0.34,1.15,-0.68,9.99,0.94,-2.11,-0.38,1.80,5.60,1009.21
14.823,-0.34,1.15,-0.68,7.19,-2.29,-1.41,-0.38,1.80,5.60,1009.21
14.825,-0.25,1.40,-0.76,7.19,-2.29,-1.41,-0.38,1.80,5.60,1009.21
14.825,-0.25,1.40,-0.76,7.19,-2.29,-1.41,-0.38,1.80,5.60,1009.34
14.866,0.07,1.83,-0.87,7.19,-2.29,-1.41,-0.38,1.80,5.60,1009.34
14.867,-0.41,1.94,-0.57,7.19,-2.29,-1.41,-0.38,1.80,5.60,1009.34
14.883,-0.41,1.94,-0.57,7.19,-2.29,-1.41,-0.57,1.98,4.10,1009.34
14.894,-1.01,1.90,-0.69,7.19,-2.29,-1.41,-0.57,1.98,4.10,1009.34
14.894,-1.01,1.90,-0.69,0.04,2.35,-6.14,-0.57,1.98,4.10,1009.34
14.907,-1.48,1.67,-0.98,0.04,2.35,-6.14,-0.57,1.98,4.10,1009.34
14.907,-1.48,1.67,-0.98,0.04,2.35,-6.14,-0.57,1.98,4.10,1009.33
14.924,-2.22,0.95,-0.23,0.04,2.35,-6.14,-0.57,1.98,4.10,1009.33
14.954,-2.76,0.53,-0.39,0.04,2.35,-6.14,-0.57,1.98,4.10,1009.33
14.955,-2.76,0.53,-0.39,0.04,2.35,-6.14,-0.84,2.25,2.96,1009.33
14.964,-2.09,0.52,-0.23,0.04,2.35,-6.14,-0.84,2.25,2.96,1009.33
14.965,-2.09,0.52,-0.23,-5.13,9.03,-7.25,-0.84,2.25,2.96,1009.33
14.986,-1.99,0.39,-0.17,-5.13,9.03,-7.25,-0.84,2.25,2.96,1009.33
14.987,-1.99,0.39,-0.17,-5.13,9.03,-7.25,-0.84,2.25,2.96,1009.35
15.023,-1.99,0.39,-0.17,-5.13,9.03,-7.25,0.14,0.17,-0.48,1009.35
15.025,-1.96,0.43,-0.03,-5.13,9.03,-7.25,0.14,0.17,-0.48,1009.35
15.025,-0.25,1.19,0.34,-5.13,9.03,-7.25,0.14,0.17,-0.48,1009.35
15.026,-0.25,1.19,0.34,-5.13,9.03,-7.25,0.14,0.17,-0.48,1009.35
15.034,-0.25,1.19,0.34,-22.95,-1.62,-3.83,0.14,0.17,-0.48,1009.35
15.066,1.14,1.79,-0.72,-22.95,-1.62,-3.83,0.14,0.17,-0.48,1009.35
15.067,-0.85,0.91,-0.67,-22.95,-1.62,-3.83,0.14,0.17,-0.48,1009.35
15.094,-0.85,0.91,-0.67,-22.95,-1.62,-3.83,0.33,-0.54,-3.00,1009.35
15.095,-1.69,0.83,0.89,-22.95,-1.62,-3.83,0.33,-0.54,-3.00,1009.35
15.106,-0.78,0.98,0.49,-22.95,-1.62,-3.83,0.33,-0.54,-3.00,1009.35
15.114,-0.78,0.98,0.49,-9.28,-0.87,-0.05,0.33,-0.54,-3.00,1009.35
15.115,-0.78,0.98,0.49,-9.28,-0.87,-0.05,0.33,-0.54,-3.00,1009.58
15.132,-0.58,0.94,-1.51,-9.28,-0.87,-0.05,0.33,-0.54,-3.00,1009.58
15.165,-0.58,0.94,-1.51,-9.28,-0.87,-0.05,0.37,-0.32,-0.63,1009.58
15.166,-0.43,0.97,0.61,-9.28,-0.87,-0.05,0.37,-0.32,-0.63,1009.58
15.178,-0.43,0.97,0.61,-5.82,0.64,0.85,0.37,-0.32,-0.63,1009.58
15.18,-0.27,1.02,-0.18,-5.82,0.64,0.85,0.37,-0.32,-0.63,1009.58
15.203,-0.32,1.00,-0.18,-5.82,0.64,0.85,0.37,-0.32,-0.63,1009.58
15.204,-0.32,1.00,-0.18,-5.82,0.64,0.85,0.37,-0.32,-0.63,1009.52
15.226,-0.32,1.00,-0.18,-5.82,0.64,0.85,0.37,-0.32,-0.63,1009.33
15.227,-0.30,0.96,0.16,-5.82,0.64,0.85,0.37,-0.32,-0.63,1009.33
15.228,-0.34,0.96,-0.00,-5.82,0.64,0.85,0.37,-0.32,-0.63,1009.33
15.234,-0.34,0.96,-0.00,-5.82,0.64,0.85,-0.10,-0.01,-0.27,1009.33
15.245,-0.34,0.96,-0.00,-1.59,0.56,-3.19,-0.10,-0.01,-0.27,1009.33
15.245,-0.30,0.98,-0.05,-1.59,0.56,-3.19,-0.10,-0.01,-0.27,1009.33
15.266,-0.28,0.98,-0.00,-1.59,0.56,-3.19,-0.10,-0.01,-0.27,1009.33
15.305,-0.27,0.95,0.03,-1.59,0.56,-3.19,-0.10,-0.01,-0.27,1009.33
15.306,-0.27,0.95,0.03,-1.59,0.56,-3.19,-0.11,0.11,-0.14,1009.33
15.307,-0.26,0.93,0.09,-1.59,0.56,-3.19,-0.11,0.11,-0.14,1009.33
15.307,-0.26,0.93,0.09,-1.59,0.56,-3.19,-0.11,0.11,-0.14,1009.13
15.313,-0.26,0.93,0.09,-0.47,0.46,0.52,-0.11,0.11,-0.14,1009.13
15.331,-0.29,0.91,0.07,-0.47,0.46,0.52,-0.11,0.11,-0.14,1009.13
15.376,-0.29,0.91,0.07,-0.47,0.46,0.52,-0.03,0.26,-0.14,1009.13
15.378,-0.28,0.93,0.08,-0.47,0.46,0.52,-0.03,0.26,-0.14,1009.13
15.378,-0.26,0.95,-0.01,-0.47,0.46,0.52,-0.03,0.26,-0.14,1009.13
15.383,-0.25,0.95,0.03,-0.47,0.46,0.52,-0.03,0.26,-0.14,1009.13
15.384,-0.25,0.95,0.03,0.05,0.26,0.64,-0.03,0.26,-0.14,1009.13
15.401,-0.25,0.95,0.03,0.05,0.26,0.64,-0.03,0.26,-0.14,1009.16
15.427,-0.25,0.95,0.03,0.05,0.26,0.64,-0.03,0.26,-0.14,1009.23
15.428,-0.26,0.94,0.02,0.05,0.26,0.64,-0.03,0.26,-0.14,1009.23
15.428,-0.27,0.94,0.03,0.05,0.26,0.64,-0.03,0.26,-0.14,1009.23
15.444,-0.27,0.94,0.03,0.05,0.26,0.64,-0.13,0.41,-0.24,1009.23
15.454,-0.27,0.94,0.03,0.18,0.19,0.60,-0.13,0.41,-0.24,1009.23
15.454,-0.23,0.97,0.09,0.18,0.19,0.60,-0.13,0.41,-0.24,1009.23
15.466,-0.23,0.98,0.09,0.18,0.19,0.60,-0.13,0.41,-0.24,1009.23
15.506,-0.22,1.04,-0.02,0.18,0.19,0.60,-0.13,0.41,-0.24,1009.23
15.507,-0.21,1.10,-0.09,0.18,0.19,0.60,-0.13,0.41,-0.24,1009.23
15.508,-0.21,1.10,-0.09,0.18,0.19,0.60,-0.13,0.41,-0.24,1009.36
15.513,-0.21,1.10,-0.09,0.18,0.19,0.60,-0.09,0.38,-0.57,1009.36
15.524,-0.18,1.14,-0.09,0.18,0.19,0.60,-0.09,0.38,-0.57,1009.36
15.525,-0.18,1.14,-0.09,0.55,0.41,0.79,-0.09,0.38,-0.57,1009.36
15.584,-0.18,1.14,-0.09,0.55,0.41,0.79,-0.56,0.32,-1.41,1009.36
15.585,-0.18,1.16,-0.04,0.55,0.41,0.79,-0.56,0.32,-1.41,1009.36
15.585,-0.17,1.20,-0.03,0.55,0.41,0.79,-0.56,0.32,-1.41,1009.36
15.586,-0.23,1.19,-0.12,0.55,0.41,0.79,-0.56,0.32,-1.41,1009.36
15.586,-0.23,1.19,-0.12,0.55,0.41,0.79,-0.56,0.32,-1.41,1009.41
15.594,-0.23,1.19,-0.12,1.35,1.74,-0.26,-0.56,0.32,-1.41,1009.41
15.624,-0.23,1.23,-0.27,1.35,1.74,-0.26,-0.56,0.32,-1.41,1009.41
15.626,-0.22,1.26,-0.29,1.35,1.74,-0.26,-0.56,0.32,-1.41,1009.41
15.627,-0.22,1.26,-0.29,1.35,1.74,-0.26,-0.56,0.32,-1.41,1009.49
15.654,-0.22,1.26,-0.29,1.35,1.74,-0.26,-1.50,0.19,-2.59,1009.49
15.655,-0.12,1.40,-0.23,1.35,1.74,-0.26,-1.50,0.19,-2.59,1009.49
15.663,0.12,1.62,-0.13,1.35,1.74,-0.26,-1.50,0.19,-2.59,1009.49
15.664,0.12,1.62,-0.13,2.45,3.30,-1.03,-1.50,0.19,-2.59,1009.49
15.707,0.12,1.62,-0.13,2.45,3.30,-1.03,-1.50,0.19,-2.59,1009.40
15.708,0.28,1.67,-0.34,2.45,3.30,-1.03,-1.50,0.19,-2.59,1009.40
15.708,0.22,1.57,-0.31,2.45,3.30,-1.03,-1.50,0.19,-2.59,1009.40
15.724,0.22,1.57,-0.31,2.45,3.30,-1.03,-2.82,0.29,-5.12,1009.40
15.732,-0.26,1.41,0.40,2.45,3.30,-1.03,-2.82,0.29,-5.12,1009.40
15.735,-0.26,1.41,0.40,5.07,6.43,-3.28,-2.82,0.29,-5.12,1009.40
15.786,-0.26,1.41,0.40,5.07,6.43,-3.28,-2.82,0.29,-5.12,1008.88
15.787,-0.54,1.47,0.55,5.07,6.43,-3.28,-2.82,0.29,-5.12,1008.88
15.788,-1.08,1.15,0.01,5.07,6.43,-3.28,-2.82,0.29,-5.12,1008.88
15.788,-1.25,-0.29,0.81,5.07,6.43,-3.28,-2.82,0.29,-5.12,1008.88
15.795,-1.25,-0.29,0.81,5.07,6.43,-3.28,-2.03,1.29,-3.59,1008.88
15.805,-0.02,0.60,0.64,5.07,6.43,-3.28,-2.03,1.29,-3.59,1008.88
15.806,-0.02,0.60,0.64,8.23,10.73,-1.73,-2.03,1.29,-3.59,1008.88
15.827,0.78,0.95,-0.44,8.23,10.73,-1.73,-2.03,1.29,-3.59,1008.88
15.828,0.78,0.95,-0.44,8.23,10.73,-1.73,-2.03,1.29,-3.59,1009.17
15.865,0.78,0.95,-0.44,8.23,10.73,-1.73,-0.73,1.77,2.60,1009.17
15.866,0.04,0.53,-0.42,8.23,10.73,-1.73,-0.73,1.77,2.60,1009.17
15.866,-0.23,0.30,-0.01,8.23,10.73,-1.73,-0.73,1.77,2.60,1009.17
15.876,-0.23,0.30,-0.01,1.36,2.95,3.50,-0.73,1.77,2.60,1009.17
15.907,-0.11,0.39,-0.06,1.36,2.95,3.50,-0.73,1.77,2.60,1009.17
15.908,0.06,0.62,-0.29,1.36,2.95,3.50,-0.73,1.77,2.60,1009.17
15.908,0.06,0.62,-0.29,1.36,2.95,3.50,-0.73,1.77,2.60,1009.27
15.932,0.01,0.73,-0.31,1.36,2.95,3.50,-0.73,1.77,2.60,1009.27
15.934,0.01,0.73,-0.31,1.36,2.95,3.50,-0.38,1.37,5.20,1009.27
15.944,0.01,0.73,-0.31,9.08,0.23,-3.03,-0.38,1.37,5.20,1009.27
15.945,-0.00,0.86,-0.45,9.08,0.23,-3.03,-0.38,1.37,5.20,1009.27
15.986,-0.00,0.86,-0.45,9.08,0.23,-3.03,-0.38,1.37,5.20,1009.31
15.987,-0.04,1.03,-0.63,9.08,0.23,-3.03,-0.38,1.37,5.20,1009.31
15.987,-0.14,1.14,-0.55,9.08,0.23,-3.03,-0.38,1.37,5.20,1009.31
16.005,-0.14,1.14,-0.55,9.08,0.23,-3.03,-0.06,1.60,5.46,1009.31
16.015,-0.14,1.14,-0.55,5.25,-0.92,-3.11,-0.06,1.60,5.46,1009.31
16.016,-0.10,1.37,-0.57,5.25,-0.92,-3.11,-0.06,1.60,5.46,1009.31
16.026,-0.09,1.70,-0.79,5.25,-0.92,-3.11,-0.06,1.60,5.46,1009.31
16.028,-0.09,1.70,-0.79,5.25,-0.92,-3.11,-0.06,1.60,5.46,1009.32
16.066,-0.44,1.86,-0.64,5.25,-0.92,-3.11,-0.06,1.60,5.46,1009.32
16.067,-0.81,1.97,-0.66,5.25,-0.92,-3.11,-0.06,1.60,5.46,1009.32
16.077,-0.81,1.97,-0.66,5.25,-0.92,-3.11,-0.34,2.20,4.14,1009.32
16.084,-1.55,1.83,-0.96,5.25,-0.92,-3.11,-0.34,2.20,4.14,1009.32
16.084,-1.55,1.83,-0.96,1.05,3.09,-5.47,-0.34,2.20,4.14,1009.32
16.105,-2.55,0.92,0.15,1.05,3.09,-5.47,-0.34,2.20,4.14,1009.32
16.107,-2.55,0.92,0.15,1.05,3.09,-5.47,-0.34,2.20,4.14,1009.27
16.132,-2.55,0.64,-0.20,1.05,3.09,-5.47,-0.34,2.20,4.14,1009.27
16.144,-2.55,0.64,-0.20,1.05,3.09,-5.47,-0.27,0.87,3.37,1009.27
16.154,-2.82,0.46,-0.27,1.05,3.09,-5.47,-0.27,0.87,3.37,1009.27
16.155,-2.82,0.46,-0.27,-8.41,8.93,-7.16,-0.27,0.87,3.37,1009.27
16.186,-2.82,0.46,-0.27,-8.41,8.93,-7.16,-0.27,0.87,3.37,1009.32
16.186,-2.25,0.49,-0.15,-8.41,8.93,-7.16,-0.27,0.87,3.37,1009.32
16.187,-0.29,1.63,-0.15,-8.41,8.93,-7.16,-0.27,0.87,3.37,1009.32
16.215,-0.29,1.63,-0.15,-8.41,8.93,-7.16,0.11,-1.77,-2.55,1009.32
16.216,0.35,0.93,0.44,-8.41,8.93,-7.16,0.11,-1.77,-2.55,1009.32
16.224,0.02,1.01,-0.66,-8.41,8.93,-7.16,0.11,-1.77,-2.55,1009.32
16.225,0.02,1.01,-0.66,-27.17,-2.98,-0.67,0.11,-1.77,-2.55,1009.32
16.226,0.02,1.01,-0.66,-27.17,-2.98,-0.67,0.11,-1.77,-2.55,1009.79
16.266,-1.63,0.91,-0.15,-27.17,-2.98,-0.67,0.11,-1.77,-2.55,1009.79
16.267,-0.70,0.96,0.45,-27.17,-2.98,-0.67,0.11,-1.77,-2.55,1009.79
16.284,-0.70,0.96,0.45,-27.17,-2.98,-0.67,-0.26,-0.60,-2.60,1009.79
16.295,-0.70,0.96,0.45,-1.63,1.57,-0.79,-0.26,-0.60,-2.60,1009.79
16.296,-0.68,0.90,-0.29,-1.63,1.57,-0.79,-0.26,-0.60,-2.60,1009.79
16.309,-0.68,0.95,0.13,-1.63,1.57,-0.79,-0.26,-0.60,-2.60,1009.79
16.309,-0.68,0.95,0.13,-1.63,1.57,-0.79,-0.26,-0.60,-2.60,1009.59
16.333,-0.54,1.01,-0.07,-1.63,1.57,-0.79,-0.26,-0.60,-2.60,1009.59
16.354,-0.54,1.01,-0.07,-1.63,1.57,-0.79,-0.28,-0.19,-0.67,1009.59
16.355,-0.44,0.97,-0.07,-1.63,1.57,-0.79,-0.28,-0.19,-0.67,1009.59
16.365,-0.28,0.97,0.16,-1.63,1.57,-0.79,-0.28,-0.19,-0.67,1009.59
16.365,-0.28,0.97,0.16,-7.53,-0.03,0.26,-0.28,-0.19,-0.67,1009.59
16.387,-0.31,0.99,0.01,-7.53,-0.03,0.26,-0.28,-0.19,-0.67,1009.59
16.388,-0.31,0.99,0.01,-7.53,-0.03,0.26,-0.28,-0.19,-0.67,1009.41
16.425,-0.31,0.99,0.01,-7.53,-0.03,0.26,-0.17,0.10,-0.25,1009.41
16.427,-0.30,0.98,0.05,-7.53,-0.03,0.26,-0.17,0.10,-0.25,1009.41
16.427,-0.33,0.95,0.06,-7.53,-0.03,0.26,-0.17,0.10,-0.25,1009.41
16.428,-0.33,0.95,0.06,-7.53,-0.03,0.26,-0.17,0.10,-0.25,1009.19
16.434,-0.33,0.95,0.06,-1.54,0.58,0.47,-0.17,0.10,-0.25,1009.19
16.465,-0.31,0.93,0.06,-1.54,0.58,0.47,-0.17,0.10,-0.25,1009.19
16.467,-0.29,0.93,0.10,-1.54,0.58,0.47,-0.17,0.10,-0.25,1009.19
16.495,-0.29,0.93,0.10,-1.54,0.58,0.47,-0.04,0.24,-0.10,1009.19
16.496,-0.25,0.93,0.10,-1.54,0.58,0.47,-0.04,0.24,-0.10,1009.19
16.505,-0.26,0.92,0.12,-1.54,0.58,0.47,-0.04,0.24,-0.10,1009.19
16.506,-0.26,0.92,0.12,-0.39,0.48,0.36,-0.04,0.24,-0.10,1009.19
16.507,-0.26,0.92,0.12,-0.39,0.48,0.36,-0.04,0.24,-0.10,1009.12
16.532,-0.27,0.93,0.06,-0.39,0.48,0.36,-0.04,0.24,-0.10,1009.12
16.564,-0.27,0.93,0.06,-0.39,0.48,0.36,0.08,0.44,-0.15,1009.12
16.565,-0.25,0.95,0.02,-0.39,0.48,0.36,0.08,0.44,-0.15,1009.12
16.58,-0.25,0.95,0.04,-0.39,0.48,0.36,0.08,0.44,-0.15,1009.12
16.581,-0.25,0.95,0.04,0.10,0.11,1.04,0.08,0.44,-0.15,1009.12
16.587,-0.25,0.94,0.04,0.10,0.11,1.04,0.08,0.44,-0.15,1009.12
16.588,-0.25,0.94,0.04,0.10,0.11,1.04,0.08,0.44,-0.15,1009.20
16.627,-0.25,0.94,0.04,0.10,0.11,1.04,0.08,0.44,-0.15,1009.27
16.628,-0.24,0.95,0.02,0.10,0.11,1.04,0.08,0.44,-0.15,1009.27
16.628,-0.28,0.97,-0.06,0.10,0.11,1.04,0.08,0.44,-0.15,1009.27
16.635,-0.28,0.97,-0.06,0.10,0.11,1.04,0.04,0.43,-0.30,1009.27
16.645,-0.28,0.97,-0.06,0.35,0.26,0.55,0.04,0.43,-0.30,1009.27
16.646,-0.24,1.00,-0.03,0.35,0.26,0.55,0.04,0.43,-0.30,1009.27
16.666,-0.24,1.03,-0.01,0.35,0.26,0.55,0.04,0.43,-0.30,1009.27
16.705,-0.24,1.03,-0.01,0.35,0.26,0.55,-0.04,0.24,-0.76,1009.27
16.706,-0.16,1.10,0.02,0.35,0.26,0.55,-0.04,0.24,-0.76,1009.27
16.707,-0.13,1.17,-0.02,0.35,0.26,0.55,-0.04,0.24,-0.76,1009.27
16.707,-0.13,1.17,-0.02,0.35,0.26,0.55,-0.04,0.24,-0.76,1009.36
16.716,-0.13,1.17,-0.02,0.58,0.61,0.11,-0.04,0.24,-0.76,1009.36
16.732,-0.14,1.22,-0.07,0.58,0.61,0.11,-0.04,0.24,-0.76,1009.36
16.779,-0.14,1.22,-0.07,0.58,0.61,0.11,-0.45,0.07,-1.86,1009.36
16.78,-0.25,1.24,-0.24,0.58,0.61,0.11,-0.45,0.07,-1.86,1009.36
16.781,-0.23,1.31,-0.31,0.58,0.61,0.11,-0.45,0.07,-1.86,1009.36
16.785,-0.15,1.40,-0.21,0.58,0.61,0.11,-0.45,0.07,-1.86,1009.36
16.786,-0.15,1.40,-0.21,2.02,2.27,0.16,-0.45,0.07,-1.86,1009.36
16.787,-0.15,1.40,-0.21,2.02,2.27,0.16,-0.45,0.07,-1.86,1009.42
16.827,-0.15,1.40,-0.21,2.02,2.27,0.16,-0.45,0.07,-1.86,1009.29
16.828,0.00,1.52,-0.13,2.02,2.27,0.16,-0.45,0.07,-1.86,1009.29
16.828,0.25,1.66,-0.09,2.02,2.27,0.16,-0.45,0.07,-1.86,1009.29
16.845,0.25,1.66,-0.09,2.02,2.27,0.16,-1.18,-0.01,-3.76,1009.29
16.857,0.40,1.74,-0.02,2.02,2.27,0.16,-1.18,-0.01,-3.76,1009.29
16.858,0.40,1.74,-0.02,2.95,4.70,-2.39,-1.18,-0.01,-3.76,1009.29
16.866,0.31,1.68,0.19,2.95,4.70,-2.39,-1.18,-0.01,-3.76,1009.29
16.906,-0.20,1.44,0.31,2.95,4.70,-2.39,-1.18,-0.01,-3.76,1009.29
16.907,-0.45,1.33,0.84,2.95,4.70,-2.39,-1.18,-0.01,-3.76,1009.29
16.907,-0.45,1.33,0.84,2.95,4.70,-2.39,-1.18,-0.01,-3.76,1009.00
16.915,-0.45,1.33,0.84,2.95,4.70,-2.39,-1.15,0.65,-6.51,1009.00
16.924,-0.45,1.33,0.84,9.46,9.91,-1.03,-1.15,0.65,-6.51,1009.00
16.925,-0.35,0.76,0.45,9.46,9.91,-1.03,-1.15,0.65,-6.51,1009.00
16.984,-0.35,0.76,0.45,9.46,9.91,-1.03,-0.43,1.45,-0.44,1009.00
16.985,-1.97,0.38,-0.10,9.46,9.91,-1.03,-0.43,1.45,-0.44,1009.00
16.986,0.13,0.76,0.16,9.46,9.91,-1.03,-0.43,1.45,-0.44,1009.00
16.987,0.64,0.82,-0.13,9.46,9.91,-1.03,-0.43,1.45,-0.44,1009.00
16.987,0.64,0.82,-0.13,9.46,9.91,-1.03,-0.43,1.45,-0.44,1009.19
17.001,0.64,0.82,-0.13,6.51,9.48,4.13,-0.43,1.45,-0.44,1009.19
17.027,0.64,0.82,-0.13,6.51,9.48,4.13,-0.43,1.45,-0.44,1009.15
17.028,0.12,0.50,-0.28,6.51,9.48,4.13,-0.43,1.45,-0.44,1009.15
17.028,-0.26,0.29,0.12,6.51,9.48,4.13,-0.43,1.45,-0.44,1009.15
17.055,-0.26,0.29,0.12,6.51,9.48,4.13,-0.13,0.53,4.20,1009.15
17.057,0.05,0.42,0.18,6.51,9.48,4.13,-0.13,0.53,4.20,1009.15
17.064,0.33,0.73,-0.05,6.51,9.48,4.13,-0.13,0.53,4.20,1009.15
17.065,0.33,0.73,-0.05,5.53,2.44,-0.56,-0.13,0.53,4.20,1009.15
17.107,0.26,0.88,-0.03,5.53,2.44,-0.56,-0.13,0.53,4.20,1009.15
17.108,-0.01,1.01,-0.17,5.53,2.44,-0.56,-0.13,0.53,4.20,1009.15
17.109,-0.01,1.01,-0.17,5.53,2.44,-0.56,-0.13,0.53,4.20,1009.24
17.124,-0.01,1.01,-0.17,5.53,2.44,-0.56,-0.11,1.58,5.40,1009.24
17.132,-0.37,1.10,-0.35,5.53,2.44,-0.56,-0.11,1.58,5.40,1009.24
17.134,-0.37,1.10,-0.35,6.82,-1.82,1.02,-0.11,1.58,5.40,1009.24
17.186,-0.37,1.10,-0.35,6.82,-1.82,1.02,-0.11,1.58,5.40,1009.36
17.187,-0.53,1.12,-0.39,6.82,-1.82,1.02,-0.11,1.58,5.40,1009.36
17.188,-0.48,1.32,-0.55,6.82,-1.82,1.02,-0.11,1.58,5.40,1009.36
17.188,-0.38,1.53,-0.54,6.82,-1.82,1.02,-0.11,1.58,5.40,1009.36
17.2,-0.38,1.53,-0.54,6.82,-1.82,1.02,-0.01,-0.50,4.94,1009.36
17.205,-0.38,1.53,-0.54,2.48,1.47,-1.01,-0.01,-0.50,4.94,1009.36
17.206,-0.50,1.67,-0.41,2.48,1.47,-1.01,-0.01,-0.50,4.94,1009.36
17.226,-0.81,1.79,-0.48,2.48,1.47,-1.01,-0.01,-0.50,4.94,1009.36
17.227,-0.81,1.79,-0.48,2.48,1.47,-1.01,-0.01,-0.50,4.94,1009.16
17.266,-0.81,1.79,-0.48,2.48,1.47,-1.01,0.08,-1.18,3.63,1009.16
17.267,-1.45,1.60,-0.07,2.48,1.47,-1.01,0.08,-1.18,3.63,1009.16
17.268,-2.18,1.07,0.63,2.48,1.47,-1.01,0.08,-1.18,3.63,1009.16
17.28,-2.18,1.07,0.63,-3.69,5.02,-3.84,0.08,-1.18,3.63,1009.16
17.306,-2.70,0.66,0.28,-3.69,5.02,-3.84,0.08,-1.18,3.63,1009.16
17.307,-2.60,0.54,0.13,-3.69,5.02,-3.84,0.08,-1.18,3.63,1009.16
17.307,-2.60,0.54,0.13,-3.69,5.02,-3.84,0.08,-1.18,3.63,1009.22
17.333,-2.12,0.25,0.44,-3.69,5.02,-3.84,0.08,-1.18,3.63,1009.22
17.336,-2.12,0.25,0.44,-3.69,5.02,-3.84,-0.24,-0.93,1.01,1009.22
17.344,-2.34,0.52,0.34,-3.69,5.02,-3.84,-0.24,-0.93,1.01,1009.22
17.345,-2.34,0.52,0.34,-17.00,4.23,1.85,-0.24,-0.93,1.01,1009.22
17.387,-2.34,0.52,0.34,-17.00,4.23,1.85,-0.24,-0.93,1.01,1009.45
17.389,1.77,2.05,-0.59,-17.00,4.23,1.85,-0.24,-0.93,1.01,1009.45
17.389,0.21,1.16,-0.51,-17.00,4.23,1.85,-0.24,-0.93,1.01,1009.45
17.404,0.21,1.16,-0.51,-17.00,4.23,1.85,-0.33,-1.74,-3.65,1009.45
17.418,0.21,1.16,-0.51,-23.72,-4.72,3.62,-0.33,-1.74,-3.65,1009.45
17.419,-2.11,0.77,0.01,-23.72,-4.72,3.62,-0.33,-1.74,-3.65,1009.45
17.425,-0.90,0.83,0.91,-23.72,-4.72,3.62,-0.33,-1.74,-3.65,1009.45
17.426,-0.90,0.83,0.91,-23.72,-4.72,3.62,-0.33,-1.74,-3.65,1009.47
17.466,-0.68,0.96,-0.55,-23.72,-4.72,3.62,-0.33,-1.74,-3.65,1009.47
17.467,-0.68,0.93,0.14,-23.72,-4.72,3.62,-0.33,-1.74,-3.65,1009.47
17.48,-0.68,0.93,0.14,-23.72,-4.72,3.62,-0.02,-0.57,-1.29,1009.47
17.487,-0.49,1.03,-0.28,-23.72,-4.72,3.62,-0.02,-0.57,-1.29,1009.47
17.487,-0.49,1.03,-0.28,0.44,3.26,-1.07,-0.02,-0.57,-1.29,1009.47
17.506,-0.45,0.96,0.05,0.44,3.26,-1.07,-0.02,-0.57,-1.29,1009.47
17.506,-0.45,0.96,0.05,0.44,3.26,-1.07,-0.02,-0.57,-1.29,1009.54
17.533,-0.29,0.98,0.04,0.44,3.26,-1.07,-0.02,-0.57,-1.29,1009.54
17.545,-0.29,0.98,0.04,0.44,3.26,-1.07,-0.18,0.03,-0.36,1009.54
17.556,-0.29,0.98,0.04,-3.36,0.51,-0.27,-0.18,0.03,-0.36,1009.54
17.557,-0.30,0.97,0.04,-3.36,0.51,-0.27,-0.18,0.03,-0.36,1009.54
17.586,-0.30,0.97,0.04,-3.36,0.51,-0.27,-0.18,0.03,-0.36,1009.29
17.587,-0.33,0.96,0.03,-3.36,0.51,-0.27,-0.18,0.03,-0.36,1009.29
17.587,-0.36,0.92,0.02,-3.36,0.51,-0.27,-0.18,0.03,-0.36,1009.29
17.616,-0.36,0.92,0.02,-3.36,0.51,-0.27,0.01,0.20,-0.22,1009.29
17.617,-0.30,0.93,0.04,-3.36,0.51,-0.27,0.01,0.20,-0.22,1009.29
17.626,-0.30,0.94,0.02,-3.36,0.51,-0.27,0.01,0.20,-0.22,1009.29
17.627,-0.30,0.94,0.02,-0.30,0.68,0.83,0.01,0.20,-0.22,1009.29
17.627,-0.30,0.94,0.02,-0.30,0.68,0.83,0.01,0.20,-0.22,1009.18
17.667,-0.29,0.92,0.06,-0.30,0.68,0.83,0.01,0.20,-0.22,1009.18
17.668,-0.28,0.91,0.05,-0.30,0.68,0.83,0.01,0.20,-0.22,1009.18
17.685,-0.28,0.91,0.05,-0.30,0.68,0.83,0.15,0.43,-0.22,1009.18
17.702,-0.28,0.91,0.05,-0.01,0.32,0.75,0.15,0.43,-0.22,1009.18
17.702,-0.31,0.92,-0.00,-0.01,0.32,0.75,0.15,0.43,-0.22,1009.18
17.706,-0.27,0.94,-0.01,-0.01,0.32,0.75,0.15,0.43,-0.22,1009.18
17.707,-0.27,0.94,-0.01,-0.01,0.32,0.75,0.15,0.43,-0.22,1009.19
17.733,-0.30,0.93,-0.05,-0.01,0.32,0.75,0.15,0.43,-0.22,1009.19
17.756,-0.30,0.93,-0.05,-0.01,0.32,0.75,0.14,0.50,-0.35,1009.19
17.757,-0.29,0.96,-0.10,-0.01,0.32,0.75,0.14,0.50,-0.35,1009.19
17.766,-0.29,0.96,-0.10,0.44,0.27,0.98,0.14,0.50,-0.35,1009.19
17.766,-0.27,0.98,-0.09,0.44,0.27,0.98,0.14,0.50,-0.35,1009.19
17.787,-0.26,1.04,-0.12,0.44,0.27,0.98,0.14,0.50,-0.35,1009.19
17.787,-0.26,1.04,-0.12,0.44,0.27,0.98,0.14,0.50,-0.35,1009.28
17.825,-0.26,1.04,-0.12,0.44,0.27,0.98,-0.03,0.26,-0.82,1009.28
17.827,-0.23,1.09,-0.13,0.44,0.27,0.98,-0.03,0.26,-0.82,1009.28
17.827,-0.25,1.12,-0.14,0.44,0.27,0.98,-0.03,0.26,-0.82,1009.28
17.828,-0.25,1.12,-0.14,0.44,0.27,0.98,-0.03,0.26,-0.82,1009.39
17.835,-0.25,1.12,-0.14,0.73,0.73,0.18,-0.03,0.26,-0.82,1009.39
17.867,-0.21,1.18,-0.14,0.73,0.73,0.18,-0.03,0.26,-0.82,1009.39
17.867,-0.26,1.20,-0.23,0.73,0.73,0.18,-0.03,0.26,-0.82,1009.39
17.896,-0.26,1.20,-0.23,0.73,0.73,0.18,-0.32,-0.05,-1.80,1009.39
17.896,-0.29,1.26,-0.31,0.73,0.73,0.18,-0.32,-0.05,-1.80,1009.39
17.906,-0.29,1.26,-0.31,1.74,2.32,-0.41,-0.32,-0.05,-1.80,1009.39
17.906,-0.14,1.40,-0.14,1.74,2.32,-0.41,-0.32,-0.05,-1.80,1009.39
17.907,-0.14,1.40,-0.14,1.74,2.32,-0.41,-0.32,-0.05,-1.80,1009.39
17.926,0.04,1.55,-0.07,1.74,2.32,-0.41,-0.32,-0.05,-1.80,1009.39
17.966,0.32,1.78,-0.03,1.74,2.32,-0.41,-0.32,-0.05,-1.80,1009.39
17.967,0.32,1.78,-0.03,1.74,2.32,-0.41,-0.80,0.08,-3.88,1009.39
17.975,0.59,1.85,0.04,1.74,2.32,-0.41,-0.80,0.08,-3.88,1009.39
17.976,0.59,1.85,0.04,3.10,4.68,-1.49,-0.80,0.08,-3.88,1009.39
17.986,0.38,1.71,-0.06,3.10,4.68,-1.49,-0.80,0.08,-3.88,1009.39
17.987,0.38,1.71,-0.06,3.10,4.68,-1.49,-0.80,0.08,-3.88,1009.22
18.026,0.38,1.71,-0.06,3.10,4.68,-1.49,-0.80,0.08,-3.88,1009.01
18.028,-0.45,1.42,0.34,3.10,4.68,-1.49,-0.80,0.08,-3.88,1009.01
18.028,-0.67,1.27,1.00,3.10,4.68,-1.49,-0.80,0.08,-3.88,1009.01
18.035,-0.67,1.27,1.00,3.10,4.68,-1.49,-0.71,0.79,-6.76,1009.01
18.045,-1.31,0.19,0.09,3.10,4.68,-1.49,-0.71,0.79,-6.76,1009.01
18.046,-1.31,0.19,0.09,10.88,11.20,-0.03,-0.71,0.79,-6.76,1009.01
18.066,-1.46,1.14,-0.39,10.88,11.20,-0.03,-0.71,0.79,-6.76,1009.01
18.106,-1.46,1.14,-0.39,10.88,11.20,-0.03,0.00,-0.04,0.32,1009.01
18.107,0.92,0.95,0.19,10.88,11.20,-0.03,0.00,-0.04,0.32,1009.01
18.108,0.20,0.64,-0.17,10.88,11.20,-0.03,0.00,-0.04,0.32,1009.01
18.108,0.20,0.64,-0.17,10.88,11.20,-0.03,0.00,-0.04,0.32,1009.25
18.116,0.20,0.64,-0.17,2.44,7.76,4.47,0.00,-0.04,0.32,1009.25
18.133,0.01,0.43,0.04,2.44,7.76,4.47,0.00,-0.04,0.32,1009.25
18.176,0.01,0.43,0.04,2.44,7.76,4.47,-0.24,0.39,4.26,1009.25
18.177,0.01,0.38,0.22,2.44,7.76,4.47,-0.24,0.39,4.26,1009.25
18.177,0.27,0.60,0.01,2.44,7.76,4.47,-0.24,0.39,4.26,1009.25
18.185,0.04,0.71,-0.06,2.44,7.76,4.47,-0.24,0.39,4.26,1009.25
18.186,0.04,0.71,-0.06,7.63,4.49,-0.82,-0.24,0.39,4.26,1009.25
18.187,0.04,0.71,-0.06,7.63,4.49,-0.82,-0.24,0.39,4.26,1009.14
18.226,0.04,0.71,-0.06,7.63,4.49,-0.82,-0.24,0.39,4.26,1009.24
18.227,-0.20,0.75,-0.06,7.63,4.49,-0.82,-0.24,0.39,4.26,1009.24
18.228,-0.27,0.90,-0.27,7.63,4.49,-0.82,-0.24,0.39,4.26,1009.24
18.245,-0.27,0.90,-0.27,7.63,4.49,-0.82,-0.08,0.72,5.42,1009.24
18.255,-0.27,0.90,-0.27,7.33,-1.19,1.35,-0.08,0.72,5.42,1009.24
18.256,-0.36,0.99,-0.33,7.33,-1.19,1.35,-0.08,0.72,5.42,1009.24
18.267,-0.43,1.10,-0.37,7.33,-1.19,1.35,-0.08,0.72,5.42,1009.24
18.306,-0.43,1.10,-0.37,7.33,-1.19,1.35,-0.08,0.72,5.42,1009.28
18.306,-0.38,1.29,-0.39,7.33,-1.19,1.35,-0.08,0.72,5.42,1009.28
18.307,-0.33,1.47,-0.35,7.33,-1.19,1.35,-0.08,0.72,5.42,1009.28
18.316,-0.33,1.47,-0.35,7.33,-1.19,1.35,0.22,-0.95,5.16,1009.28
18.326,-0.51,1.72,-0.53,7.33,-1.19,1.35,0.22,-0.95,5.16,1009.28
18.326,-0.51,1.72,-0.53,0.69,0.44,-1.53,0.22,-0.95,5.16,1009.28
18.386,-0.51,1.72,-0.53,0.69,0.44,-1.53,0.70,-0.79,4.58,1009.28
18.387,-1.38,1.60,-0.30,0.69,0.44,-1.53,0.70,-0.79,4.58,1009.28
18.387,-1.60,1.32,0.32,0.69,0.44,-1.53,0.70,-0.79,4.58,1009.28
18.387,-1.60,1.32,0.32,0.69,0.44,-1.53,0.70,-0.79,4.58,1009.20
18.388,-1.33,1.32,0.50,0.69,0.44,-1.53,0.70,-0.79,4.58,1009.20
18.409,-1.33,1.32,0.50,-3.30,4.93,-3.26,0.70,-0.79,4.58,1009.20
18.41,-2.10,1.25,-0.21,-3.30,4.93,-3.26,0.70,-0.79,4.58,1009.20
18.428,-2.10,1.25,-0.21,-3.30,4.93,-3.26,0.70,-0.79,4.58,1009.31
18.429,-2.85,0.57,0.07,-3.30,4.93,-3.26,0.70,-0.79,4.58,1009.31
18.455,-2.85,0.57,0.07,-3.30,4.93,-3.26,-0.40,-0.41,0.25,1009.31
18.456,-1.87,0.51,0.24,-3.30,4.93,-3.26,-0.40,-0.41,0.25,1009.31
18.466,-1.87,0.51,0.24,-16.13,4.68,2.63,-0.40,-0.41,0.25,1009.31
18.467,-0.48,1.19,0.23,-16.13,4.68,2.63,-0.40,-0.41,0.25,1009.31
18.511,-0.48,1.19,0.23,-16.13,4.68,2.63,-0.40,-0.41,0.25,1009.64
18.512,0.90,1.19,-0.06,-16.13,4.68,2.63,-0.40,-0.41,0.25,1009.64
18.513,-1.79,0.88,-0.14,-16.13,4.68,2.63,-0.40,-0.41,0.25,1009.64
18.526,-1.79,0.88,-0.14,-16.13,4.68,2.63,-0.62,-1.20,-4.26,1009.64
18.532,-1.59,0.93,0.48,-16.13,4.68,2.63,-0.62,-1.20,-4.26,1009.64
18.536,-1.59,0.93,0.48,-17.94,-1.26,1.94,-0.62,-1.20,-4.26,1009.64
18.586,-1.59,0.93,0.48,-17.94,-1.26,1.94,-0.62,-1.20,-4.26,1009.61
18.587,-0.73,0.93,-0.08,-17.94,-1.26,1.94,-0.62,-1.20,-4.26,1009.61
18.588,-0.73,0.89,-0.26,-17.94,-1.26,1.94,-0.62,-1.20,-4.26,1009.61
18.588,-0.58,0.95,0.28,-17.94,-1.26,1.94,-0.62,-1.20,-4.26,1009.61
18.606,-0.58,0.95,0.28,-17.94,-1.26,1.94,-0.33,-0.46,-1.06,1009.61
18.608,-0.58,0.95,0.28,-5.74,0.73,1.43,-0.33,-0.46,-1.06,1009.61
18.608,-0.36,1.00,-0.07,-5.74,0.73,1.43,-0.33,-0.46,-1.06,1009.61
18.626,-0.42,0.94,0.08,-5.74,0.73,1.43,-0.33,-0.46,-1.06,1009.61
18.627,-0.42,0.94,0.08,-5.74,0.73,1.43,-0.33,-0.46,-1.06,1009.42
18.666,-0.42,0.94,0.08,-5.74,0.73,1.43,-0.22,0.01,-0.31,1009.42
18.667,-0.34,0.98,0.01,-5.74,0.73,1.43,-0.22,0.01,-0.31,1009.42
18.667,-0.26,1.00,0.01,-5.74,0.73,1.43,-0.22,0.01,-0.31,1009.42
18.676,-0.26,1.00,0.01,-2.78,0.28,-0.22,-0.22,0.01,-0.31,1009.42
18.706,-0.26,1.00,0.01,-2.78,0.28,-0.22,-0.22,0.01,-0.31,1009.23
18.707,-0.32,0.96,0.05,-2.78,0.28,-0.22,-0.22,0.01,-0.31,1009.23
18.708,-0.33,0.93,0.05,-2.78,0.28,-0.22,-0.22,0.01,-0.31,1009.23
18.733,-0.30,0.93,0.10,-2.78,0.28,-0.22,-0.22,0.01,-0.31,1009.23
18.736,-0.30,0.93,0.10,-2.78,0.28,-0.22,-0.13,0.19,-0.18,1009.23
18.745,-0.28,0.93,0.08,-2.78,0.28,-0.22,-0.13,0.19,-0.18,1009.23
18.747,-0.28,0.93,0.08,-0.32,0.68,0.52,-0.13,0.19,-0.18,1009.23
18.786,-0.28,0.93,0.08,-0.32,0.68,0.52,-0.13,0.19,-0.18,1009.11
18.788,-0.28,0.92,0.10,-0.32,0.68,0.52,-0.13,0.19,-0.18,1009.11
18.788,-0.29,0.91,0.07,-0.32,0.68,0.52,-0.13,0.19,-0.18,1009.11
18.813,-0.29,0.91,0.07,-0.32,0.68,0.52,0.04,0.38,-0.15,1009.11
18.816,-0.29,0.91,0.07,0.01,0.26,0.83,0.04,0.38,-0.15,1009.11
18.816,-0.27,0.92,0.05,0.01,0.26,0.83,0.04,0.38,-0.15,1009.11
18.826,-0.30,0.92,0.03,0.01,0.26,0.83,0.04,0.38,-0.15,1009.11
18.827,-0.30,0.92,0.03,0.01,0.26,0.83,0.04,0.38,-0.15,1009.18
18.866,-0.26,0.93,0.07,0.01,0.26,0.83,0.04,0.38,-0.15,1009.18
18.867,-0.25,0.94,0.03,0.01,0.26,0.83,0.04,0.38,-0.15,1009.18
18.876,-0.25,0.94,0.03,0.01,0.26,0.83,0.09,0.45,-0.25,1009.18
18.885,-0.25,0.96,-0.01,0.01,0.26,0.83,0.09,0.45,-0.25,1009.18
18.886,-0.25,0.96,-0.01,0.37,0.19,0.91,0.09,0.45,-0.25,1009.18
18.906,-0.24,1.00,-0.02,0.37,0.19,0.91,0.09,0.45,-0.25,1009.18
18.907,-0.24,1.00,-0.02,0.37,0.19,0.91,0.09,0.45,-0.25,1009.31
18.933,-0.23,1.05,0.00,0.37,0.19,0.91,0.09,0.45,-0.25,1009.31
18.946,-0.23,1.05,0.00,0.37,0.19,0.91,0.08,0.35,-0.63,1009.31
18.957,-0.17,1.14,-0.08,0.37,0.19,0.91,0.08,0.35,-0.63,1009.31
18.957,-0.17,1.14,-0.08,0.78,0.48,0.71,0.08,0.35,-0.63,1009.31
18.986,-0.17,1.14,-0.08,0.78,0.48,0.71,0.08,0.35,-0.63,1009.39
18.987,-0.19,1.20,-0.14,0.78,0.48,0.71,0.08,0.35,-0.63,1009.39
18.987,-0.15,1.26,-0.22,0.78,0.48,0.71,0.08,0.35,-0.63,1009.39
19.016,-0.15,1.26,-0.22,0.78,0.48,0.71,-0.34,0.12,-1.67,1009.39
19.017,-0.23,1.31,-0.32,0.78,0.48,0.71,-0.34,0.12,-1.67,1009.39
19.025,-0.14,1.39,-0.19,0.78,0.48,0.71,-0.34,0.12,-1.67,1009.39
19.026,-0.14,1.39,-0.19,1.71,2.02,0.03,-0.34,0.12,-1.67,1009.39
19.026,-0.14,1.39,-0.19,1.71,2.02,0.03,-0.34,0.12,-1.67,1009.41
19.066,-0.02,1.49,-0.18,1.71,2.02,0.03,-0.34,0.12,-1.67,1009.41
19.067,0.16,1.62,-0.07,1.71,2.02,0.03,-0.34,0.12,-1.67,1009.41
19.087,0.16,1.62,-0.07,1.71,2.02,0.03,-0.99,-0.02,-3.60,1009.41
19.112,0.39,1.76,-0.06,1.71,2.02,0.03,-0.99,-0.02,-3.60,1009.41
19.113,0.39,1.76,-0.06,3.21,4.79,-2.04,-0.99,-0.02,-3.60,1009.41
19.113,0.48,1.74,0.09,3.21,4.79,-2.04,-0.99,-0.02,-3.60,1009.41
19.114,0.48,1.74,0.09,3.21,4.79,-2.04,-0.99,-0.02,-3.60,1009.31
19.132,0.22,1.72,0.01,3.21,4.79,-2.04,-0.99,-0.02,-3.60,1009.31
19.156,0.22,1.72,0.01,3.21,4.79,-2.04,-1.52,0.70,-6.68,1009.31
19.157,-0.46,1.26,0.42,3.21,4.79,-2.04,-1.52,0.70,-6.68,1009.31
19.165,-0.46,1.40,1.09,3.21,4.79,-2.04,-1.52,0.70,-6.68,1009.31
19.167,-0.46,1.40,1.09,9.19,9.82,-1.02,-1.52,0.70,-6.68,1009.31
19.186,-0.54,-0.01,0.20,9.19,9.82,-1.02,-1.52,0.70,-6.68,1009.31
19.187,-0.54,-0.01,0.20,9.19,9.82,-1.02,-1.52,0.70,-6.68,1009.06
19.227,-0.54,-0.01,0.20,9.19,9.82,-1.02,0.12,0.75,-1.91,1009.06
19.228,-3.01,0.60,0.18,9.19,9.82,-1.02,0.12,0.75,-1.91,1009.06
19.228,-3.01,0.60,0.18,9.19,9.82,-1.02,0.12,0.75,-1.91,1009.32
19.228,0.76,0.83,-0.19,9.19,9.82,-1.02,0.12,0.75,-1.91,1009.32
19.236,0.76,0.83,-0.19,7.73,12.30,4.10,0.12,0.75,-1.91,1009.32
19.266,0.70,0.81,-0.25,7.73,12.30,4.10,0.12,0.75,-1.91,1009.32
19.303,0.70,0.81,-0.25,7.73,12.30,4.10,0.00,-0.28,3.50,1009.32
19.304,0.15,0.45,-0.17,7.73,12.30,4.10,0.00,-0.28,3.50,1009.32
19.305,-0.38,0.18,0.27,7.73,12.30,4.10,0.00,-0.28,3.50,1009.32
19.306,0.15,0.39,0.22,7.73,12.30,4.10,0.00,-0.28,3.50,1009.32
19.306,0.15,0.39,0.22,7.73,12.30,4.10,0.00,-0.28,3.50,1009.16
19.307,0.15,0.39,0.22,2.09,2.37,0.35,0.00,-0.28,3.50,1009.16
19.333,0.35,0.69,-0.07,2.09,2.37,0.35,0.00,-0.28,3.50,1009.16
19.366,0.35,0.69,-0.07,2.09,2.37,0.35,0.16,1.05,5.65,1009.16
19.367,0.16,0.80,-0.06,2.09,2.37,0.35,0.16,1.05,5.65,1009.16
19.376,-0.10,0.89,-0.07,2.09,2.37,0.35,0.16,1.05,5.65,1009.16
19.377,-0.10,0.89,-0.07,8.08,-1.65,0.52,0.16,1.05,5.65,1009.16
19.387,-0.30,1.06,-0.27,8.08,-1.65,0.52,0.16,1.05,5.65,1009.16
19.388,-0.30,1.06,-0.27,8.08,-1.65,0.52,0.16,1.05,5.65,1009.22
19.427,-0.30,1.06,-0.27,8.08,-1.65,0.52,0.16,1.05,5.65,1009.29
19.427,-0.41,1.19,-0.34,8.08,-1.65,0.52,0.16,1.05,5.65,1009.29
19.427,-0.41,1.46,-0.53,8.08,-1.65,0.52,0.16,1.05,5.65,1009.29
19.437,-0.41,1.46,-0.53,8.08,-1.65,0.52,0.02,0.86,5.61,1009.29
19.446,-0.43,1.87,-0.68,8.08,-1.65,0.52,0.02,0.86,5.61,1009.29
19.447,-0.43,1.87,-0.68,5.38,0.22,-0.24,0.02,0.86,5.61,1009.29
19.506,-0.43,1.87,-0.68,5.38,0.22,-0.24,0.13,-1.09,4.15,1009.29
19.507,-0.43,1.87,-0.68,5.38,0.22,-0.24,0.13,-1.09,4.15,1009.18
19.508,-0.90,2.00,-0.69,5.38,0.22,-0.24,0.13,-1.09,4.15,1009.18
19.508,-1.59,1.77,-0.09,5.38,0.22,-0.24,0.13,-1.09,4.15,1009.18
19.509,-2.75,0.75,1.23,5.38,0.22,-0.24,0.13,-1.09,4.15,1009.18
19.516,-2.75,0.75,1.23,-2.50,5.12,-3.96,0.13,-1.09,4.15,1009.18
19.527,-2.57,0.63,0.37,-2.50,5.12,-3.96,0.13,-1.09,4.15,1009.18
19.577,-2.57,0.63,0.37,-2.50,5.12,-3.96,0.22,-1.43,1.76,1009.18
19.578,-2.52,0.94,-0.53,-2.50,5.12,-3.96,0.22,-1.43,1.76,1009.18
19.579,-1.88,0.60,0.29,-2.50,5.12,-3.96,0.22,-1.43,1.76,1009.18
19.593,-0.18,1.36,0.46,-2.50,5.12,-3.96,0.22,-1.43,1.76,1009.18
19.595,-0.18,1.36,0.46,-2.50,5.12,-3.96,0.22,-1.43,1.76,1009.41
19.595,-0.18,1.36,0.46,-19.41,4.09,3.65,0.22,-1.43,1.76,1009.41
19.636,-0.18,1.36,0.46,-19.41,4.09,3.65,0.22,-1.43,1.76,1009.87
19.637,-0.53,1.04,-0.06,-19.41,4.09,3.65,0.22,-1.43,1.76,1009.87
19.638,-0.56,1.07,-0.55,-19.41,4.09,3.65,0.22,-1.43,1.76,1009.87
19.646,-0.56,1.07,-0.55,-19.41,4.09,3.65,-0.37,-1.60,-4.16,1009.87
19.656,-0.56,1.07,-0.55,-15.70,0.10,1.44,-0.37,-1.60,-4.16,1009.87
19.658,-1.96,0.86,0.20,-15.70,0.10,1.44,-0.37,-1.60,-4.16,1009.87
19.706,-1.96,0.86,0.20,-15.70,0.10,1.44,-0.37,-1.60,-4.16,1009.51
19.707,-0.49,0.93,0.21,-15.70,0.10,1.44,-0.37,-1.60,-4.16,1009.51
19.707,-0.81,0.90,-0.20,-15.70,0.10,1.44,-0.37,-1.60,-4.16,1009.51
19.708,-0.53,0.96,0.30,-15.70,0.10,1.44,-0.37,-1.60,-4.16,1009.51
19.716,-0.53,0.96,0.30,-15.70,0.10,1.44,-0.20,-0.50,-1.25,1009.51
19.727,-0.53,0.96,0.30,-6.57,0.79,0.14,-0.20,-0.50,-1.25,1009.51
19.728,-0.48,0.99,-0.23,-6.57,0.79,0.14,-0.20,-0.50,-1.25,1009.51
19.786,-0.48,0.99,-0.23,-6.57,0.79,0.14,-0.15,0.06,-0.40,1009.51
19.787,-0.49,0.93,0.06,-6.57,0.79,0.14,-0.15,0.06,-0.40,1009.51
19.788,-0.32,0.98,0.05,-6.57,0.79,0.14,-0.15,0.06,-0.40,1009.51
19.788,-0.32,0.98,0.05,-6.57,0.79,0.14,-0.15,0.06,-0.40,1009.40
19.788,-0.33,0.98,-0.04,-6.57,0.79,0.14,-0.15,0.06,-0.40,1009.40
19.796,-0.33,0.98,-0.04,-2.72,0.42,0.13,-0.15,0.06,-0.40,1009.40
19.827,-0.33,0.98,-0.04,-2.72,0.42,0.13,-0.15,0.06,-0.40,1009.17
19.828,-0.40,0.92,0.02,-2.72,0.42,0.13,-0.15,0.06,-0.40,1009.17
19.829,-0.36,0.92,0.01,-2.72,0.42,0.13,-0.15,0.06,-0.40,1009.17
19.858,-0.36,0.92,0.01,-2.72,0.42,0.13,-0.02,0.21,-0.18,1009.17
19.859,-0.30,0.92,0.06,-2.72,0.42,0.13,-0.02,0.21,-0.18,1009.17
19.866,-0.32,0.91,0.05,-2.72,0.42,0.13,-0.02,0.21,-0.18,1009.17
19.867,-0.32,0.91,0.05,-0.40,0.67,0.69,-0.02,0.21,-0.18,1009.17
19.906,-0.32,0.91,0.05,-0.40,0.67,0.69,-0.02,0.21,-0.18,1009.18
19.907,-0.28,0.92,0.06,-0.40,0.67,0.69,-0.02,0.21,-0.18,1009.18
19.908,-0.28,0.92,0.03,-0.40,0.67,0.69,-0.02,0.21,-0.18,1009.18
19.926,-0.28,0.92,0.03,-0.40,0.67,0.69,0.16,0.40,-0.20,1009.18
19.932,-0.32,0.91,-0.01,-0.40,0.67,0.69,0.16,0.40,-0.20,1009.18
19.936,-0.32,0.91,-0.01,0.09,0.27,0.88,0.16,0.40,-0.20,1009.18
19.989,-0.32,0.91,-0.01,0.09,0.27,0.88,0.16,0.40,-0.20,1009.24
19.99,-0.32,0.92,-0.04,0.09,0.27,0.88,0.16,0.40,-0.20,1009.24
19.991,-0.32,0.92,-0.05,0.09,0.27,0.88,0.16,0.40,-0.20,1009.24
19.991,-0.34,0.92,-0.09,0.09,0.27,0.88,0.16,0.40,-0.20,1009.24
19.995,-0.34,0.92,-0.09,0.09,0.27,0.88,0.14,0.39,-0.29,1009.24
20.014,-0.34,0.92,-0.09,0.62,0.37,0.89,0.14,0.39,-0.29,1009.24
20.014,-0.33,0.94,-0.06,0.62,0.37,0.89,0.14,0.39,-0.29,1009.24
20.027,-0.26,1.01,-0.05,0.62,0.37,0.89,0.14,0.39,-0.29,1009.24
20.028,-0.26,1.01,-0.05,0.62,0.37,0.89,0.14,0.39,-0.29,1009.29
20.066,-0.23,1.08,-0.11,0.62,0.37,0.89,0.14,0.39,-0.29,1009.29
20.068,-0.19,1.15,-0.13,0.62,0.37,0.89,0.14,0.39,-0.29,1009.29
20.069,-0.19,1.15,-0.13,0.62,0.37,0.89,-0.00,0.32,-0.63,1009.29
20.076,-0.19,1.15,-0.13,0.52,0.52,0.23,-0.00,0.32,-0.63,1009.29
20.106,-0.19,1.15,-0.13,0.52,0.52,0.23,-0.00,0.32,-0.63,1009.40
20.107,-0.19,1.21,-0.17,0.52,0.52,0.23,-0.00,0.32,-0.63,1009.40
20.108,-0.24,1.23,-0.26,0.52,0.52,0.23,-0.00,0.32,-0.63,1009.40
20.132,-0.27,1.28,-0.21,0.52,0.52,0.23,-0.00,0.32,-0.63,1009.40
20.136,-0.27,1.28,-0.21,0.52,0.52,0.23,-0.35,0.09,-1.71,1009.40
20.147,-0.10,1.42,-0.12,0.52,0.52,0.23,-0.35,0.09,-1.71,1009.40
