time,gFx,gFy,gFz,ax,ay,az,wx,wy,wz,P
0.025,-0.02,0.98,0.11,0.02,0.00,-0.10,0.01,0.01,-0.01,1009.37
0.025,-0.02,0.98,0.11,0.02,0.00,-0.10,0.01,0.01,-0.01,1009.37
0.026,-0.02,0.98,0.11,0.02,0.00,-0.10,0.00,-0.00,-0.01,1009.37
0.035,-0.03,0.97,0.11,0.02,0.00,-0.10,0.00,-0.00,-0.01,1009.37
0.036,-0.03,0.97,0.11,0.02,0.00,-0.10,0.00,-0.00,-0.01,1009.30
0.044,-0.03,0.97,0.11,0.05,0.01,0.08,0.00,-0.00,-0.01,1009.30
0.094,-0.03,0.97,0.11,0.05,0.01,0.08,0.01,-0.00,-0.01,1009.30
0.095,-0.02,0.98,0.10,0.05,0.01,0.08,0.01,-0.00,-0.01,1009.30
0.095,-0.02,0.98,0.10,0.05,0.01,0.08,0.01,-0.00,-0.01,1009.30
0.102,-0.03,0.98,0.10,0.05,0.01,0.08,0.01,-0.00,-0.01,1009.30
0.114,-0.03,0.98,0.10,0.05,0.01,0.08,0.01,-0.00,-0.01,1009.30
0.115,-0.03,0.98,0.10,0.04,-0.01,0.01,0.01,-0.00,-0.01,1009.30
0.115,-0.03,0.98,0.10,0.04,-0.01,0.01,0.01,-0.00,-0.01,1009.31
0.156,-0.03,0.98,0.10,0.04,-0.01,0.01,0.01,-0.00,-0.01,1009.33
0.157,-0.02,0.98,0.10,0.04,-0.01,0.01,0.01,-0.00,-0.01,1009.33
0.157,-0.02,0.98,0.10,0.04,-0.01,0.01,0.01,-0.00,-0.01,1009.33
0.164,-0.02,0.98,0.10,0.04,-0.01,0.01,0.01,-0.00,-0.01,1009.33
0.184,-0.02,0.98,0.10,0.02,0.00,-0.02,0.01,-0.00,-0.01,1009.33
0.185,-0.03,0.98,0.10,0.02,0.00,-0.02,0.01,-0.00,-0.01,1009.33
0.236,-0.03,0.98,0.10,0.02,0.00,-0.02,0.00,0.00,-0.01,1009.33
0.236,-0.03,0.98,0.10,0.02,0.00,-0.02,0.00,0.00,-0.01,1009.33
0.237,-0.03,0.97,0.10,0.02,0.00,-0.02,0.00,0.00,-0.01,1009.33
0.237,-0.03,0.98,0.10,0.02,0.00,-0.02,0.00,0.00,-0.01,1009.33
0.237,-0.03,0.98,0.10,0.02,0.00,-0.02,0.00,0.00,-0.01,1009.28
0.255,-0.03,0.98,0.10,0.03,0.01,-0.02,0.00,0.00,-0.01,1009.28
0.256,-0.02,0.98,0.10,0.03,0.01,-0.02,0.00,0.00,-0.01,1009.28
0.301,-0.03,0.97,0.11,0.03,0.01,-0.02,0.00,0.00,-0.01,1009.28
0.301,-0.03,0.98,0.10,0.03,0.01,-0.02,0.00,0.00,-0.01,1009.28
0.304,-0.03,0.98,0.10,0.03,0.01,-0.02,0.00,0.00,-0.01,1009.28
0.315,-0.03,0.98,0.10,0.03,0.01,-0.02,0.00,0.00,-0.01,1009.28
0.316,-0.03,0.98,0.10,0.03,0.01,-0.02,0.00,0.00,-0.01,1009.31
0.325,-0.03,0.98,0.10,0.04,-0.00,-0.03,0.00,0.00,-0.01,1009.31
0.356,-0.03,0.98,0.10,0.04,-0.00,-0.03,0.00,0.00,-0.01,1009.29
0.357,-0.03,0.98,0.10,0.04,-0.00,-0.03,0.00,0.00,-0.01,1009.29
0.357,-0.03,0.98,0.11,0.04,-0.00,-0.03,0.00,0.00,-0.01,1009.29
0.375,-0.03,0.98,0.11,0.04,-0.00,-0.03,0.00,0.00,-0.00,1009.29
0.395,-0.03,0.98,0.11,0.02,0.00,-0.01,0.00,0.00,-0.00,1009.29
0.396,-0.02,0.98,0.10,0.02,0.00,-0.01,0.00,0.00,-0.00,1009.29
0.396,-0.02,0.98,0.10,0.02,0.00,-0.01,0.00,0.00,-0.00,1009.29
0.435,-0.02,0.98,0.10,0.02,0.00,-0.01,0.00,0.00,-0.00,1009.29
0.436,-0.02,0.97,0.11,0.02,0.00,-0.01,0.00,0.00,-0.00,1009.29
0.436,-0.02,0.97,0.11,0.02,0.00,-0.01,0.00,0.00,-0.00,1009.29
0.443,-0.02,0.97,0.11,0.02,0.00,-0.01,0.01,0.00,-0.01,1009.29
0.465,-0.02,0.97,0.11,0.05,0.00,0.00,0.01,0.00,-0.01,1009.29
0.465,-0.03,0.98,0.10,0.05,0.00,0.00,0.01,0.00,-0.01,1009.29
0.501,-0.03,0.98,0.10,0.05,0.00,0.00,0.01,0.00,-0.01,1009.29
0.501,-0.03,0.97,0.09,0.05,0.00,0.00,0.01,0.00,-0.01,1009.29
0.514,-0.03,0.97,0.09,0.05,0.00,0.00,0.01,0.01,0.00,1009.29
0.515,-0.02,0.99,0.09,0.05,0.00,0.00,0.01,0.01,0.00,1009.29
0.515,-0.02,0.99,0.09,0.05,0.00,0.00,0.01,0.01,0.00,1009.32
0.534,-0.02,0.99,0.09,0.03,-0.00,-0.00,0.01,0.01,0.00,1009.32
0.535,-0.02,0.98,0.09,0.03,-0.00,-0.00,0.01,0.01,0.00,1009.32
0.556,-0.02,0.97,0.12,0.03,-0.00,-0.00,0.01,0.01,0.00,1009.32
0.557,-0.02,0.97,0.12,0.03,-0.00,-0.00,0.01,0.01,0.00,1009.30
0.584,-0.02,0.97,0.12,0.03,-0.00,-0.00,0.00,0.02,-0.00,1009.30
0.586,-0.03,0.97,0.12,0.03,-0.00,-0.00,0.00,0.02,-0.00,1009.30
0.604,-0.03,0.97,0.12,0.02,0.04,-0.09,0.00,0.02,-0.00,1009.30
0.606,-0.03,0.97,0.12,0.02,0.04,-0.09,0.00,0.02,-0.00,1009.30
0.635,-0.01,0.98,0.11,0.02,0.04,-0.09,0.00,0.02,-0.00,1009.30
0.636,-0.02,0.98,0.11,0.02,0.04,-0.09,0.00,0.02,-0.00,1009.30
0.637,-0.02,0.98,0.11,0.02,0.04,-0.09,0.00,0.02,-0.00,1009.30
0.654,-0.02,0.98,0.11,0.02,0.04,-0.09,0.08,-0.00,0.00,1009.30
0.674,-0.02,0.98,0.10,0.02,0.04,-0.09,0.08,-0.00,0.00,1009.30
0.675,-0.02,0.98,0.09,0.02,0.04,-0.09,0.08,-0.00,0.00,1009.30
0.676,-0.02,0.98,0.09,-0.01,-0.08,0.23,0.08,-0.00,0.00,1009.30
0.701,-0.04,0.97,0.09,-0.01,-0.08,0.23,0.08,-0.00,0.00,1009.30
0.715,-0.02,0.98,0.08,-0.01,-0.08,0.23,0.08,-0.00,0.00,1009.30
0.716,-0.02,0.98,0.08,-0.01,-0.08,0.23,0.08,-0.00,0.00,1009.32
0.724,-0.02,0.98,0.08,-0.01,-0.08,0.23,0.12,-0.03,0.00,1009.32
0.744,-0.02,0.98,0.08,0.07,-0.01,0.14,0.12,-0.03,0.00,1009.32
0.746,-0.03,0.97,0.10,0.07,-0.01,0.14,0.12,-0.03,0.00,1009.32
0.755,-0.03,0.97,0.09,0.07,-0.01,0.14,0.12,-0.03,0.00,1009.32
0.755,-0.03,0.97,0.09,0.07,-0.01,0.14,0.12,-0.03,0.00,1009.34
0.794,-0.03,0.97,0.09,0.07,-0.01,0.14,0.10,0.01,0.02,1009.34
0.795,-0.03,0.99,0.04,0.07,-0.01,0.14,0.10,0.01,0.02,1009.34
0.814,-0.03,0.99,0.04,-0.01,-0.05,0.06,0.10,0.01,0.02,1009.34
0.816,-0.03,0.99,0.05,-0.01,-0.05,0.06,0.10,0.01,0.02,1009.34
0.816,-0.04,0.98,0.06,-0.01,-0.05,0.06,0.10,0.01,0.02,1009.34
0.835,-0.04,0.97,0.08,-0.01,-0.05,0.06,0.10,0.01,0.02,1009.34
0.836,-0.04,0.97,0.08,-0.01,-0.05,0.06,0.10,0.01,0.02,1009.38
0.864,-0.04,0.97,0.08,-0.01,-0.05,0.06,-0.01,0.08,0.07,1009.38
0.866,-0.04,0.98,0.05,-0.01,-0.05,0.06,-0.01,0.08,0.07,1009.38
0.884,-0.03,0.99,0.06,-0.01,-0.05,0.06,-0.01,0.08,0.07,1009.38
0.885,-0.03,0.99,0.06,-0.12,0.05,-0.28,-0.01,0.08,0.07,1009.38
0.9,-0.00,0.98,0.08,-0.12,0.05,-0.28,-0.01,0.08,0.07,1009.38
0.915,-0.01,0.98,0.08,-0.12,0.05,-0.28,-0.01,0.08,0.07,1009.38
0.917,-0.01,0.98,0.08,-0.12,0.05,-0.28,-0.01,0.08,0.07,1009.38
0.934,-0.01,0.98,0.08,-0.12,0.05,-0.28,-0.05,0.08,0.10,1009.38
0.955,-0.01,0.98,0.08,-0.14,0.01,-0.18,-0.05,0.08,0.10,1009.38
0.957,-0.00,0.97,0.11,-0.14,0.01,-0.18,-0.05,0.08,0.10,1009.38
0.957,0.01,0.96,0.12,-0.14,0.01,-0.18,-0.05,0.08,0.10,1009.38
0.958,0.01,0.96,0.12,-0.14,0.01,-0.18,-0.05,0.08,0.10,1009.38
1.005,0.01,0.96,0.12,-0.14,0.01,-0.18,0.06,-0.00,0.03,1009.38
1.006,0.02,0.98,0.09,-0.14,0.01,-0.18,0.06,-0.00,0.03,1009.38
1.007,-0.01,0.98,0.10,-0.14,0.01,-0.18,0.06,-0.00,0.03,1009.38
1.025,-0.01,0.98,0.10,0.15,-0.08,0.18,0.06,-0.00,0.03,1009.38
1.026,0.01,0.97,0.09,0.15,-0.08,0.18,0.06,-0.00,0.03,1009.38
1.035,0.02,0.96,0.15,0.15,-0.08,0.18,0.06,-0.00,0.03,1009.38
1.036,0.02,0.96,0.15,0.15,-0.08,0.18,0.06,-0.00,0.03,1009.45
1.075,0.02,0.96,0.15,0.15,-0.08,0.18,0.20,-0.09,-0.07,1009.45
1.076,0.03,0.96,0.10,0.15,-0.08,0.18,0.20,-0.09,-0.07,1009.45
1.094,0.03,0.96,0.10,0.22,-0.04,0.31,0.20,-0.09,-0.07,1009.45
1.096,0.01,0.97,0.03,0.22,-0.04,0.31,0.20,-0.09,-0.07,1009.45
1.096,-0.05,1.00,0.04,0.22,-0.04,0.31,0.20,-0.09,-0.07,1009.45
1.115,-0.03,1.00,0.03,0.22,-0.04,0.31,0.20,-0.09,-0.07,1009.45
1.116,-0.03,1.00,0.03,0.22,-0.04,0.31,0.20,-0.09,-0.07,1009.55
1.144,-0.03,1.00,0.03,0.22,-0.04,0.31,0.15,-0.09,-0.06,1009.55
1.145,-0.06,0.98,-0.01,0.22,-0.04,0.31,0.15,-0.09,-0.06,1009.55
1.155,0.00,1.01,0.02,0.22,-0.04,0.31,0.15,-0.09,-0.06,1009.55
1.155,0.00,1.01,0.02,0.22,-0.04,0.31,0.15,-0.09,-0.06,1009.57
1.164,0.00,1.01,0.02,0.20,-0.04,0.11,0.15,-0.09,-0.06,1009.57
1.214,0.00,1.01,0.02,0.20,-0.04,0.11,0.09,-0.06,-0.05,1009.57
1.216,-0.02,1.01,0.05,0.20,-0.04,0.11,0.09,-0.06,-0.05,1009.57
1.216,0.01,0.99,0.07,0.20,-0.04,0.11,0.09,-0.06,-0.05,1009.57
1.235,0.01,0.99,0.07,-0.04,0.18,-0.30,0.09,-0.06,-0.05,1009.57
1.237,0.01,0.99,0.07,-0.04,0.18,-0.30,0.09,-0.06,-0.05,1009.50
1.238,0.02,0.98,0.08,-0.04,0.18,-0.30,0.09,-0.06,-0.05,1009.50
1.238,-0.02,0.99,0.03,-0.04,0.18,-0.30,0.09,-0.06,-0.05,1009.50
1.284,-0.02,0.99,0.03,-0.04,0.18,-0.30,0.10,-0.05,-0.13,1009.50
1.286,-0.01,1.01,0.02,-0.04,0.18,-0.30,0.10,-0.05,-0.13,1009.50
1.286,0.01,1.01,-0.00,-0.04,0.18,-0.30,0.10,-0.05,-0.13,1009.50
1.3,-0.01,1.00,0.02,-0.04,0.18,-0.30,0.10,-0.05,-0.13,1009.50
1.304,-0.01,1.00,0.02,0.30,0.08,0.10,0.10,-0.05,-0.13,1009.50
1.315,-0.03,0.98,0.05,0.30,0.08,0.10,0.10,-0.05,-0.13,1009.50
1.316,-0.03,0.98,0.05,0.30,0.08,0.10,0.10,-0.05,-0.13,1009.45
1.355,-0.03,0.98,0.05,0.30,0.08,0.10,0.06,-0.02,-0.18,1009.45
1.356,-0.05,0.96,0.07,0.30,0.08,0.10,0.06,-0.02,-0.18,1009.45
1.356,-0.05,0.96,0.07,0.30,0.08,0.10,0.06,-0.02,-0.18,1009.27
1.357,-0.03,0.98,0.06,0.30,0.08,0.10,0.06,-0.02,-0.18,1009.27
1.374,-0.06,0.98,0.02,0.30,0.08,0.10,0.06,-0.02,-0.18,1009.27
1.375,-0.06,0.98,0.02,0.28,0.19,-0.27,0.06,-0.02,-0.18,1009.27
1.425,-0.06,0.98,0.02,0.28,0.19,-0.27,0.08,0.05,-0.16,1009.27
1.427,-0.02,0.99,0.03,0.28,0.19,-0.27,0.08,0.05,-0.16,1009.27
1.427,-0.04,0.99,0.02,0.28,0.19,-0.27,0.08,0.05,-0.16,1009.27
1.434,-0.02,0.98,0.08,0.28,0.19,-0.27,0.08,0.05,-0.16,1009.27
1.435,-0.02,0.98,0.08,0.28,0.19,-0.27,0.08,0.05,-0.16,1009.27
1.445,-0.02,0.98,0.08,0.06,-0.07,0.17,0.08,0.05,-0.16,1009.27
1.494,-0.02,0.98,0.08,0.06,-0.07,0.17,0.16,0.11,-0.24,1009.27
1.496,-0.05,0.96,0.07,0.06,-0.07,0.17,0.16,0.11,-0.24,1009.27
1.496,-0.02,0.98,0.08,0.06,-0.07,0.17,0.16,0.11,-0.24,1009.27
1.5,-0.01,1.01,0.00,0.06,-0.07,0.17,0.16,0.11,-0.24,1009.27
1.515,0.02,1.02,0.05,0.06,-0.07,0.17,0.16,0.11,-0.24,1009.27
1.516,0.02,1.02,0.05,0.06,-0.07,0.17,0.16,0.11,-0.24,1009.24
1.517,0.02,1.02,0.05,0.34,-0.00,0.17,0.16,0.11,-0.24,1009.24
1.555,0.03,1.05,0.02,0.34,-0.00,0.17,0.16,0.11,-0.24,1009.24
1.557,-0.03,1.04,-0.01,0.34,-0.00,0.17,0.16,0.11,-0.24,1009.24
1.557,-0.03,1.04,-0.01,0.34,-0.00,0.17,0.16,0.11,-0.24,1009.26
1.564,-0.03,1.04,-0.01,0.34,-0.00,0.17,0.21,0.18,-0.55,1009.26
1.585,-0.03,1.04,-0.01,0.90,0.17,0.33,0.21,0.18,-0.55,1009.26
1.586,0.02,1.09,-0.03,0.90,0.17,0.33,0.21,0.18,-0.55,1009.26
1.636,0.02,1.09,-0.03,0.90,0.17,0.33,-0.11,0.09,-1.18,1009.26
1.638,0.02,1.09,-0.03,0.90,0.17,0.33,-0.11,0.09,-1.18,1009.24
1.638,0.07,1.19,-0.17,0.90,0.17,0.33,-0.11,0.09,-1.18,1009.24
1.639,0.00,1.18,-0.15,0.90,0.17,0.33,-0.11,0.09,-1.18,1009.24
1.64,0.01,1.17,-0.07,0.90,0.17,0.33,-0.11,0.09,-1.18,1009.24
1.655,-0.04,1.15,-0.06,0.90,0.17,0.33,-0.11,0.09,-1.18,1009.24
1.656,-0.04,1.15,-0.06,2.02,1.10,-0.56,-0.11,0.09,-1.18,1009.24
1.701,-0.07,1.16,-0.09,2.02,1.10,-0.56,-0.11,0.09,-1.18,1009.24
1.702,-0.00,1.27,-0.13,2.02,1.10,-0.56,-0.11,0.09,-1.18,1009.24
1.704,-0.00,1.27,-0.13,2.02,1.10,-0.56,-0.55,0.06,-1.95,1009.24
1.715,0.20,1.50,-0.14,2.02,1.10,-0.56,-0.55,0.06,-1.95,1009.24
1.716,0.20,1.50,-0.14,2.02,1.10,-0.56,-0.55,0.06,-1.95,1009.35
1.724,0.20,1.50,-0.14,3.36,2.36,-1.76,-0.55,0.06,-1.95,1009.35
1.755,0.20,1.50,-0.14,3.36,2.36,-1.76,-0.55,0.06,-1.95,1009.39
1.757,0.40,1.64,-0.12,3.36,2.36,-1.76,-0.55,0.06,-1.95,1009.39
1.757,0.57,1.68,-0.16,3.36,2.36,-1.76,-0.55,0.06,-1.95,1009.39
1.775,0.57,1.68,-0.16,3.36,2.36,-1.76,-1.31,0.29,-3.94,1009.39
1.795,0.57,1.68,-0.16,6.79,5.77,-2.57,-1.31,0.29,-3.94,1009.39
1.797,0.50,1.63,-0.09,6.79,5.77,-2.57,-1.31,0.29,-3.94,1009.39
1.798,0.36,1.65,-0.07,6.79,5.77,-2.57,-1.31,0.29,-3.94,1009.39
1.834,-0.15,1.74,0.31,6.79,5.77,-2.57,-1.31,0.29,-3.94,1009.39
1.835,-0.35,1.57,0.30,6.79,5.77,-2.57,-1.31,0.29,-3.94,1009.39
1.836,-0.35,1.57,0.30,6.79,5.77,-2.57,-1.31,0.29,-3.94,1008.78
1.844,-0.35,1.57,0.30,6.79,5.77,-2.57,-1.35,0.58,-5.83,1008.78
1.866,-0.90,-0.37,0.23,6.79,5.77,-2.57,-1.35,0.58,-5.83,1008.78
1.867,-0.90,-0.37,0.23,12.34,10.67,-2.56,-1.35,0.58,-5.83,1008.78
1.902,0.07,0.57,0.36,12.34,10.67,-2.56,-1.35,0.58,-5.83,1008.78
1.903,1.16,0.74,-0.27,12.34,10.67,-2.56,-1.35,0.58,-5.83,1008.78
1.915,1.16,0.74,-0.27,12.34,10.67,-2.56,-0.28,1.04,1.04,1008.78
1.917,0.48,0.48,-0.15,12.34,10.67,-2.56,-0.28,1.04,1.04,1008.78
1.918,0.48,0.48,-0.15,12.34,10.67,-2.56,-0.28,1.04,1.04,1008.75
1.935,0.48,0.48,-0.15,2.16,2.54,1.92,-0.28,1.04,1.04,1008.75
1.937,0.22,0.37,0.02,2.16,2.54,1.92,-0.28,1.04,1.04,1008.75
1.955,0.15,0.47,-0.11,2.16,2.54,1.92,-0.28,1.04,1.04,1008.75
1.957,0.15,0.47,-0.11,2.16,2.54,1.92,-0.28,1.04,1.04,1009.02
1.987,0.34,0.62,-0.11,2.16,2.54,1.92,-0.28,1.04,1.04,1009.02
1.988,0.34,0.62,-0.11,2.16,2.54,1.92,0.55,1.07,3.64,1009.02
2.005,0.34,0.62,-0.11,10.80,-3.12,-0.71,0.55,1.07,3.64,1009.02
2.007,0.27,0.77,-0.12,10.80,-3.12,-0.71,0.55,1.07,3.64,1009.02
2.034,0.08,0.90,-0.18,10.80,-3.12,-0.71,0.55,1.07,3.64,1009.02
2.036,0.07,1.00,-0.15,10.80,-3.12,-0.71,0.55,1.07,3.64,1009.02
2.037,0.07,1.00,-0.15,10.80,-3.12,-0.71,0.55,1.07,3.64,1009.27
2.055,0.07,1.00,-0.15,10.80,-3.12,-0.71,0.86,0.28,4.96,1009.27
2.075,0.07,1.00,-0.15,3.52,-2.85,-0.79,0.86,0.28,4.96,1009.27
2.076,0.06,1.12,-0.13,3.52,-2.85,-0.79,0.86,0.28,4.96,1009.27
2.077,0.08,1.32,-0.15,3.52,-2.85,-0.79,0.86,0.28,4.96,1009.27
2.101,0.14,1.55,-0.16,3.52,-2.85,-0.79,0.86,0.28,4.96,1009.27
2.115,0.14,1.79,-0.13,3.52,-2.85,-0.79,0.86,0.28,4.96,1009.27
2.116,0.14,1.79,-0.13,3.52,-2.85,-0.79,0.86,0.28,4.96,1009.28
2.124,0.14,1.79,-0.13,3.52,-2.85,-0.79,0.44,-0.45,4.99,1009.28
2.145,0.14,1.79,-0.13,-1.09,1.71,-0.85,0.44,-0.45,4.99,1009.28
2.146,-0.02,1.98,-0.12,-1.09,1.71,-0.85,0.44,-0.45,4.99,1009.28
2.155,-0.27,2.16,-0.23,-1.09,1.71,-0.85,0.44,-0.45,4.99,1009.28
2.156,-0.27,2.16,-0.23,-1.09,1.71,-0.85,0.44,-0.45,4.99,1009.19
2.195,-0.27,2.16,-0.23,-1.09,1.71,-0.85,-0.08,0.52,3.63,1009.19
2.197,-0.97,1.98,0.08,-1.09,1.71,-0.85,-0.08,0.52,3.63,1009.19
2.215,-1.97,1.45,0.35,-1.09,1.71,-0.85,-0.08,0.52,3.63,1009.19
2.217,-3.06,1.20,0.21,-1.09,1.71,-0.85,-0.08,0.52,3.63,1009.19
2.218,-3.06,1.20,0.21,-3.32,9.15,-1.10,-0.08,0.52,3.63,1009.19
2.235,-2.44,1.33,-0.16,-3.32,9.15,-1.10,-0.08,0.52,3.63,1009.19
2.237,-2.44,1.33,-0.16,-3.32,9.15,-1.10,-0.08,0.52,3.63,1009.35
2.265,-2.44,1.33,-0.16,-3.32,9.15,-1.10,-0.64,-0.28,-0.13,1009.35
2.267,-2.62,0.90,0.00,-3.32,9.15,-1.10,-0.64,-0.28,-0.13,1009.35
2.286,-2.62,0.90,0.00,-19.34,6.67,1.55,-0.64,-0.28,-0.13,1009.35
2.287,-0.23,3.01,0.31,-19.34,6.67,1.55,-0.64,-0.28,-0.13,1009.35
2.305,1.06,0.58,-0.51,-19.34,6.67,1.55,-0.64,-0.28,-0.13,1009.35
2.315,-0.67,1.06,-0.30,-19.34,6.67,1.55,-0.64,-0.28,-0.13,1009.35
2.317,-0.67,1.06,-0.30,-19.34,6.67,1.55,-0.64,-0.28,-0.13,1009.59
2.335,-0.67,1.06,-0.30,-19.34,6.67,1.55,-0.66,-0.75,-3.80,1009.59
2.355,-0.67,1.06,-0.30,-19.34,6.67,1.55,-0.66,-0.75,-3.80,1009.58
2.357,-0.67,1.06,-0.30,-14.40,4.62,-0.50,-0.66,-0.75,-3.80,1009.58
2.357,-1.67,0.92,0.44,-14.40,4.62,-0.50,-0.66,-0.75,-3.80,1009.58
2.358,-0.25,0.90,0.31,-14.40,4.62,-0.50,-0.66,-0.75,-3.80,1009.58
2.405,-0.25,0.90,0.31,-14.40,4.62,-0.50,0.13,-0.42,-0.94,1009.58
2.407,-0.90,1.02,-0.29,-14.40,4.62,-0.50,0.13,-0.42,-0.94,1009.58
2.407,0.14,1.06,0.11,-14.40,4.62,-0.50,0.13,-0.42,-0.94,1009.58
2.425,0.14,1.06,0.11,-3.61,0.42,0.56,0.13,-0.42,-0.94,1009.58
2.426,-0.25,1.07,-0.17,-3.61,0.42,0.56,0.13,-0.42,-0.94,1009.58
2.44,-0.21,1.01,-0.00,-3.61,0.42,0.56,0.13,-0.42,-0.94,1009.58
2.441,-0.21,1.01,-0.00,-3.61,0.42,0.56,0.13,-0.42,-0.94,1009.69
2.475,-0.21,1.01,-0.00,-3.61,0.42,0.56,0.04,-0.08,-0.34,1009.69
2.476,-0.10,1.02,0.06,-3.61,0.42,0.56,0.04,-0.08,-0.34,1009.69
2.495,-0.10,1.02,0.06,-2.24,0.61,-1.14,0.04,-0.08,-0.34,1009.69
2.496,-0.11,1.04,-0.01,-2.24,0.61,-1.14,0.04,-0.08,-0.34,1009.69
2.497,-0.12,1.00,0.03,-2.24,0.61,-1.14,0.04,-0.08,-0.34,1009.69
2.516,-0.09,0.98,0.04,-2.24,0.61,-1.14,0.04,-0.08,-0.34,1009.69
2.517,-0.09,0.98,0.04,-2.24,0.61,-1.14,0.04,-0.08,-0.34,1009.33
2.545,-0.09,0.98,0.04,-2.24,0.61,-1.14,0.18,0.11,-0.28,1009.33
2.546,-0.06,0.96,0.12,-2.24,0.61,-1.14,0.18,0.11,-0.28,1009.33
2.555,-0.08,0.97,0.03,-2.24,0.61,-1.14,0.18,0.11,-0.28,1009.33
2.556,-0.08,0.97,0.03,-2.24,0.61,-1.14,0.18,0.11,-0.28,1008.95
2.565,-0.08,0.97,0.03,0.16,0.33,0.45,0.18,0.11,-0.28,1008.95
2.615,-0.08,0.97,0.03,0.16,0.33,0.45,0.19,0.30,-0.47,1008.95
2.617,-0.08,0.99,0.00,0.16,0.33,0.45,0.19,0.30,-0.47,1008.95
2.617,-0.06,1.02,-0.05,0.16,0.33,0.45,0.19,0.30,-0.47,1008.95
2.634,-0.11,1.01,-0.12,0.16,0.33,0.45,0.19,0.30,-0.47,1008.95
2.637,-0.10,1.02,-0.08,0.16,0.33,0.45,0.19,0.30,-0.47,1008.95
2.637,-0.10,1.02,-0.08,0.16,0.33,0.45,0.19,0.30,-0.47,1009.12
2.638,-0.10,1.02,-0.08,0.79,-0.03,0.77,0.19,0.30,-0.47,1009.12
2.69,-0.10,1.02,-0.08,0.79,-0.03,0.77,0.01,0.03,-0.80,1009.12
2.691,-0.10,1.01,-0.05,0.79,-0.03,0.77,0.01,0.03,-0.80,1009.12
2.692,-0.15,1.01,-0.07,0.79,-0.03,0.77,0.01,0.03,-0.80,1009.12
2.701,-0.13,1.05,-0.07,0.79,-0.03,0.77,0.01,0.03,-0.80,1009.12
2.705,-0.13,1.05,-0.07,1.33,0.49,-0.54,0.01,0.03,-0.80,1009.12
2.716,-0.12,1.11,-0.10,1.33,0.49,-0.54,0.01,0.03,-0.80,1009.12
2.717,-0.12,1.11,-0.10,1.33,0.49,-0.54,0.01,0.03,-0.80,1009.39
2.755,-0.12,1.11,-0.10,1.33,0.49,-0.54,-0.18,-0.10,-1.27,1009.39
2.757,-0.10,1.14,-0.11,1.33,0.49,-0.54,-0.18,-0.10,-1.27,1009.39
2.758,-0.10,1.14,-0.11,1.33,0.49,-0.54,-0.18,-0.10,-1.27,1009.52
2.758,-0.07,1.19,-0.13,1.33,0.49,-0.54,-0.18,-0.10,-1.27,1009.52
2.775,-0.07,1.19,-0.13,1.89,0.92,-0.65,-0.18,-0.10,-1.27,1009.52
2.776,-0.00,1.27,-0.08,1.89,0.92,-0.65,-0.18,-0.10,-1.27,1009.52
2.825,-0.00,1.27,-0.08,1.89,0.92,-0.65,-0.59,-0.00,-2.46,1009.52
2.827,0.01,1.32,-0.12,1.89,0.92,-0.65,-0.59,-0.00,-2.46,1009.52
2.828,0.21,1.48,-0.08,1.89,0.92,-0.65,-0.59,-0.00,-2.46,1009.52
2.835,0.40,1.74,-0.21,1.89,0.92,-0.65,-0.59,-0.00,-2.46,1009.52
2.836,0.40,1.74,-0.21,1.89,0.92,-0.65,-0.59,-0.00,-2.46,1009.60
2.845,0.40,1.74,-0.21,4.31,3.31,-1.41,-0.59,-0.00,-2.46,1009.60
2.895,0.40,1.74,-0.21,4.31,3.31,-1.41,-1.30,0.37,-5.71,1009.60
2.896,0.79,1.91,-0.09,4.31,3.31,-1.41,-1.30,0.37,-5.71,1009.60
2.897,0.85,1.92,-0.09,4.31,3.31,-1.41,-1.30,0.37,-5.71,1009.60
2.9,0.08,1.83,0.19,4.31,3.31,-1.41,-1.30,0.37,-5.71,1009.60
2.917,0.08,1.83,0.19,4.31,3.31,-1.41,-1.30,0.37,-5.71,1009.29
2.918,-0.28,1.77,0.62,4.31,3.31,-1.41,-1.30,0.37,-5.71,1009.29
2.918,-0.28,1.77,0.62,10.67,9.99,-1.95,-1.30,0.37,-5.71,1009.29
2.956,-0.68,1.04,0.34,10.67,9.99,-1.95,-1.30,0.37,-5.71,1009.29
2.957,-0.68,1.04,0.34,10.67,9.99,-1.95,-1.30,0.37,-5.71,1008.56
2.965,-1.62,0.08,0.10,10.67,9.99,-1.95,-1.30,0.37,-5.71,1008.56
2.965,-1.62,0.08,0.10,10.67,9.99,-1.95,-0.08,0.56,-4.48,1008.56
2.989,0.03,0.57,0.26,10.67,9.99,-1.95,-0.08,0.56,-4.48,1008.56
2.991,0.03,0.57,0.26,11.57,13.81,1.36,-0.08,0.56,-4.48,1008.56
3.034,0.45,0.79,-0.36,11.57,13.81,1.36,-0.08,0.56,-4.48,1008.56
3.036,0.28,0.39,-0.11,11.57,13.81,1.36,-0.08,0.56,-4.48,1008.56
3.036,0.28,0.39,-0.11,11.57,13.81,1.36,-0.08,0.56,-4.48,1008.96
3.037,0.28,0.39,-0.11,11.57,13.81,1.36,0.54,-0.93,1.66,1008.96
3.055,0.18,0.13,0.26,11.57,13.81,1.36,0.54,-0.93,1.66,1008.96
3.057,0.10,0.18,0.08,11.57,13.81,1.36,0.54,-0.93,1.66,1008.96
3.058,0.10,0.18,0.08,2.01,0.25,0.70,0.54,-0.93,1.66,1008.96
3.101,0.13,0.24,0.01,2.01,0.25,0.70,0.54,-0.93,1.66,1008.96
3.102,0.34,0.37,0.10,2.01,0.25,0.70,0.54,-0.93,1.66,1008.96
3.105,0.34,0.37,0.10,2.01,0.25,0.70,0.72,0.34,4.55,1008.96
3.115,0.34,0.37,0.10,2.01,0.25,0.70,0.72,0.34,4.55,1009.12
3.125,0.34,0.37,0.10,7.01,-5.13,-0.11,0.72,0.34,4.55,1009.12
3.127,0.20,0.55,0.07,7.01,-5.13,-0.11,0.72,0.34,4.55,1009.12
3.156,-0.03,0.76,-0.09,7.01,-5.13,-0.11,0.72,0.34,4.55,1009.12
3.157,-0.03,0.76,-0.09,7.01,-5.13,-0.11,0.72,0.34,4.55,1009.29
3.169,0.12,1.05,-0.23,7.01,-5.13,-0.11,0.72,0.34,4.55,1009.29
3.175,0.12,1.05,-0.23,7.01,-5.13,-0.11,0.71,1.20,6.02,1009.29
3.196,0.12,1.05,-0.23,3.14,-4.98,0.78,0.71,1.20,6.02,1009.29
3.196,0.29,1.50,-0.28,3.14,-4.98,0.78,0.71,1.20,6.02,1009.29
3.196,-0.11,1.72,-0.20,3.14,-4.98,0.78,0.71,1.20,6.02,1009.29
3.235,-0.84,1.73,-0.13,3.14,-4.98,0.78,0.71,1.20,6.02,1009.29
3.236,-0.84,1.73,-0.13,3.14,-4.98,0.78,0.71,1.20,6.02,1009.36
3.246,-0.84,1.73,-0.13,3.14,-4.98,0.78,-0.02,0.39,5.49,1009.36
3.246,-0.69,1.97,-0.27,3.14,-4.98,0.78,-0.02,0.39,5.49,1009.36
3.266,-0.69,1.97,-0.27,-1.61,4.03,-1.91,-0.02,0.39,5.49,1009.36
3.267,-0.83,1.98,-0.18,-1.61,4.03,-1.91,-0.02,0.39,5.49,1009.36
3.301,-1.03,1.82,0.21,-1.61,4.03,-1.91,-0.02,0.39,5.49,1009.36
3.302,-1.41,1.74,0.23,-1.61,4.03,-1.91,-0.02,0.39,5.49,1009.36
3.316,-1.41,1.74,0.23,-1.61,4.03,-1.91,0.02,0.42,4.01,1009.36
3.316,-1.41,1.74,0.23,-1.61,4.03,-1.91,0.02,0.42,4.01,1009.30
3.336,-2.53,1.67,-0.06,-1.61,4.03,-1.91,0.02,0.42,4.01,1009.30
3.337,-3.24,0.98,-0.16,-1.61,4.03,-1.91,0.02,0.42,4.01,1009.30
3.338,-3.24,0.98,-0.16,-11.54,9.77,-1.20,0.02,0.42,4.01,1009.30
3.361,-3.24,0.98,-0.16,-11.54,9.77,-1.20,0.02,0.42,4.01,1009.38
3.372,-2.16,1.12,-0.01,-11.54,9.77,-1.20,0.02,0.42,4.01,1009.38
3.385,-2.16,1.12,-0.01,-11.54,9.77,-1.20,-0.42,-0.51,-2.51,1009.38
3.386,0.88,1.82,-0.05,-11.54,9.77,-1.20,-0.42,-0.51,-2.51,1009.38
3.407,0.88,1.82,-0.05,-22.36,5.25,0.50,-0.42,-0.51,-2.51,1009.38
3.408,1.18,1.03,-0.79,-22.36,5.25,0.50,-0.42,-0.51,-2.51,1009.38
3.434,-0.76,0.89,-0.34,-22.36,5.25,0.50,-0.42,-0.51,-2.51,1009.38
3.436,-0.76,0.89,-0.34,-22.36,5.25,0.50,-0.42,-0.51,-2.51,1009.62
3.453,-1.55,0.91,0.71,-22.36,5.25,0.50,-0.42,-0.51,-2.51,1009.62
3.455,-1.55,0.91,0.71,-22.36,5.25,0.50,-0.35,-0.31,-3.20,1009.62
3.476,-1.55,0.91,0.71,0.42,2.78,-3.05,-0.35,-0.31,-3.20,1009.62
3.477,-0.70,1.03,0.32,0.42,2.78,-3.05,-0.35,-0.31,-3.20,1009.62
3.477,-0.51,1.05,-0.62,0.42,2.78,-3.05,-0.35,-0.31,-3.20,1009.62
3.508,-0.26,0.94,0.15,0.42,2.78,-3.05,-0.35,-0.31,-3.20,1009.62
3.515,-0.26,0.94,0.15,0.42,2.78,-3.05,-0.35,-0.31,-3.20,1009.73
3.525,-0.26,0.94,0.15,0.42,2.78,-3.05,-0.12,-0.21,-0.62,1009.73
3.526,-0.24,1.02,-0.07,0.42,2.78,-3.05,-0.12,-0.21,-0.62,1009.73
3.546,-0.24,1.02,-0.07,-8.88,0.13,0.62,-0.12,-0.21,-0.62,1009.73
3.547,-0.15,1.03,-0.02,-8.88,0.13,0.62,-0.12,-0.21,-0.62,1009.73
3.555,-0.15,1.03,-0.02,-8.88,0.13,0.62,-0.12,-0.21,-0.62,1009.50
3.568,-0.13,0.99,0.09,-8.88,0.13,0.62,-0.12,-0.21,-0.62,1009.50
3.596,-0.13,0.99,0.09,-8.88,0.13,0.62,-0.07,0.00,-0.25,1009.50
3.597,-0.09,1.00,0.09,-8.88,0.13,0.62,-0.07,0.00,-0.25,1009.50
3.616,-0.09,1.00,0.09,-0.78,0.25,0.12,-0.07,0.00,-0.25,1009.50
3.617,-0.13,0.99,0.07,-0.78,0.25,0.12,-0.07,0.00,-0.25,1009.50
3.617,-0.15,0.99,-0.00,-0.78,0.25,0.12,-0.07,0.00,-0.25,1009.50
3.635,-0.15,0.99,-0.00,-0.78,0.25,0.12,-0.07,0.00,-0.25,1009.20
3.666,-0.15,0.99,-0.00,-0.78,0.25,0.12,0.09,0.15,-0.18,1009.20
3.667,-0.10,0.98,0.06,-0.78,0.25,0.12,0.09,0.15,-0.18,1009.20
3.667,-0.09,0.97,0.10,-0.78,0.25,0.12,0.09,0.15,-0.18,1009.20
3.691,-0.09,0.97,0.10,0.08,0.20,0.52,0.09,0.15,-0.18,1009.20
3.694,-0.11,0.97,0.05,0.08,0.20,0.52,0.09,0.15,-0.18,1009.20
3.7,-0.12,0.97,0.05,0.08,0.20,0.52,0.09,0.15,-0.18,1009.20
3.715,-0.12,0.97,0.05,0.08,0.20,0.52,0.09,0.15,-0.18,1009.07
3.735,-0.12,0.97,0.05,0.08,0.20,0.52,0.17,0.33,-0.23,1009.07
3.737,-0.09,0.98,0.02,0.08,0.20,0.52,0.17,0.33,-0.23,1009.07
3.756,-0.11,0.98,-0.03,0.08,0.20,0.52,0.17,0.33,-0.23,1009.07
3.757,-0.11,0.98,-0.03,0.08,0.20,0.52,0.17,0.33,-0.23,1009.18
3.759,-0.11,1.00,-0.09,0.08,0.20,0.52,0.17,0.33,-0.23,1009.18
3.759,-0.11,1.00,-0.09,0.47,0.06,0.69,0.17,0.33,-0.23,1009.18
3.806,-0.11,1.00,-0.09,0.47,0.06,0.69,-0.06,0.15,-0.42,1009.18
3.807,-0.12,1.02,-0.08,0.47,0.06,0.69,-0.06,0.15,-0.42,1009.18
3.807,-0.08,1.06,-0.11,0.47,0.06,0.69,-0.06,0.15,-0.42,1009.18
3.826,-0.09,1.09,-0.13,0.47,0.06,0.69,-0.06,0.15,-0.42,1009.18
3.828,-0.09,1.09,-0.13,0.78,0.22,-0.33,-0.06,0.15,-0.42,1009.18
3.835,-0.09,1.09,-0.13,0.78,0.22,-0.33,-0.06,0.15,-0.42,1009.36
3.876,-0.09,1.09,-0.13,0.78,0.22,-0.33,-0.35,-0.02,-1.00,1009.36
3.877,-0.03,1.12,-0.04,0.78,0.22,-0.33,-0.35,-0.02,-1.00,1009.36
3.878,0.02,1.15,0.03,0.78,0.22,-0.33,-0.35,-0.02,-1.00,1009.36
3.896,0.01,1.19,0.01,0.78,0.22,-0.33,-0.35,-0.02,-1.00,1009.36
3.897,0.02,1.23,-0.04,0.78,0.22,-0.33,-0.35,-0.02,-1.00,1009.36
3.897,0.02,1.23,-0.04,1.75,1.23,-1.31,-0.35,-0.02,-1.00,1009.36
3.915,0.02,1.23,-0.04,1.75,1.23,-1.31,-0.35,-0.02,-1.00,1009.52
3.946,0.02,1.23,-0.04,1.75,1.23,-1.31,-0.66,0.07,-2.14,1009.52
3.947,-0.02,1.28,-0.13,1.75,1.23,-1.31,-0.66,0.07,-2.14,1009.52
3.948,0.07,1.34,-0.06,1.75,1.23,-1.31,-0.66,0.07,-2.14,1009.52
3.955,0.07,1.34,-0.06,1.75,1.23,-1.31,-0.66,0.07,-2.14,1009.62
3.966,0.20,1.50,-0.15,1.75,1.23,-1.31,-0.66,0.07,-2.14,1009.62
3.966,0.20,1.50,-0.15,4.30,2.97,-0.80,-0.66,0.07,-2.14,1009.62
4.016,0.42,1.65,-0.08,4.30,2.97,-0.80,-0.66,0.07,-2.14,1009.62
4.017,0.73,1.84,-0.15,4.30,2.97,-0.80,-0.66,0.07,-2.14,1009.62
4.018,0.73,1.84,-0.15,4.30,2.97,-0.80,-1.46,0.41,-4.59,1009.62
4.034,0.61,1.76,-0.02,4.30,2.97,-0.80,-1.46,0.41,-4.59,1009.62
4.035,0.61,1.76,-0.02,4.30,2.97,-0.80,-1.46,0.41,-4.59,1009.41
4.038,0.11,1.68,0.16,4.30,2.97,-0.80,-1.46,0.41,-4.59,1009.41
4.039,0.11,1.68,0.16,8.18,7.39,-2.47,-1.46,0.41,-4.59,1009.41
4.092,0.11,1.68,0.16,8.18,7.39,-2.47,-0.90,0.66,-6.64,1009.41
4.095,-0.19,1.61,0.56,8.18,7.39,-2.47,-0.90,0.66,-6.64,1009.41
4.095,-0.20,1.52,0.52,8.18,7.39,-2.47,-0.90,0.66,-6.64,1009.41
4.1,-0.93,-0.34,0.12,8.18,7.39,-2.47,-0.90,0.66,-6.64,1009.41
4.105,-0.93,-0.34,0.12,13.44,13.52,-1.27,-0.90,0.66,-6.64,1009.41
4.115,-0.93,-0.34,0.12,13.44,13.52,-1.27,-0.90,0.66,-6.64,1008.71
4.156,-0.93,-0.34,0.12,13.44,13.52,-1.27,-0.90,0.66,-6.64,1008.95
4.158,-1.14,0.49,0.54,13.44,13.52,-1.27,-0.90,0.66,-6.64,1008.95
4.159,0.79,0.64,-0.12,13.44,13.52,-1.27,-0.90,0.66,-6.64,1008.95
4.16,0.79,0.64,-0.12,13.44,13.52,-1.27,0.03,0.92,1.11,1008.95
4.167,0.64,0.55,-0.41,13.44,13.52,-1.27,0.03,0.92,1.11,1008.95
4.176,0.07,0.24,-0.07,13.44,13.52,-1.27,0.03,0.92,1.11,1008.95
4.178,0.07,0.24,-0.07,1.38,3.71,3.32,0.03,0.92,1.11,1008.95
4.226,0.07,0.24,-0.07,1.38,3.71,3.32,0.42,0.21,4.25,1008.95
4.227,-0.25,0.06,0.11,1.38,3.71,3.32,0.42,0.21,4.25,1008.95
4.227,0.29,0.36,-0.03,1.38,3.71,3.32,0.42,0.21,4.25,1008.95
4.237,0.29,0.36,-0.03,1.38,3.71,3.32,0.42,0.21,4.25,1009.16
4.246,0.36,0.55,0.03,1.38,3.71,3.32,0.42,0.21,4.25,1009.16
4.247,0.36,0.55,0.03,9.45,-3.06,-1.15,0.42,0.21,4.25,1009.16
4.296,0.36,0.55,0.03,9.45,-3.06,-1.15,0.89,1.04,6.00,1009.16
4.298,0.21,0.67,0.05,9.45,-3.06,-1.15,0.89,1.04,6.00,1009.16
4.298,0.13,0.92,-0.08,9.45,-3.06,-1.15,0.89,1.04,6.00,1009.16
4.3,0.14,1.18,-0.23,9.45,-3.06,-1.15,0.89,1.04,6.00,1009.16
4.316,0.14,1.18,-0.23,9.45,-3.06,-1.15,0.89,1.04,6.00,1009.30
4.317,-0.03,1.40,-0.35,9.45,-3.06,-1.15,0.89,1.04,6.00,1009.30
4.318,-0.03,1.40,-0.35,3.31,-5.46,0.92,0.89,1.04,6.00,1009.30
4.356,-0.04,1.70,-0.45,3.31,-5.46,0.92,0.89,1.04,6.00,1009.30
4.358,-0.04,1.70,-0.45,3.31,-5.46,0.92,0.89,1.04,6.00,1009.31
4.365,-0.00,2.08,-0.49,3.31,-5.46,0.92,0.89,1.04,6.00,1009.31
4.366,-0.00,2.08,-0.49,3.31,-5.46,0.92,0.30,0.38,5.87,1009.31
4.393,-0.17,2.45,-0.40,3.31,-5.46,0.92,0.30,0.38,5.87,1009.31
4.394,-0.17,2.45,-0.40,-0.74,1.70,-1.29,0.30,0.38,5.87,1009.31
4.434,-0.99,2.38,-0.11,-0.74,1.70,-1.29,0.30,0.38,5.87,1009.31
4.436,-1.88,1.80,0.54,-0.74,1.70,-1.29,0.30,0.38,5.87,1009.31
4.436,-1.88,1.80,0.54,-0.74,1.70,-1.29,0.30,0.38,5.87,1009.27
4.437,-1.88,1.80,0.54,-0.74,1.70,-1.29,-0.52,0.58,4.07,1009.27
4.451,-3.35,0.95,0.30,-0.74,1.70,-1.29,-0.52,0.58,4.07,1009.27
4.456,-3.24,0.99,0.12,-0.74,1.70,-1.29,-0.52,0.58,4.07,1009.27
4.457,-3.24,0.99,0.12,-5.30,12.20,-3.71,-0.52,0.58,4.07,1009.27
4.501,-1.55,1.50,-0.35,-5.30,12.20,-3.71,-0.52,0.58,4.07,1009.27
4.502,-0.46,1.60,-0.13,-5.30,12.20,-3.71,-0.52,0.58,4.07,1009.27
4.505,-0.46,1.60,-0.13,-5.30,12.20,-3.71,-0.41,-1.07,-1.58,1009.27
4.515,-0.46,1.60,-0.13,-5.30,12.20,-3.71,-0.41,-1.07,-1.58,1009.42
4.527,0.61,1.15,-0.48,-5.30,12.20,-3.71,-0.41,-1.07,-1.58,1009.42
4.528,0.61,1.15,-0.48,-26.32,4.31,2.79,-0.41,-1.07,-1.58,1009.42
4.558,0.18,1.13,-0.23,-26.32,4.31,2.79,-0.41,-1.07,-1.58,1009.42
4.559,0.18,1.13,-0.23,-26.32,4.31,2.79,-0.41,-1.07,-1.58,1009.68
4.567,-1.35,1.02,0.01,-26.32,4.31,2.79,-0.41,-1.07,-1.58,1009.68
4.576,-1.35,1.02,0.01,-26.32,4.31,2.79,-0.28,-0.50,-3.60,1009.68
4.596,-1.35,1.02,0.01,-1.85,4.03,-2.88,-0.28,-0.50,-3.60,1009.68
4.597,-1.12,0.76,1.34,-1.85,4.03,-2.88,-0.28,-0.50,-3.60,1009.68
4.598,-0.47,1.11,-0.89,-1.85,4.03,-2.88,-0.28,-0.50,-3.60,1009.68
4.634,-0.46,1.04,-0.08,-1.85,4.03,-2.88,-0.28,-0.50,-3.60,1009.68
4.635,-0.46,1.04,-0.08,-1.85,4.03,-2.88,-0.28,-0.50,-3.60,1009.79
4.646,-0.46,1.04,-0.08,-1.85,4.03,-2.88,0.24,-0.34,-0.81,1009.79
4.647,-0.41,1.02,-0.18,-1.85,4.03,-2.88,0.24,-0.34,-0.81,1009.79
4.666,-0.41,1.02,-0.18,-7.60,0.22,1.29,0.24,-0.34,-0.81,1009.79
4.667,-0.13,1.04,-0.07,-7.60,0.22,1.29,0.24,-0.34,-0.81,1009.79
4.701,-0.12,1.00,0.06,-7.60,0.22,1.29,0.24,-0.34,-0.81,1009.79
4.702,-0.16,0.99,0.05,-7.60,0.22,1.29,0.24,-0.34,-0.81,1009.79
4.715,-0.16,0.99,0.05,-7.60,0.22,1.29,0.24,-0.34,-0.81,1009.58
4.716,-0.16,0.99,0.05,-7.60,0.22,1.29,-0.02,-0.03,-0.30,1009.58
4.736,-0.16,0.99,0.05,-1.45,0.68,-0.63,-0.02,-0.03,-0.30,1009.58
4.737,-0.16,1.00,0.00,-1.45,0.68,-0.63,-0.02,-0.03,-0.30,1009.58
4.738,-0.18,0.98,-0.04,-1.45,0.68,-0.63,-0.02,-0.03,-0.30,1009.58
4.756,-0.18,0.98,-0.04,-1.45,0.68,-0.63,-0.02,-0.03,-0.30,1009.17
4.768,-0.14,0.97,0.05,-1.45,0.68,-0.63,-0.02,-0.03,-0.30,1009.17
4.786,-0.14,0.97,0.05,-1.45,0.68,-0.63,0.11,0.09,-0.18,1009.17
4.787,-0.13,0.95,0.05,-1.45,0.68,-0.63,0.11,0.09,-0.18,1009.17
4.806,-0.13,0.95,0.05,0.12,0.31,0.49,0.11,0.09,-0.18,1009.17
4.807,-0.13,0.95,0.07,0.12,0.31,0.49,0.11,0.09,-0.18,1009.17
4.834,-0.14,0.97,0.02,0.12,0.31,0.49,0.11,0.09,-0.18,1009.17
4.835,-0.14,0.97,0.02,0.12,0.31,0.49,0.11,0.09,-0.18,1009.06
4.856,-0.14,0.97,0.02,0.12,0.31,0.49,0.26,0.25,-0.21,1009.06
4.857,-0.13,0.97,-0.03,0.12,0.31,0.49,0.26,0.25,-0.21,1009.06
4.876,-0.14,0.98,-0.07,0.12,0.31,0.49,0.26,0.25,-0.21,1009.06
4.877,-0.13,0.97,-0.01,0.12,0.31,0.49,0.26,0.25,-0.21,1009.06
4.878,-0.13,0.97,-0.01,0.45,-0.00,1.06,0.26,0.25,-0.21,1009.06
4.901,-0.14,0.98,-0.03,0.45,-0.00,1.06,0.26,0.25,-0.21,1009.06
4.915,-0.14,0.98,-0.03,0.45,-0.00,1.06,0.26,0.25,-0.21,1009.10
4.926,-0.14,0.98,-0.03,0.45,-0.00,1.06,0.19,0.25,-0.34,1009.10
4.927,-0.14,1.00,-0.14,0.45,-0.00,1.06,0.19,0.25,-0.34,1009.10
4.946,-0.14,1.00,-0.14,0.72,0.23,0.33,0.19,0.25,-0.34,1009.10
4.947,-0.13,1.03,-0.14,0.72,0.23,0.33,0.19,0.25,-0.34,1009.10
4.955,-0.13,1.03,-0.14,0.72,0.23,0.33,0.19,0.25,-0.34,1009.33
4.968,-0.10,1.07,-0.15,0.72,0.23,0.33,0.19,0.25,-0.34,1009.33
4.996,-0.10,1.07,-0.15,0.72,0.23,0.33,-0.09,0.10,-0.77,1009.33
4.997,-0.06,1.12,-0.10,0.72,0.23,0.33,-0.09,0.10,-0.77,1009.33
5.016,-0.06,1.12,-0.10,1.39,0.77,-0.51,-0.09,0.10,-0.77,1009.33
5.017,-0.03,1.17,-0.10,1.39,0.77,-0.51,-0.09,0.10,-0.77,1009.33
5.018,-0.05,1.21,-0.15,1.39,0.77,-0.51,-0.09,0.10,-0.77,1009.33
5.035,-0.05,1.21,-0.15,1.39,0.77,-0.51,-0.09,0.10,-0.77,1009.51
5.066,-0.05,1.21,-0.15,1.39,0.77,-0.51,-0.44,-0.00,-1.74,1009.51
5.068,-0.10,1.23,-0.24,1.39,0.77,-0.51,-0.44,-0.00,-1.74,1009.51
5.068,0.03,1.35,-0.12,1.39,0.77,-0.51,-0.44,-0.00,-1.74,1009.51
5.086,0.03,1.35,-0.12,3.40,2.62,-0.95,-0.44,-0.00,-1.74,1009.51
5.087,0.14,1.52,-0.05,3.40,2.62,-0.95,-0.44,-0.00,-1.74,1009.51
5.1,0.32,1.68,-0.00,3.40,2.62,-0.95,-0.44,-0.00,-1.74,1009.51
5.115,0.32,1.68,-0.00,3.40,2.62,-0.95,-0.44,-0.00,-1.74,1009.54
5.136,0.32,1.68,-0.00,3.40,2.62,-0.95,-0.84,0.45,-3.93,1009.54
5.137,0.58,1.79,0.10,3.40,2.62,-0.95,-0.84,0.45,-3.93,1009.54
5.155,0.66,1.82,-0.02,3.40,2.62,-0.95,-0.84,0.45,-3.93,1009.54
5.156,0.66,1.82,-0.02,3.40,2.62,-0.95,-0.84,0.45,-3.93,1009.25
5.157,0.44,1.80,0.05,3.40,2.62,-0.95,-0.84,0.45,-3.93,1009.25
5.158,0.44,1.80,0.05,7.10,6.78,-1.19,-0.84,0.45,-3.93,1009.25
5.206,0.44,1.80,0.05,7.10,6.78,-1.19,-0.95,1.23,-5.66,1009.25
5.208,0.14,1.67,0.39,7.10,6.78,-1.19,-0.95,1.23,-5.66,1009.25
5.208,-0.79,0.59,0.16,7.10,6.78,-1.19,-0.95,1.23,-5.66,1009.25
5.227,-1.04,0.48,0.07,7.10,6.78,-1.19,-0.95,1.23,-5.66,1009.25
5.228,-1.04,0.48,0.07,13.14,12.34,0.60,-0.95,1.23,-5.66,1009.25
5.235,-1.04,0.48,0.07,13.14,12.34,0.60,-0.95,1.23,-5.66,1008.82
5.276,-1.04,0.48,0.07,13.14,12.34,0.60,-1.00,-0.04,1.05,1008.82
5.278,0.71,0.66,-0.08,13.14,12.34,0.60,-1.00,-0.04,1.05,1008.82
5.28,0.26,0.56,-0.27,13.14,12.34,0.60,-1.00,-0.04,1.05,1008.82
5.296,0.37,0.37,0.08,13.14,12.34,0.60,-1.00,-0.04,1.05,1008.82
5.298,0.35,0.36,0.08,13.14,12.34,0.60,-1.00,-0.04,1.05,1008.82
5.298,0.35,0.36,0.08,3.26,2.31,1.52,-1.00,-0.04,1.05,1008.82
5.315,0.35,0.36,0.08,3.26,2.31,1.52,-1.00,-0.04,1.05,1009.00
5.347,0.35,0.36,0.08,3.26,2.31,1.52,-0.80,0.41,3.89,1009.00
5.35,0.13,0.47,-0.21,3.26,2.31,1.52,-0.80,0.41,3.89,1009.00
5.351,0.03,0.51,-0.27,3.26,2.31,1.52,-0.80,0.41,3.89,1009.00
5.355,0.03,0.51,-0.27,3.26,2.31,1.52,-0.80,0.41,3.89,1009.14
5.367,0.18,0.69,-0.45,3.26,2.31,1.52,-0.80,0.41,3.89,1009.14
5.369,0.18,0.69,-0.45,8.60,-3.45,-1.08,-0.80,0.41,3.89,1009.14
5.416,0.18,0.69,-0.45,8.60,-3.45,-1.08,-0.17,1.05,5.15,1009.14
5.418,0.09,0.85,-0.60,8.60,-3.45,-1.08,-0.17,1.05,5.15,1009.14
5.418,0.00,0.99,-0.66,8.60,-3.45,-1.08,-0.17,1.05,5.15,1009.14
5.434,0.03,1.19,-0.67,8.60,-3.45,-1.08,-0.17,1.05,5.15,1009.14
5.435,0.03,1.19,-0.67,8.60,-3.45,-1.08,-0.17,1.05,5.15,1009.22
5.436,0.09,1.50,-0.75,8.60,-3.45,-1.08,-0.17,1.05,5.15,1009.22
5.437,0.09,1.50,-0.75,2.69,-3.34,-3.46,-0.17,1.05,5.15,1009.22
5.486,0.09,1.50,-0.75,2.69,-3.34,-3.46,0.22,1.89,4.34,1009.22
5.488,0.12,1.86,-0.80,2.69,-3.34,-3.46,0.22,1.89,4.34,1009.22
5.488,-0.25,1.99,-0.74,2.69,-3.34,-3.46,0.22,1.89,4.34,1009.22
5.501,-0.88,1.94,-0.79,2.69,-3.34,-3.46,0.22,1.89,4.34,1009.22
5.51,-0.88,1.94,-0.79,-0.57,2.25,-6.46,0.22,1.89,4.34,1009.22
5.515,-0.88,1.94,-0.79,-0.57,2.25,-6.46,0.22,1.89,4.34,1009.30
5.555,-0.88,1.94,-0.79,-0.57,2.25,-6.46,0.22,1.89,4.34,1009.42
5.557,-1.25,1.61,-0.39,-0.57,2.25,-6.46,0.22,1.89,4.34,1009.42
5.557,-1.76,1.59,-0.76,-0.57,2.25,-6.46,0.22,1.89,4.34,1009.42
5.558,-1.76,1.59,-0.76,-0.57,2.25,-6.46,-0.07,2.64,3.57,1009.42
5.567,-2.57,1.04,-0.49,-0.57,2.25,-6.46,-0.07,2.64,3.57,1009.42
5.576,-2.84,0.70,-0.13,-0.57,2.25,-6.46,-0.07,2.64,3.57,1009.42
5.577,-2.84,0.70,-0.13,-7.32,9.51,-7.08,-0.07,2.64,3.57,1009.42
5.626,-2.84,0.70,-0.13,-7.32,9.51,-7.08,0.10,0.44,-2.14,1009.42
5.628,-0.43,1.73,-0.18,-7.32,9.51,-7.08,0.10,0.44,-2.14,1009.42
5.628,-0.79,0.79,0.15,-7.32,9.51,-7.08,0.10,0.44,-2.14,1009.42
5.635,-0.79,0.79,0.15,-7.32,9.51,-7.08,0.10,0.44,-2.14,1009.37
5.647,-0.79,0.79,0.15,-21.97,2.04,-4.47,0.10,0.44,-2.14,1009.37
5.649,-0.42,1.27,-0.19,-21.97,2.04,-4.47,0.10,0.44,-2.14,1009.37
5.696,-0.42,1.27,-0.19,-21.97,2.04,-4.47,0.06,-0.18,-2.30,1009.37
5.698,-0.81,0.98,0.26,-21.97,2.04,-4.47,0.06,-0.18,-2.30,1009.37
5.699,-1.39,1.02,0.42,-21.97,2.04,-4.47,0.06,-0.18,-2.30,1009.37
5.7,-0.27,1.12,-0.50,-21.97,2.04,-4.47,0.06,-0.18,-2.30,1009.37
5.716,-0.27,1.12,-0.50,-21.97,2.04,-4.47,0.06,-0.18,-2.30,1009.74
5.717,-0.18,0.96,-0.26,-21.97,2.04,-4.47,0.06,-0.18,-2.30,1009.74
5.717,-0.18,0.96,-0.26,-3.88,2.58,-0.48,0.06,-0.18,-2.30,1009.74
5.755,-0.33,0.95,0.17,-3.88,2.58,-0.48,0.06,-0.18,-2.30,1009.74
5.756,-0.33,0.95,0.17,-3.88,2.58,-0.48,0.06,-0.18,-2.30,1009.43
5.767,-0.19,0.95,0.35,-3.88,2.58,-0.48,0.06,-0.18,-2.30,1009.43
5.768,-0.19,0.95,0.35,-3.88,2.58,-0.48,-0.03,-0.29,-0.72,1009.43
5.787,-0.19,0.95,0.35,-5.60,0.57,-0.30,-0.03,-0.29,-0.72,1009.43
5.788,-0.18,1.00,-0.13,-5.60,0.57,-0.30,-0.03,-0.29,-0.72,1009.43
5.834,-0.23,0.98,-0.05,-5.60,0.57,-0.30,-0.03,-0.29,-0.72,1009.43
5.836,-0.18,0.99,0.05,-5.60,0.57,-0.30,-0.03,-0.29,-0.72,1009.43
5.837,-0.18,0.99,0.05,-5.60,0.57,-0.30,-0.03,-0.29,-0.72,1009.36
5.837,-0.18,0.99,0.05,-5.60,0.57,-0.30,0.08,-0.09,-0.30,1009.36
5.857,-0.20,0.99,-0.10,-5.60,0.57,-0.30,0.08,-0.09,-0.30,1009.36
5.858,-0.16,0.99,-0.03,-5.60,0.57,-0.30,0.08,-0.09,-0.30,1009.36
5.858,-0.16,0.99,-0.03,-0.66,0.09,0.94,0.08,-0.09,-0.30,1009.36
5.9,-0.13,0.99,0.08,-0.66,0.09,0.94,0.08,-0.09,-0.30,1009.36
5.902,-0.14,0.97,0.05,-0.66,0.09,0.94,0.08,-0.09,-0.30,1009.36
5.906,-0.14,0.97,0.05,-0.66,0.09,0.94,-0.01,0.02,-0.16,1009.36
5.915,-0.14,0.97,0.05,-0.66,0.09,0.94,-0.01,0.02,-0.16,1009.16
5.928,-0.16,0.96,0.02,-0.66,0.09,0.94,-0.01,0.02,-0.16,1009.16
5.929,-0.16,0.96,0.02,-0.03,0.31,-0.09,-0.01,0.02,-0.16,1009.16
5.956,-0.14,0.98,0.01,-0.03,0.31,-0.09,-0.01,0.02,-0.16,1009.16
5.957,-0.14,0.98,0.01,-0.03,0.31,-0.09,-0.01,0.02,-0.16,1009.08
5.968,-0.13,0.98,0.05,-0.03,0.31,-0.09,-0.01,0.02,-0.16,1009.08
5.976,-0.13,0.98,0.05,-0.03,0.31,-0.09,0.03,0.20,-0.18,1009.08
5.997,-0.13,0.98,0.05,0.47,0.20,0.55,0.03,0.20,-0.18,1009.08
5.998,-0.15,0.97,0.03,0.47,0.20,0.55,0.03,0.20,-0.18,1009.08
5.999,-0.11,1.00,0.03,0.47,0.20,0.55,0.03,0.20,-0.18,1009.08
6.035,-0.15,0.98,0.04,0.47,0.20,0.55,0.03,0.20,-0.18,1009.08
6.036,-0.15,0.98,0.04,0.47,0.20,0.55,0.03,0.20,-0.18,1009.23
6.046,-0.16,0.96,-0.02,0.47,0.20,0.55,0.03,0.20,-0.18,1009.23
6.047,-0.16,0.96,-0.02,0.47,0.20,0.55,-0.01,0.36,-0.29,1009.23
6.068,-0.16,0.96,-0.02,0.82,0.30,0.44,-0.01,0.36,-0.29,1009.23
6.069,-0.18,0.98,-0.04,0.82,0.30,0.44,-0.01,0.36,-0.29,1009.23
6.101,-0.14,1.02,-0.00,0.82,0.30,0.44,-0.01,0.36,-0.29,1009.23
6.102,-0.14,1.03,-0.05,0.82,0.30,0.44,-0.01,0.36,-0.29,1009.23
6.115,-0.14,1.03,-0.05,0.82,0.30,0.44,-0.01,0.36,-0.29,1009.43
6.116,-0.14,1.03,-0.05,0.82,0.30,0.44,-0.09,0.21,-0.46,1009.43
6.137,-0.14,1.03,-0.05,0.88,0.34,0.03,-0.09,0.21,-0.46,1009.43
6.138,-0.13,1.05,-0.04,0.88,0.34,0.03,-0.09,0.21,-0.46,1009.43
6.138,-0.13,1.06,-0.04,0.88,0.34,0.03,-0.09,0.21,-0.46,1009.43
6.155,-0.13,1.06,-0.04,0.88,0.34,0.03,-0.09,0.21,-0.46,1009.52
6.168,-0.05,1.16,-0.04,0.88,0.34,0.03,-0.09,0.21,-0.46,1009.52
6.187,-0.05,1.16,-0.04,0.88,0.34,0.03,-0.34,0.18,-0.98,1009.52
6.188,-0.11,1.15,-0.12,0.88,0.34,0.03,-0.34,0.18,-0.98,1009.52
6.207,-0.11,1.15,-0.12,1.87,1.21,-0.56,-0.34,0.18,-0.98,1009.52
6.209,-0.08,1.16,-0.10,1.87,1.21,-0.56,-0.34,0.18,-0.98,1009.52
6.234,-0.12,1.15,-0.03,1.87,1.21,-0.56,-0.34,0.18,-0.98,1009.52
6.236,-0.12,1.15,-0.03,1.87,1.21,-0.56,-0.34,0.18,-0.98,1009.54
6.257,-0.12,1.15,-0.03,1.87,1.21,-0.56,-0.86,0.25,-1.82,1009.54
6.258,-0.12,1.17,-0.08,1.87,1.21,-0.56,-0.86,0.25,-1.82,1009.54
6.277,-0.04,1.28,-0.08,1.87,1.21,-0.56,-0.86,0.25,-1.82,1009.54
6.278,0.07,1.46,-0.10,1.87,1.21,-0.56,-0.86,0.25,-1.82,1009.54
6.279,0.07,1.46,-0.10,3.62,2.87,-1.43,-0.86,0.25,-1.82,1009.54
6.3,0.31,1.65,-0.09,3.62,2.87,-1.43,-0.86,0.25,-1.82,1009.54
6.315,0.31,1.65,-0.09,3.62,2.87,-1.43,-0.86,0.25,-1.82,1009.54
6.327,0.31,1.65,-0.09,3.62,2.87,-1.43,-1.66,0.55,-3.69,1009.54
6.329,0.47,1.72,-0.08,3.62,2.87,-1.43,-1.66,0.55,-3.69,1009.54
6.347,0.47,1.72,-0.08,6.35,5.97,-2.24,-1.66,0.55,-3.69,1009.54
6.348,0.38,1.63,0.02,6.35,5.97,-2.24,-1.66,0.55,-3.69,1009.54
6.355,0.38,1.63,0.02,6.35,5.97,-2.24,-1.66,0.55,-3.69,1009.07
6.368,-0.10,1.53,0.31,6.35,5.97,-2.24,-1.66,0.55,-3.69,1009.07
6.399,-0.10,1.53,0.31,6.35,5.97,-2.24,-2.14,1.29,-5.45,1009.07
6.4,-0.37,1.60,0.31,6.35,5.97,-2.24,-2.14,1.29,-5.45,1009.07
6.417,-0.37,1.60,0.31,11.63,11.77,-1.26,-2.14,1.29,-5.45,1009.07
6.42,-0.91,0.52,0.23,11.63,11.77,-1.26,-2.14,1.29,-5.45,1009.07
6.42,-0.70,0.03,0.84,11.63,11.77,-1.26,-2.14,1.29,-5.45,1009.07
6.435,-0.70,0.03,0.84,11.63,11.77,-1.26,-2.14,1.29,-5.45,1008.67
6.452,0.29,0.61,0.12,11.63,11.77,-1.26,-2.14,1.29,-5.45,1008.67
6.467,0.42,0.75,-0.59,11.63,11.77,-1.26,-2.14,1.29,-5.45,1008.67
6.468,0.42,0.75,-0.59,11.63,11.77,-1.26,-0.76,2.12,0.65,1008.67
6.488,0.42,0.75,-0.59,1.95,2.88,3.96,-0.76,2.12,0.65,1008.67
6.489,0.02,0.34,-0.23,1.95,2.88,3.96,-0.76,2.12,0.65,1008.67
6.5,-0.17,0.23,-0.14,1.95,2.88,3.96,-0.76,2.12,0.65,1008.67
6.515,-0.17,0.23,-0.14,1.95,2.88,3.96,-0.76,2.12,0.65,1009.08
6.537,-0.17,0.23,-0.14,1.95,2.88,3.96,-0.40,0.52,3.40,1009.08
6.539,-0.18,0.32,-0.32,1.95,2.88,3.96,-0.40,0.52,3.40,1009.08
6.555,0.04,0.40,-0.26,1.95,2.88,3.96,-0.40,0.52,3.40,1009.08
6.556,0.04,0.40,-0.26,1.95,2.88,3.96,-0.40,0.52,3.40,1009.21
6.557,0.21,0.55,-0.22,1.95,2.88,3.96,-0.40,0.52,3.40,1009.21
6.557,0.21,0.55,-0.22,7.73,-2.20,-2.36,-0.40,0.52,3.40,1009.21
6.607,0.21,0.55,-0.22,7.73,-2.20,-2.36,0.23,0.75,5.12,1009.21
6.609,0.14,0.75,-0.34,7.73,-2.20,-2.36,0.23,0.75,5.12,1009.21
6.609,0.08,0.91,-0.35,7.73,-2.20,-2.36,0.23,0.75,5.12,1009.21
6.628,0.08,0.91,-0.35,2.78,-4.95,-2.23,0.23,0.75,5.12,1009.21
6.629,0.11,1.09,-0.33,2.78,-4.95,-2.23,0.23,0.75,5.12,1009.21
6.635,0.11,1.09,-0.33,2.78,-4.95,-2.23,0.23,0.75,5.12,1009.32
6.677,0.11,1.09,-0.33,2.78,-4.95,-2.23,0.37,1.57,4.81,1009.32
6.679,0.00,1.29,-0.48,2.78,-4.95,-2.23,0.37,1.57,4.81,1009.32
6.679,0.01,1.54,-0.56,2.78,-4.95,-2.23,0.37,1.57,4.81,1009.32
6.697,-0.00,1.83,-0.44,2.78,-4.95,-2.23,0.37,1.57,4.81,1009.32
6.698,-0.15,2.03,-0.25,2.78,-4.95,-2.23,0.37,1.57,4.81,1009.32
6.699,-0.15,2.03,-0.25,0.95,0.21,-2.78,0.37,1.57,4.81,1009.32
6.716,-0.15,2.03,-0.25,0.95,0.21,-2.78,0.37,1.57,4.81,1009.36
6.747,-0.15,2.03,-0.25,0.95,0.21,-2.78,-0.69,2.51,3.32,1009.36
6.749,-0.76,2.11,-0.51,0.95,0.21,-2.78,-0.69,2.51,3.32,1009.36
6.749,-1.12,1.89,-0.67,0.95,0.21,-2.78,-0.69,2.51,3.32,1009.36
6.754,-1.12,1.89,-0.67,0.95,0.21,-2.78,-0.69,2.51,3.32,1009.26
6.769,-1.99,1.29,-0.52,0.95,0.21,-2.78,-0.69,2.51,3.32,1009.26
6.77,-1.99,1.29,-0.52,-2.43,7.84,-4.23,-0.69,2.51,3.32,1009.26
6.817,-1.99,1.29,-0.52,-2.43,7.84,-4.23,-0.32,0.72,0.92,1009.26
6.818,-2.83,0.70,-0.19,-2.43,7.84,-4.23,-0.32,0.72,0.92,1009.26
6.819,-1.81,1.00,-0.18,-2.43,7.84,-4.23,-0.32,0.72,0.92,1009.26
6.834,-1.86,0.82,-0.17,-2.43,7.84,-4.23,-0.32,0.72,0.92,1009.26
6.835,-1.86,0.82,-0.17,-2.43,7.84,-4.23,-0.32,0.72,0.92,1009.27
6.837,-0.49,1.38,0.53,-2.43,7.84,-4.23,-0.32,0.72,0.92,1009.27
6.837,-0.49,1.38,0.53,-15.91,6.58,-5.34,-0.32,0.72,0.92,1009.27
6.888,-0.49,1.38,0.53,-15.91,6.58,-5.34,0.05,0.05,-3.15,1009.27
6.889,1.03,1.33,-0.78,-15.91,6.58,-5.34,0.05,0.05,-3.15,1009.27
6.89,0.06,1.13,-0.26,-15.91,6.58,-5.34,0.05,0.05,-3.15,1009.27
6.901,-1.08,0.91,0.20,-15.91,6.58,-5.34,0.05,0.05,-3.15,1009.27
6.908,-1.08,0.91,0.20,-14.95,0.33,0.50,0.05,0.05,-3.15,1009.27
6.914,-1.08,0.91,0.20,-14.95,0.33,0.50,0.05,0.05,-3.15,1009.66
6.955,-1.08,0.91,0.20,-14.95,0.33,0.50,0.05,0.05,-3.15,1009.84
6.957,-1.14,0.95,0.65,-14.95,0.33,0.50,0.05,0.05,-3.15,1009.84
6.958,-0.26,1.09,-0.91,-14.95,0.33,0.50,0.05,0.05,-3.15,1009.84
6.958,-0.26,1.09,-0.91,-14.95,0.33,0.50,0.39,-0.61,-1.25,1009.84
6.968,-0.29,1.02,0.13,-14.95,0.33,0.50,0.39,-0.61,-1.25,1009.84
6.977,-0.14,0.99,-0.03,-14.95,0.33,0.50,0.39,-0.61,-1.25,1009.84
6.978,-0.14,0.99,-0.03,-0.44,1.19,-0.79,0.39,-0.61,-1.25,1009.84
7.033,-0.14,0.99,-0.03,-0.44,1.19,-0.79,0.04,-0.15,-0.48,1009.84
7.034,-0.25,0.96,0.12,-0.44,1.19,-0.79,0.04,-0.15,-0.48,1009.84
7.035,-0.26,0.99,-0.14,-0.44,1.19,-0.79,0.04,-0.15,-0.48,1009.84
7.035,-0.26,0.99,-0.14,-0.44,1.19,-0.79,0.04,-0.15,-0.48,1009.49
7.048,-0.26,0.99,-0.14,-1.45,0.77,-1.63,0.04,-0.15,-0.48,1009.49
7.049,-0.23,0.96,0.04,-1.45,0.77,-1.63,0.04,-0.15,-0.48,1009.49
7.101,-0.23,0.96,0.04,-1.45,0.77,-1.63,0.05,-0.04,-0.16,1009.49
7.102,-0.16,0.99,0.05,-1.45,0.77,-1.63,0.05,-0.04,-0.16,1009.49
7.103,-0.17,1.00,0.00,-1.45,0.77,-1.63,0.05,-0.04,-0.16,1009.49
7.103,-0.18,0.99,-0.06,-1.45,0.77,-1.63,0.05,-0.04,-0.16,1009.49
7.116,-0.18,0.99,-0.06,-1.45,0.77,-1.63,0.05,-0.04,-0.16,1009.26
7.117,-0.18,0.97,-0.01,-1.45,0.77,-1.63,0.05,-0.04,-0.16,1009.26
7.118,-0.18,0.97,-0.01,-0.47,0.17,0.40,0.05,-0.04,-0.16,1009.26
7.156,-0.16,0.96,0.05,-0.47,0.17,0.40,0.05,-0.04,-0.16,1009.26
7.157,-0.16,0.96,0.05,-0.47,0.17,0.40,0.05,-0.04,-0.16,1009.15
7.168,-0.16,0.96,0.05,-0.47,0.17,0.40,0.00,0.06,-0.06,1009.15
7.17,-0.16,0.95,0.05,-0.47,0.17,0.40,0.00,0.06,-0.06,1009.15
7.188,-0.16,0.95,0.05,0.19,0.35,0.14,0.00,0.06,-0.06,1009.15
7.189,-0.14,0.95,0.04,0.19,0.35,0.14,0.00,0.06,-0.06,1009.15
7.234,-0.15,0.95,0.02,0.19,0.35,0.14,0.00,0.06,-0.06,1009.15
7.236,-0.12,0.96,0.06,0.19,0.35,0.14,0.00,0.06,-0.06,1009.15
7.237,-0.12,0.96,0.06,0.19,0.35,0.14,0.00,0.06,-0.06,1009.17
7.237,-0.12,0.96,0.06,0.19,0.35,0.14,0.09,0.18,-0.08,1009.17
7.257,-0.14,0.96,0.01,0.19,0.35,0.14,0.09,0.18,-0.08,1009.17
7.258,-0.12,0.98,-0.00,0.19,0.35,0.14,0.09,0.18,-0.08,1009.17
7.259,-0.12,0.98,-0.00,0.40,0.01,0.77,0.09,0.18,-0.08,1009.17
7.302,-0.12,0.98,0.05,0.40,0.01,0.77,0.09,0.18,-0.08,1009.17
7.303,-0.16,0.98,0.02,0.40,0.01,0.77,0.09,0.18,-0.08,1009.17
7.307,-0.16,0.98,0.02,0.40,0.01,0.77,0.18,0.19,-0.21,1009.17
7.316,-0.16,0.98,0.02,0.40,0.01,0.77,0.18,0.19,-0.21,1009.26
7.328,-0.16,0.98,0.02,0.80,0.17,0.74,0.18,0.19,-0.21,1009.26
7.33,-0.12,1.00,0.01,0.80,0.17,0.74,0.18,0.19,-0.21,1009.26
7.355,-0.12,1.02,0.02,0.80,0.17,0.74,0.18,0.19,-0.21,1009.26
7.356,-0.12,1.02,0.02,0.80,0.17,0.74,0.18,0.19,-0.21,1009.33
7.368,-0.10,1.07,-0.05,0.80,0.17,0.74,0.18,0.19,-0.21,1009.33
7.377,-0.10,1.07,-0.05,0.80,0.17,0.74,0.20,0.34,-0.46,1009.33
7.401,-0.10,1.07,-0.05,1.15,0.51,0.85,0.20,0.34,-0.46,1009.33
7.404,-0.03,1.15,-0.14,1.15,0.51,0.85,0.20,0.34,-0.46,1009.33
7.405,-0.06,1.14,-0.16,1.15,0.51,0.85,0.20,0.34,-0.46,1009.33
7.434,-0.12,1.13,-0.17,1.15,0.51,0.85,0.20,0.34,-0.46,1009.33
7.435,-0.12,1.13,-0.17,1.15,0.51,0.85,0.20,0.34,-0.46,1009.47
7.447,-0.12,1.13,-0.17,1.15,0.51,0.85,-0.21,0.24,-1.17,1009.47
7.448,-0.07,1.19,-0.03,1.15,0.51,0.85,-0.21,0.24,-1.17,1009.47
7.468,0.01,1.30,-0.04,1.15,0.51,0.85,-0.21,0.24,-1.17,1009.47
7.47,0.01,1.30,-0.04,2.61,1.88,-0.47,-0.21,0.24,-1.17,1009.47
7.503,0.05,1.43,-0.14,2.61,1.88,-0.47,-0.21,0.24,-1.17,1009.47
7.505,0.10,1.52,-0.08,2.61,1.88,-0.47,-0.21,0.24,-1.17,1009.47
7.519,0.10,1.52,-0.08,2.61,1.88,-0.47,-0.21,0.24,-1.17,1009.51
7.52,0.10,1.52,-0.08,2.61,1.88,-0.47,-0.71,0.50,-2.47,1009.51
7.538,0.10,1.52,-0.08,4.56,3.97,-0.71,-0.71,0.50,-2.47,1009.51
7.539,0.31,1.67,-0.06,4.56,3.97,-0.71,-0.71,0.50,-2.47,1009.51
7.539,0.46,1.66,0.15,4.56,3.97,-0.71,-0.71,0.50,-2.47,1009.51
7.555,0.46,1.66,0.15,4.56,3.97,-0.71,-0.71,0.50,-2.47,1009.16
7.568,0.42,1.65,0.19,4.56,3.97,-0.71,-0.71,0.50,-2.47,1009.16
7.588,0.42,1.65,0.19,4.56,3.97,-0.71,-1.15,1.30,-4.91,1009.16
7.59,0.13,1.55,0.15,4.56,3.97,-0.71,-1.15,1.30,-4.91,1009.16
7.609,-0.43,0.91,0.28,4.56,3.97,-0.71,-1.15,1.30,-4.91,1009.16
7.61,-0.43,0.91,0.28,9.84,9.49,0.07,-1.15,1.30,-4.91,1009.16
7.634,-0.21,0.43,0.14,9.84,9.49,0.07,-1.15,1.30,-4.91,1009.16
7.635,-0.21,0.43,0.14,9.84,9.49,0.07,-1.15,1.30,-4.91,1008.93
7.657,-0.21,0.43,0.14,9.84,9.49,0.07,-1.19,1.54,-1.33,1008.93
7.659,0.51,0.65,-0.19,9.84,9.49,0.07,-1.19,1.54,-1.33,1008.93
7.678,0.51,0.65,-0.19,6.09,4.88,2.08,-1.19,1.54,-1.33,1008.93
7.679,-0.01,0.38,-0.04,6.09,4.88,2.08,-1.19,1.54,-1.33,1008.93
7.68,0.28,0.44,-0.13,6.09,4.88,2.08,-1.19,1.54,-1.33,1008.93
7.701,0.23,0.43,-0.13,6.09,4.88,2.08,-1.19,1.54,-1.33,1008.93
7.718,0.23,0.43,-0.13,6.09,4.88,2.08,-1.19,1.54,-1.33,1009.01
7.728,0.23,0.43,-0.13,6.09,4.88,2.08,-1.39,0.58,2.85,1009.01
7.729,0.02,0.44,-0.11,6.09,4.88,2.08,-1.39,0.58,2.85,1009.01
7.75,0.02,0.44,-0.11,7.97,-2.38,-0.66,-1.39,0.58,2.85,1009.01
7.751,0.25,0.66,-0.19,7.97,-2.38,-0.66,-1.39,0.58,2.85,1009.01
7.755,0.25,0.66,-0.19,7.97,-2.38,-0.66,-1.39,0.58,2.85,1009.09
7.769,0.29,0.89,-0.31,7.97,-2.38,-0.66,-1.39,0.58,2.85,1009.09
7.803,0.13,1.08,-0.55,7.97,-2.38,-0.66,-1.39,0.58,2.85,1009.09
7.804,0.13,1.08,-0.55,7.97,-2.38,-0.66,-0.93,1.97,4.33,1009.09
7.818,0.13,1.08,-0.55,4.29,-3.57,-1.35,-0.93,1.97,4.33,1009.09
7.819,-0.05,1.17,-0.70,4.29,-3.57,-1.35,-0.93,1.97,4.33,1009.09
7.819,-0.05,1.26,-0.84,4.29,-3.57,-1.35,-0.93,1.97,4.33,1009.09
7.835,-0.05,1.26,-0.84,4.29,-3.57,-1.35,-0.93,1.97,4.33,1009.24
7.868,-0.05,1.26,-0.84,4.29,-3.57,-1.35,-0.28,2.41,3.88,1009.24
7.87,-0.03,1.32,-0.89,4.29,-3.57,-1.35,-0.28,2.41,3.88,1009.24
7.871,0.09,1.41,-0.78,4.29,-3.57,-1.35,-0.28,2.41,3.88,1009.24
7.888,0.12,1.52,-0.70,4.29,-3.57,-1.35,-0.28,2.41,3.88,1009.24
7.89,0.12,1.52,-0.70,0.58,1.79,-5.96,-0.28,2.41,3.88,1009.24
7.9,-0.10,1.62,-0.77,0.58,1.79,-5.96,-0.28,2.41,3.88,1009.24
7.92,-0.10,1.62,-0.77,0.58,1.79,-5.96,-0.28,2.41,3.88,1009.29
7.937,-0.10,1.62,-0.77,0.58,1.79,-5.96,-0.39,3.60,2.44,1009.29
7.938,-0.49,1.62,-0.92,0.58,1.79,-5.96,-0.39,3.60,2.44,1009.29
7.955,-0.72,1.59,-1.19,0.58,1.79,-5.96,-0.39,3.60,2.44,1009.29
7.956,-0.72,1.59,-1.19,0.58,1.79,-5.96,-0.39,3.60,2.44,1009.22
7.958,-0.99,1.39,-0.99,0.58,1.79,-5.96,-0.39,3.60,2.44,1009.22
7.958,-0.99,1.39,-0.99,-0.79,4.79,-7.64,-0.39,3.60,2.44,1009.22
8.008,-1.83,0.92,-0.32,-0.79,4.79,-7.64,-0.39,3.60,2.44,1009.22
8.009,-2.12,0.83,-0.63,-0.79,4.79,-7.64,-0.39,3.60,2.44,1009.22
8.01,-2.12,0.83,-0.63,-0.79,4.79,-7.64,-0.42,2.83,0.96,1009.22
8.028,-2.12,0.83,-0.63,-7.62,5.73,-9.98,-0.42,2.83,0.96,1009.22
8.03,-1.85,0.57,-0.27,-7.62,5.73,-9.98,-0.42,2.83,0.96,1009.22
8.035,-1.85,0.57,-0.27,-7.62,5.73,-9.98,-0.42,2.83,0.96,1009.45
8.078,-1.85,0.57,-0.27,-7.62,5.73,-9.98,0.40,-0.00,-2.41,1009.45
8.079,-1.02,1.18,0.06,-7.62,5.73,-9.98,0.40,-0.00,-2.41,1009.45
8.08,0.23,1.27,-0.07,-7.62,5.73,-9.98,0.40,-0.00,-2.41,1009.45
8.098,0.15,1.15,-0.33,-7.62,5.73,-9.98,0.40,-0.00,-2.41,1009.45
8.099,-2.06,0.85,0.30,-7.62,5.73,-9.98,0.40,-0.00,-2.41,1009.45
8.1,-2.06,0.85,0.30,-18.05,-2.14,-3.73,0.40,-0.00,-2.41,1009.45
8.122,-2.06,0.85,0.30,-18.05,-2.14,-3.73,0.40,-0.00,-2.41,1009.59
8.148,-2.06,0.85,0.30,-18.05,-2.14,-3.73,0.32,-0.48,-0.87,1009.59
8.15,-0.31,1.21,-0.40,-18.05,-2.14,-3.73,0.32,-0.48,-0.87,1009.59
8.15,-0.20,0.97,-0.54,-18.05,-2.14,-3.73,0.32,-0.48,-0.87,1009.59
8.155,-0.20,0.97,-0.54,-18.05,-2.14,-3.73,0.32,-0.48,-0.87,1009.67
8.169,-0.11,0.92,0.38,-18.05,-2.14,-3.73,0.32,-0.48,-0.87,1009.67
8.171,-0.11,0.92,0.38,-3.74,2.20,0.71,0.32,-0.48,-0.87,1009.67
8.217,-0.11,0.92,0.38,-3.74,2.20,0.71,0.15,-0.13,-0.24,1009.67
8.218,-0.18,0.96,0.03,-3.74,2.20,0.71,0.15,-0.13,-0.24,1009.67
8.218,-0.16,1.02,0.03,-3.74,2.20,0.71,0.15,-0.13,-0.24,1009.67
8.235,-0.16,1.03,-0.20,-3.74,2.20,0.71,0.15,-0.13,-0.24,1009.67
8.236,-0.16,1.03,-0.20,-3.74,2.20,0.71,0.15,-0.13,-0.24,1009.61
8.238,-0.14,1.00,0.06,-3.74,2.20,0.71,0.15,-0.13,-0.24,1009.61
8.239,-0.14,1.00,0.06,-0.56,0.51,-1.27,0.15,-0.13,-0.24,1009.61
8.29,-0.14,1.00,0.06,-0.56,0.51,-1.27,-0.04,-0.00,-0.09,1009.61
8.291,-0.12,1.02,-0.09,-0.56,0.51,-1.27,-0.04,-0.00,-0.09,1009.61
8.291,-0.10,0.99,0.05,-0.56,0.51,-1.27,-0.04,-0.00,-0.09,1009.61
8.301,-0.10,0.96,0.11,-0.56,0.51,-1.27,-0.04,-0.00,-0.09,1009.61
8.309,-0.10,0.96,0.11,-0.33,0.42,0.30,-0.04,-0.00,-0.09,1009.61
8.321,-0.10,0.96,0.11,-0.33,0.42,0.30,-0.04,-0.00,-0.09,1009.46
8.355,-0.10,0.96,0.11,-0.33,0.42,0.30,-0.04,-0.00,-0.09,1009.35
8.357,-0.11,0.96,0.08,-0.33,0.42,0.30,-0.04,-0.00,-0.09,1009.35
8.357,-0.13,0.97,0.01,-0.33,0.42,0.30,-0.04,-0.00,-0.09,1009.35
8.358,-0.13,0.97,0.01,-0.33,0.42,0.30,0.13,0.08,-0.11,1009.35
8.368,-0.13,0.97,-0.01,-0.33,0.42,0.30,0.13,0.08,-0.11,1009.35
8.378,-0.13,0.97,-0.01,0.36,0.19,0.79,0.13,0.08,-0.11,1009.35
8.378,-0.13,0.97,-0.02,0.36,0.19,0.79,0.13,0.08,-0.11,1009.35
8.428,-0.13,0.97,-0.02,0.36,0.19,0.79,0.12,0.11,-0.08,1009.35
8.429,-0.14,0.97,0.00,0.36,0.19,0.79,0.12,0.11,-0.08,1009.35
8.429,-0.13,0.96,0.03,0.36,0.19,0.79,0.12,0.11,-0.08,1009.35
8.441,-0.13,0.96,0.03,0.36,0.19,0.79,0.12,0.11,-0.08,1009.41
8.449,-0.13,0.96,0.03,0.24,0.05,0.62,0.12,0.11,-0.08,1009.41
8.45,-0.07,0.98,0.02,0.24,0.05,0.62,0.12,0.11,-0.08,1009.41
8.498,-0.07,0.98,0.02,0.24,0.05,0.62,0.18,0.11,-0.19,1009.41
8.5,-0.09,0.98,0.00,0.24,0.05,0.62,0.18,0.11,-0.19,1009.41
8.501,-0.12,0.99,-0.03,0.24,0.05,0.62,0.18,0.11,-0.19,1009.41
8.502,-0.12,0.99,-0.02,0.24,0.05,0.62,0.18,0.11,-0.19,1009.41
8.517,-0.12,0.99,-0.02,0.24,0.05,0.62,0.18,0.11,-0.19,1009.42
8.518,-0.07,1.00,0.03,0.24,0.05,0.62,0.18,0.11,-0.19,1009.42
8.519,-0.07,1.00,0.03,0.52,0.12,0.89,0.18,0.11,-0.19,1009.42
8.556,-0.07,1.03,0.04,0.52,0.12,0.89,0.18,0.11,-0.19,1009.42
8.557,-0.07,1.03,0.04,0.52,0.12,0.89,0.18,0.11,-0.19,1009.38
8.569,-0.05,1.05,0.01,0.52,0.12,0.89,0.18,0.11,-0.19,1009.38
8.57,-0.05,1.05,0.01,0.52,0.12,0.89,0.30,0.20,-0.42,1009.38
8.589,-0.05,1.05,0.01,0.92,0.41,0.86,0.30,0.20,-0.42,1009.38
8.591,-0.08,1.07,-0.05,0.92,0.41,0.86,0.30,0.20,-0.42,1009.38
8.634,-0.01,1.14,-0.04,0.92,0.41,0.86,0.30,0.20,-0.42,1009.38
8.635,0.04,1.28,-0.16,0.92,0.41,0.86,0.30,0.20,-0.42,1009.38
8.636,0.04,1.28,-0.16,0.92,0.41,0.86,0.30,0.20,-0.42,1009.15
8.637,0.04,1.28,-0.16,0.92,0.41,0.86,0.09,0.43,-1.09,1009.15
8.658,0.04,1.28,-0.16,2.25,1.24,0.83,0.09,0.43,-1.09,1009.15
8.66,0.09,1.33,-0.47,2.25,1.24,0.83,0.09,0.43,-1.09,1009.15
8.66,-0.12,1.28,-0.29,2.25,1.24,0.83,0.09,0.43,-1.09,1009.15
8.701,-0.00,1.41,-0.29,2.25,1.24,0.83,0.09,0.43,-1.09,1009.15
8.702,0.19,1.55,-0.21,2.25,1.24,0.83,0.09,0.43,-1.09,1009.15
8.708,0.19,1.55,-0.21,2.25,1.24,0.83,-0.76,0.03,-2.39,1009.15
8.722,0.19,1.55,-0.21,2.25,1.24,0.83,-0.76,0.03,-2.39,1009.29
8.729,0.19,1.55,-0.21,4.53,4.02,-2.25,-0.76,0.03,-2.39,1009.29
8.73,0.35,1.59,-0.11,4.53,4.02,-2.25,-0.76,0.03,-2.39,1009.29
8.755,0.51,1.64,0.05,4.53,4.02,-2.25,-0.76,0.03,-2.39,1009.29
8.757,0.51,1.64,0.05,4.53,4.02,-2.25,-0.76,0.03,-2.39,1009.11
8.768,0.58,1.66,0.10,4.53,4.02,-2.25,-0.76,0.03,-2.39,1009.11
8.778,0.58,1.66,0.10,4.53,4.02,-2.25,-1.35,0.55,-4.93,1009.11
8.798,0.58,1.66,0.10,9.42,8.78,-1.58,-1.35,0.55,-4.93,1009.11
8.8,0.30,1.50,0.07,9.42,8.78,-1.58,-1.35,0.55,-4.93,1009.11
8.801,-0.11,1.40,0.58,9.42,8.78,-1.58,-1.35,0.55,-4.93,1009.11
8.835,-0.43,0.77,0.06,9.42,8.78,-1.58,-1.35,0.55,-4.93,1009.11
8.836,-0.43,0.77,0.06,9.42,8.78,-1.58,-1.35,0.55,-4.93,1008.86
8.848,-0.43,0.77,0.06,9.42,8.78,-1.58,-0.85,1.09,-4.01,1008.86
8.849,-1.24,0.41,-0.23,9.42,8.78,-1.58,-0.85,1.09,-4.01,1008.86
8.868,-1.24,0.41,-0.23,10.78,9.68,2.38,-0.85,1.09,-4.01,1008.86
8.87,0.16,0.54,0.14,10.78,9.68,2.38,-0.85,1.09,-4.01,1008.86
8.901,0.71,0.73,-0.27,10.78,9.68,2.38,-0.85,1.09,-4.01,1008.86
8.902,0.30,0.46,-0.18,10.78,9.68,2.38,-0.85,1.09,-4.01,1008.86
8.915,0.30,0.46,-0.18,10.78,9.68,2.38,-0.85,1.09,-4.01,1008.97
8.924,0.30,0.46,-0.18,10.78,9.68,2.38,-0.94,0.09,1.69,1008.97
8.944,0.30,0.46,-0.18,3.72,-0.72,-0.51,-0.94,0.09,1.69,1008.97
8.945,0.02,0.29,0.01,3.72,-0.72,-0.51,-0.94,0.09,1.69,1008.97
8.946,-0.05,0.39,-0.17,3.72,-0.72,-0.51,-0.94,0.09,1.69,1008.97
8.955,-0.05,0.39,-0.17,3.72,-0.72,-0.51,-0.94,0.09,1.69,1009.08
8.968,0.12,0.52,-0.33,3.72,-0.72,-0.51,-0.94,0.09,1.69,1009.08
8.989,0.12,0.52,-0.33,3.72,-0.72,-0.51,-0.01,0.21,4.58,1009.08
8.99,0.24,0.65,-0.39,3.72,-0.72,-0.51,-0.01,0.21,4.58,1009.08
9.009,0.24,0.65,-0.39,5.55,-4.35,-1.29,-0.01,0.21,4.58,1009.08
9.01,0.17,0.78,-0.41,5.55,-4.35,-1.29,-0.01,0.21,4.58,1009.08
9.033,0.08,0.91,-0.39,5.55,-4.35,-1.29,-0.01,0.21,4.58,1009.08
9.034,0.08,0.91,-0.39,5.55,-4.35,-1.29,-0.01,0.21,4.58,1009.18
9.059,0.17,1.10,-0.34,5.55,-4.35,-1.29,-0.01,0.21,4.58,1009.18
9.06,0.17,1.10,-0.34,5.55,-4.35,-1.29,0.87,0.63,5.14,1009.18
9.078,0.17,1.10,-0.34,2.33,-2.57,-2.75,0.87,0.63,5.14,1009.18
9.079,0.23,1.38,-0.36,2.33,-2.57,-2.75,0.87,0.63,5.14,1009.18
9.079,0.16,1.65,-0.47,2.33,-2.57,-2.75,0.87,0.63,5.14,1009.18
9.101,0.17,2.00,-0.47,2.33,-2.57,-2.75,0.87,0.63,5.14,1009.18
9.116,0.17,2.00,-0.47,2.33,-2.57,-2.75,0.87,0.63,5.14,1009.25
9.129,-0.13,2.65,-0.59,2.33,-2.57,-2.75,0.87,0.63,5.14,1009.25
9.13,-0.13,2.65,-0.59,2.33,-2.57,-2.75,0.68,1.10,3.76,1009.25
9.138,-1.67,1.28,-0.04,2.33,-2.57,-2.75,0.68,1.10,3.76,1009.25
9.15,-1.67,1.28,-0.04,0.13,3.74,-2.64,0.68,1.10,3.76,1009.25
9.155,-1.67,1.28,-0.04,0.13,3.74,-2.64,0.68,1.10,3.76,1009.21
9.169,-1.46,2.06,-0.17,0.13,3.74,-2.64,0.68,1.10,3.76,1009.21
9.198,-1.46,2.06,-0.17,0.13,3.74,-2.64,-0.31,0.50,3.40,1009.21
9.199,-2.53,1.13,-0.05,0.13,3.74,-2.64,-0.31,0.50,3.40,1009.21
9.218,-2.53,1.13,-0.05,-9.44,10.96,-2.24,-0.31,0.50,3.40,1009.21
9.219,-3.27,0.42,0.66,-9.44,10.96,-2.24,-0.31,0.50,3.40,1009.21
9.219,-1.45,1.08,0.09,-9.44,10.96,-2.24,-0.31,0.50,3.40,1009.21
9.235,-1.45,1.08,0.09,-9.44,10.96,-2.24,-0.31,0.50,3.40,1009.30
9.269,-1.45,1.08,0.09,-9.44,10.96,-2.24,-0.43,-0.96,-1.61,1009.30
9.27,-0.95,1.22,-0.16,-9.44,10.96,-2.24,-0.43,-0.96,-1.61,1009.30
9.271,-1.48,0.82,0.18,-9.44,10.96,-2.24,-0.43,-0.96,-1.61,1009.30
9.29,1.03,1.58,-0.41,-9.44,10.96,-2.24,-0.43,-0.96,-1.61,1009.30
9.291,1.03,1.58,-0.41,-23.31,0.42,2.54,-0.43,-0.96,-1.61,1009.30
9.309,1.33,1.06,-0.64,-23.31,0.42,2.54,-0.43,-0.96,-1.61,1009.30
9.315,1.33,1.06,-0.64,-23.31,0.42,2.54,-0.43,-0.96,-1.61,1009.39
9.338,1.33,1.06,-0.64,-23.31,0.42,2.54,-0.75,-0.39,-3.11,1009.39
9.34,-1.06,0.88,0.02,-23.31,0.42,2.54,-0.75,-0.39,-3.11,1009.39
9.355,-1.29,0.71,1.33,-23.31,0.42,2.54,-0.75,-0.39,-3.11,1009.39
9.356,-1.29,0.71,1.33,-23.31,0.42,2.54,-0.75,-0.39,-3.11,1009.57
9.358,-0.48,1.11,-0.23,-23.31,0.42,2.54,-0.75,-0.39,-3.11,1009.57
9.358,-0.48,1.11,-0.23,-0.26,2.28,-1.72,-0.75,-0.39,-3.11,1009.57
9.41,-0.48,1.11,-0.23,-0.26,2.28,-1.72,0.13,-0.33,-0.68,1009.57
9.411,-0.74,1.05,-0.45,-0.26,2.28,-1.72,0.13,-0.33,-0.68,1009.57
9.411,-0.16,1.01,-0.08,-0.26,2.28,-1.72,0.13,-0.33,-0.68,1009.57
9.43,-0.21,1.01,-0.08,-0.26,2.28,-1.72,0.13,-0.33,-0.68,1009.57
9.431,-0.21,1.01,-0.08,-5.72,-0.50,3.00,0.13,-0.33,-0.68,1009.57
9.437,-0.21,1.01,-0.08,-5.72,-0.50,3.00,0.13,-0.33,-0.68,1009.73
9.452,-0.12,0.99,0.07,-5.72,-0.50,3.00,0.13,-0.33,-0.68,1009.73
9.478,-0.11,0.99,0.07,-5.72,-0.50,3.00,0.13,-0.33,-0.68,1009.73
9.48,-0.11,0.99,0.07,-5.72,-0.50,3.00,-0.13,-0.01,-0.18,1009.73
9.498,-0.11,0.99,0.07,-1.82,0.55,-1.10,-0.13,-0.01,-0.18,1009.73
9.499,-0.12,0.97,0.13,-1.82,0.55,-1.10,-0.13,-0.01,-0.18,1009.73
9.5,-0.14,0.99,0.05,-1.82,0.55,-1.10,-0.13,-0.01,-0.18,1009.73
9.515,-0.14,0.99,0.05,-1.82,0.55,-1.10,-0.13,-0.01,-0.18,1009.48
9.549,-0.14,0.99,0.05,-1.82,0.55,-1.10,0.13,0.08,-0.17,1009.48
9.55,-0.13,0.99,-0.00,-1.82,0.55,-1.10,0.13,0.08,-0.17,1009.48
9.551,-0.11,0.98,0.04,-1.82,0.55,-1.10,0.13,0.08,-0.17,1009.48
9.555,-0.11,0.98,0.04,-1.82,0.55,-1.10,0.13,0.08,-0.17,1009.32
9.57,-0.11,0.98,0.04,0.32,0.25,1.24,0.13,0.08,-0.17,1009.32
9.571,-0.10,0.97,0.02,0.32,0.25,1.24,0.13,0.08,-0.17,1009.32
9.624,-0.10,0.97,0.02,0.32,0.25,1.24,0.23,0.12,-0.21,1009.32
9.625,-0.14,0.96,0.01,0.32,0.25,1.24,0.23,0.12,-0.21,1009.32
9.626,-0.13,0.97,0.02,0.32,0.25,1.24,0.23,0.12,-0.21,1009.32
9.641,-0.10,0.97,0.04,0.32,0.25,1.24,0.23,0.12,-0.21,1009.32
9.643,-0.10,0.97,0.04,0.32,0.25,1.24,0.23,0.12,-0.21,1009.29
9.643,-0.11,0.98,-0.00,0.32,0.25,1.24,0.23,0.12,-0.21,1009.29
9.644,-0.11,0.98,-0.00,0.52,0.22,0.89,0.23,0.12,-0.21,1009.29
9.689,-0.11,0.98,-0.00,0.52,0.22,0.89,0.30,0.18,-0.32,1009.29
9.69,-0.13,0.97,-0.03,0.52,0.22,0.89,0.30,0.18,-0.32,1009.29
9.691,-0.14,0.98,-0.04,0.52,0.22,0.89,0.30,0.18,-0.32,1009.29
9.702,-0.17,0.98,-0.06,0.52,0.22,0.89,0.30,0.18,-0.32,1009.29
9.709,-0.17,0.98,-0.06,0.70,0.18,1.08,0.30,0.18,-0.32,1009.29
9.714,-0.17,0.98,-0.06,0.70,0.18,1.08,0.30,0.18,-0.32,1009.31
9.755,-0.17,0.98,-0.06,0.70,0.18,1.08,0.30,0.18,-0.32,1009.30
9.756,-0.13,0.99,-0.04,0.70,0.18,1.08,0.30,0.18,-0.32,1009.30
9.756,-0.14,1.01,-0.06,0.70,0.18,1.08,0.30,0.18,-0.32,1009.30
9.757,-0.14,1.01,-0.06,0.70,0.18,1.08,0.27,0.22,-0.44,1009.30
9.768,-0.14,1.04,-0.08,0.70,0.18,1.08,0.27,0.22,-0.44,1009.30
9.779,-0.14,1.04,-0.08,0.75,0.37,0.68,0.27,0.22,-0.44,1009.30
9.78,-0.06,1.11,-0.09,0.75,0.37,0.68,0.27,0.22,-0.44,1009.30
9.829,-0.06,1.11,-0.09,0.75,0.37,0.68,0.00,0.21,-1.10,1009.30
9.831,0.07,1.26,-0.19,0.75,0.37,0.68,0.00,0.21,-1.10,1009.30
9.831,-0.01,1.27,-0.27,0.75,0.37,0.68,0.00,0.21,-1.10,1009.30
9.842,-0.01,1.27,-0.27,0.75,0.37,0.68,0.00,0.21,-1.10,1009.30
9.849,-0.01,1.27,-0.27,1.90,1.26,0.27,0.00,0.21,-1.10,1009.30
9.85,-0.07,1.28,-0.33,1.90,1.26,0.27,0.00,0.21,-1.10,1009.30
9.862,-0.03,1.30,-0.14,1.90,1.26,0.27,0.00,0.21,-1.10,1009.30
9.899,-0.03,1.30,-0.14,1.90,1.26,0.27,-0.53,-0.09,-2.37,1009.30
9.899,-0.01,1.37,-0.22,1.90,1.26,0.27,-0.53,-0.09,-2.37,1009.30
9.9,0.14,1.48,-0.22,1.90,1.26,0.27,-0.53,-0.09,-2.37,1009.30
9.915,0.14,1.48,-0.22,1.90,1.26,0.27,-0.53,-0.09,-2.37,1009.45
9.921,0.29,1.57,-0.25,1.90,1.26,0.27,-0.53,-0.09,-2.37,1009.45
9.921,0.29,1.57,-0.25,4.66,4.15,-1.84,-0.53,-0.09,-2.37,1009.45
9.956,0.48,1.59,-0.07,4.66,4.15,-1.84,-0.53,-0.09,-2.37,1009.45
9.958,0.48,1.59,-0.07,4.66,4.15,-1.84,-0.53,-0.09,-2.37,1009.11
9.968,0.55,1.58,0.15,4.66,4.15,-1.84,-0.53,-0.09,-2.37,1009.11
9.969,0.55,1.58,0.15,4.66,4.15,-1.84,-1.28,0.35,-4.74,1009.11
9.99,0.55,1.58,0.15,8.48,8.12,-1.91,-1.28,0.35,-4.74,1009.11
9.991,0.06,1.49,0.26,8.48,8.12,-1.91,-1.28,0.35,-4.74,1009.11
10.034,-0.15,1.46,0.57,8.48,8.12,-1.91,-1.28,0.35,-4.74,1009.11
10.035,-0.10,1.14,0.51,8.48,8.12,-1.91,-1.28,0.35,-4.74,1009.11
10.036,-0.10,1.14,0.51,8.48,8.12,-1.91,-1.28,0.35,-4.74,1008.85
10.038,-0.10,1.14,0.51,8.48,8.12,-1.91,-0.18,0.93,-5.59,1008.85
10.059,-0.10,1.14,0.51,11.14,10.77,2.12,-0.18,0.93,-5.59,1008.85
10.061,-1.49,-0.02,-0.21,11.14,10.77,2.12,-0.18,0.93,-5.59,1008.85
10.062,-0.71,0.73,0.13,11.14,10.77,2.12,-0.18,0.93,-5.59,1008.85
10.101,0.82,0.76,-0.05,11.14,10.77,2.12,-0.18,0.93,-5.59,1008.85
10.103,0.35,0.50,-0.20,11.14,10.77,2.12,-0.18,0.93,-5.59,1008.85
10.108,0.35,0.50,-0.20,11.14,10.77,2.12,-0.20,-0.13,1.32,1008.85
10.115,0.35,0.50,-0.20,11.14,10.77,2.12,-0.20,-0.13,1.32,1009.06
10.129,-0.01,0.25,0.08,11.14,10.77,2.12,-0.20,-0.13,1.32,1009.06
10.13,-0.01,0.25,0.08,1.20,1.86,2.55,-0.20,-0.13,1.32,1009.06
10.155,-0.18,0.20,0.11,1.20,1.86,2.55,-0.20,-0.13,1.32,1009.06
10.156,-0.18,0.20,0.11,1.20,1.86,2.55,-0.20,-0.13,1.32,1009.11
10.17,0.02,0.35,0.07,1.20,1.86,2.55,-0.20,-0.13,1.32,1009.11
10.179,0.02,0.35,0.07,1.20,1.86,2.55,0.26,-0.29,4.22,1009.11
10.199,0.02,0.35,0.07,8.33,-3.13,0.19,0.26,-0.29,4.22,1009.11
10.2,0.30,0.58,-0.00,8.33,-3.13,0.19,0.26,-0.29,4.22,1009.11
10.2,0.16,0.73,-0.06,8.33,-3.13,0.19,0.26,-0.29,4.22,1009.11
10.234,-0.05,0.86,-0.15,8.33,-3.13,0.19,0.26,-0.29,4.22,1009.11
10.236,-0.05,0.86,-0.15,8.33,-3.13,0.19,0.26,-0.29,4.22,1009.23
10.249,-0.05,0.86,-0.15,8.33,-3.13,0.19,0.57,0.60,5.54,1009.23
10.25,-0.08,1.05,-0.26,8.33,-3.13,0.19,0.57,0.60,5.54,1009.23
10.269,-0.08,1.05,-0.26,3.03,-4.08,1.08,0.57,0.60,5.54,1009.23
10.27,-0.14,1.25,-0.36,3.03,-4.08,1.08,0.57,0.60,5.54,1009.23
10.3,0.02,1.63,-0.46,3.03,-4.08,1.08,0.57,0.60,5.54,1009.23
10.302,-0.18,1.90,-0.33,3.03,-4.08,1.08,0.57,0.60,5.54,1009.23
10.315,-0.18,1.90,-0.33,3.03,-4.08,1.08,0.57,0.60,5.54,1009.31
10.318,-0.18,1.90,-0.33,3.03,-4.08,1.08,0.33,-0.50,4.95,1009.31
10.339,-0.67,1.96,-0.24,3.03,-4.08,1.08,0.33,-0.50,4.95,1009.31
10.34,-1.01,1.84,0.04,3.03,-4.08,1.08,0.33,-0.50,4.95,1009.31
10.341,-1.01,1.84,0.04,-1.85,1.81,-1.73,0.33,-0.50,4.95,1009.31
10.355,-1.01,1.84,0.04,-1.85,1.81,-1.73,0.33,-0.50,4.95,1009.19
10.368,-0.97,1.67,0.25,-1.85,1.81,-1.73,0.33,-0.50,4.95,1009.19
10.38,-1.19,1.63,0.15,-1.85,1.81,-1.73,0.33,-0.50,4.95,1009.19
10.389,-1.19,1.63,0.15,-1.85,1.81,-1.73,0.18,0.16,4.35,1009.19
10.41,-1.19,1.63,0.15,-8.23,9.62,-1.08,0.18,0.16,4.35,1009.19
10.411,-2.45,1.17,0.29,-8.23,9.62,-1.08,0.18,0.16,4.35,1009.19
10.434,-2.18,1.00,0.07,-8.23,9.62,-1.08,0.18,0.16,4.35,1009.19
10.435,-2.18,1.00,0.07,-8.23,9.62,-1.08,0.18,0.16,4.35,1009.32
10.452,-1.50,1.01,-0.22,-8.23,9.62,-1.08,0.18,0.16,4.35,1009.32
10.458,-1.50,1.01,-0.22,-8.23,9.62,-1.08,-0.33,-0.20,-0.49,1009.32
10.479,-1.50,1.01,-0.22,-18.18,4.65,3.18,-0.33,-0.20,-0.49,1009.32
10.48,-1.49,0.85,-0.03,-18.18,4.65,3.18,-0.33,-0.20,-0.49,1009.32
10.481,0.64,2.08,-0.34,-18.18,4.65,3.18,-0.33,-0.20,-0.49,1009.32
10.501,1.04,0.82,-0.18,-18.18,4.65,3.18,-0.33,-0.20,-0.49,1009.32
10.515,1.04,0.82,-0.18,-18.18,4.65,3.18,-0.33,-0.20,-0.49,1009.40
10.529,1.04,0.82,-0.18,-18.18,4.65,3.18,-0.61,-1.00,-3.38,1009.40
10.53,-0.17,1.14,-0.25,-18.18,4.65,3.18,-0.61,-1.00,-3.38,1009.40
10.549,-1.10,0.95,0.03,-18.18,4.65,3.18,-0.61,-1.00,-3.38,1009.40
10.551,-1.10,0.95,0.03,-8.34,3.08,-1.17,-0.61,-1.00,-3.38,1009.40
10.56,-1.10,0.95,0.03,-8.34,3.08,-1.17,-0.61,-1.00,-3.38,1009.46
10.568,-0.78,0.84,0.69,-8.34,3.08,-1.17,-0.61,-1.00,-3.38,1009.46
10.6,-0.78,0.84,0.69,-8.34,3.08,-1.17,-0.11,-0.57,-1.42,1009.46
10.601,-0.78,1.05,-0.23,-8.34,3.08,-1.17,-0.11,-0.57,-1.42,1009.46
10.62,-0.78,1.05,-0.23,-0.58,-0.05,0.34,-0.11,-0.57,-1.42,1009.46
10.621,-0.26,1.04,-0.24,-0.58,-0.05,0.34,-0.11,-0.57,-1.42,1009.46
10.621,-0.31,1.01,-0.08,-0.58,-0.05,0.34,-0.11,-0.57,-1.42,1009.46
10.635,-0.31,1.01,-0.08,-0.58,-0.05,0.34,-0.11,-0.57,-1.42,1009.77
10.669,-0.31,1.01,-0.08,-0.58,-0.05,0.34,-0.24,-0.07,-0.31,1009.77
10.671,-0.17,1.01,-0.04,-0.58,-0.05,0.34,-0.24,-0.07,-0.31,1009.77
10.671,-0.20,0.97,0.05,-0.58,-0.05,0.34,-0.24,-0.07,-0.31,1009.77
10.69,-0.16,0.98,0.06,-0.58,-0.05,0.34,-0.24,-0.07,-0.31,1009.77
10.692,-0.16,0.98,0.06,-3.21,0.51,-0.10,-0.24,-0.07,-0.31,1009.77
10.7,-0.15,0.99,0.01,-3.21,0.51,-0.10,-0.24,-0.07,-0.31,1009.77
10.715,-0.15,0.99,0.01,-3.21,0.51,-0.10,-0.24,-0.07,-0.31,1009.49
10.739,-0.15,0.99,0.01,-3.21,0.51,-0.10,-0.14,0.06,-0.12,1009.49
10.74,-0.15,0.99,0.00,-3.21,0.51,-0.10,-0.14,0.06,-0.12,1009.49
10.755,-0.13,1.00,0.00,-3.21,0.51,-0.10,-0.14,0.06,-0.12,1009.49
10.756,-0.13,1.00,0.00,-3.21,0.51,-0.10,-0.14,0.06,-0.12,1009.29
10.759,-0.13,1.00,0.00,-0.11,0.30,0.55,-0.14,0.06,-0.12,1009.29
10.759,-0.12,0.98,0.05,-0.11,0.30,0.55,-0.14,0.06,-0.12,1009.29
10.81,-0.12,0.98,0.05,-0.11,0.30,0.55,-0.03,0.13,-0.13,1009.29
10.811,-0.13,0.96,0.06,-0.11,0.30,0.55,-0.03,0.13,-0.13,1009.29
10.812,-0.13,0.96,0.06,-0.11,0.30,0.55,-0.03,0.13,-0.13,1009.29
10.829,-0.13,0.96,0.06,0.35,0.38,0.50,-0.03,0.13,-0.13,1009.29
10.83,-0.14,0.96,0.06,0.35,0.38,0.50,-0.03,0.13,-0.13,1009.29
10.836,-0.14,0.96,0.06,0.35,0.38,0.50,-0.03,0.13,-0.13,1009.20
10.88,-0.14,0.96,0.06,0.35,0.38,0.50,0.10,0.21,-0.16,1009.20
10.881,-0.14,0.97,0.04,0.35,0.38,0.50,0.10,0.21,-0.16,1009.20
10.882,-0.12,0.97,0.04,0.35,0.38,0.50,0.10,0.21,-0.16,1009.20
10.899,-0.12,0.98,0.01,0.35,0.38,0.50,0.10,0.21,-0.16,1009.20
10.9,-0.14,0.99,-0.05,0.35,0.38,0.50,0.10,0.21,-0.16,1009.20
10.901,-0.14,0.99,-0.05,0.46,0.10,0.94,0.10,0.21,-0.16,1009.20
10.915,-0.14,0.99,-0.05,0.46,0.10,0.94,0.10,0.21,-0.16,1009.26
10.949,-0.14,0.99,-0.05,0.46,0.10,0.94,0.12,0.20,-0.31,1009.26
10.95,-0.10,1.00,0.01,0.46,0.10,0.94,0.12,0.20,-0.31,1009.26
10.951,-0.12,0.99,0.04,0.46,0.10,0.94,0.12,0.20,-0.31,1009.26
10.955,-0.12,0.99,0.04,0.46,0.10,0.94,0.12,0.20,-0.31,1009.26
10.968,-0.07,1.02,0.05,0.46,0.10,0.94,0.12,0.20,-0.31,1009.26
10.968,-0.07,1.02,0.05,0.77,0.32,0.58,0.12,0.20,-0.31,1009.26
11.019,-0.07,1.02,0.05,0.77,0.32,0.58,0.09,0.30,-0.87,1009.26
11.021,-0.03,1.08,0.01,0.77,0.32,0.58,0.09,0.30,-0.87,1009.26
11.021,0.01,1.18,-0.11,0.77,0.32,0.58,0.09,0.30,-0.87,1009.26
11.034,0.06,1.26,-0.19,0.77,0.32,0.58,0.09,0.30,-0.87,1009.26
11.035,0.06,1.26,-0.19,0.77,0.32,0.58,0.09,0.30,-0.87,1009.36
11.049,0.01,1.33,-0.30,0.77,0.32,0.58,0.09,0.30,-0.87,1009.36
11.05,0.01,1.33,-0.30,1.86,0.88,0.89,0.09,0.30,-0.87,1009.36
11.059,0.05,1.40,-0.19,1.86,0.88,0.89,0.09,0.30,-0.87,1009.36
11.09,0.05,1.40,-0.19,1.86,0.88,0.89,-0.53,-0.07,-2.30,1009.36
11.091,0.12,1.50,-0.23,1.86,0.88,0.89,-0.53,-0.07,-2.30,1009.36
11.101,0.25,1.60,-0.16,1.86,0.88,0.89,-0.53,-0.07,-2.30,1009.36
11.11,0.25,1.60,-0.16,4.62,3.67,-1.63,-0.53,-0.07,-2.30,1009.36
11.115,0.25,1.60,-0.16,4.62,3.67,-1.63,-0.53,-0.07,-2.30,1009.54
11.155,0.25,1.60,-0.16,4.62,3.67,-1.63,-0.53,-0.07,-2.30,1009.37
11.156,0.44,1.70,-0.16,4.62,3.67,-1.63,-0.53,-0.07,-2.30,1009.37
11.157,0.66,1.77,-0.05,4.62,3.67,-1.63,-0.53,-0.07,-2.30,1009.37
11.158,0.66,1.77,-0.05,4.62,3.67,-1.63,-1.23,0.27,-4.91,1009.37
11.167,0.63,1.75,0.19,4.62,3.67,-1.63,-1.23,0.27,-4.91,1009.37
11.179,0.05,1.62,0.25,4.62,3.67,-1.63,-1.23,0.27,-4.91,1009.37
11.181,0.05,1.62,0.25,8.97,8.85,-2.16,-1.23,0.27,-4.91,1009.37
11.23,-0.02,1.52,0.44,8.97,8.85,-2.16,-1.23,0.27,-4.91,1009.37
11.231,0.39,1.39,0.63,8.97,8.85,-2.16,-1.23,0.27,-4.91,1009.37
11.231,0.39,1.39,0.63,8.97,8.85,-2.16,-0.38,0.61,-7.09,1009.37
11.235,0.39,1.39,0.63,8.97,8.85,-2.16,-0.38,0.61,-7.09,1008.72
11.25,0.39,1.39,0.63,13.31,13.79,0.79,-0.38,0.61,-7.09,1008.72
11.251,-0.91,-0.47,-0.23,13.31,13.79,0.79,-0.38,0.61,-7.09,1008.72
11.299,-0.91,-0.47,-0.23,13.31,13.79,0.79,0.01,0.39,1.67,1008.72
11.301,-2.77,0.36,0.24,13.31,13.79,0.79,0.01,0.39,1.67,1008.72
11.302,1.02,0.66,-0.01,13.31,13.79,0.79,0.01,0.39,1.67,1008.72
11.303,1.00,0.68,-0.30,13.31,13.79,0.79,0.01,0.39,1.67,1008.72
11.315,1.00,0.68,-0.30,13.31,13.79,0.79,0.01,0.39,1.67,1009.03
11.319,0.12,0.32,0.01,13.31,13.79,0.79,0.01,0.39,1.67,1009.03
11.32,0.12,0.32,0.01,0.16,2.58,2.53,0.01,0.39,1.67,1009.03
11.355,-0.20,0.09,0.33,0.16,2.58,2.53,0.01,0.39,1.67,1009.03
11.356,-0.20,0.09,0.33,0.16,2.58,2.53,0.01,0.39,1.67,1009.11
11.367,0.33,0.35,0.13,0.16,2.58,2.53,0.01,0.39,1.67,1009.11
11.368,0.33,0.35,0.13,0.16,2.58,2.53,0.30,0.17,4.84,1009.11
11.39,0.33,0.35,0.13,9.79,-2.62,0.08,0.30,0.17,4.84,1009.11
11.391,0.51,0.64,-0.09,9.79,-2.62,0.08,0.30,0.17,4.84,1009.11
11.434,0.30,0.80,-0.10,9.79,-2.62,0.08,0.30,0.17,4.84,1009.11
11.435,0.10,0.94,-0.09,9.79,-2.62,0.08,0.30,0.17,4.84,1009.11
11.436,0.10,0.94,-0.09,9.79,-2.62,0.08,0.30,0.17,4.84,1009.24
11.447,0.10,0.94,-0.09,9.79,-2.62,0.08,0.69,0.87,6.11,1009.24
11.451,0.03,1.19,-0.23,9.79,-2.62,0.08,0.69,0.87,6.11,1009.24
11.459,-0.03,1.51,-0.36,9.79,-2.62,0.08,0.69,0.87,6.11,1009.24
11.46,-0.03,1.51,-0.36,3.81,-4.87,1.87,0.69,0.87,6.11,1009.24
11.501,0.20,2.10,-0.42,3.81,-4.87,1.87,0.69,0.87,6.11,1009.24
11.503,-0.33,2.46,-0.29,3.81,-4.87,1.87,0.69,0.87,6.11,1009.24
11.509,-0.33,2.46,-0.29,3.81,-4.87,1.87,0.27,-0.16,5.68,1009.24
11.515,-0.33,2.46,-0.29,3.81,-4.87,1.87,0.27,-0.16,5.68,1009.31
11.53,-0.33,2.46,-0.29,-1.31,2.45,-1.04,0.27,-0.16,5.68,1009.31
11.531,-1.31,2.24,0.11,-1.31,2.45,-1.04,0.27,-0.16,5.68,1009.31
11.555,-1.60,1.85,0.52,-1.31,2.45,-1.04,0.27,-0.16,5.68,1009.31
11.556,-1.60,1.85,0.52,-1.31,2.45,-1.04,0.27,-0.16,5.68,1009.23
11.559,-2.21,1.47,0.40,-1.31,2.45,-1.04,0.27,-0.16,5.68,1009.23
11.579,-2.21,1.47,0.40,-1.31,2.45,-1.04,-0.18,-0.49,4.32,1009.23
11.6,-2.21,1.47,0.40,-9.52,13.14,0.02,-0.18,-0.49,4.32,1009.23
11.602,-3.42,1.00,0.30,-9.52,13.14,0.02,-0.18,-0.49,4.32,1009.23
11.602,-2.36,1.13,-0.12,-9.52,13.14,0.02,-0.18,-0.49,4.32,1009.23
11.634,-1.86,1.06,-0.07,-9.52,13.14,0.02,-0.18,-0.49,4.32,1009.23
11.636,-1.86,1.06,-0.07,-9.52,13.14,0.02,-0.18,-0.49,4.32,1009.29
11.65,-1.86,1.06,-0.07,-9.52,13.14,0.02,-0.67,-1.94,-2.29,1009.29
11.651,1.00,1.82,-0.69,-9.52,13.14,0.02,-0.67,-1.94,-2.29,1009.29
11.67,1.00,1.82,-0.69,-25.14,3.26,3.24,-0.67,-1.94,-2.29,1009.29
11.672,1.34,1.17,-0.58,-25.14,3.26,3.24,-0.67,-1.94,-2.29,1009.29
11.701,-0.86,1.03,-0.55,-25.14,3.26,3.24,-0.67,-1.94,-2.29,1009.29
11.702,-1.23,0.89,0.55,-25.14,3.26,3.24,-0.67,-1.94,-2.29,1009.29
11.716,-1.23,0.89,0.55,-25.14,3.26,3.24,-0.67,-1.94,-2.29,1009.61
11.72,-1.23,0.89,0.55,-25.14,3.26,3.24,-0.64,-0.59,-3.66,1009.61
11.74,-1.08,0.88,0.73,-25.14,3.26,3.24,-0.64,-0.59,-3.66,1009.61
11.741,-0.54,1.07,-0.46,-25.14,3.26,3.24,-0.64,-0.59,-3.66,1009.61
11.742,-0.54,1.07,-0.46,1.88,3.44,-4.41,-0.64,-0.59,-3.66,1009.61
11.757,-0.54,1.07,-0.46,1.88,3.44,-4.41,-0.64,-0.59,-3.66,1009.79
11.768,-0.51,0.98,0.09,1.88,3.44,-4.41,-0.64,-0.59,-3.66,1009.79
11.79,-0.51,0.98,0.09,1.88,3.44,-4.41,-0.12,-0.26,-0.76,1009.79
11.791,-0.39,1.03,-0.22,1.88,3.44,-4.41,-0.12,-0.26,-0.76,1009.79
11.811,-0.20,1.00,0.06,1.88,3.44,-4.41,-0.12,-0.26,-0.76,1009.79
11.812,-0.20,1.00,0.06,-8.02,0.17,2.48,-0.12,-0.26,-0.76,1009.79
11.834,-0.14,1.00,0.05,-8.02,0.17,2.48,-0.12,-0.26,-0.76,1009.79
11.835,-0.14,1.00,0.05,-8.02,0.17,2.48,-0.12,-0.26,-0.76,1009.57
11.859,-0.14,1.00,0.05,-8.02,0.17,2.48,-0.05,0.05,-0.27,1009.57
11.861,-0.15,1.01,0.04,-8.02,0.17,2.48,-0.05,0.05,-0.27,1009.57
11.879,-0.15,1.01,0.04,-1.38,0.64,0.33,-0.05,0.05,-0.27,1009.57
11.88,-0.13,0.98,0.07,-1.38,0.64,0.33,-0.05,0.05,-0.27,1009.57
11.881,-0.19,0.96,-0.01,-1.38,0.64,0.33,-0.05,0.05,-0.27,1009.57
11.901,-0.18,0.94,0.05,-1.38,0.64,0.33,-0.05,0.05,-0.27,1009.57
11.915,-0.18,0.94,0.05,-1.38,0.64,0.33,-0.05,0.05,-0.27,1009.28
11.93,-0.15,0.94,0.07,-1.38,0.64,0.33,-0.05,0.05,-0.27,1009.28
11.931,-0.15,0.94,0.07,-1.38,0.64,0.33,0.13,0.16,-0.21,1009.28
11.951,-0.16,0.94,0.02,-1.38,0.64,0.33,0.13,0.16,-0.21,1009.28
11.952,-0.16,0.94,0.02,0.43,0.45,0.94,0.13,0.16,-0.21,1009.28
11.955,-0.16,0.94,0.02,0.43,0.45,0.94,0.13,0.16,-0.21,1009.17
11.968,-0.17,0.96,-0.03,0.43,0.45,0.94,0.13,0.16,-0.21,1009.17
12.001,-0.16,0.97,-0.04,0.43,0.45,0.94,0.13,0.16,-0.21,1009.17
12.003,-0.16,0.97,-0.04,0.43,0.45,0.94,0.19,0.28,-0.21,1009.17
12.02,-0.16,0.97,-0.04,0.53,0.08,1.07,0.19,0.28,-0.21,1009.17
12.021,-0.15,0.96,-0.01,0.53,0.08,1.07,0.19,0.28,-0.21,1009.17
12.021,-0.16,0.97,-0.04,0.53,0.08,1.07,0.19,0.28,-0.21,1009.17
12.035,-0.16,0.97,-0.04,0.53,0.08,1.07,0.19,0.28,-0.21,1009.23
12.07,-0.16,0.97,-0.04,0.53,0.08,1.07,0.19,0.26,-0.34,1009.23
12.072,-0.16,0.96,-0.03,0.53,0.08,1.07,0.19,0.26,-0.34,1009.23
12.072,-0.12,1.00,-0.03,0.53,0.08,1.07,0.19,0.26,-0.34,1009.23
12.09,-0.12,1.00,-0.03,0.80,0.37,0.60,0.19,0.26,-0.34,1009.23
12.091,-0.14,1.04,-0.07,0.80,0.37,0.60,0.19,0.26,-0.34,1009.23
12.1,-0.11,1.11,-0.13,0.80,0.37,0.60,0.19,0.26,-0.34,1009.23
12.115,-0.11,1.11,-0.13,0.80,0.37,0.60,0.19,0.26,-0.34,1009.25
12.139,0.00,1.21,-0.21,0.80,0.37,0.60,0.19,0.26,-0.34,1009.25
12.141,0.00,1.21,-0.21,0.80,0.37,0.60,0.04,0.14,-0.89,1009.25
12.156,0.04,1.28,-0.16,0.80,0.37,0.60,0.04,0.14,-0.89,1009.25
12.157,0.04,1.28,-0.16,0.80,0.37,0.60,0.04,0.14,-0.89,1009.38
12.169,-0.06,1.33,-0.36,0.80,0.37,0.60,0.04,0.14,-0.89,1009.38
12.171,-0.06,1.33,-0.36,1.74,1.01,0.34,0.04,0.14,-0.89,1009.38
12.2,-0.01,1.41,-0.21,1.74,1.01,0.34,0.04,0.14,-0.89,1009.38
12.201,0.11,1.49,-0.11,1.74,1.01,0.34,0.04,0.14,-0.89,1009.38
12.21,0.11,1.49,-0.11,1.74,1.01,0.34,-0.48,-0.21,-2.30,1009.38
12.23,0.28,1.59,0.01,1.74,1.01,0.34,-0.48,-0.21,-2.30,1009.38
12.231,0.28,1.59,0.01,4.55,4.11,-1.84,-0.48,-0.21,-2.30,1009.38
12.236,0.28,1.59,0.01,4.55,4.11,-1.84,-0.48,-0.21,-2.30,1009.47
12.281,0.28,1.59,0.01,4.55,4.11,-1.84,-1.05,0.48,-5.00,1009.47
12.281,0.50,1.70,0.01,4.55,4.11,-1.84,-1.05,0.48,-5.00,1009.47
12.282,0.68,1.72,-0.06,4.55,4.11,-1.84,-1.05,0.48,-5.00,1009.47
12.3,0.68,1.72,-0.06,9.21,9.18,-0.65,-1.05,0.48,-5.00,1009.47
12.302,0.65,1.71,0.02,9.21,9.18,-0.65,-1.05,0.48,-5.00,1009.47
12.303,-0.15,1.50,0.16,9.21,9.18,-0.65,-1.05,0.48,-5.00,1009.47
12.315,-0.15,1.50,0.16,9.21,9.18,-0.65,-1.05,0.48,-5.00,1009.17
12.351,-0.15,1.50,0.16,9.21,9.18,-0.65,-0.24,0.84,-6.48,1009.17
12.352,-0.25,1.53,0.80,9.21,9.18,-0.65,-0.24,0.84,-6.48,1009.17
12.353,-0.16,0.63,0.33,9.21,9.18,-0.65,-0.24,0.84,-6.48,1009.17
12.355,-0.16,0.63,0.33,9.21,9.18,-0.65,-0.24,0.84,-6.48,1009.05
12.37,-2.73,0.41,-0.45,9.21,9.18,-0.65,-0.24,0.84,-6.48,1009.05
12.371,-2.73,0.41,-0.45,12.69,12.73,0.82,-0.24,0.84,-6.48,1009.05
12.42,-2.73,0.41,-0.45,12.69,12.73,0.82,-0.29,-0.86,1.42,1009.05
12.422,0.22,0.74,-0.10,12.69,12.73,0.82,-0.29,-0.86,1.42,1009.05
12.423,0.84,0.82,-0.15,12.69,12.73,0.82,-0.29,-0.86,1.42,1009.05
12.434,0.48,0.50,-0.16,12.69,12.73,0.82,-0.29,-0.86,1.42,1009.05
12.434,0.48,0.50,-0.16,12.69,12.73,0.82,-0.29,-0.86,1.42,1009.01
12.441,0.07,0.18,0.27,12.69,12.73,0.82,-0.29,-0.86,1.42,1009.01
12.442,0.07,0.18,0.27,-1.36,3.45,1.66,-0.29,-0.86,1.42,1009.01
12.491,0.07,0.18,0.27,-1.36,3.45,1.66,0.13,0.01,4.20,1009.01
12.492,-0.05,0.19,0.13,-1.36,3.45,1.66,0.13,0.01,4.20,1009.01
12.493,0.35,0.46,-0.14,-1.36,3.45,1.66,0.13,0.01,4.20,1009.01
12.501,0.35,0.55,-0.05,-1.36,3.45,1.66,0.13,0.01,4.20,1009.01
12.511,0.35,0.55,-0.05,10.94,-1.90,-0.30,0.13,0.01,4.20,1009.01
12.515,0.35,0.55,-0.05,10.94,-1.90,-0.30,0.13,0.01,4.20,1009.13
12.555,0.04,0.67,-0.09,10.94,-1.90,-0.30,0.13,0.01,4.20,1009.13
12.556,-0.04,0.89,-0.27,10.94,-1.90,-0.30,0.13,0.01,4.20,1009.13
12.557,-0.04,0.89,-0.27,10.94,-1.90,-0.30,0.13,0.01,4.20,1009.30
12.568,-0.04,0.89,-0.27,10.94,-1.90,-0.30,0.54,1.19,5.92,1009.30
12.569,-0.03,1.17,-0.44,10.94,-1.90,-0.30,0.54,1.19,5.92,1009.30
12.58,-0.14,1.42,-0.50,10.94,-1.90,-0.30,0.54,1.19,5.92,1009.30
12.581,-0.14,1.42,-0.50,4.12,-4.60,0.49,0.54,1.19,5.92,1009.30
12.634,-0.14,1.42,-0.50,4.12,-4.60,0.49,0.06,0.33,5.85,1009.30
12.635,0.07,1.99,-0.60,4.12,-4.60,0.49,0.06,0.33,5.85,1009.30
12.635,-0.38,2.22,-0.27,4.12,-4.60,0.49,0.06,0.33,5.85,1009.30
12.636,-0.38,2.22,-0.27,4.12,-4.60,0.49,0.06,0.33,5.85,1009.29
12.652,-1.09,2.07,-0.02,4.12,-4.60,0.49,0.06,0.33,5.85,1009.29
12.653,-1.09,2.07,-0.02,-2.00,1.71,-2.82,0.06,0.33,5.85,1009.29
12.701,-1.09,2.07,-0.02,-2.00,1.71,-2.82,0.23,1.19,4.17,1009.29
12.702,-1.37,1.90,0.07,-2.00,1.71,-2.82,0.23,1.19,4.17,1009.29
12.703,-1.90,1.63,0.19,-2.00,1.71,-2.82,0.23,1.19,4.17,1009.29
12.703,-3.45,1.20,-0.46,-2.00,1.71,-2.82,0.23,1.19,4.17,1009.29
12.715,-3.45,1.20,-0.46,-2.00,1.71,-2.82,0.23,1.19,4.17,1009.36
12.72,-3.45,1.20,-0.46,-8.76,11.55,-1.78,0.23,1.19,4.17,1009.36
12.721,-2.96,0.80,-0.27,-8.76,11.55,-1.78,0.23,1.19,4.17,1009.36
12.755,-1.84,1.02,-0.15,-8.76,11.55,-1.78,0.23,1.19,4.17,1009.36
12.756,-1.84,1.02,-0.15,-8.76,11.55,-1.78,0.23,1.19,4.17,1009.23
12.771,1.54,2.62,-0.30,-8.76,11.55,-1.78,0.23,1.19,4.17,1009.23
12.772,1.54,2.62,-0.30,-8.76,11.55,-1.78,-0.70,-1.79,-2.48,1009.23
12.79,1.54,2.62,-0.30,-25.08,3.38,-0.79,-0.70,-1.79,-2.48,1009.23
12.792,1.05,0.94,-0.27,-25.08,3.38,-0.79,-0.70,-1.79,-2.48,1009.23
12.834,-1.04,0.96,-0.42,-25.08,3.38,-0.79,-0.70,-1.79,-2.48,1009.23
12.835,-1.60,0.71,1.39,-25.08,3.38,-0.79,-0.70,-1.79,-2.48,1009.23
12.836,-1.60,0.71,1.39,-25.08,3.38,-0.79,-0.70,-1.79,-2.48,1009.56
12.839,-1.60,0.71,1.39,-25.08,3.38,-0.79,-0.23,-0.56,-3.52,1009.56
12.861,-1.60,0.71,1.39,2.95,4.87,-2.39,-0.23,-0.56,-3.52,1009.56
12.861,-1.01,1.01,0.12,2.95,4.87,-2.39,-0.23,-0.56,-3.52,1009.56
12.862,-0.81,1.06,-0.63,2.95,4.87,-2.39,-0.23,-0.56,-3.52,1009.56
12.914,-0.36,0.98,-0.12,2.95,4.87,-2.39,-0.23,-0.56,-3.52,1009.56
12.915,-0.19,1.04,-0.07,2.95,4.87,-2.39,-0.23,-0.56,-3.52,1009.56
12.915,-0.19,1.04,-0.07,2.95,4.87,-2.39,-0.11,-0.19,-0.58,1009.56
12.916,-0.19,1.04,-0.07,2.95,4.87,-2.39,-0.11,-0.19,-0.58,1009.77
12.93,-0.19,1.04,-0.07,-9.71,-0.10,2.39,-0.11,-0.19,-0.58,1009.77
12.93,-0.23,0.99,-0.03,-9.71,-0.10,2.39,-0.11,-0.19,-0.58,1009.77
12.956,-0.23,0.96,0.12,-9.71,-0.10,2.39,-0.11,-0.19,-0.58,1009.77
12.957,-0.23,0.96,0.12,-9.71,-0.10,2.39,-0.11,-0.19,-0.58,1009.37
12.969,-0.20,0.98,0.09,-9.71,-0.10,2.39,-0.11,-0.19,-0.58,1009.37
12.981,-0.20,0.98,0.09,-9.71,-0.10,2.39,-0.09,0.07,-0.23,1009.37
13.001,-0.20,0.98,0.09,-0.35,0.57,-0.15,-0.09,0.07,-0.23,1009.37
13.002,-0.24,0.97,0.02,-0.35,0.57,-0.15,-0.09,0.07,-0.23,1009.37
13.002,-0.22,0.98,-0.04,-0.35,0.57,-0.15,-0.09,0.07,-0.23,1009.37
13.034,-0.18,0.97,0.06,-0.35,0.57,-0.15,-0.09,0.07,-0.23,1009.37
13.035,-0.18,0.97,0.06,-0.35,0.57,-0.15,-0.09,0.07,-0.23,1009.13
13.052,-0.18,0.97,0.06,-0.35,0.57,-0.15,0.01,0.20,-0.11,1009.13
13.053,-0.17,0.95,0.09,-0.35,0.57,-0.15,0.01,0.20,-0.11,1009.13
13.07,-0.18,0.94,0.09,-0.35,0.57,-0.15,0.01,0.20,-0.11,1009.13
13.071,-0.18,0.94,0.09,0.04,0.32,0.72,0.01,0.20,-0.11,1009.13
13.101,-0.17,0.95,0.06,0.04,0.32,0.72,0.01,0.20,-0.11,1009.13
13.102,-0.17,0.96,0.03,0.04,0.32,0.72,0.01,0.20,-0.11,1009.13
13.115,-0.17,0.96,0.03,0.04,0.32,0.72,0.01,0.20,-0.11,1009.15
13.12,-0.17,0.96,0.03,0.04,0.32,0.72,0.20,0.35,-0.17,1009.15
13.14,-0.17,0.96,0.03,0.64,0.13,1.30,0.20,0.35,-0.17,1009.15
13.141,-0.19,0.96,0.01,0.64,0.13,1.30,0.20,0.35,-0.17,1009.15
13.142,-0.20,0.96,-0.05,0.64,0.13,1.30,0.20,0.35,-0.17,1009.15
13.155,-0.20,0.96,-0.05,0.64,0.13,1.30,0.20,0.35,-0.17,1009.21
13.174,-0.21,0.95,-0.05,0.64,0.13,1.30,0.20,0.35,-0.17,1009.21
13.191,-0.21,0.95,-0.05,0.64,0.13,1.30,0.15,0.31,-0.23,1009.21
13.192,-0.21,0.98,-0.08,0.64,0.13,1.30,0.15,0.31,-0.23,1009.21
13.212,-0.13,1.03,-0.05,0.64,0.13,1.30,0.15,0.31,-0.23,1009.21
13.213,-0.13,1.03,-0.05,0.66,0.26,0.67,0.15,0.31,-0.23,1009.21
13.234,-0.08,1.07,0.06,0.66,0.26,0.67,0.15,0.31,-0.23,1009.21
13.235,-0.08,1.07,0.06,0.66,0.26,0.67,0.15,0.31,-0.23,1009.31
13.26,-0.08,1.07,0.06,0.66,0.26,0.67,0.05,0.28,-0.69,1009.31
13.261,-0.05,1.15,-0.07,0.66,0.26,0.67,0.05,0.28,-0.69,1009.31
13.28,-0.05,1.15,-0.07,1.41,0.83,0.25,0.05,0.28,-0.69,1009.31
13.282,-0.03,1.21,-0.13,1.41,0.83,0.25,0.05,0.28,-0.69,1009.31
13.282,-0.10,1.22,-0.28,1.41,0.83,0.25,0.05,0.28,-0.69,1009.31
13.301,-0.13,1.24,-0.29,1.41,0.83,0.25,0.05,0.28,-0.69,1009.31
13.316,-0.13,1.24,-0.29,1.41,0.83,0.25,0.05,0.28,-0.69,1009.48
13.33,-0.13,1.24,-0.29,1.41,0.83,0.25,-0.49,0.09,-1.75,1009.48
13.331,-0.03,1.33,-0.11,1.41,0.83,0.25,-0.49,0.09,-1.75,1009.48
13.34,0.06,1.45,-0.13,1.41,0.83,0.25,-0.49,0.09,-1.75,1009.48
13.353,0.06,1.45,-0.13,3.66,3.10,-0.98,-0.49,0.09,-1.75,1009.48
13.355,0.06,1.45,-0.13,3.66,3.10,-0.98,-0.49,0.09,-1.75,1009.59
13.371,0.22,1.58,-0.07,3.66,3.10,-0.98,-0.49,0.09,-1.75,1009.59
13.401,0.22,1.58,-0.07,3.66,3.10,-0.98,-1.10,0.26,-3.86,1009.59
13.402,0.43,1.74,-0.16,3.66,3.10,-0.98,-1.10,0.26,-3.86,1009.59
13.421,0.43,1.74,-0.16,6.73,6.78,-1.82,-1.10,0.26,-3.86,1009.59
13.422,0.64,1.79,-0.15,6.73,6.78,-1.82,-1.10,0.26,-3.86,1009.59
13.422,0.56,1.74,-0.14,6.73,6.78,-1.82,-1.10,0.26,-3.86,1009.59
13.436,0.56,1.74,-0.14,6.73,6.78,-1.82,-1.10,0.26,-3.86,1009.27
13.452,-0.10,1.43,0.43,6.73,6.78,-1.82,-1.10,0.26,-3.86,1009.27
13.47,-0.10,1.43,0.43,6.73,6.78,-1.82,-1.39,1.04,-6.65,1009.27
13.471,-0.20,1.38,0.71,6.73,6.78,-1.82,-1.39,1.04,-6.65,1009.27
13.491,-0.20,1.38,0.71,13.58,13.44,-1.32,-1.39,1.04,-6.65,1009.27
13.492,-0.65,0.17,0.04,13.58,13.44,-1.32,-1.39,1.04,-6.65,1009.27
13.5,-1.80,0.44,0.21,13.58,13.44,-1.32,-1.39,1.04,-6.65,1009.27
13.515,-1.80,0.44,0.21,13.58,13.44,-1.32,-1.39,1.04,-6.65,1008.80
13.541,-1.80,0.44,0.21,13.58,13.44,-1.32,-0.76,1.13,-0.02,1008.80
13.542,0.49,0.54,0.11,13.58,13.44,-1.32,-0.76,1.13,-0.02,1008.80
13.556,0.48,0.67,-0.30,13.58,13.44,-1.32,-0.76,1.13,-0.02,1008.80
13.557,0.48,0.67,-0.30,13.58,13.44,-1.32,-0.76,1.13,-0.02,1009.05
13.56,0.48,0.67,-0.30,3.11,3.86,3.51,-0.76,1.13,-0.02,1009.05
13.561,0.11,0.41,-0.22,3.11,3.86,3.51,-0.76,1.13,-0.02,1009.05
13.612,0.11,0.41,-0.22,3.11,3.86,3.51,-0.70,-0.40,3.40,1009.05
13.613,-0.15,0.20,0.05,3.11,3.86,3.51,-0.70,-0.40,3.40,1009.05
13.613,-0.28,0.18,0.04,3.11,3.86,3.51,-0.70,-0.40,3.40,1009.05
13.631,-0.28,0.18,0.04,6.56,-1.19,-0.69,-0.70,-0.40,3.40,1009.05
13.632,0.14,0.41,-0.17,6.56,-1.19,-0.69,-0.70,-0.40,3.40,1009.05
13.635,0.14,0.41,-0.17,6.56,-1.19,-0.69,-0.70,-0.40,3.40,1009.14
13.68,0.14,0.41,-0.17,6.56,-1.19,-0.69,0.00,0.69,5.79,1009.14
13.682,0.23,0.54,-0.19,6.56,-1.19,-0.69,0.00,0.69,5.79,1009.14
13.682,0.09,0.70,-0.24,6.56,-1.19,-0.69,0.00,0.69,5.79,1009.14
13.701,0.09,0.70,-0.24,2.46,-5.72,-0.18,0.00,0.69,5.79,1009.14
13.702,0.06,0.97,-0.39,2.46,-5.72,-0.18,0.00,0.69,5.79,1009.14
13.702,0.03,1.22,-0.51,2.46,-5.72,-0.18,0.00,0.69,5.79,1009.14
13.715,0.03,1.22,-0.51,2.46,-5.72,-0.18,0.00,0.69,5.79,1009.28
13.752,0.03,1.22,-0.51,2.46,-5.72,-0.18,0.13,1.73,5.15,1009.28
13.753,0.01,1.56,-0.73,2.46,-5.72,-0.18,0.13,1.73,5.15,1009.28
13.753,0.08,1.99,-0.84,2.46,-5.72,-0.18,0.13,1.73,5.15,1009.28
13.755,0.08,1.99,-0.84,2.46,-5.72,-0.18,0.13,1.73,5.15,1009.37
13.771,-0.68,1.94,-0.50,2.46,-5.72,-0.18,0.13,1.73,5.15,1009.37
13.771,-0.68,1.94,-0.50,0.77,-0.23,-2.89,0.13,1.73,5.15,1009.37
13.82,-0.68,1.94,-0.50,0.77,-0.23,-2.89,-0.23,2.31,3.97,1009.37
13.821,-0.98,1.81,-0.37,0.77,-0.23,-2.89,-0.23,2.31,3.97,1009.37
13.822,-1.36,1.69,-0.57,0.77,-0.23,-2.89,-0.23,2.31,3.97,1009.37
13.822,-1.74,1.40,-0.55,0.77,-0.23,-2.89,-0.23,2.31,3.97,1009.37
13.835,-1.74,1.40,-0.55,0.77,-0.23,-2.89,-0.23,2.31,3.97,1009.37
13.84,-1.84,1.24,-0.49,0.77,-0.23,-2.89,-0.23,2.31,3.97,1009.37
13.841,-1.84,1.24,-0.49,-5.28,8.91,-5.98,-0.23,2.31,3.97,1009.37
13.891,-1.84,1.24,-0.49,-5.28,8.91,-5.98,-0.12,0.34,0.27,1009.37
13.892,-2.78,0.57,0.18,-5.28,8.91,-5.98,-0.12,0.34,0.27,1009.37
13.893,-1.88,0.82,-0.10,-5.28,8.91,-5.98,-0.12,0.34,0.27,1009.37
13.901,-0.03,2.05,0.18,-5.28,8.91,-5.98,-0.12,0.34,0.27,1009.37
13.911,-0.03,2.05,0.18,-16.24,5.40,-4.62,-0.12,0.34,0.27,1009.37
13.923,-0.03,2.05,0.18,-16.24,5.40,-4.62,-0.12,0.34,0.27,1009.36
13.955,-0.03,2.05,0.18,-16.24,5.40,-4.62,-0.12,0.34,0.27,1009.54
13.956,0.90,1.01,-0.96,-16.24,5.40,-4.62,-0.12,0.34,0.27,1009.54
13.957,0.11,1.12,-0.23,-16.24,5.40,-4.62,-0.12,0.34,0.27,1009.54
13.961,0.11,1.12,-0.23,-16.24,5.40,-4.62,-0.19,-0.37,-3.70,1009.54
13.972,-1.22,0.96,0.06,-16.24,5.40,-4.62,-0.19,-0.37,-3.70,1009.54
13.981,-1.26,0.94,0.83,-16.24,5.40,-4.62,-0.19,-0.37,-3.70,1009.54
13.982,-1.26,0.94,0.83,-10.20,1.18,0.30,-0.19,-0.37,-3.70,1009.54
14.031,-0.44,1.10,-0.67,-10.20,1.18,0.30,-0.19,-0.37,-3.70,1009.54
14.032,-0.40,0.98,0.12,-10.20,1.18,0.30,-0.19,-0.37,-3.70,1009.54
14.033,-0.40,0.98,0.12,-10.20,1.18,0.30,0.34,-0.67,-1.10,1009.54
14.035,-0.40,0.98,0.12,-10.20,1.18,0.30,0.34,-0.67,-1.10,1009.72
14.053,-0.40,0.98,0.12,-4.03,1.21,0.34,0.34,-0.67,-1.10,1009.72
14.062,-0.27,0.95,-0.01,-4.03,1.21,0.34,0.34,-0.67,-1.10,1009.72
14.101,-0.28,1.00,-0.10,-4.03,1.21,0.34,0.34,-0.67,-1.10,1009.72
14.103,-0.23,0.99,-0.07,-4.03,1.21,0.34,0.34,-0.67,-1.10,1009.72
14.103,-0.23,0.99,-0.07,-4.03,1.21,0.34,-0.01,-0.06,-0.34,1009.72
14.104,-0.18,0.97,0.09,-4.03,1.21,0.34,-0.01,-0.06,-0.34,1009.72
14.115,-0.18,0.97,0.09,-4.03,1.21,0.34,-0.01,-0.06,-0.34,1009.44
14.12,-0.21,0.98,0.04,-4.03,1.21,0.34,-0.01,-0.06,-0.34,1009.44
14.121,-0.21,0.98,0.04,-1.57,0.66,-1.35,-0.01,-0.06,-0.34,1009.44
14.158,-0.21,0.98,0.04,-1.57,0.66,-1.35,-0.01,-0.06,-0.34,1009.24
14.159,-0.21,0.98,0.00,-1.57,0.66,-1.35,-0.01,-0.06,-0.34,1009.24
14.169,-0.20,0.98,-0.03,-1.57,0.66,-1.35,-0.01,-0.06,-0.34,1009.24
14.178,-0.20,0.98,-0.03,-1.57,0.66,-1.35,0.04,0.05,-0.16,1009.24
14.192,-0.20,0.98,-0.03,-0.08,0.45,0.53,0.04,0.05,-0.16,1009.24
14.194,-0.20,0.96,0.00,-0.08,0.45,0.53,0.04,0.05,-0.16,1009.24
14.235,-0.19,0.96,0.00,-0.08,0.45,0.53,0.04,0.05,-0.16,1009.24
14.236,-0.19,0.96,0.03,-0.08,0.45,0.53,0.04,0.05,-0.16,1009.24
14.237,-0.19,0.96,0.03,-0.08,0.45,0.53,0.04,0.05,-0.16,1009.21
14.241,-0.19,0.96,0.03,-0.08,0.45,0.53,0.02,0.12,-0.10,1009.21
14.26,-0.19,0.96,0.03,0.14,0.34,0.42,0.02,0.12,-0.10,1009.21
14.261,-0.17,0.95,0.05,0.14,0.34,0.42,0.02,0.12,-0.10,1009.21
14.262,-0.17,0.95,0.04,0.14,0.34,0.42,0.02,0.12,-0.10,1009.21
14.302,-0.17,0.96,0.03,0.14,0.34,0.42,0.02,0.12,-0.10,1009.21
14.303,-0.17,0.96,0.05,0.14,0.34,0.42,0.02,0.12,-0.10,1009.21
14.311,-0.17,0.96,0.05,0.14,0.34,0.42,0.14,0.21,-0.15,1009.21
14.316,-0.17,0.96,0.05,0.14,0.34,0.42,0.14,0.21,-0.15,1009.25
14.332,-0.17,0.97,0.00,0.14,0.34,0.42,0.14,0.21,-0.15,1009.25
14.334,-0.17,0.97,0.00,0.46,0.22,0.92,0.14,0.21,-0.15,1009.25
14.355,-0.18,0.98,-0.02,0.46,0.22,0.92,0.14,0.21,-0.15,1009.25
14.356,-0.18,0.98,-0.02,0.46,0.22,0.92,0.14,0.21,-0.15,1009.29
14.371,-0.17,1.00,-0.03,0.46,0.22,0.92,0.14,0.21,-0.15,1009.29
14.393,-0.17,1.00,-0.03,0.46,0.22,0.92,0.23,0.25,-0.29,1009.29
14.401,-0.17,1.01,0.01,0.46,0.22,0.92,0.23,0.25,-0.29,1009.29
14.402,-0.17,1.02,-0.01,0.46,0.22,0.92,0.23,0.25,-0.29,1009.29
14.403,-0.17,1.02,-0.01,0.74,0.36,1.01,0.23,0.25,-0.29,1009.29
14.435,-0.09,1.10,-0.08,0.74,0.36,1.01,0.23,0.25,-0.29,1009.29
14.436,-0.09,1.10,-0.08,0.74,0.36,1.01,0.23,0.25,-0.29,1009.30
14.454,-0.09,1.10,-0.08,0.74,0.36,1.01,0.08,0.43,-0.65,1009.30
14.46,0.00,1.21,-0.24,0.74,0.36,1.01,0.08,0.43,-0.65,1009.30
14.473,0.00,1.21,-0.24,1.23,0.91,0.69,0.08,0.43,-0.65,1009.30
14.474,-0.13,1.16,-0.21,1.23,0.91,0.69,0.08,0.43,-0.65,1009.30
14.502,-0.04,1.26,-0.18,1.23,0.91,0.69,0.08,0.43,-0.65,1009.30
14.503,-0.01,1.36,-0.14,1.23,0.91,0.69,0.08,0.43,-0.65,1009.30
14.516,-0.01,1.36,-0.14,1.23,0.91,0.69,0.08,0.43,-0.65,1009.37
14.52,-0.01,1.36,-0.14,1.23,0.91,0.69,-0.54,0.20,-1.76,1009.37
14.541,-0.01,1.36,-0.14,3.49,2.96,-1.27,-0.54,0.20,-1.76,1009.37
14.542,0.03,1.51,-0.32,3.49,2.96,-1.27,-0.54,0.20,-1.76,1009.37
14.543,0.15,1.61,-0.08,3.49,2.96,-1.27,-0.54,0.20,-1.76,1009.37
14.555,0.15,1.61,-0.08,3.49,2.96,-1.27,-0.54,0.20,-1.76,1009.48
14.572,0.45,1.78,-0.14,3.49,2.96,-1.27,-0.54,0.20,-1.76,1009.48
14.592,0.45,1.78,-0.14,3.49,2.96,-1.27,-1.35,0.59,-4.00,1009.48
14.593,0.57,1.76,0.08,3.49,2.96,-1.27,-1.35,0.59,-4.00,1009.48
14.612,0.48,1.73,0.12,3.49,2.96,-1.27,-1.35,0.59,-4.00,1009.48
14.613,0.48,1.73,0.12,7.12,7.65,-1.84,-1.35,0.59,-4.00,1009.48
14.635,0.01,1.51,0.50,7.12,7.65,-1.84,-1.35,0.59,-4.00,1009.48
14.636,0.01,1.51,0.50,7.12,7.65,-1.84,-1.35,0.59,-4.00,1008.93
14.66,-0.71,0.80,0.31,7.12,7.65,-1.84,-1.35,0.59,-4.00,1008.93
14.661,-0.71,0.80,0.31,7.12,7.65,-1.84,-1.42,1.78,-4.70,1008.93
14.681,-0.71,0.80,0.31,12.07,11.61,1.06,-1.42,1.78,-4.70,1008.93
14.683,-0.70,0.37,0.25,12.07,11.61,1.06,-1.42,1.78,-4.70,1008.93
14.684,0.46,0.64,0.06,12.07,11.61,1.06,-1.42,1.78,-4.70,1008.93
14.701,-0.04,0.52,-0.26,12.07,11.61,1.06,-1.42,1.78,-4.70,1008.93
14.715,-0.04,0.52,-0.26,12.07,11.61,1.06,-1.42,1.78,-4.70,1009.04
14.731,-0.04,0.52,-0.26,12.07,11.61,1.06,-1.52,1.16,0.80,1009.04
14.732,0.06,0.37,-0.19,12.07,11.61,1.06,-1.52,1.16,0.80,1009.04
14.759,0.06,0.37,-0.19,4.20,0.88,2.88,-1.52,1.16,0.80,1009.04
14.76,0.14,0.37,-0.19,4.20,0.88,2.88,-1.52,1.16,0.80,1009.04
14.76,0.14,0.37,-0.19,4.20,0.88,2.88,-1.52,1.16,0.80,1009.11
14.773,0.04,0.39,-0.30,4.20,0.88,2.88,-1.52,1.16,0.80,1009.11
14.801,0.04,0.39,-0.30,4.20,0.88,2.88,-1.36,0.45,3.29,1009.11
14.802,0.01,0.43,-0.36,4.20,0.88,2.88,-1.36,0.45,3.29,1009.11
14.821,0.01,0.43,-0.36,5.56,-3.73,-2.32,-1.36,0.45,3.29,1009.11
14.822,0.05,0.58,-0.57,5.56,-3.73,-2.32,-1.36,0.45,3.29,1009.11
14.822,-0.01,0.72,-0.73,5.56,-3.73,-2.32,-1.36,0.45,3.29,1009.11
14.836,-0.01,0.72,-0.73,5.56,-3.73,-2.32,-1.36,0.45,3.29,1009.17
14.871,-0.01,0.72,-0.73,5.56,-3.73,-2.32,-0.52,1.38,4.48,1009.17
14.872,-0.16,0.80,-0.81,5.56,-3.73,-2.32,-0.52,1.38,4.48,1009.17
14.873,-0.14,0.94,-0.86,5.56,-3.73,-2.32,-0.52,1.38,4.48,1009.17
14.892,-0.14,0.94,-0.86,2.42,-3.50,-4.82,-0.52,1.38,4.48,1009.17
14.893,-0.05,1.13,-0.87,2.42,-3.50,-4.82,-0.52,1.38,4.48,1009.17
14.901,-0.04,1.36,-0.83,2.42,-3.50,-4.82,-0.52,1.38,4.48,1009.17
14.915,-0.04,1.36,-0.83,2.42,-3.50,-4.82,-0.52,1.38,4.48,1009.27
14.942,-0.04,1.36,-0.83,2.42,-3.50,-4.82,0.35,1.49,4.40,1009.27
14.942,-0.29,1.51,-0.73,2.42,-3.50,-4.82,0.35,1.49,4.40,1009.27
14.97,-0.29,1.51,-0.73,2.42,-3.50,-4.82,0.35,1.49,4.40,1009.35
14.97,-0.42,1.65,-0.66,2.42,-3.50,-4.82,0.35,1.49,4.40,1009.35
14.971,-0.42,1.65,-0.66,-1.49,0.68,-7.52,0.35,1.49,4.40,1009.35
14.971,-0.49,1.80,-0.66,-1.49,0.68,-7.52,0.35,1.49,4.40,1009.35
14.981,-0.34,2.31,-0.85,-1.49,0.68,-7.52,0.35,1.49,4.40,1009.35
15.012,-0.34,2.31,-0.85,-1.49,0.68,-7.52,0.59,2.12,3.34,1009.35
15.013,-1.13,1.30,-0.10,-1.49,0.68,-7.52,0.59,2.12,3.34,1009.35
15.032,-1.13,1.30,-0.10,-5.63,6.88,-5.99,0.59,2.12,3.34,1009.35
15.033,-1.50,1.23,-0.17,-5.63,6.88,-5.99,0.59,2.12,3.34,1009.35
15.036,-1.50,1.23,-0.17,-5.63,6.88,-5.99,0.59,2.12,3.34,1009.44
15.081,-1.50,1.23,-0.17,-5.63,6.88,-5.99,-0.07,1.21,-0.44,1009.44
15.082,-3.30,0.71,-0.11,-5.63,6.88,-5.99,-0.07,1.21,-0.44,1009.44
15.083,-1.71,0.64,0.03,-5.63,6.88,-5.99,-0.07,1.21,-0.44,1009.44
15.102,-0.28,1.84,-1.00,-5.63,6.88,-5.99,-0.07,1.21,-0.44,1009.44
15.103,0.29,1.13,0.63,-5.63,6.88,-5.99,-0.07,1.21,-0.44,1009.44
15.103,0.29,1.13,0.63,-13.88,5.48,-3.11,-0.07,1.21,-0.44,1009.44
15.116,0.29,1.13,0.63,-13.88,5.48,-3.11,-0.07,1.21,-0.44,1009.45
15.156,0.29,1.13,0.63,-13.88,5.48,-3.11,-0.46,-0.25,-3.09,1009.45
15.157,-0.39,1.13,-0.01,-13.88,5.48,-3.11,-0.46,-0.25,-3.09,1009.45
15.157,-0.91,1.02,0.09,-13.88,5.48,-3.11,-0.46,-0.25,-3.09,1009.45
15.158,-0.91,1.02,0.09,-13.88,5.48,-3.11,-0.46,-0.25,-3.09,1009.61
15.177,-0.68,0.97,0.13,-13.88,5.48,-3.11,-0.46,-0.25,-3.09,1009.61
15.178,-0.68,0.97,0.13,-8.06,1.50,-0.12,-0.46,-0.25,-3.09,1009.61
15.222,-0.68,0.97,0.13,-8.06,1.50,-0.12,-0.03,-0.44,-0.90,1009.61
15.223,-0.59,0.94,0.08,-8.06,1.50,-0.12,-0.03,-0.44,-0.90,1009.61
15.223,-0.35,1.00,-0.18,-8.06,1.50,-0.12,-0.03,-0.44,-0.90,1009.61
15.235,-0.36,0.99,0.07,-8.06,1.50,-0.12,-0.03,-0.44,-0.90,1009.61
15.236,-0.36,0.99,0.07,-8.06,1.50,-0.12,-0.03,-0.44,-0.90,1009.69
15.242,-0.24,1.00,0.00,-8.06,1.50,-0.12,-0.03,-0.44,-0.90,1009.69
15.242,-0.24,1.00,0.00,-4.87,0.70,1.28,-0.03,-0.44,-0.90,1009.69
15.291,-0.24,1.00,0.00,-4.87,0.70,1.28,-0.12,-0.03,-0.28,1009.69
15.293,-0.23,1.01,-0.10,-4.87,0.70,1.28,-0.12,-0.03,-0.28,1009.69
15.294,-0.12,1.00,0.03,-4.87,0.70,1.28,-0.12,-0.03,-0.28,1009.69
15.301,-0.18,0.97,0.10,-4.87,0.70,1.28,-0.12,-0.03,-0.28,1009.69
15.311,-0.18,0.97,0.10,-1.79,0.41,0.07,-0.12,-0.03,-0.28,1009.69
15.314,-0.18,0.97,0.10,-1.79,0.41,0.07,-0.12,-0.03,-0.28,1009.45
15.355,-0.18,0.97,0.10,-1.79,0.41,0.07,-0.12,-0.03,-0.28,1009.23
15.356,-0.23,0.96,0.02,-1.79,0.41,0.07,-0.12,-0.03,-0.28,1009.23
15.357,-0.20,0.97,0.01,-1.79,0.41,0.07,-0.12,-0.03,-0.28,1009.23
15.361,-0.20,0.97,0.01,-1.79,0.41,0.07,-0.02,0.04,-0.17,1009.23
15.368,-0.20,0.96,0.02,-1.79,0.41,0.07,-0.02,0.04,-0.17,1009.23
15.382,-0.20,0.96,0.02,0.01,0.39,0.51,-0.02,0.04,-0.17,1009.23
15.383,-0.17,0.96,0.04,0.01,0.39,0.51,-0.02,0.04,-0.17,1009.23
15.432,-0.17,0.96,0.04,0.01,0.39,0.51,0.02,0.13,-0.09,1009.23
15.433,-0.18,0.96,0.04,0.01,0.39,0.51,0.02,0.13,-0.09,1009.23
15.434,-0.17,0.97,0.06,0.01,0.39,0.51,0.02,0.13,-0.09,1009.23
15.435,-0.17,0.97,0.06,0.01,0.39,0.51,0.02,0.13,-0.09,1009.24
15.452,-0.17,0.96,0.04,0.01,0.39,0.51,0.02,0.13,-0.09,1009.24
15.453,-0.17,0.96,0.04,-0.11,0.17,0.60,0.02,0.13,-0.09,1009.24
15.501,-0.17,0.96,0.03,-0.11,0.17,0.60,0.02,0.13,-0.09,1009.24
15.502,-0.13,0.97,0.04,-0.11,0.17,0.60,0.02,0.13,-0.09,1009.24
15.502,-0.17,0.97,0.01,-0.11,0.17,0.60,0.02,0.13,-0.09,1009.24
15.503,-0.17,0.97,0.01,-0.11,0.17,0.60,0.15,0.14,-0.15,1009.24
15.516,-0.17,0.97,0.01,-0.11,0.17,0.60,0.15,0.14,-0.15,1009.29
15.521,-0.17,0.97,0.01,0.24,0.16,0.96,0.15,0.14,-0.15,1009.29
15.521,-0.16,0.98,0.00,0.24,0.16,0.96,0.15,0.14,-0.15,1009.29
15.556,-0.17,0.99,0.00,0.24,0.16,0.96,0.15,0.14,-0.15,1009.29
15.557,-0.17,0.99,0.00,0.24,0.16,0.96,0.15,0.14,-0.15,1009.30
15.575,-0.16,0.99,0.00,0.24,0.16,0.96,0.15,0.14,-0.15,1009.30
15.576,-0.16,0.99,0.00,0.24,0.16,0.96,0.22,0.13,-0.29,1009.30
15.592,-0.19,0.99,0.01,0.24,0.16,0.96,0.22,0.13,-0.29,1009.30
15.593,-0.19,0.99,0.01,0.64,0.33,0.84,0.22,0.13,-0.29,1009.30
15.635,-0.19,1.01,-0.01,0.64,0.33,0.84,0.22,0.13,-0.29,1009.30
15.635,-0.13,1.05,-0.01,0.64,0.33,0.84,0.22,0.13,-0.29,1009.30
15.636,-0.13,1.05,-0.01,0.64,0.33,0.84,0.22,0.13,-0.29,1009.22
15.641,-0.13,1.05,-0.01,0.64,0.33,0.84,0.21,0.37,-0.47,1009.22
15.661,-0.04,1.13,-0.12,0.64,0.33,0.84,0.21,0.37,-0.47,1009.22
15.663,-0.01,1.20,-0.19,0.64,0.33,0.84,0.21,0.37,-0.47,1009.22
15.663,-0.01,1.20,-0.19,0.80,0.61,0.82,0.21,0.37,-0.47,1009.22
15.702,-0.10,1.19,-0.20,0.80,0.61,0.82,0.21,0.37,-0.47,1009.22
15.703,-0.11,1.22,-0.21,0.80,0.61,0.82,0.21,0.37,-0.47,1009.22
15.711,-0.11,1.22,-0.21,0.80,0.61,0.82,-0.25,0.15,-1.38,1009.22
15.714,-0.11,1.22,-0.21,0.80,0.61,0.82,-0.25,0.15,-1.38,1009.34
15.731,-0.11,1.22,-0.21,2.77,2.10,-0.30,-0.25,0.15,-1.38,1009.34
15.732,-0.07,1.28,-0.05,2.77,2.10,-0.30,-0.25,0.15,-1.38,1009.34
15.758,-0.04,1.36,-0.15,2.77,2.10,-0.30,-0.25,0.15,-1.38,1009.34
15.76,-0.04,1.36,-0.15,2.77,2.10,-0.30,-0.25,0.15,-1.38,1009.55
15.768,0.08,1.46,-0.07,2.77,2.10,-0.30,-0.25,0.15,-1.38,1009.55
15.781,0.08,1.46,-0.07,2.77,2.10,-0.30,-0.63,0.10,-2.73,1009.55
15.802,0.08,1.46,-0.07,4.55,4.41,-1.35,-0.63,0.10,-2.73,1009.55
15.803,0.25,1.59,-0.07,4.55,4.41,-1.35,-0.63,0.10,-2.73,1009.55
15.803,0.52,1.73,-0.02,4.55,4.41,-1.35,-0.63,0.10,-2.73,1009.55
15.834,0.62,1.74,-0.01,4.55,4.41,-1.35,-0.63,0.10,-2.73,1009.55
15.835,0.62,1.74,-0.01,4.55,4.41,-1.35,-0.63,0.10,-2.73,1009.32
15.858,0.62,1.74,-0.01,4.55,4.41,-1.35,-1.44,0.82,-5.63,1009.32
15.859,0.17,1.64,0.08,4.55,4.41,-1.35,-1.44,0.82,-5.63,1009.32
15.879,0.17,1.64,0.08,10.41,10.33,-0.45,-1.44,0.82,-5.63,1009.32
15.88,-0.37,1.39,0.52,10.41,10.33,-0.45,-1.44,0.82,-5.63,1009.32
15.901,-0.56,1.11,0.39,10.41,10.33,-0.45,-1.44,0.82,-5.63,1009.32
15.915,-1.58,-0.10,-0.10,10.41,10.33,-0.45,-1.44,0.82,-5.63,1009.32
15.916,-1.58,-0.10,-0.10,10.41,10.33,-0.45,-1.44,0.82,-5.63,1008.83
15.921,-1.58,-0.10,-0.10,10.41,10.33,-0.45,-0.93,1.66,-3.29,1008.83
15.941,-1.58,-0.10,-0.10,8.80,10.73,3.21,-0.93,1.66,-3.29,1008.83
15.943,-0.37,0.60,0.53,8.80,10.73,3.21,-0.93,1.66,-3.29,1008.83
15.943,0.47,0.87,-0.26,8.80,10.73,3.21,-0.93,1.66,-3.29,1008.83
15.959,0.47,0.87,-0.26,8.80,10.73,3.21,-0.93,1.66,-3.29,1009.07
15.982,0.16,0.50,-0.37,8.80,10.73,3.21,-0.93,1.66,-3.29,1009.07
15.991,0.05,0.24,0.07,8.80,10.73,3.21,-0.93,1.66,-3.29,1009.07
15.992,0.05,0.24,0.07,8.80,10.73,3.21,-1.10,0.20,1.52,1009.07
16.011,0.05,0.24,0.07,2.26,-0.71,0.87,-1.10,0.20,1.52,1009.07
16.013,-0.06,0.22,-0.02,2.26,-0.71,0.87,-1.10,0.20,1.52,1009.07
16.034,-0.05,0.29,-0.27,2.26,-0.71,0.87,-1.10,0.20,1.52,1009.07
16.036,-0.05,0.29,-0.27,2.26,-0.71,0.87,-1.10,0.20,1.52,1009.15
16.061,-0.05,0.29,-0.27,2.26,-0.71,0.87,-1.07,0.42,4.43,1009.15
16.062,0.25,0.42,-0.34,2.26,-0.71,0.87,-1.07,0.42,4.43,1009.15
16.082,0.25,0.42,-0.34,5.12,-4.80,-1.13,-1.07,0.42,4.43,1009.15
16.083,0.21,0.58,-0.48,5.12,-4.80,-1.13,-1.07,0.42,4.43,1009.15
16.084,0.02,0.70,-0.62,5.12,-4.80,-1.13,-1.07,0.42,4.43,1009.15
16.112,-0.14,0.84,-0.67,5.12,-4.80,-1.13,-1.07,0.42,4.43,1009.15
16.115,-0.14,0.84,-0.67,5.12,-4.80,-1.13,-1.07,0.42,4.43,1009.22
16.131,-0.08,1.08,-0.75,5.12,-4.80,-1.13,-1.07,0.42,4.43,1009.22
16.132,-0.08,1.08,-0.75,5.12,-4.80,-1.13,-0.58,1.38,5.55,1009.22
16.16,0.06,1.42,-0.84,5.12,-4.80,-1.13,-0.58,1.38,5.55,1009.22
16.162,0.06,1.42,-0.84,2.86,-3.82,-4.22,-0.58,1.38,5.55,1009.22
16.162,0.06,1.42,-0.84,2.86,-3.82,-4.22,-0.58,1.38,5.55,1009.31
16.168,0.09,1.98,-1.04,2.86,-3.82,-4.22,-0.58,1.38,5.55,1009.31
16.202,-0.74,1.94,-0.44,2.86,-3.82,-4.22,-0.58,1.38,5.55,1009.31
16.203,-0.74,1.94,-0.44,2.86,-3.82,-4.22,-0.24,1.84,4.74,1009.31
16.221,-0.74,1.94,-0.44,-1.53,2.87,-7.57,-0.24,1.84,4.74,1009.31
16.223,-0.94,2.06,-0.65,-1.53,2.87,-7.57,-0.24,1.84,4.74,1009.31
16.223,-1.36,1.70,-0.34,-1.53,2.87,-7.57,-0.24,1.84,4.74,1009.31
16.236,-1.36,1.70,-0.34,-1.53,2.87,-7.57,-0.24,1.84,4.74,1009.42
16.242,-1.64,1.62,-0.59,-1.53,2.87,-7.57,-0.24,1.84,4.74,1009.42
16.279,-1.64,1.62,-0.59,-1.53,2.87,-7.57,-0.05,2.32,3.25,1009.42
16.28,-2.39,1.17,-0.60,-1.53,2.87,-7.57,-0.05,2.32,3.25,1009.42
16.301,-2.39,1.17,-0.60,-10.94,9.83,-5.30,-0.05,2.32,3.25,1009.42
16.302,-3.12,0.37,0.03,-10.94,9.83,-5.30,-0.05,2.32,3.25,1009.42
16.312,-0.38,2.18,-0.18,-10.94,9.83,-5.30,-0.05,2.32,3.25,1009.42
16.314,-0.38,2.18,-0.18,-10.94,9.83,-5.30,-0.05,2.32,3.25,1009.35
16.342,-0.38,2.18,-0.18,-10.94,9.83,-5.30,0.10,0.18,-2.82,1009.35
16.343,0.43,0.66,0.16,-10.94,9.83,-5.30,0.10,0.18,-2.82,1009.35
16.356,0.02,1.15,-0.64,-10.94,9.83,-5.30,0.10,0.18,-2.82,1009.35
16.356,0.02,1.15,-0.64,-10.94,9.83,-5.30,0.10,0.18,-2.82,1009.51
16.362,-0.83,1.09,-0.22,-10.94,9.83,-5.30,0.10,0.18,-2.82,1009.51
16.362,-0.83,1.09,-0.22,-22.41,0.73,-3.74,0.10,0.18,-2.82,1009.51
16.413,-0.83,1.09,-0.22,-22.41,0.73,-3.74,0.17,-0.58,-2.13,1009.51
16.414,-0.72,0.95,0.66,-22.41,0.73,-3.74,0.17,-0.58,-2.13,1009.51
16.415,-0.85,0.96,0.39,-22.41,0.73,-3.74,0.17,-0.58,-2.13,1009.51
16.432,-0.85,0.96,0.39,1.77,3.65,-1.63,0.17,-0.58,-2.13,1009.51
16.433,-0.34,1.08,-0.78,1.77,3.65,-1.63,0.17,-0.58,-2.13,1009.51
16.436,-0.34,1.08,-0.78,1.77,3.65,-1.63,0.17,-0.58,-2.13,1009.60
16.452,-0.41,0.96,0.24,1.77,3.65,-1.63,0.17,-0.58,-2.13,1009.60
16.482,-0.21,0.99,-0.03,1.77,3.65,-1.63,0.17,-0.58,-2.13,1009.60
16.484,-0.21,0.99,-0.03,1.77,3.65,-1.63,0.03,-0.22,-0.56,1009.60
16.5,-0.25,1.00,-0.12,1.77,3.65,-1.63,0.03,-0.22,-0.56,1009.60
16.501,-0.22,0.98,0.00,1.77,3.65,-1.63,0.03,-0.22,-0.56,1009.60
16.502,-0.22,0.98,0.00,-4.30,0.45,1.10,0.03,-0.22,-0.56,1009.60
16.516,-0.22,0.98,0.00,-4.30,0.45,1.10,0.03,-0.22,-0.56,1009.47
16.552,-0.22,0.98,0.00,-4.30,0.45,1.10,0.00,-0.03,-0.22,1009.47
16.553,-0.21,0.97,0.08,-4.30,0.45,1.10,0.00,-0.03,-0.22,1009.47
16.554,-0.20,0.98,0.05,-4.30,0.45,1.10,0.00,-0.03,-0.22,1009.47
16.561,-0.20,0.98,0.05,-4.30,0.45,1.10,0.00,-0.03,-0.22,1009.28
16.568,-0.20,0.98,-0.03,-4.30,0.45,1.10,0.00,-0.03,-0.22,1009.28
16.584,-0.20,0.98,-0.03,-0.85,0.37,0.36,0.00,-0.03,-0.22,1009.28
16.622,-0.20,0.98,-0.03,-0.85,0.37,0.36,-0.02,0.08,-0.09,1009.28
16.624,-0.18,0.98,-0.02,-0.85,0.37,0.36,-0.02,0.08,-0.09,1009.28
16.625,-0.20,0.95,0.01,-0.85,0.37,0.36,-0.02,0.08,-0.09,1009.28
16.633,-0.20,0.94,0.00,-0.85,0.37,0.36,-0.02,0.08,-0.09,1009.28
16.634,-0.20,0.94,0.00,-0.85,0.37,0.36,-0.02,0.08,-0.09,1009.18
16.641,-0.15,0.95,0.07,-0.85,0.37,0.36,-0.02,0.08,-0.09,1009.18
16.642,-0.15,0.95,0.07,-0.20,0.30,0.47,-0.02,0.08,-0.09,1009.18
16.692,-0.15,0.95,0.07,-0.20,0.30,0.47,0.01,0.18,-0.11,1009.18
16.693,-0.12,0.96,0.06,-0.20,0.30,0.47,0.01,0.18,-0.11,1009.18
16.694,-0.14,0.96,0.04,-0.20,0.30,0.47,0.01,0.18,-0.11,1009.18
16.711,-0.14,0.96,0.04,0.02,0.05,0.51,0.01,0.18,-0.11,1009.18
16.713,-0.16,0.97,0.02,0.02,0.05,0.51,0.01,0.18,-0.11,1009.18
16.714,-0.16,0.97,0.02,0.02,0.05,0.51,0.01,0.18,-0.11,1009.29
16.762,-0.20,0.98,-0.02,0.02,0.05,0.51,0.01,0.18,-0.11,1009.29
16.766,-0.18,0.98,-0.02,0.02,0.05,0.51,0.01,0.18,-0.11,1009.29
16.767,-0.18,0.98,-0.02,0.02,0.05,0.51,0.01,0.18,-0.11,1009.30
16.767,-0.18,0.98,-0.02,0.02,0.05,0.51,0.06,0.16,-0.19,1009.30
16.768,-0.19,0.99,0.02,0.02,0.05,0.51,0.06,0.16,-0.19,1009.30
16.786,-0.16,1.00,-0.00,0.02,0.05,0.51,0.06,0.16,-0.19,1009.30
16.787,-0.16,1.00,-0.00,0.48,0.24,0.65,0.06,0.16,-0.19,1009.30
16.832,-0.16,1.00,-0.00,0.48,0.24,0.65,-0.03,0.33,-0.30,1009.30
16.832,-0.14,1.02,0.00,0.48,0.24,0.65,-0.03,0.33,-0.30,1009.30
16.833,-0.15,1.05,-0.08,0.48,0.24,0.65,-0.03,0.33,-0.30,1009.30
16.834,-0.15,1.05,-0.08,0.48,0.24,0.65,-0.03,0.33,-0.30,1009.28
16.853,-0.15,1.05,-0.08,0.38,0.50,0.22,-0.03,0.33,-0.30,1009.28
16.854,-0.11,1.10,-0.15,0.38,0.50,0.22,-0.03,0.33,-0.30,1009.28
16.902,-0.06,1.13,-0.14,0.38,0.50,0.22,-0.03,0.33,-0.30,1009.28
16.902,-0.09,1.13,-0.09,0.38,0.50,0.22,-0.03,0.33,-0.30,1009.28
16.902,-0.09,1.13,-0.09,0.38,0.50,0.22,-0.51,0.17,-0.87,1009.28
16.916,-0.10,1.13,-0.05,0.38,0.50,0.22,-0.51,0.17,-0.87,1009.28
16.917,-0.10,1.13,-0.05,0.38,0.50,0.22,-0.51,0.17,-0.87,1009.35
16.922,-0.07,1.19,0.01,0.38,0.50,0.22,-0.51,0.17,-0.87,1009.35
16.923,-0.07,1.19,0.01,1.64,1.44,-0.94,-0.51,0.17,-0.87,1009.35
16.942,-0.07,1.23,-0.09,1.64,1.44,-0.94,-0.51,0.17,-0.87,1009.35
16.961,-0.07,1.23,-0.09,1.64,1.44,-0.94,-0.51,0.17,-0.87,1009.44
16.968,-0.09,1.28,-0.20,1.64,1.44,-0.94,-0.51,0.17,-0.87,1009.44
16.986,-0.09,1.28,-0.20,1.64,1.44,-0.94,-1.03,0.19,-1.83,1009.44
16.992,-0.09,1.28,-0.20,3.38,2.77,-1.35,-1.03,0.19,-1.83,1009.44
16.993,0.00,1.40,-0.27,3.38,2.77,-1.35,-1.03,0.19,-1.83,1009.44
17.034,0.20,1.59,-0.16,3.38,2.77,-1.35,-1.03,0.19,-1.83,1009.44
17.035,0.41,1.74,-0.37,3.38,2.77,-1.35,-1.03,0.19,-1.83,1009.44
17.036,0.41,1.74,-0.37,3.38,2.77,-1.35,-1.03,0.19,-1.83,1009.48
17.042,0.41,1.74,-0.37,3.38,2.77,-1.35,-2.34,0.41,-3.77,1009.48
17.062,0.49,1.65,-0.37,3.38,2.77,-1.35,-2.34,0.41,-3.77,1009.48
17.063,0.20,1.47,0.18,3.38,2.77,-1.35,-2.34,0.41,-3.77,1009.48
17.063,0.20,1.47,0.18,6.31,6.57,-3.78,-2.34,0.41,-3.77,1009.48
17.103,-0.39,1.36,0.69,6.31,6.57,-3.78,-2.34,0.41,-3.77,1009.48
17.111,-0.75,1.39,0.46,6.31,6.57,-3.78,-2.34,0.41,-3.77,1009.48
17.113,-0.75,1.39,0.46,6.31,6.57,-3.78,-2.47,1.18,-5.56,1009.48
17.114,-0.75,1.39,0.46,6.31,6.57,-3.78,-2.47,1.18,-5.56,1008.76
17.132,-0.91,-0.33,0.43,6.31,6.57,-3.78,-2.47,1.18,-5.56,1008.76
17.133,-0.91,-0.33,0.43,11.60,11.68,-3.63,-2.47,1.18,-5.56,1008.76
17.162,-0.45,0.48,0.94,11.60,11.68,-3.63,-2.47,1.18,-5.56,1008.76
17.163,-0.45,0.48,0.94,11.60,11.68,-3.63,-2.47,1.18,-5.56,1008.86
17.168,1.05,0.74,-0.06,11.60,11.68,-3.63,-2.47,1.18,-5.56,1008.86
17.184,1.05,0.74,-0.06,11.60,11.68,-3.63,-1.03,3.12,0.87,1008.86
17.202,1.05,0.74,-0.06,1.61,1.90,5.67,-1.03,3.12,0.87,1008.86
17.203,0.52,0.68,-0.49,1.61,1.90,5.67,-1.03,3.12,0.87,1008.86
17.203,-0.30,0.34,-0.54,1.61,1.90,5.67,-1.03,3.12,0.87,1008.86
17.234,-0.54,0.25,-0.44,1.61,1.90,5.67,-1.03,3.12,0.87,1008.86
17.236,-0.54,0.25,-0.44,1.61,1.90,5.67,-1.03,3.12,0.87,1009.19
17.252,-0.54,0.25,-0.44,1.61,1.90,5.67,-0.48,0.59,4.06,1009.19
17.253,-0.08,0.41,-0.35,1.61,1.90,5.67,-0.48,0.59,4.06,1009.19
17.272,-0.08,0.41,-0.35,8.11,-1.59,-2.54,-0.48,0.59,4.06,1009.19
17.273,0.31,0.62,-0.31,8.11,-1.59,-2.54,-0.48,0.59,4.06,1009.19
17.301,0.34,0.77,-0.26,8.11,-1.59,-2.54,-0.48,0.59,4.06,1009.19
17.315,0.21,0.90,-0.29,8.11,-1.59,-2.54,-0.48,0.59,4.06,1009.19
17.316,0.21,0.90,-0.29,8.11,-1.59,-2.54,-0.48,0.59,4.06,1009.20
17.322,0.21,0.90,-0.29,8.11,-1.59,-2.54,0.22,0.79,5.27,1009.20
17.342,0.21,0.90,-0.29,2.01,-4.24,-3.22,0.22,0.79,5.27,1009.20
17.343,0.11,1.06,-0.37,2.01,-4.24,-3.22,0.22,0.79,5.27,1009.20
17.344,0.06,1.24,-0.47,2.01,-4.24,-3.22,0.22,0.79,5.27,1009.20
17.372,0.06,1.24,-0.47,2.01,-4.24,-3.22,0.22,0.79,5.27,1009.32
17.373,-0.05,1.46,-0.69,2.01,-4.24,-3.22,0.22,0.79,5.27,1009.32
17.392,-0.05,1.46,-0.69,2.01,-4.24,-3.22,0.75,1.86,4.67,1009.32
17.392,-0.06,1.68,-0.67,2.01,-4.24,-3.22,0.75,1.86,4.67,1009.32
17.412,-0.14,1.91,-0.47,2.01,-4.24,-3.22,0.75,1.86,4.67,1009.32
17.413,-0.14,1.91,-0.47,1.05,0.91,-2.68,0.75,1.86,4.67,1009.32
17.434,0.03,2.95,-0.74,1.05,0.91,-2.68,0.75,1.86,4.67,1009.32
17.435,0.03,2.95,-0.74,1.05,0.91,-2.68,0.75,1.86,4.67,1009.33
17.442,-1.57,1.30,-0.13,1.05,0.91,-2.68,0.75,1.86,4.67,1009.33
17.462,-1.57,1.30,-0.13,1.05,0.91,-2.68,-0.02,1.04,2.99,1009.33
17.483,-1.57,1.30,-0.13,-3.32,8.14,-4.98,-0.02,1.04,2.99,1009.33
17.484,-2.45,1.51,-0.46,-3.32,8.14,-4.98,-0.02,1.04,2.99,1009.33
17.485,-3.70,0.19,0.36,-3.32,8.14,-4.98,-0.02,1.04,2.99,1009.33
17.515,-2.22,0.63,0.08,-3.32,8.14,-4.98,-0.02,1.04,2.99,1009.33
17.517,-2.22,0.63,0.08,-3.32,8.14,-4.98,-0.02,1.04,2.99,1009.33
17.532,-2.22,0.63,0.08,-3.32,8.14,-4.98,0.02,-1.39,0.98,1009.33
17.533,-0.60,2.43,-0.66,-3.32,8.14,-4.98,0.02,-1.39,0.98,1009.33
17.552,-0.60,2.43,-0.66,-22.32,4.35,-1.15,0.02,-1.39,0.98,1009.33
17.553,-0.59,0.59,0.10,-22.32,4.35,-1.15,0.02,-1.39,0.98,1009.33
17.555,-0.59,0.59,0.10,-22.32,4.35,-1.15,0.02,-1.39,0.98,1009.26
17.568,0.39,0.90,0.57,-22.32,4.35,-1.15,0.02,-1.39,0.98,1009.26
17.602,0.39,0.90,0.57,-22.32,4.35,-1.15,-0.64,-0.74,-3.39,1009.26
17.603,-0.50,1.03,-0.32,-22.32,4.35,-1.15,-0.64,-0.74,-3.39,1009.26
17.623,-0.50,1.03,-0.32,-8.39,1.78,0.15,-0.64,-0.74,-3.39,1009.26
17.625,-1.00,0.95,0.36,-8.39,1.78,0.15,-0.64,-0.74,-3.39,1009.26
17.625,-0.74,0.94,0.30,-8.39,1.78,0.15,-0.64,-0.74,-3.39,1009.26
17.635,-0.74,0.94,0.30,-8.39,1.78,0.15,-0.64,-0.74,-3.39,1009.68
17.675,-0.74,0.94,0.30,-8.39,1.78,0.15,-0.08,-0.44,-1.03,1009.68
17.676,-0.60,1.00,-0.40,-8.39,1.78,0.15,-0.08,-0.44,-1.03,1009.68
17.676,-0.39,1.01,-0.11,-8.39,1.78,0.15,-0.08,-0.44,-1.03,1009.68
17.7,-0.39,1.01,-0.11,-4.01,0.51,2.21,-0.08,-0.44,-1.03,1009.68
17.701,-0.30,1.03,-0.14,-4.01,0.51,2.21,-0.08,-0.44,-1.03,1009.68
17.723,-0.22,0.99,0.02,-4.01,0.51,2.21,-0.08,-0.44,-1.03,1009.68
17.724,-0.22,0.99,0.02,-4.01,0.51,2.21,-0.08,-0.44,-1.03,1009.73
17.743,-0.22,0.99,0.02,-4.01,0.51,2.21,-0.29,-0.01,-0.27,1009.73
17.744,-0.19,0.98,0.05,-4.01,0.51,2.21,-0.29,-0.01,-0.27,1009.73
17.756,-0.17,0.98,0.06,-4.01,0.51,2.21,-0.29,-0.01,-0.27,1009.73
17.756,-0.17,0.98,0.06,-4.01,0.51,2.21,-0.29,-0.01,-0.27,1009.39
17.762,-0.17,0.98,0.06,-2.36,0.62,-1.43,-0.29,-0.01,-0.27,1009.39
17.762,-0.18,0.98,0.04,-2.36,0.62,-1.43,-0.29,-0.01,-0.27,1009.39
17.813,-0.18,0.98,0.04,-2.36,0.62,-1.43,-0.10,0.09,-0.15,1009.39
17.814,-0.18,0.97,0.06,-2.36,0.62,-1.43,-0.10,0.09,-0.15,1009.39
17.814,-0.17,0.99,0.01,-2.36,0.62,-1.43,-0.10,0.09,-0.15,1009.39
17.833,-0.17,0.99,0.01,-0.11,0.36,0.80,-0.10,0.09,-0.15,1009.39
17.834,-0.13,0.97,0.06,-0.11,0.36,0.80,-0.10,0.09,-0.15,1009.39
17.835,-0.13,0.97,0.06,-0.11,0.36,0.80,-0.10,0.09,-0.15,1009.24
17.882,-0.16,0.96,0.06,-0.11,0.36,0.80,-0.10,0.09,-0.15,1009.24
17.884,-0.15,0.96,0.06,-0.11,0.36,0.80,-0.10,0.09,-0.15,1009.24
17.885,-0.15,0.96,0.06,-0.11,0.36,0.80,0.09,0.17,-0.16,1009.24
17.901,-0.17,0.96,0.03,-0.11,0.36,0.80,0.09,0.17,-0.16,1009.24
17.902,-0.16,0.95,0.02,-0.11,0.36,0.80,0.09,0.17,-0.16,1009.24
17.902,-0.16,0.95,0.02,0.21,0.27,0.89,0.09,0.17,-0.16,1009.24
17.915,-0.16,0.95,0.02,0.21,0.27,0.89,0.09,0.17,-0.16,1009.22
17.953,-0.14,0.96,0.05,0.21,0.27,0.89,0.09,0.17,-0.16,1009.22
17.954,-0.13,0.96,0.05,0.21,0.27,0.89,0.09,0.17,-0.16,1009.22
17.954,-0.13,0.96,0.05,0.21,0.27,0.89,0.22,0.24,-0.22,1009.22
17.955,-0.13,0.96,0.05,0.21,0.27,0.89,0.22,0.24,-0.22,1009.27
17.968,-0.14,0.97,0.02,0.21,0.27,0.89,0.22,0.24,-0.22,1009.27
17.972,-0.14,0.97,0.02,0.35,0.15,1.04,0.22,0.24,-0.22,1009.27
18.022,-0.14,0.97,0.02,0.35,0.15,1.04,0.29,0.30,-0.41,1009.27
18.024,-0.16,0.99,-0.04,0.35,0.15,1.04,0.29,0.30,-0.41,1009.27
18.024,-0.16,1.01,-0.06,0.35,0.15,1.04,0.29,0.30,-0.41,1009.27
18.033,-0.18,1.03,-0.08,0.35,0.15,1.04,0.29,0.30,-0.41,1009.27
18.034,-0.18,1.03,-0.08,0.35,0.15,1.04,0.29,0.30,-0.41,1009.29
18.042,-0.09,1.09,-0.04,0.35,0.15,1.04,0.29,0.30,-0.41,1009.29
18.043,-0.09,1.09,-0.04,0.83,0.33,1.17,0.29,0.30,-0.41,1009.29
18.092,-0.09,1.09,-0.04,0.83,0.33,1.17,0.03,0.29,-0.97,1009.29
18.093,-0.01,1.19,-0.16,0.83,0.33,1.17,0.03,0.29,-0.97,1009.29
18.093,-0.05,1.22,-0.22,0.83,0.33,1.17,0.03,0.29,-0.97,1009.29
18.112,-0.05,1.22,-0.22,1.57,1.22,0.21,0.03,0.29,-0.97,1009.29
18.113,-0.08,1.24,-0.26,1.57,1.22,0.21,0.03,0.29,-0.97,1009.29
18.116,-0.08,1.24,-0.26,1.57,1.22,0.21,0.03,0.29,-0.97,1009.36
18.123,-0.10,1.27,-0.22,1.57,1.22,0.21,0.03,0.29,-0.97,1009.36
18.156,-0.04,1.35,-0.13,1.57,1.22,0.21,0.03,0.29,-0.97,1009.36
18.157,-0.04,1.35,-0.13,1.57,1.22,0.21,0.03,0.29,-0.97,1009.42
18.164,-0.04,1.35,-0.13,1.57,1.22,0.21,-0.40,-0.13,-2.19,1009.42
18.167,0.06,1.46,-0.10,1.57,1.22,0.21,-0.40,-0.13,-2.19,1009.42
18.191,0.29,1.60,-0.05,1.57,1.22,0.21,-0.40,-0.13,-2.19,1009.42
18.192,0.29,1.60,-0.05,4.02,3.69,-1.70,-0.40,-0.13,-2.19,1009.42
18.232,0.29,1.60,-0.05,4.02,3.69,-1.70,-1.01,0.32,-4.56,1009.42
18.234,0.42,1.68,-0.13,4.02,3.69,-1.70,-1.01,0.32,-4.56,1009.42
18.235,0.58,1.63,-0.05,4.02,3.69,-1.70,-1.01,0.32,-4.56,1009.42
18.235,0.58,1.63,-0.05,4.02,3.69,-1.70,-1.01,0.32,-4.56,1009.20
18.252,0.27,1.54,0.02,4.02,3.69,-1.70,-1.01,0.32,-4.56,1009.20
18.253,0.27,1.54,0.02,7.93,7.94,-0.96,-1.01,0.32,-4.56,1009.20
18.301,-0.35,1.37,0.46,7.93,7.94,-0.96,-1.01,0.32,-4.56,1009.20
18.303,-0.23,1.35,0.70,7.93,7.94,-0.96,-1.01,0.32,-4.56,1009.20
18.303,-0.23,1.35,0.70,7.93,7.94,-0.96,-0.39,0.85,-6.17,1009.20
18.315,-0.72,0.07,0.05,7.93,7.94,-0.96,-0.39,0.85,-6.17,1009.20
18.316,-0.72,0.07,0.05,7.93,7.94,-0.96,-0.39,0.85,-6.17,1008.93
18.322,-2.22,0.68,-0.02,7.93,7.94,-0.96,-0.39,0.85,-6.17,1008.93
18.322,-2.22,0.68,-0.02,11.67,11.66,0.58,-0.39,0.85,-6.17,1008.93
18.355,0.86,0.75,-0.04,11.67,11.66,0.58,-0.39,0.85,-6.17,1008.93
18.357,0.86,0.75,-0.04,11.67,11.66,0.58,-0.39,0.85,-6.17,1009.13
18.367,0.55,0.64,-0.10,11.67,11.66,0.58,-0.39,0.85,-6.17,1009.13
18.372,0.55,0.64,-0.10,11.67,11.66,0.58,-0.12,-0.07,0.91,1009.13
18.393,0.19,0.36,0.06,11.67,11.66,0.58,-0.12,-0.07,0.91,1009.13
18.395,0.19,0.36,0.06,-1.44,2.82,2.98,-0.12,-0.07,0.91,1009.13
18.434,-0.04,0.23,0.18,-1.44,2.82,2.98,-0.12,-0.07,0.91,1009.13
18.436,-0.08,0.34,0.02,-1.44,2.82,2.98,-0.12,-0.07,0.91,1009.13
18.437,-0.08,0.34,0.02,-1.44,2.82,2.98,-0.12,-0.07,0.91,1009.14
18.442,-0.08,0.34,0.02,-1.44,2.82,2.98,0.02,-0.47,3.57,1009.14
18.452,0.14,0.52,-0.08,-1.44,2.82,2.98,0.02,-0.47,3.57,1009.14
18.462,0.16,0.64,-0.05,-1.44,2.82,2.98,0.02,-0.47,3.57,1009.14
18.463,0.16,0.64,-0.05,10.49,-1.86,0.18,0.02,-0.47,3.57,1009.14
18.501,0.08,0.77,-0.08,10.49,-1.86,0.18,0.02,-0.47,3.57,1009.14
18.512,0.09,1.02,-0.33,10.49,-1.86,0.18,0.02,-0.47,3.57,1009.14
18.513,0.09,1.02,-0.33,10.49,-1.86,0.18,0.34,0.43,5.54,1009.14
18.516,0.09,1.02,-0.33,10.49,-1.86,0.18,0.34,0.43,5.54,1009.19
18.533,0.09,1.02,-0.33,3.18,-4.24,0.38,0.34,0.43,5.54,1009.19
18.534,0.02,1.19,-0.41,3.18,-4.24,0.38,0.34,0.43,5.54,1009.19
18.555,0.02,1.19,-0.41,3.18,-4.24,0.38,0.34,0.43,5.54,1009.28
18.556,-0.07,1.36,-0.49,3.18,-4.24,0.38,0.34,0.43,5.54,1009.28
18.568,-0.20,1.59,-0.58,3.18,-4.24,0.38,0.34,0.43,5.54,1009.28
18.592,-0.20,1.59,-0.58,3.18,-4.24,0.38,0.39,0.31,5.34,1009.28
18.603,-0.20,1.59,-0.58,-0.06,1.02,-2.09,0.39,0.31,5.34,1009.28
18.604,-0.32,1.82,-0.60,-0.06,1.02,-2.09,0.39,0.31,5.34,1009.28
18.604,-0.60,2.05,-0.62,-0.06,1.02,-2.09,0.39,0.31,5.34,1009.28
18.634,-1.23,2.01,-0.32,-0.06,1.02,-2.09,0.39,0.31,5.34,1009.28
18.636,-1.23,2.01,-0.32,-0.06,1.02,-2.09,0.39,0.31,5.34,1009.27
18.643,-1.88,1.41,0.62,-0.06,1.02,-2.09,0.39,0.31,5.34,1009.27
18.652,-1.88,1.41,0.62,-0.06,1.02,-2.09,0.88,0.05,4.38,1009.27
18.673,-1.88,1.41,0.62,-6.07,8.50,-4.43,0.88,0.05,4.38,1009.27
18.674,-2.39,1.33,-0.24,-6.07,8.50,-4.43,0.88,0.05,4.38,1009.27
18.701,-3.02,0.93,-0.09,-6.07,8.50,-4.43,0.88,0.05,4.38,1009.27
18.715,-1.94,0.80,0.27,-6.07,8.50,-4.43,0.88,0.05,4.38,1009.27
18.716,-1.94,0.80,0.27,-6.07,8.50,-4.43,0.88,0.05,4.38,1009.44
18.723,-1.94,0.80,0.27,-6.07,8.50,-4.43,-0.18,-1.07,-0.10,1009.44
18.743,-1.94,0.80,0.27,-20.90,5.58,1.03,-0.18,-1.07,-0.10,1009.44
18.744,-0.48,2.22,-0.75,-20.90,5.58,1.03,-0.18,-1.07,-0.10,1009.44
18.745,0.79,0.72,0.66,-20.90,5.58,1.03,-0.18,-1.07,-0.10,1009.44
18.756,0.79,0.72,0.66,-20.90,5.58,1.03,-0.18,-1.07,-0.10,1009.55
18.768,0.37,1.01,-0.00,-20.90,5.58,1.03,-0.18,-1.07,-0.10,1009.55
18.793,0.37,1.01,-0.00,-20.90,5.58,1.03,-1.15,-0.39,-3.85,1009.55
18.794,-1.14,0.94,0.30,-20.90,5.58,1.03,-1.15,-0.39,-3.85,1009.55
18.813,-1.14,0.94,0.30,-7.37,2.26,1.20,-1.15,-0.39,-3.85,1009.55
18.814,-1.12,0.90,0.59,-7.37,2.26,1.20,-1.15,-0.39,-3.85,1009.55
18.834,-0.93,0.96,0.09,-7.37,2.26,1.20,-1.15,-0.39,-3.85,1009.55
18.835,-0.93,0.96,0.09,-7.37,2.26,1.20,-1.15,-0.39,-3.85,1009.78
18.862,-0.93,0.96,0.09,-7.37,2.26,1.20,-0.18,-0.50,-1.11,1009.78
18.863,-0.53,1.04,-0.45,-7.37,2.26,1.20,-0.18,-0.50,-1.11,1009.78
18.883,-0.53,1.04,-0.45,-4.90,0.00,3.36,-0.18,-0.50,-1.11,1009.78
18.884,-0.39,1.01,0.01,-4.90,0.00,3.36,-0.18,-0.50,-1.11,1009.78
18.884,-0.26,1.02,-0.04,-4.90,0.00,3.36,-0.18,-0.50,-1.11,1009.78
18.911,-0.21,0.97,0.04,-4.90,0.00,3.36,-0.18,-0.50,-1.11,1009.78
18.915,-0.21,0.97,0.04,-4.90,0.00,3.36,-0.18,-0.50,-1.11,1009.60
18.933,-0.21,0.97,0.04,-4.90,0.00,3.36,-0.34,0.03,-0.31,1009.60
18.934,-0.22,0.96,0.10,-4.90,0.00,3.36,-0.34,0.03,-0.31,1009.60
18.953,-0.22,0.96,0.10,-2.52,0.78,-1.35,-0.34,0.03,-0.31,1009.60
18.954,-0.18,0.97,0.11,-2.52,0.78,-1.35,-0.34,0.03,-0.31,1009.60
18.955,-0.18,0.97,0.11,-2.52,0.78,-1.35,-0.34,0.03,-0.31,1009.30
18.968,-0.24,0.97,0.02,-2.52,0.78,-1.35,-0.34,0.03,-0.31,1009.30
19.004,-0.24,0.97,0.02,-2.52,0.78,-1.35,-0.10,0.16,-0.17,1009.30
19.004,-0.22,0.97,0.02,-2.52,0.78,-1.35,-0.10,0.16,-0.17,1009.30
19.023,-0.22,0.97,0.02,0.02,0.28,0.99,-0.10,0.16,-0.17,1009.30
19.024,-0.20,0.96,0.04,0.02,0.28,0.99,-0.10,0.16,-0.17,1009.30
19.024,-0.19,0.96,0.05,0.02,0.28,0.99,-0.10,0.16,-0.17,1009.30
19.035,-0.19,0.96,0.05,0.02,0.28,0.99,-0.10,0.16,-0.17,1009.16
19.072,-0.19,0.96,0.05,0.02,0.28,0.99,0.00,0.25,-0.11,1009.16
19.074,-0.20,0.95,0.04,0.02,0.28,0.99,0.00,0.25,-0.11,1009.16
19.074,-0.19,0.95,0.08,0.02,0.28,0.99,0.00,0.25,-0.11,1009.16
19.094,-0.18,0.96,0.05,0.02,0.28,0.99,0.00,0.25,-0.11,1009.16
19.095,-0.18,0.96,0.05,0.07,0.24,0.57,0.00,0.25,-0.11,1009.16
19.112,-0.19,0.97,0.02,0.07,0.24,0.57,0.00,0.25,-0.11,1009.16
19.115,-0.19,0.97,0.02,0.07,0.24,0.57,0.00,0.25,-0.11,1009.19
19.144,-0.19,0.97,0.02,0.07,0.24,0.57,0.08,0.38,-0.19,1009.19
19.145,-0.16,0.98,0.04,0.07,0.24,0.57,0.08,0.38,-0.19,1009.19
19.156,-0.13,0.98,0.06,0.07,0.24,0.57,0.08,0.38,-0.19,1009.19
19.156,-0.13,0.98,0.06,0.07,0.24,0.57,0.08,0.38,-0.19,1009.26
19.163,-0.17,0.99,-0.03,0.07,0.24,0.57,0.08,0.38,-0.19,1009.26
19.163,-0.17,0.99,-0.03,0.41,0.17,0.94,0.08,0.38,-0.19,1009.26
19.213,-0.17,0.99,-0.03,0.41,0.17,0.94,0.06,0.28,-0.50,1009.26
19.214,-0.17,1.01,-0.05,0.41,0.17,0.94,0.06,0.28,-0.50,1009.26
19.215,-0.12,1.07,-0.05,0.41,0.17,0.94,0.06,0.28,-0.50,1009.26
19.233,-0.12,1.07,-0.05,1.11,0.55,0.59,0.06,0.28,-0.50,1009.26
19.234,-0.12,1.10,-0.04,1.11,0.55,0.59,0.06,0.28,-0.50,1009.26
19.235,-0.12,1.10,-0.04,1.11,0.55,0.59,0.06,0.28,-0.50,1009.37
19.283,-0.12,1.10,-0.04,1.11,0.55,0.59,-0.26,0.16,-1.25,1009.37
19.284,-0.09,1.16,-0.11,1.11,0.55,0.59,-0.26,0.16,-1.25,1009.37
19.285,-0.04,1.23,-0.13,1.11,0.55,0.59,-0.26,0.16,-1.25,1009.37
19.301,-0.12,1.23,-0.22,1.11,0.55,0.59,-0.26,0.16,-1.25,1009.37
19.303,-0.09,1.30,-0.20,1.11,0.55,0.59,-0.26,0.16,-1.25,1009.37
19.303,-0.09,1.30,-0.20,2.32,1.78,-0.36,-0.26,0.16,-1.25,1009.37
19.315,-0.09,1.30,-0.20,2.32,1.78,-0.36,-0.26,0.16,-1.25,1009.50
19.353,-0.09,1.30,-0.20,2.32,1.78,-0.36,-0.80,-0.07,-2.61,1009.50
19.354,0.00,1.39,-0.14,2.32,1.78,-0.36,-0.80,-0.07,-2.61,1009.50
19.355,0.11,1.51,-0.11,2.32,1.78,-0.36,-0.80,-0.07,-2.61,1009.50
19.356,0.11,1.51,-0.11,2.32,1.78,-0.36,-0.80,-0.07,-2.61,1009.50
19.368,0.37,1.67,-0.11,2.32,1.78,-0.36,-0.80,-0.07,-2.61,1009.50
19.372,0.37,1.67,-0.11,4.57,4.35,-2.05,-0.80,-0.07,-2.61,1009.50
19.424,0.37,1.67,-0.11,4.57,4.35,-2.05,-1.48,0.58,-5.51,1009.50
19.425,0.58,1.77,-0.12,4.57,4.35,-2.05,-1.48,0.58,-5.51,1009.50
19.425,0.48,1.73,0.17,4.57,4.35,-2.05,-1.48,0.58,-5.51,1009.50
19.435,0.03,1.61,0.28,4.57,4.35,-2.05,-1.48,0.58,-5.51,1009.50
19.436,0.03,1.61,0.28,4.57,4.35,-2.05,-1.48,0.58,-5.51,1009.07
19.444,-0.30,1.40,0.55,4.57,4.35,-2.05,-1.48,0.58,-5.51,1009.07
19.444,-0.30,1.40,0.55,10.14,10.38,-1.80,-1.48,0.58,-5.51,1009.07
19.493,-0.30,1.40,0.55,10.14,10.38,-1.80,-0.42,0.91,-5.22,1009.07
19.494,-0.08,1.39,0.57,10.14,10.38,-1.80,-0.42,0.91,-5.22,1009.07
19.494,-1.07,-0.30,0.02,10.14,10.38,-1.80,-0.42,0.91,-5.22,1009.07
19.512,-1.98,0.44,0.53,10.14,10.38,-1.80,-0.42,0.91,-5.22,1009.07
19.513,-1.98,0.44,0.53,10.12,12.20,2.71,-0.42,0.91,-5.22,1009.07
19.515,-1.98,0.44,0.53,10.12,12.20,2.71,-0.42,0.91,-5.22,1008.91
19.556,-1.98,0.44,0.53,10.12,12.20,2.71,-0.42,0.91,-5.22,1009.15
19.557,0.77,0.76,-0.12,10.12,12.20,2.71,-0.42,0.91,-5.22,1009.15
19.558,0.76,0.65,-0.37,10.12,12.20,2.71,-0.42,0.91,-5.22,1009.15
19.569,0.76,0.65,-0.37,10.12,12.20,2.71,-0.06,0.79,2.33,1009.15
19.57,0.12,0.32,-0.03,10.12,12.20,2.71,-0.06,0.79,2.33,1009.15
19.592,0.12,0.32,-0.03,0.03,0.07,3.09,-0.06,0.79,2.33,1009.15
19.592,-0.34,0.11,0.11,0.03,0.07,3.09,-0.06,0.79,2.33,1009.15
19.634,-0.34,0.11,0.11,0.03,0.07,3.09,0.16,-0.00,4.78,1009.15
19.636,0.02,0.30,-0.04,0.03,0.07,3.09,0.16,-0.00,4.78,1009.15
19.637,0.23,0.48,-0.06,0.03,0.07,3.09,0.16,-0.00,4.78,1009.15
19.638,0.23,0.48,-0.06,0.03,0.07,3.09,0.16,-0.00,4.78,1009.17
19.653,0.23,0.48,-0.06,7.93,-3.35,-0.67,0.16,-0.00,4.78,1009.17
19.654,0.20,0.60,-0.04,7.93,-3.35,-0.67,0.16,-0.00,4.78,1009.17
19.702,0.07,0.79,-0.11,7.93,-3.35,-0.67,0.16,-0.00,4.78,1009.17
19.703,0.03,1.01,-0.18,7.93,-3.35,-0.67,0.16,-0.00,4.78,1009.17
19.703,0.03,1.01,-0.18,7.93,-3.35,-0.67,0.54,0.55,6.04,1009.17
19.715,-0.04,1.24,-0.31,7.93,-3.35,-0.67,0.54,0.55,6.04,1009.17
19.716,-0.04,1.24,-0.31,7.93,-3.35,-0.67,0.54,0.55,6.04,1009.25
19.724,-0.04,1.24,-0.31,2.98,-4.07,0.25,0.54,0.55,6.04,1009.25
19.725,-0.05,1.60,-0.55,2.98,-4.07,0.25,0.54,0.55,6.04,1009.25
19.756,-0.05,1.60,-0.55,2.98,-4.07,0.25,0.54,0.55,6.04,1009.26
19.757,-0.01,2.13,-0.65,2.98,-4.07,0.25,0.54,0.55,6.04,1009.26
19.769,-0.57,2.28,-0.44,2.98,-4.07,0.25,0.54,0.55,6.04,1009.26
19.772,-0.57,2.28,-0.44,2.98,-4.07,0.25,0.31,-0.33,5.05,1009.26
19.793,-1.26,2.09,0.11,2.98,-4.07,0.25,0.31,-0.33,5.05,1009.26
19.794,-1.26,2.09,0.11,-1.34,2.91,-2.20,0.31,-0.33,5.05,1009.26
19.824,-2.23,1.42,0.78,-1.34,2.91,-2.20,0.31,-0.33,5.05,1009.26
19.825,-2.80,0.97,0.34,-1.34,2.91,-2.20,0.31,-0.33,5.05,1009.26
19.835,-2.80,0.97,0.34,-1.34,2.91,-2.20,0.31,-0.33,5.05,1009.35
19.843,-2.80,0.97,0.34,-1.34,2.91,-2.20,0.29,-0.55,3.50,1009.35
19.869,-2.80,0.97,0.34,-10.40,11.54,-0.48,0.29,-0.55,3.50,1009.35
19.879,-3.10,0.85,0.07,-10.40,11.54,-0.48,0.29,-0.55,3.50,1009.35
19.88,-1.62,1.67,-0.08,-10.40,11.54,-0.48,0.29,-0.55,3.50,1009.35
19.901,-0.88,0.89,-0.22,-10.40,11.54,-0.48,0.29,-0.55,3.50,1009.35
19.916,-0.88,0.89,-0.22,-10.40,11.54,-0.48,-0.57,-2.02,-2.99,1009.35
19.917,0.32,1.00,0.09,-10.40,11.54,-0.48,-0.57,-2.02,-2.99,1009.35
19.917,0.32,1.00,0.09,-10.40,11.54,-0.48,-0.57,-2.02,-2.99,1009.49
19.934,-0.09,1.02,-0.46,-10.40,11.54,-0.48,-0.57,-2.02,-2.99,1009.49
19.935,-0.09,1.02,-0.46,-23.81,2.18,2.91,-0.57,-2.02,-2.99,1009.49
19.956,-1.28,0.90,-0.04,-23.81,2.18,2.91,-0.57,-2.02,-2.99,1009.49
19.957,-1.28,0.90,-0.04,-23.81,2.18,2.91,-0.57,-2.02,-2.99,1009.52
19.97,-0.92,0.87,0.74,-23.81,2.18,2.91,-0.57,-2.02,-2.99,1009.52
19.992,-0.92,0.87,0.74,-23.81,2.18,2.91,-0.57,-0.63,-2.39,1009.52
20.003,-0.92,0.87,0.74,-1.96,0.29,-1.75,-0.57,-0.63,-2.39,1009.52
20.004,-0.38,1.07,-0.43,-1.96,0.29,-1.75,-0.57,-0.63,-2.39,1009.52
20.004,-0.65,0.90,0.27,-1.96,0.29,-1.75,-0.57,-0.63,-2.39,1009.52
20.056,-0.37,1.01,-0.16,-1.96,0.29,-1.75,-0.57,-0.63,-2.39,1009.52
20.057,-0.37,1.01,-0.16,-1.96,0.29,-1.75,-0.57,-0.63,-2.39,1009.63
20.057,-0.37,1.01,-0.16,-1.96,0.29,-1.75,-0.24,-0.08,-0.62,1009.63
20.058,-0.42,0.93,0.04,-1.96,0.29,-1.75,-0.24,-0.08,-0.62,1009.63
20.074,-0.42,0.93,0.04,-4.92,-0.03,2.46,-0.24,-0.08,-0.62,1009.63
20.074,-0.22,0.96,0.06,-4.92,-0.03,2.46,-0.24,-0.08,-0.62,1009.63
20.101,-0.23,0.98,0.01,-4.92,-0.03,2.46,-0.24,-0.08,-0.62,1009.63
20.115,-0.23,0.99,0.00,-4.92,-0.03,2.46,-0.24,-0.08,-0.62,1009.63
20.116,-0.23,0.99,0.00,-4.92,-0.03,2.46,-0.24,-0.08,-0.62,1009.39
20.124,-0.23,0.99,0.00,-4.92,-0.03,2.46,-0.10,0.09,-0.18,1009.39
20.144,-0.24,0.97,-0.00,-4.92,-0.03,2.46,-0.10,0.09,-0.18,1009.39
20.145,-0.23,0.96,0.02,-4.92,-0.03,2.46,-0.10,0.09,-0.18,1009.39
20.145,-0.23,0.96,0.02,-0.93,0.37,0.20,-0.10,0.09,-0.18,1009.39
20.156,-0.23,0.96,0.02,-0.93,0.37,0.20,-0.10,0.09,-0.18,1009.18
20.17,-0.21,0.95,0.05,-0.93,0.37,0.20,-0.10,0.09,-0.18,1009.18
20.194,-0.21,0.95,0.05,-0.93,0.37,0.20,-0.02,0.21,-0.09,1009.18
20.195,-0.20,0.93,0.07,-0.93,0.37,0.20,-0.02,0.21,-0.09,1009.18
