time,gFx,gFy,gFz,ax,ay,az,wx,wy,wz,P
0.003,0.08,0.98,0.11,0.02,-0.04,0.10,-0.04,-0.03,-0.00,1009.32
0.029,0.07,0.97,0.11,0.02,-0.04,0.10,-0.04,-0.03,-0.00,1009.32
0.03,0.07,0.97,0.10,0.02,-0.04,0.10,-0.04,-0.03,-0.00,1009.32
0.045,0.07,0.97,0.10,0.02,-0.04,0.10,-0.05,-0.02,-0.01,1009.32
0.066,0.07,0.97,0.12,0.02,-0.04,0.10,-0.05,-0.02,-0.01,1009.32
0.067,0.07,0.98,0.11,0.02,-0.04,0.10,-0.05,-0.02,-0.01,1009.32
0.067,0.07,0.98,0.11,0.00,0.02,-0.05,-0.05,-0.02,-0.01,1009.32
0.07,0.07,0.98,0.11,0.00,0.02,-0.05,-0.05,-0.02,-0.01,1009.25
0.101,0.07,0.98,0.11,0.00,0.02,-0.05,-0.05,-0.02,-0.01,1009.25
0.11,0.07,0.98,0.10,0.00,0.02,-0.05,-0.05,-0.02,-0.01,1009.25
0.111,0.07,0.98,0.10,0.00,0.02,-0.05,-0.05,-0.02,-0.01,1009.27
0.115,0.07,0.98,0.10,0.00,0.02,-0.05,-0.05,-0.02,-0.01,1009.27
0.137,0.07,0.97,0.11,0.00,0.02,-0.05,-0.05,-0.02,-0.01,1009.27
0.138,0.07,0.97,0.11,0.03,0.00,-0.01,-0.05,-0.02,-0.01,1009.27
0.167,0.07,0.97,0.12,0.03,0.00,-0.01,-0.05,-0.02,-0.01,1009.27
0.186,0.07,0.97,0.12,0.03,0.00,-0.01,-0.05,-0.02,-0.01,1009.27
0.187,0.07,0.97,0.12,0.03,0.00,-0.01,-0.04,-0.02,-0.00,1009.27
0.189,0.06,0.97,0.12,0.03,0.00,-0.01,-0.04,-0.02,-0.00,1009.27
0.19,0.06,0.97,0.12,0.03,0.00,-0.01,-0.04,-0.02,-0.00,1009.27
0.206,0.07,0.98,0.11,0.03,0.00,-0.01,-0.04,-0.02,-0.00,1009.27
0.207,0.07,0.98,0.11,0.01,0.03,-0.04,-0.04,-0.02,-0.00,1009.27
0.229,0.07,0.98,0.12,0.01,0.03,-0.04,-0.04,-0.02,-0.00,1009.27
0.256,0.07,0.97,0.11,0.01,0.03,-0.04,-0.04,-0.02,-0.00,1009.27
0.257,0.07,0.97,0.11,0.01,0.03,-0.04,-0.02,-0.01,0.01,1009.27
0.271,0.07,0.97,0.12,0.01,0.03,-0.04,-0.02,-0.01,0.01,1009.27
0.272,0.07,0.97,0.12,0.01,0.03,-0.04,-0.02,-0.01,0.01,1009.28
0.276,0.07,0.97,0.12,-0.02,0.00,0.03,-0.02,-0.01,0.01,1009.28
0.296,0.07,0.97,0.12,-0.02,0.00,0.03,-0.02,-0.01,0.01,1009.28
0.31,0.08,0.97,0.11,-0.02,0.00,0.03,-0.02,-0.01,0.01,1009.28
0.311,0.08,0.97,0.11,-0.02,0.00,0.03,-0.02,-0.01,0.01,1009.31
0.326,0.08,0.97,0.11,-0.02,0.00,0.03,-0.02,-0.01,0.00,1009.31
0.345,0.08,0.97,0.11,0.02,0.00,-0.00,-0.02,-0.01,0.00,1009.31
0.346,0.07,0.97,0.13,0.02,0.00,-0.00,-0.02,-0.01,0.00,1009.31
0.346,0.08,0.97,0.13,0.02,0.00,-0.00,-0.02,-0.01,0.00,1009.31
0.39,0.08,0.97,0.13,0.02,0.00,-0.00,-0.02,-0.01,0.00,1009.29
0.391,0.06,0.98,0.12,0.02,0.00,-0.00,-0.02,-0.01,0.00,1009.29
0.391,0.07,0.98,0.12,0.02,0.00,-0.00,-0.02,-0.01,0.00,1009.29
0.395,0.07,0.98,0.12,0.02,0.00,-0.00,-0.00,-0.01,0.00,1009.29
0.416,0.07,0.98,0.12,0.05,-0.02,0.02,-0.00,-0.01,0.00,1009.29
0.417,0.08,0.98,0.11,0.05,-0.02,0.02,-0.00,-0.01,0.00,1009.29
0.429,0.07,0.97,0.11,0.05,-0.02,0.02,-0.00,-0.01,0.00,1009.29
0.465,0.08,0.96,0.13,0.05,-0.02,0.02,-0.00,-0.01,0.00,1009.29
0.466,0.08,0.96,0.13,0.05,-0.02,0.02,-0.01,-0.00,-0.00,1009.29
0.47,0.06,0.98,0.12,0.05,-0.02,0.02,-0.01,-0.00,-0.00,1009.29
0.47,0.06,0.98,0.12,0.05,-0.02,0.02,-0.01,-0.00,-0.00,1009.29
0.485,0.07,0.98,0.11,0.05,-0.02,0.02,-0.01,-0.00,-0.00,1009.29
0.486,0.07,0.98,0.11,0.01,0.03,-0.04,-0.01,-0.00,-0.00,1009.29
0.51,0.07,0.98,0.10,0.01,0.03,-0.04,-0.01,-0.00,-0.00,1009.29
0.511,0.07,0.98,0.10,0.01,0.03,-0.04,-0.01,-0.00,-0.00,1009.26
0.537,0.07,0.98,0.10,0.01,0.03,-0.04,-0.02,0.00,0.01,1009.26
0.539,0.07,0.97,0.12,0.01,0.03,-0.04,-0.02,0.00,0.01,1009.26
0.556,0.07,0.97,0.12,-0.02,-0.01,0.00,-0.02,0.00,0.01,1009.26
0.557,0.07,0.97,0.12,-0.02,-0.01,0.00,-0.02,0.00,0.01,1009.26
0.59,0.07,0.97,0.12,-0.02,-0.01,0.00,-0.02,0.00,0.01,1009.25
0.591,0.06,0.97,0.13,-0.02,-0.01,0.00,-0.02,0.00,0.01,1009.25
0.591,0.07,0.98,0.12,-0.02,-0.01,0.00,-0.02,0.00,0.01,1009.25
0.605,0.07,0.98,0.12,-0.02,-0.01,0.00,-0.01,0.00,0.01,1009.25
0.625,0.07,0.98,0.12,0.01,-0.01,-0.04,-0.01,0.00,0.01,1009.25
0.627,0.08,0.98,0.11,0.01,-0.01,-0.04,-0.01,0.00,0.01,1009.25
0.627,0.07,0.97,0.12,0.01,-0.01,-0.04,-0.01,0.00,0.01,1009.25
0.67,0.09,0.97,0.12,0.01,-0.01,-0.04,-0.01,0.00,0.01,1009.25
0.671,0.08,0.96,0.12,0.01,-0.01,-0.04,-0.01,0.00,0.01,1009.25
0.672,0.08,0.96,0.12,0.01,-0.01,-0.04,-0.01,0.00,0.01,1009.30
0.675,0.08,0.96,0.12,0.01,-0.01,-0.04,-0.01,0.00,-0.00,1009.30
0.697,0.09,0.96,0.13,0.01,-0.01,-0.04,-0.01,0.00,-0.00,1009.30
0.698,0.09,0.96,0.13,0.02,0.01,-0.01,-0.01,0.00,-0.00,1009.30
0.71,0.09,0.96,0.13,0.02,0.01,-0.01,-0.01,0.00,-0.00,1009.29
0.71,0.07,0.98,0.12,0.02,0.01,-0.01,-0.01,0.00,-0.00,1009.29
0.746,0.07,0.98,0.11,0.02,0.01,-0.01,-0.01,0.00,-0.00,1009.29
0.747,0.07,0.98,0.11,0.02,0.01,-0.01,0.00,-0.03,-0.03,1009.29
0.762,0.09,0.97,0.12,0.02,0.01,-0.01,0.00,-0.03,-0.03,1009.29
0.765,0.10,0.96,0.11,0.02,0.01,-0.01,0.00,-0.03,-0.03,1009.29
0.766,0.10,0.96,0.11,0.10,-0.07,0.04,0.00,-0.03,-0.03,1009.29
0.79,0.10,0.96,0.11,0.10,-0.07,0.04,0.00,-0.03,-0.03,1009.28
0.791,0.12,0.95,0.13,0.10,-0.07,0.04,0.00,-0.03,-0.03,1009.28
0.816,0.12,0.95,0.13,0.10,-0.07,0.04,-0.01,-0.07,-0.08,1009.28
0.817,-0.00,0.98,0.15,0.10,-0.07,0.04,-0.01,-0.07,-0.08,1009.28
0.83,0.01,1.02,0.10,0.10,-0.07,0.04,-0.01,-0.07,-0.08,1009.28
0.836,0.01,1.02,0.10,0.14,-0.02,-0.06,-0.01,-0.07,-0.08,1009.28
0.87,0.01,1.02,0.10,0.14,-0.02,-0.06,-0.01,-0.07,-0.08,1009.31
0.871,0.08,1.00,0.05,0.14,-0.02,-0.06,-0.01,-0.07,-0.08,1009.31
0.872,0.08,0.96,0.14,0.14,-0.02,-0.06,-0.01,-0.07,-0.08,1009.31
0.885,0.08,0.96,0.14,0.14,-0.02,-0.06,-0.01,-0.04,0.00,1009.31
0.896,0.08,0.96,0.12,0.14,-0.02,-0.06,-0.01,-0.04,0.00,1009.31
0.905,0.08,0.98,0.09,0.14,-0.02,-0.06,-0.01,-0.04,0.00,1009.31
0.907,0.08,0.98,0.09,-0.16,0.13,-0.06,-0.01,-0.04,0.00,1009.31
0.909,0.08,0.98,0.09,-0.16,0.13,-0.06,-0.01,-0.04,0.00,1009.32
0.956,0.08,0.98,0.09,-0.16,0.13,-0.06,-0.01,-0.00,-0.03,1009.32
0.958,0.07,0.96,0.14,-0.16,0.13,-0.06,-0.01,-0.00,-0.03,1009.32
0.958,0.04,0.96,0.17,-0.16,0.13,-0.06,-0.01,-0.00,-0.03,1009.32
0.976,0.04,0.96,0.17,0.11,-0.05,-0.09,-0.01,-0.00,-0.03,1009.32
0.977,0.05,0.97,0.13,0.11,-0.05,-0.09,-0.01,-0.00,-0.03,1009.32
0.99,0.08,0.96,0.11,0.11,-0.05,-0.09,-0.01,-0.00,-0.03,1009.32
0.991,0.08,0.96,0.11,0.11,-0.05,-0.09,-0.01,-0.00,-0.03,1009.33
1.026,0.08,0.96,0.11,0.11,-0.05,-0.09,0.03,0.02,-0.01,1009.33
1.027,0.08,0.95,0.11,0.11,-0.05,-0.09,0.03,0.02,-0.01,1009.33
1.03,0.08,0.98,0.08,0.11,-0.05,-0.09,0.03,0.02,-0.01,1009.33
1.047,0.05,0.99,0.08,0.11,-0.05,-0.09,0.03,0.02,-0.01,1009.33
1.048,0.05,0.99,0.08,-0.05,-0.06,0.17,0.03,0.02,-0.01,1009.33
1.07,0.02,0.98,0.11,-0.05,-0.06,0.17,0.03,0.02,-0.01,1009.33
1.072,0.02,0.98,0.11,-0.05,-0.06,0.17,0.03,0.02,-0.01,1009.36
1.096,0.02,0.98,0.11,-0.05,-0.06,0.17,-0.05,0.01,0.02,1009.36
1.098,0.06,0.97,0.11,-0.05,-0.06,0.17,-0.05,0.01,0.02,1009.36
1.11,0.06,0.97,0.11,-0.05,-0.06,0.17,-0.05,0.01,0.02,1009.36
1.111,0.06,0.97,0.11,-0.05,-0.06,0.17,-0.05,0.01,0.02,1009.35
1.116,0.06,0.97,0.11,0.07,0.00,-0.22,-0.05,0.01,0.02,1009.35
1.163,0.06,0.98,0.13,0.07,0.00,-0.22,-0.05,0.01,0.02,1009.35
1.165,0.03,0.99,0.13,0.07,0.00,-0.22,-0.05,0.01,0.02,1009.35
1.166,0.03,0.99,0.13,0.07,0.00,-0.22,-0.04,-0.01,0.08,1009.35
1.185,0.03,0.99,0.13,-0.16,0.01,-0.07,-0.04,-0.01,0.08,1009.35
1.187,0.06,1.00,0.12,-0.16,0.01,-0.07,-0.04,-0.01,0.08,1009.35
1.187,0.07,0.94,0.18,-0.16,0.01,-0.07,-0.04,-0.01,0.08,1009.35
1.19,0.07,0.94,0.18,-0.16,0.01,-0.07,-0.04,-0.01,0.08,1009.39
1.231,0.08,0.98,0.16,-0.16,0.01,-0.07,-0.04,-0.01,0.08,1009.39
1.232,0.07,1.01,0.14,-0.16,0.01,-0.07,-0.04,-0.01,0.08,1009.39
1.236,0.07,1.01,0.14,-0.16,0.01,-0.07,0.11,0.01,0.12,1009.39
1.257,0.05,0.96,0.19,-0.16,0.01,-0.07,0.11,0.01,0.12,1009.39
1.257,0.05,0.96,0.19,-0.17,0.03,0.19,0.11,0.01,0.12,1009.39
1.27,0.10,0.97,0.13,-0.17,0.03,0.19,0.11,0.01,0.12,1009.39
1.271,0.10,0.97,0.13,-0.17,0.03,0.19,0.11,0.01,0.12,1009.38
1.297,0.11,0.99,0.08,-0.17,0.03,0.19,0.11,0.01,0.12,1009.38
1.305,0.11,0.99,0.08,-0.17,0.03,0.19,0.31,0.08,0.13,1009.38
1.31,0.12,0.99,0.07,-0.17,0.03,0.19,0.31,0.08,0.13,1009.38
1.31,0.12,0.99,0.07,-0.17,0.03,0.19,0.31,0.08,0.13,1009.31
1.325,0.13,0.95,0.09,-0.17,0.03,0.19,0.31,0.08,0.13,1009.31
1.327,0.13,0.95,0.09,-0.07,0.04,0.47,0.31,0.08,0.13,1009.31
1.363,0.11,0.98,0.07,-0.07,0.04,0.47,0.31,0.08,0.13,1009.31
1.376,0.05,0.95,0.13,-0.07,0.04,0.47,0.31,0.08,0.13,1009.31
1.377,0.05,0.95,0.13,-0.07,0.04,0.47,0.29,0.11,0.03,1009.31
1.39,0.07,0.97,0.07,-0.07,0.04,0.47,0.29,0.11,0.03,1009.31
1.39,0.07,0.97,0.07,-0.07,0.04,0.47,0.29,0.11,0.03,1009.22
1.397,0.07,0.97,0.07,0.31,0.03,-0.09,0.29,0.11,0.03,1009.22
1.429,0.07,0.98,0.05,0.31,0.03,-0.09,0.29,0.11,0.03,1009.22
1.43,0.03,0.99,0.04,0.31,0.03,-0.09,0.29,0.11,0.03,1009.22
1.447,0.03,0.99,0.04,0.31,0.03,-0.09,0.31,-0.07,0.14,1009.22
1.466,0.03,0.99,0.04,-0.12,-0.06,0.12,0.31,-0.07,0.14,1009.22
1.468,0.01,0.98,0.07,-0.12,-0.06,0.12,0.31,-0.07,0.14,1009.22
1.468,0.08,0.95,0.11,-0.12,-0.06,0.12,0.31,-0.07,0.14,1009.22
1.469,0.08,0.95,0.11,-0.12,-0.06,0.12,0.31,-0.07,0.14,1009.26
1.497,0.13,0.95,0.08,-0.12,-0.06,0.12,0.31,-0.07,0.14,1009.26
1.51,0.11,0.97,0.09,-0.12,-0.06,0.12,0.31,-0.07,0.14,1009.26
1.511,0.11,0.97,0.09,-0.12,-0.06,0.12,0.31,-0.07,0.14,1009.30
1.516,0.11,0.97,0.09,-0.12,-0.06,0.12,0.44,-0.31,0.28,1009.30
1.536,0.08,0.99,0.05,-0.12,-0.06,0.12,0.44,-0.31,0.28,1009.30
1.537,0.08,0.99,0.05,-0.53,-0.01,0.14,0.44,-0.31,0.28,1009.30
1.563,0.13,0.99,0.01,-0.53,-0.01,0.14,0.44,-0.31,0.28,1009.30
1.587,0.05,1.02,-0.01,-0.53,-0.01,0.14,0.44,-0.31,0.28,1009.30
1.588,0.05,1.02,-0.01,-0.53,-0.01,0.14,0.63,-0.47,0.41,1009.30
1.59,-0.02,1.10,-0.06,-0.53,-0.01,0.14,0.63,-0.47,0.41,1009.30
1.59,-0.02,1.10,-0.06,-0.53,-0.01,0.14,0.63,-0.47,0.41,1009.40
1.606,-0.02,1.10,-0.06,-0.11,-0.01,0.44,0.63,-0.47,0.41,1009.40
1.607,-0.18,1.26,-0.08,-0.11,-0.01,0.44,0.63,-0.47,0.41,1009.40
1.63,-0.16,1.29,-0.04,-0.11,-0.01,0.44,0.63,-0.47,0.41,1009.40
1.657,-0.16,1.29,-0.04,-0.11,-0.01,0.44,0.69,-0.27,1.60,1009.40
1.658,-0.21,1.47,-0.11,-0.11,-0.01,0.44,0.69,-0.27,1.60,1009.40
1.67,-0.37,1.57,0.07,-0.11,-0.01,0.44,0.69,-0.27,1.60,1009.40
1.671,-0.37,1.57,0.07,-0.11,-0.01,0.44,0.69,-0.27,1.60,1009.46
1.676,-0.37,1.57,0.07,-1.83,1.32,-0.07,0.69,-0.27,1.60,1009.46
1.697,-0.45,1.48,0.26,-1.83,1.32,-0.07,0.69,-0.27,1.60,1009.46
1.71,-0.25,1.21,0.67,-1.83,1.32,-0.07,0.69,-0.27,1.60,1009.46
1.711,-0.25,1.21,0.67,-1.83,1.32,-0.07,0.69,-0.27,1.60,1009.26
1.726,-0.25,1.21,0.67,-1.83,1.32,-0.07,1.24,-0.12,3.75,1009.26
1.746,-0.25,1.21,0.67,-5.73,5.06,0.90,1.24,-0.12,3.75,1009.26
1.747,-0.16,0.91,0.89,-5.73,5.06,0.90,1.24,-0.12,3.75,1009.26
1.748,1.05,0.69,0.59,-5.73,5.06,0.90,1.24,-0.12,3.75,1009.26
1.79,1.05,0.69,0.59,-5.73,5.06,0.90,1.24,-0.12,3.75,1008.90
1.791,1.58,1.23,-0.27,-5.73,5.06,0.90,1.24,-0.12,3.75,1008.90
1.792,0.77,1.08,-0.02,-5.73,5.06,0.90,1.24,-0.12,3.75,1008.90
1.796,0.77,1.08,-0.02,-5.73,5.06,0.90,1.82,1.99,1.21,1008.90
1.816,0.77,1.08,-0.02,-4.02,1.90,8.29,1.82,1.99,1.21,1008.90
1.817,-0.54,0.56,0.20,-4.02,1.90,8.29,1.82,1.99,1.21,1008.90
1.829,-0.45,0.69,0.08,-4.02,1.90,8.29,1.82,1.99,1.21,1008.90
1.866,-0.56,0.60,0.20,-4.02,1.90,8.29,1.82,1.99,1.21,1008.90
1.867,-0.56,0.60,0.20,-4.02,1.90,8.29,0.64,4.13,-0.94,1008.90
1.87,-0.50,0.65,0.20,-4.02,1.90,8.29,0.64,4.13,-0.94,1008.90
1.87,-0.50,0.65,0.20,-4.02,1.90,8.29,0.64,4.13,-0.94,1009.17
1.887,-0.19,0.77,0.18,-4.02,1.90,8.29,0.64,4.13,-0.94,1009.17
1.888,-0.19,0.77,0.18,-0.78,0.92,0.53,0.64,4.13,-0.94,1009.17
1.91,0.05,0.83,0.24,-0.78,0.92,0.53,0.64,4.13,-0.94,1009.17
1.911,0.05,0.83,0.24,-0.78,0.92,0.53,0.64,4.13,-0.94,1009.18
1.936,0.05,0.83,0.24,-0.78,0.92,0.53,1.13,1.74,-2.29,1009.18
1.938,0.09,0.89,0.20,-0.78,0.92,0.53,1.13,1.74,-2.29,1009.18
1.957,0.09,0.89,0.20,-8.53,-1.88,1.91,1.13,1.74,-2.29,1009.18
1.958,0.06,0.96,0.21,-8.53,-1.88,1.91,1.13,1.74,-2.29,1009.18
1.99,0.06,0.96,0.21,-8.53,-1.88,1.91,1.13,1.74,-2.29,1009.24
1.997,0.08,1.01,0.30,-8.53,-1.88,1.91,1.13,1.74,-2.29,1009.24
1.998,0.09,1.07,0.34,-8.53,-1.88,1.91,1.13,1.74,-2.29,1009.24
2.006,0.09,1.07,0.34,-8.53,-1.88,1.91,0.73,2.50,-3.39,1009.24
2.026,0.09,1.07,0.34,-1.81,-0.25,2.46,0.73,2.50,-3.39,1009.24
2.027,0.09,1.14,0.36,-1.81,-0.25,2.46,0.73,2.50,-3.39,1009.24
2.027,0.07,1.22,0.29,-1.81,-0.25,2.46,0.73,2.50,-3.39,1009.24
2.07,0.07,1.22,0.29,-1.81,-0.25,2.46,0.73,2.50,-3.39,1009.15
2.071,-0.03,1.29,0.19,-1.81,-0.25,2.46,0.73,2.50,-3.39,1009.15
2.072,-0.12,1.35,0.09,-1.81,-0.25,2.46,0.73,2.50,-3.39,1009.15
2.076,-0.12,1.35,0.09,-1.81,-0.25,2.46,0.13,2.74,-3.33,1009.15
2.097,-0.12,1.35,0.09,0.65,1.49,3.42,0.13,2.74,-3.33,1009.15
2.098,-0.10,1.45,-0.08,0.65,1.49,3.42,0.13,2.74,-3.33,1009.15
2.11,0.06,1.48,0.03,0.65,1.49,3.42,0.13,2.74,-3.33,1009.15
2.11,0.06,1.48,0.03,0.65,1.49,3.42,0.13,2.74,-3.33,1009.00
2.146,0.06,1.48,0.03,0.65,1.49,3.42,-0.04,1.12,-1.71,1009.00
2.149,0.63,1.35,0.29,0.65,1.49,3.42,-0.04,1.12,-1.71,1009.00
2.162,1.23,1.23,0.23,0.65,1.49,3.42,-0.04,1.12,-1.71,1009.00
2.166,1.70,1.02,0.16,0.65,1.49,3.42,-0.04,1.12,-1.71,1009.00
2.167,1.70,1.02,0.16,0.69,4.04,0.74,-0.04,1.12,-1.71,1009.00
2.19,1.96,0.74,0.07,0.69,4.04,0.74,-0.04,1.12,-1.71,1009.00
2.191,1.96,0.74,0.07,0.69,4.04,0.74,-0.04,1.12,-1.71,1009.12
2.218,1.96,0.74,0.07,0.69,4.04,0.74,-0.05,-0.27,-0.64,1009.12
2.219,1.65,0.49,0.06,0.69,4.04,0.74,-0.05,-0.27,-0.64,1009.12
2.229,1.29,0.60,0.10,0.69,4.04,0.74,-0.05,-0.27,-0.64,1009.12
2.236,1.29,0.60,0.10,12.37,2.75,2.34,-0.05,-0.27,-0.64,1009.12
2.27,1.29,0.60,0.10,12.37,2.75,2.34,-0.05,-0.27,-0.64,1009.25
2.271,1.20,0.75,0.13,12.37,2.75,2.34,-0.05,-0.27,-0.64,1009.25
2.272,0.11,1.72,-0.35,12.37,2.75,2.34,-0.05,-0.27,-0.64,1009.25
2.288,0.11,1.72,-0.35,12.37,2.75,2.34,-0.66,-0.22,2.66,1009.25
2.297,0.46,1.37,0.06,12.37,2.75,2.34,-0.66,-0.22,2.66,1009.25
2.306,2.14,1.48,0.52,12.37,2.75,2.34,-0.66,-0.22,2.66,1009.25
2.307,2.14,1.48,0.52,16.38,-3.31,0.85,-0.66,-0.22,2.66,1009.25
2.309,2.14,1.48,0.52,16.38,-3.31,0.85,-0.66,-0.22,2.66,1009.82
2.357,2.14,1.48,0.52,16.38,-3.31,0.85,-0.21,0.37,0.27,1009.82
2.359,-0.79,0.99,-0.79,16.38,-3.31,0.85,-0.21,0.37,0.27,1009.82
2.36,0.50,0.99,-0.04,16.38,-3.31,0.85,-0.21,0.37,0.27,1009.82
2.377,0.01,0.96,0.06,16.38,-3.31,0.85,-0.21,0.37,0.27,1009.82
2.378,0.01,0.96,0.06,8.87,4.30,0.60,-0.21,0.37,0.27,1009.82
2.39,0.01,0.96,0.06,8.87,4.30,0.60,-0.21,0.37,0.27,1009.76
2.391,0.02,0.97,0.17,8.87,4.30,0.60,-0.21,0.37,0.27,1009.76
2.427,0.02,0.97,0.17,8.87,4.30,0.60,-0.24,0.15,0.12,1009.76
2.428,0.09,0.99,0.14,8.87,4.30,0.60,-0.24,0.15,0.12,1009.76
2.429,0.12,1.00,0.06,8.87,4.30,0.60,-0.24,0.15,0.12,1009.76
2.446,0.12,1.01,0.03,8.87,4.30,0.60,-0.24,0.15,0.12,1009.76
2.447,0.12,1.01,0.03,-1.16,0.02,-2.46,-0.24,0.15,0.12,1009.76
2.47,0.10,1.01,0.05,-1.16,0.02,-2.46,-0.24,0.15,0.12,1009.76
2.471,0.10,1.01,0.05,-1.16,0.02,-2.46,-0.24,0.15,0.12,1009.56
2.497,0.09,0.99,0.07,-1.16,0.02,-2.46,-0.24,0.15,0.12,1009.56
2.498,0.09,0.99,0.07,-1.16,0.02,-2.46,-0.06,0.06,0.04,1009.56
2.51,0.09,0.98,0.06,-1.16,0.02,-2.46,-0.06,0.06,0.04,1009.56
2.511,0.09,0.98,0.06,-1.16,0.02,-2.46,-0.06,0.06,0.04,1009.47
2.516,0.09,0.98,0.06,0.43,0.15,0.36,-0.06,0.06,0.04,1009.47
2.563,0.09,0.97,0.07,0.43,0.15,0.36,-0.06,0.06,0.04,1009.47
2.564,0.08,0.97,0.07,0.43,0.15,0.36,-0.06,0.06,0.04,1009.47
2.567,0.08,0.97,0.07,0.43,0.15,0.36,0.03,-0.01,0.04,1009.47
2.587,0.09,0.98,0.06,0.43,0.15,0.36,0.03,-0.01,0.04,1009.47
2.588,0.06,0.96,0.09,0.43,0.15,0.36,0.03,-0.01,0.04,1009.47
2.588,0.06,0.96,0.09,0.34,0.13,-0.02,0.03,-0.01,0.04,1009.47
2.59,0.06,0.96,0.09,0.34,0.13,-0.02,0.03,-0.01,0.04,1009.37
2.63,0.05,0.97,0.11,0.34,0.13,-0.02,0.03,-0.01,0.04,1009.37
2.631,0.08,0.97,0.07,0.34,0.13,-0.02,0.03,-0.01,0.04,1009.37
2.638,0.08,0.97,0.07,0.34,0.13,-0.02,0.18,-0.03,0.12,1009.37
2.657,0.08,0.97,0.07,0.20,-0.06,0.15,0.18,-0.03,0.12,1009.37
2.658,0.08,0.98,0.02,0.20,-0.06,0.15,0.18,-0.03,0.12,1009.37
2.67,0.10,0.98,0.01,0.20,-0.06,0.15,0.18,-0.03,0.12,1009.37
2.671,0.10,0.98,0.01,0.20,-0.06,0.15,0.18,-0.03,0.12,1009.39
2.697,0.12,0.98,-0.00,0.20,-0.06,0.15,0.18,-0.03,0.12,1009.39
2.706,0.12,0.98,-0.00,0.20,-0.06,0.15,0.20,-0.03,0.18,1009.39
2.71,0.11,0.99,0.00,0.20,-0.06,0.15,0.20,-0.03,0.18,1009.39
2.71,0.11,0.99,0.00,0.20,-0.06,0.15,0.20,-0.03,0.18,1009.41
2.727,0.11,0.99,0.00,0.05,-0.05,0.14,0.20,-0.03,0.18,1009.41
2.728,0.07,0.99,0.02,0.05,-0.05,0.14,0.20,-0.03,0.18,1009.41
2.763,0.10,1.02,-0.04,0.05,-0.05,0.14,0.20,-0.03,0.18,1009.41
2.777,0.10,1.02,-0.04,0.05,-0.05,0.14,0.14,-0.11,0.25,1009.41
2.778,0.12,1.04,-0.11,0.05,-0.05,0.14,0.14,-0.11,0.25,1009.41
2.79,0.05,1.00,0.07,0.05,-0.05,0.14,0.14,-0.11,0.25,1009.41
2.791,0.05,1.00,0.07,0.05,-0.05,0.14,0.14,-0.11,0.25,1009.37
2.796,0.05,1.00,0.07,0.13,0.11,-0.19,0.14,-0.11,0.25,1009.37
2.83,0.00,1.03,0.03,0.13,0.11,-0.19,0.14,-0.11,0.25,1009.37
2.831,-0.03,1.08,0.01,0.13,0.11,-0.19,0.14,-0.11,0.25,1009.37
2.846,-0.03,1.08,0.01,0.13,0.11,-0.19,0.11,-0.23,0.66,1009.37
2.867,-0.03,1.08,0.01,-0.29,0.45,-0.37,0.11,-0.23,0.66,1009.37
2.868,-0.09,1.14,-0.04,-0.29,0.45,-0.37,0.11,-0.23,0.66,1009.37
2.869,-0.04,1.17,-0.08,-0.29,0.45,-0.37,0.11,-0.23,0.66,1009.37
2.869,-0.04,1.17,-0.08,-0.29,0.45,-0.37,0.11,-0.23,0.66,1009.36
2.897,-0.04,1.28,-0.14,-0.29,0.45,-0.37,0.11,-0.23,0.66,1009.36
2.91,-0.10,1.36,-0.12,-0.29,0.45,-0.37,0.11,-0.23,0.66,1009.36
2.911,-0.10,1.36,-0.12,-0.29,0.45,-0.37,0.11,-0.23,0.66,1009.60
2.917,-0.10,1.36,-0.12,-0.29,0.45,-0.37,-0.12,-0.18,1.85,1009.60
2.937,-0.23,1.45,-0.07,-0.29,0.45,-0.37,-0.12,-0.18,1.85,1009.60
2.939,-0.23,1.45,-0.07,-2.20,1.42,-0.37,-0.12,-0.18,1.85,1009.60
2.963,-0.44,1.50,0.05,-2.20,1.42,-0.37,-0.12,-0.18,1.85,1009.60
2.99,-0.44,1.50,0.05,-2.20,1.42,-0.37,-0.28,-0.55,4.10,1009.60
2.993,-0.57,1.45,0.14,-2.20,1.42,-0.37,-0.28,-0.55,4.10,1009.60
2.993,-0.62,1.43,0.13,-2.20,1.42,-0.37,-0.28,-0.55,4.10,1009.60
2.994,-0.62,1.43,0.13,-2.20,1.42,-0.37,-0.28,-0.55,4.10,1009.23
3.006,-0.62,1.43,0.13,-4.88,4.47,-1.08,-0.28,-0.55,4.10,1009.23
3.007,-0.09,1.39,0.44,-4.88,4.47,-1.08,-0.28,-0.55,4.10,1009.23
3.029,-0.00,1.27,0.80,-4.88,4.47,-1.08,-0.28,-0.55,4.10,1009.23
3.057,0.27,1.19,0.59,-4.88,4.47,-1.08,-0.28,-0.55,4.10,1009.23
3.058,0.27,1.19,0.59,-4.88,4.47,-1.08,0.37,-1.17,6.11,1009.23
3.07,0.27,1.19,0.59,-4.88,4.47,-1.08,0.37,-1.17,6.11,1008.36
3.071,1.40,0.54,0.11,-4.88,4.47,-1.08,0.37,-1.17,6.11,1008.36
3.076,1.40,0.54,0.11,-10.50,6.62,2.02,0.37,-1.17,6.11,1008.36
3.097,1.73,1.38,0.22,-10.50,6.62,2.02,0.37,-1.17,6.11,1008.36
3.11,-1.14,0.50,0.12,-10.50,6.62,2.02,0.37,-1.17,6.11,1008.36
3.111,-1.14,0.50,0.12,-10.50,6.62,2.02,0.37,-1.17,6.11,1008.61
3.126,-1.14,0.50,0.12,-10.50,6.62,2.02,-0.03,1.26,-0.56,1008.61
3.147,-1.14,0.50,0.12,0.43,5.31,4.63,-0.03,1.26,-0.56,1008.61
3.148,-0.77,0.63,-0.08,0.43,5.31,4.63,-0.03,1.26,-0.56,1008.61
3.148,-0.29,0.54,0.11,0.43,5.31,4.63,-0.03,1.26,-0.56,1008.61
3.191,-0.29,0.54,0.11,0.43,5.31,4.63,-0.03,1.26,-0.56,1009.00
3.192,-0.05,0.50,0.21,0.43,5.31,4.63,-0.03,1.26,-0.56,1009.00
3.192,-0.09,0.63,-0.02,0.43,5.31,4.63,-0.03,1.26,-0.56,1009.00
3.196,-0.09,0.63,-0.02,0.43,5.31,4.63,-0.40,0.50,-2.92,1009.00
3.218,-0.09,0.63,-0.02,-11.97,-0.45,0.25,-0.40,0.50,-2.92,1009.00
3.219,-0.18,0.69,-0.07,-11.97,-0.45,0.25,-0.40,0.50,-2.92,1009.00
3.229,-0.02,0.84,-0.11,-11.97,-0.45,0.25,-0.40,0.50,-2.92,1009.00
3.268,-0.02,0.84,-0.11,-11.97,-0.45,0.25,-0.08,-0.35,-4.78,1009.00
3.269,0.19,0.98,-0.19,-11.97,-0.45,0.25,-0.08,-0.35,-4.78,1009.00
3.271,0.30,1.13,-0.23,-11.97,-0.45,0.25,-0.08,-0.35,-4.78,1009.00
3.271,0.30,1.13,-0.23,-11.97,-0.45,0.25,-0.08,-0.35,-4.78,1009.17
3.288,0.33,1.24,-0.25,-11.97,-0.45,0.25,-0.08,-0.35,-4.78,1009.17
3.29,0.33,1.24,-0.25,-5.83,-1.90,-0.47,-0.08,-0.35,-4.78,1009.17
3.31,0.24,1.43,-0.32,-5.83,-1.90,-0.47,-0.08,-0.35,-4.78,1009.17
3.311,0.24,1.43,-0.32,-5.83,-1.90,-0.47,-0.08,-0.35,-4.78,1009.18
3.338,0.24,1.43,-0.32,-5.83,-1.90,-0.47,0.14,0.89,-5.10,1009.18
3.339,0.22,1.59,-0.37,-5.83,-1.90,-0.47,0.14,0.89,-5.10,1009.18
3.358,0.27,1.68,-0.40,-5.83,-1.90,-0.47,0.14,0.89,-5.10,1009.18
3.359,0.27,1.68,-0.40,0.70,1.31,-2.73,0.14,0.89,-5.10,1009.18
3.39,0.27,1.68,-0.40,0.70,1.31,-2.73,0.14,0.89,-5.10,1009.12
3.393,0.55,1.68,-0.33,0.70,1.31,-2.73,0.14,0.89,-5.10,1009.12
3.394,1.19,1.51,-0.03,0.70,1.31,-2.73,0.14,0.89,-5.10,1009.12
3.406,1.19,1.51,-0.03,0.70,1.31,-2.73,0.74,1.10,-3.34,1009.12
3.427,1.19,1.51,-0.03,3.95,6.05,-3.95,0.74,1.10,-3.34,1009.12
3.428,1.87,1.26,0.17,3.95,6.05,-3.95,0.74,1.10,-3.34,1009.12
3.429,2.23,0.95,0.19,3.95,6.05,-3.95,0.74,1.10,-3.34,1009.12
3.47,2.23,0.95,0.19,3.95,6.05,-3.95,0.74,1.10,-3.34,1009.22
3.472,2.42,0.74,0.29,3.95,6.05,-3.95,0.74,1.10,-3.34,1009.22
3.472,0.78,0.92,-0.39,3.95,6.05,-3.95,0.74,1.10,-3.34,1009.22
3.476,0.78,0.92,-0.39,3.95,6.05,-3.95,0.16,0.14,-0.11,1009.22
3.497,0.45,0.35,0.35,3.95,6.05,-3.95,0.16,0.14,-0.11,1009.22
3.498,0.45,0.35,0.35,18.37,3.55,0.86,0.16,0.14,-0.11,1009.22
3.51,-0.12,1.45,0.07,18.37,3.55,0.86,0.16,0.14,-0.11,1009.22
3.511,-0.12,1.45,0.07,18.37,3.55,0.86,0.16,0.14,-0.11,1009.41
3.547,-0.12,1.45,0.07,18.37,3.55,0.86,-0.62,0.00,3.28,1009.41
3.548,2.61,0.48,2.08,18.37,3.55,0.86,-0.62,0.00,3.28,1009.41
3.562,1.31,1.98,-0.90,18.37,3.55,0.86,-0.62,0.00,3.28,1009.41
3.566,0.73,1.19,-0.61,18.37,3.55,0.86,-0.62,0.00,3.28,1009.41
3.567,0.73,1.19,-0.61,8.97,-1.76,0.21,-0.62,0.00,3.28,1009.41
3.591,-0.21,0.84,0.10,8.97,-1.76,0.21,-0.62,0.00,3.28,1009.41
3.593,-0.21,0.84,0.10,8.97,-1.76,0.21,-0.62,0.00,3.28,1010.06
3.617,0.26,1.10,-0.09,8.97,-1.76,0.21,-0.62,0.00,3.28,1010.06
3.618,0.26,1.10,-0.09,8.97,-1.76,0.21,-0.40,0.26,0.36,1010.06
3.629,0.07,1.00,0.16,8.97,-1.76,0.21,-0.40,0.26,0.36,1010.06
3.637,0.07,1.00,0.16,13.75,2.64,1.61,-0.40,0.26,0.36,1010.06
3.67,0.07,1.00,0.16,13.75,2.64,1.61,-0.40,0.26,0.36,1009.65
3.672,0.08,0.99,0.11,13.75,2.64,1.61,-0.40,0.26,0.36,1009.65
3.672,0.15,0.98,0.14,13.75,2.64,1.61,-0.40,0.26,0.36,1009.65
3.686,0.15,0.98,0.14,13.75,2.64,1.61,-0.16,0.07,0.20,1009.65
3.697,0.17,1.00,0.02,13.75,2.64,1.61,-0.16,0.07,0.20,1009.65
3.709,0.17,1.00,0.02,-0.18,0.15,-0.20,-0.16,0.07,0.20,1009.65
3.71,0.13,0.98,0.06,-0.18,0.15,-0.20,-0.16,0.07,0.20,1009.65
3.71,0.13,0.98,0.06,-0.18,0.15,-0.20,-0.16,0.07,0.20,1009.31
3.757,0.13,0.98,0.06,-0.18,0.15,-0.20,-0.02,-0.03,0.06,1009.31
3.759,0.14,0.95,0.10,-0.18,0.15,-0.20,-0.02,-0.03,0.06,1009.31
3.759,0.14,0.95,0.10,-0.18,0.15,-0.20,-0.02,-0.03,0.06,1009.31
3.777,0.11,0.96,0.08,-0.18,0.15,-0.20,-0.02,-0.03,0.06,1009.31
3.778,0.11,0.96,0.08,0.42,0.13,0.30,-0.02,-0.03,0.06,1009.31
3.792,0.11,0.95,0.10,0.42,0.13,0.30,-0.02,-0.03,0.06,1009.31
3.794,0.11,0.95,0.10,0.42,0.13,0.30,-0.02,-0.03,0.06,1009.17
3.827,0.11,0.95,0.10,0.42,0.13,0.30,0.13,-0.11,0.06,1009.17
3.829,0.10,0.97,0.08,0.42,0.13,0.30,0.13,-0.11,0.06,1009.17
3.829,0.07,0.98,0.06,0.42,0.13,0.30,0.13,-0.11,0.06,1009.17
3.847,0.07,0.98,0.06,0.35,-0.15,0.27,0.13,-0.11,0.06,1009.17
3.848,0.07,0.98,0.05,0.35,-0.15,0.27,0.13,-0.11,0.06,1009.17
3.87,0.07,0.98,0.06,0.35,-0.15,0.27,0.13,-0.11,0.06,1009.17
3.871,0.07,0.98,0.06,0.35,-0.15,0.27,0.13,-0.11,0.06,1009.22
3.896,0.10,0.96,0.07,0.35,-0.15,0.27,0.13,-0.11,0.06,1009.22
3.897,0.10,0.96,0.07,0.35,-0.15,0.27,0.22,-0.22,0.24,1009.22
3.91,0.11,0.98,0.02,0.35,-0.15,0.27,0.22,-0.22,0.24,1009.22
3.911,0.11,0.98,0.02,0.35,-0.15,0.27,0.22,-0.22,0.24,1009.30
3.917,0.11,0.98,0.02,-0.11,0.03,0.19,0.22,-0.22,0.24,1009.30
3.963,0.13,1.01,-0.03,-0.11,0.03,0.19,0.22,-0.22,0.24,1009.30
3.965,0.09,1.04,-0.02,-0.11,0.03,0.19,0.22,-0.22,0.24,1009.30
3.967,0.09,1.04,-0.02,-0.11,0.03,0.19,0.14,-0.28,0.42,1009.30
3.993,0.09,1.04,-0.02,-0.24,0.08,0.03,0.14,-0.28,0.42,1009.30
3.995,0.07,1.05,-0.02,-0.24,0.08,0.03,0.14,-0.28,0.42,1009.30
3.995,0.06,1.06,-0.04,-0.24,0.08,0.03,0.14,-0.28,0.42,1009.30
3.996,0.06,1.06,-0.04,-0.24,0.08,0.03,0.14,-0.28,0.42,1009.50
4.03,0.05,1.09,-0.05,-0.24,0.08,0.03,0.14,-0.28,0.42,1009.50
4.031,0.07,1.13,-0.12,-0.24,0.08,0.03,0.14,-0.28,0.42,1009.50
4.037,0.07,1.13,-0.12,-0.24,0.08,0.03,-0.07,-0.12,0.99,1009.50
4.057,0.08,1.19,-0.12,-0.24,0.08,0.03,-0.07,-0.12,0.99,1009.50
4.059,0.08,1.19,-0.12,-0.76,0.80,-0.56,-0.07,-0.12,0.99,1009.50
4.07,-0.03,1.24,-0.06,-0.76,0.80,-0.56,-0.07,-0.12,0.99,1009.50
4.071,-0.03,1.24,-0.06,-0.76,0.80,-0.56,-0.07,-0.12,0.99,1009.69
4.096,-0.09,1.39,-0.11,-0.76,0.80,-0.56,-0.07,-0.12,0.99,1009.69
4.108,-0.09,1.39,-0.11,-0.76,0.80,-0.56,-0.43,-0.07,2.10,1009.69
4.11,-0.33,1.50,-0.06,-0.76,0.80,-0.56,-0.43,-0.07,2.10,1009.69
4.11,-0.33,1.50,-0.06,-0.76,0.80,-0.56,-0.43,-0.07,2.10,1009.63
4.127,-0.57,1.59,0.04,-0.76,0.80,-0.56,-0.43,-0.07,2.10,1009.63
4.128,-0.57,1.59,0.04,-1.87,1.97,-1.31,-0.43,-0.07,2.10,1009.63
4.163,-0.59,1.64,0.09,-1.87,1.97,-1.31,-0.43,-0.07,2.10,1009.63
4.177,-0.34,1.64,0.15,-1.87,1.97,-1.31,-0.43,-0.07,2.10,1009.63
4.178,-0.34,1.64,0.15,-1.87,1.97,-1.31,-0.73,-0.98,4.85,1009.63
4.195,-0.07,1.41,0.62,-1.87,1.97,-1.31,-0.73,-0.98,4.85,1009.63
4.197,-0.07,1.41,0.62,-1.87,1.97,-1.31,-0.73,-0.98,4.85,1008.85
4.198,-0.07,1.41,0.62,-7.07,5.71,-1.08,-0.73,-0.98,4.85,1008.85
4.23,-0.04,1.39,0.70,-7.07,5.71,-1.08,-0.73,-0.98,4.85,1008.85
4.231,0.23,1.00,0.32,-7.07,5.71,-1.08,-0.73,-0.98,4.85,1008.85
4.248,0.23,1.00,0.32,-7.07,5.71,-1.08,0.06,-0.78,5.18,1008.85
4.268,0.23,1.00,0.32,-10.23,8.69,3.01,0.06,-0.78,5.18,1008.85
4.269,1.98,0.98,0.11,-10.23,8.69,3.01,0.06,-0.78,5.18,1008.85
4.27,0.08,0.74,0.31,-10.23,8.69,3.01,0.06,-0.78,5.18,1008.85
4.271,0.08,0.74,0.31,-10.23,8.69,3.01,0.06,-0.78,5.18,1008.12
4.297,-1.03,0.58,0.07,-10.23,8.69,3.01,0.06,-0.78,5.18,1008.12
4.314,-0.38,0.54,0.01,-10.23,8.69,3.01,0.06,-0.78,5.18,1008.12
4.315,-0.38,0.54,0.01,-10.23,8.69,3.01,0.06,-0.78,5.18,1008.77
4.318,-0.38,0.54,0.01,-10.23,8.69,3.01,-0.12,0.77,-1.35,1008.77
4.338,-0.38,0.54,0.01,-1.46,4.25,2.48,-0.12,0.77,-1.35,1008.77
4.34,0.05,0.48,0.13,-1.46,4.25,2.48,-0.12,0.77,-1.35,1008.77
4.364,0.05,0.51,0.08,-1.46,4.25,2.48,-0.12,0.77,-1.35,1008.77
4.396,0.05,0.51,0.08,-1.46,4.25,2.48,0.20,0.23,-3.78,1008.77
4.396,-0.05,0.60,0.03,-1.46,4.25,2.48,0.20,0.23,-3.78,1008.77
4.397,0.03,0.71,0.03,-1.46,4.25,2.48,0.20,0.23,-3.78,1008.77
4.397,0.03,0.71,0.03,-1.46,4.25,2.48,0.20,0.23,-3.78,1009.07
4.408,0.12,0.83,0.01,-1.46,4.25,2.48,0.20,0.23,-3.78,1009.07
4.409,0.12,0.83,0.01,-10.58,-1.29,-0.18,0.20,0.23,-3.78,1009.07
4.43,0.21,0.97,-0.00,-10.58,-1.29,-0.18,0.20,0.23,-3.78,1009.07
4.458,0.21,0.97,-0.00,-10.58,-1.29,-0.18,0.45,0.22,-5.19,1009.07
4.459,0.33,1.08,-0.00,-10.58,-1.29,-0.18,0.45,0.22,-5.19,1009.07
4.471,0.32,1.21,-0.03,-10.58,-1.29,-0.18,0.45,0.22,-5.19,1009.07
4.472,0.32,1.21,-0.03,-10.58,-1.29,-0.18,0.45,0.22,-5.19,1009.22
4.478,0.32,1.21,-0.03,-4.11,-1.53,-0.41,0.45,0.22,-5.19,1009.22
4.497,0.22,1.40,-0.06,-4.11,-1.53,-0.41,0.45,0.22,-5.19,1009.22
4.51,0.23,1.58,-0.06,-4.11,-1.53,-0.41,0.45,0.22,-5.19,1009.22
4.511,0.23,1.58,-0.06,-4.11,-1.53,-0.41,0.45,0.22,-5.19,1009.23
4.527,0.23,1.58,-0.06,-4.11,-1.53,-0.41,0.51,0.99,-5.15,1009.23
4.547,0.23,1.58,-0.06,1.67,1.68,-0.68,0.51,0.99,-5.15,1009.23
4.549,0.32,1.74,-0.07,1.67,1.68,-0.68,0.51,0.99,-5.15,1009.23
4.549,0.65,1.83,-0.07,1.67,1.68,-0.68,0.51,0.99,-5.15,1009.23
4.596,0.65,1.83,-0.07,1.67,1.68,-0.68,0.51,0.99,-5.15,1009.19
4.597,1.32,1.65,0.14,1.67,1.68,-0.68,0.51,0.99,-5.15,1009.19
4.598,1.81,1.32,0.35,1.67,1.68,-0.68,0.51,0.99,-5.15,1009.19
4.598,1.81,1.32,0.35,1.67,1.68,-0.68,0.61,1.00,-4.08,1009.19
4.617,1.92,1.06,0.20,1.67,1.68,-0.68,0.61,1.00,-4.08,1009.19
4.618,1.92,1.06,0.20,5.59,7.10,-0.74,0.61,1.00,-4.08,1009.19
4.629,2.17,0.77,0.28,5.59,7.10,-0.74,0.61,1.00,-4.08,1009.19
4.667,-0.09,1.77,-0.55,5.59,7.10,-0.74,0.61,1.00,-4.08,1009.19
4.669,-0.09,1.77,-0.55,5.59,7.10,-0.74,-0.31,0.43,1.23,1009.19
4.67,1.26,0.33,-0.17,5.59,7.10,-0.74,-0.31,0.43,1.23,1009.19
4.67,1.26,0.33,-0.17,5.59,7.10,-0.74,-0.31,0.43,1.23,1009.39
4.687,-0.80,1.00,-0.08,5.59,7.10,-0.74,-0.31,0.43,1.23,1009.39
4.688,-0.80,1.00,-0.08,20.79,3.72,2.72,-0.31,0.43,1.23,1009.39
4.71,1.33,1.23,0.02,20.79,3.72,2.72,-0.31,0.43,1.23,1009.39
4.711,1.33,1.23,0.02,20.79,3.72,2.72,-0.31,0.43,1.23,1009.73
4.738,3.06,1.16,2.11,20.79,3.72,2.72,-0.31,0.43,1.23,1009.73
4.739,3.06,1.16,2.11,20.79,3.72,2.72,-0.68,0.24,3.39,1009.73
4.757,-0.52,1.22,-1.01,20.79,3.72,2.72,-0.68,0.24,3.39,1009.73
4.758,-0.52,1.22,-1.01,4.76,0.24,-2.15,-0.68,0.24,3.39,1009.73
4.792,-0.52,1.22,-1.01,4.76,0.24,-2.15,-0.68,0.24,3.39,1009.76
4.793,0.65,1.18,-0.46,4.76,0.24,-2.15,-0.68,0.24,3.39,1009.76
4.793,0.21,0.99,0.16,4.76,0.24,-2.15,-0.68,0.24,3.39,1009.76
4.808,0.21,0.99,0.16,4.76,0.24,-2.15,-0.21,0.34,0.47,1009.76
4.828,0.21,0.99,0.16,12.35,2.59,1.82,-0.21,0.34,0.47,1009.76
4.829,0.10,1.03,0.02,12.35,2.59,1.82,-0.21,0.34,0.47,1009.76
4.83,0.14,1.02,0.02,12.35,2.59,1.82,-0.21,0.34,0.47,1009.76
4.87,0.14,1.02,0.02,12.35,2.59,1.82,-0.21,0.34,0.47,1009.63
4.872,0.09,0.98,0.17,12.35,2.59,1.82,-0.21,0.34,0.47,1009.63
4.873,0.14,1.02,0.03,12.35,2.59,1.82,-0.21,0.34,0.47,1009.63
4.877,0.14,1.02,0.03,12.35,2.59,1.82,-0.14,0.05,0.14,1009.63
4.896,0.13,1.00,0.04,12.35,2.59,1.82,-0.14,0.05,0.14,1009.63
4.897,0.13,1.00,0.04,0.49,0.40,-0.38,-0.14,0.05,0.14,1009.63
4.912,0.10,0.97,0.08,0.49,0.40,-0.38,-0.14,0.05,0.14,1009.63
4.913,0.10,0.97,0.08,0.49,0.40,-0.38,-0.14,0.05,0.14,1009.34
4.948,0.10,0.97,0.08,0.49,0.40,-0.38,0.03,-0.07,0.03,1009.34
4.949,0.07,0.93,0.15,0.49,0.40,-0.38,0.03,-0.07,0.03,1009.34
4.962,0.06,0.94,0.13,0.49,0.40,-0.38,0.03,-0.07,0.03,1009.34
4.967,0.08,0.95,0.08,0.49,0.40,-0.38,0.03,-0.07,0.03,1009.34
4.967,0.08,0.95,0.08,0.49,0.31,0.13,0.03,-0.07,0.03,1009.34
4.996,0.10,0.98,0.03,0.49,0.31,0.13,0.03,-0.07,0.03,1009.34
4.998,0.10,0.98,0.03,0.49,0.31,0.13,0.03,-0.07,0.03,1009.26
5.018,0.10,0.98,0.03,0.49,0.31,0.13,0.18,-0.10,0.08,1009.26
5.019,0.10,0.99,0.01,0.49,0.31,0.13,0.18,-0.10,0.08,1009.26
5.029,0.06,0.98,0.05,0.49,0.31,0.13,0.18,-0.10,0.08,1009.26
5.037,0.06,0.98,0.05,0.01,-0.24,0.61,0.18,-0.10,0.08,1009.26
5.07,0.06,0.98,0.05,0.01,-0.24,0.61,0.18,-0.10,0.08,1009.34
5.072,0.05,0.98,0.03,0.01,-0.24,0.61,0.18,-0.10,0.08,1009.34
5.072,0.07,0.99,-0.00,0.01,-0.24,0.61,0.18,-0.10,0.08,1009.34
5.087,0.07,0.99,-0.00,0.01,-0.24,0.61,0.17,-0.14,0.19,1009.34
5.096,0.09,1.00,0.01,0.01,-0.24,0.61,0.17,-0.14,0.19,1009.34
5.113,0.09,0.99,0.03,0.01,-0.24,0.61,0.17,-0.14,0.19,1009.34
5.115,0.09,0.99,0.03,0.02,0.14,-0.11,0.17,-0.14,0.19,1009.34
5.118,0.09,0.99,0.03,0.02,0.14,-0.11,0.17,-0.14,0.19,1009.37
5.158,0.09,0.99,0.03,0.02,0.14,-0.11,0.16,-0.30,0.37,1009.37
5.159,0.08,1.02,0.01,0.02,0.14,-0.11,0.16,-0.30,0.37,1009.37
5.16,0.02,1.06,0.00,0.02,0.14,-0.11,0.16,-0.30,0.37,1009.37
5.178,0.02,1.06,0.00,-0.20,0.24,-0.12,0.16,-0.30,0.37,1009.37
5.179,-0.03,1.11,-0.09,-0.20,0.24,-0.12,0.16,-0.30,0.37,1009.37
5.196,-0.03,1.11,-0.09,-0.20,0.24,-0.12,0.16,-0.30,0.37,1009.52
5.197,-0.03,1.15,-0.15,-0.20,0.24,-0.12,0.16,-0.30,0.37,1009.52
5.228,-0.03,1.15,-0.15,-0.20,0.24,-0.12,-0.16,-0.06,1.19,1009.52
5.229,-0.03,1.18,-0.13,-0.20,0.24,-0.12,-0.16,-0.06,1.19,1009.52
5.23,-0.09,1.26,-0.09,-0.20,0.24,-0.12,-0.16,-0.06,1.19,1009.52
5.247,-0.14,1.41,-0.15,-0.20,0.24,-0.12,-0.16,-0.06,1.19,1009.52
5.248,-0.14,1.41,-0.15,-1.23,1.06,-0.62,-0.16,-0.06,1.19,1009.52
5.27,-0.36,1.51,-0.05,-1.23,1.06,-0.62,-0.16,-0.06,1.19,1009.52
5.271,-0.36,1.51,-0.05,-1.23,1.06,-0.62,-0.16,-0.06,1.19,1009.67
5.296,-0.57,1.61,-0.01,-1.23,1.06,-0.62,-0.16,-0.06,1.19,1009.67
5.297,-0.57,1.61,-0.01,-1.23,1.06,-0.62,-0.53,-0.53,2.99,1009.67
5.31,-0.53,1.63,0.17,-1.23,1.06,-0.62,-0.53,-0.53,2.99,1009.67
5.311,-0.53,1.63,0.17,-1.23,1.06,-0.62,-0.53,-0.53,2.99,1009.19
5.317,-0.53,1.63,0.17,-3.20,3.17,-1.62,-0.53,-0.53,2.99,1009.19
5.363,-0.21,1.73,0.09,-3.20,3.17,-1.62,-0.53,-0.53,2.99,1009.19
5.365,-0.40,1.48,0.30,-3.20,3.17,-1.62,-0.53,-0.53,2.99,1009.19
5.367,-0.40,1.48,0.30,-3.20,3.17,-1.62,-0.34,-0.86,5.61,1009.19
5.387,0.09,1.41,0.86,-3.20,3.17,-1.62,-0.34,-0.86,5.61,1009.19
5.388,-0.33,0.91,0.33,-3.20,3.17,-1.62,-0.34,-0.86,5.61,1009.19
5.389,-0.33,0.91,0.33,-9.22,7.37,0.16,-0.34,-0.86,5.61,1009.19
5.39,-0.33,0.91,0.33,-9.22,7.37,0.16,-0.34,-0.86,5.61,1008.36
5.43,1.91,0.97,0.21,-9.22,7.37,0.16,-0.34,-0.86,5.61,1008.36
5.431,-0.29,0.58,0.31,-9.22,7.37,0.16,-0.34,-0.86,5.61,1008.36
5.437,-0.29,0.58,0.31,-9.22,7.37,0.16,0.09,0.17,2.00,1008.36
5.458,-0.77,0.55,0.13,-9.22,7.37,0.16,0.09,0.17,2.00,1008.36
5.459,-0.77,0.55,0.13,-9.69,7.34,3.76,0.09,0.17,2.00,1008.36
5.47,-0.37,0.47,0.11,-9.69,7.34,3.76,0.09,0.17,2.00,1008.36
5.47,-0.37,0.47,0.11,-9.69,7.34,3.76,0.09,0.17,2.00,1008.58
5.496,-0.09,0.43,0.21,-9.69,7.34,3.76,0.09,0.17,2.00,1008.58
5.509,-0.09,0.43,0.21,-9.69,7.34,3.76,0.11,0.76,-1.78,1008.58
5.511,-0.02,0.54,0.13,-9.69,7.34,3.76,0.11,0.76,-1.78,1008.58
5.511,-0.02,0.54,0.13,-9.69,7.34,3.76,0.11,0.76,-1.78,1008.97
5.528,-0.03,0.63,0.12,-9.69,7.34,3.76,0.11,0.76,-1.78,1008.97
5.529,-0.03,0.63,0.12,-5.43,0.40,1.17,0.11,0.76,-1.78,1008.97
5.563,0.04,0.72,0.15,-5.43,0.40,1.17,0.11,0.76,-1.78,1008.97
5.579,0.09,0.84,0.09,-5.43,0.40,1.17,0.11,0.76,-1.78,1008.97
5.58,0.09,0.84,0.09,-5.43,0.40,1.17,0.47,0.30,-4.20,1008.97
5.597,0.11,0.98,0.07,-5.43,0.40,1.17,0.47,0.30,-4.20,1008.97
5.598,0.11,0.98,0.07,-5.43,0.40,1.17,0.47,0.30,-4.20,1009.14
5.599,0.11,0.98,0.07,-6.42,-2.35,0.70,0.47,0.30,-4.20,1009.14
5.629,0.16,1.08,0.11,-6.42,-2.35,0.70,0.47,0.30,-4.20,1009.14
5.631,0.21,1.24,0.05,-6.42,-2.35,0.70,0.47,0.30,-4.20,1009.14
5.647,0.21,1.24,0.05,-6.42,-2.35,0.70,0.52,0.44,-4.74,1009.14
5.668,0.21,1.24,0.05,-2.00,-0.32,0.41,0.52,0.44,-4.74,1009.14
5.669,0.20,1.40,0.02,-2.00,-0.32,0.41,0.52,0.44,-4.74,1009.14
5.669,0.12,1.52,0.03,-2.00,-0.32,0.41,0.52,0.44,-4.74,1009.14
5.67,0.12,1.52,0.03,-2.00,-0.32,0.41,0.52,0.44,-4.74,1009.19
5.697,0.14,1.68,0.02,-2.00,-0.32,0.41,0.52,0.44,-4.74,1009.19
5.71,0.56,1.83,-0.00,-2.00,-0.32,0.41,0.52,0.44,-4.74,1009.19
5.711,0.56,1.83,-0.00,-2.00,-0.32,0.41,0.52,0.44,-4.74,1009.13
5.717,0.56,1.83,-0.00,-2.00,-0.32,0.41,0.36,0.92,-3.66,1009.13
5.738,0.56,1.83,-0.00,1.79,3.77,0.05,0.36,0.92,-3.66,1009.13
5.739,1.34,1.70,0.22,1.79,3.77,0.05,0.36,0.92,-3.66,1009.13
5.763,1.96,1.30,0.39,1.79,3.77,0.05,0.36,0.92,-3.66,1009.13
5.788,1.96,1.30,0.39,1.79,3.77,0.05,0.20,0.58,-2.93,1009.13
5.789,2.47,0.87,0.41,1.79,3.77,0.05,0.20,0.58,-2.93,1009.13
5.79,2.53,0.57,0.34,1.79,3.77,0.05,0.20,0.58,-2.93,1009.13
5.79,2.53,0.57,0.34,1.79,3.77,0.05,0.20,0.58,-2.93,1009.25
5.808,2.53,0.57,0.34,10.20,7.28,1.13,0.20,0.58,-2.93,1009.25
5.809,-0.53,0.95,0.10,10.20,7.28,1.13,0.20,0.58,-2.93,1009.25
5.829,0.93,0.35,-0.51,10.20,7.28,1.13,0.20,0.58,-2.93,1009.25
5.858,0.93,0.35,-0.51,10.20,7.28,1.13,-0.67,0.70,4.12,1009.25
5.86,0.12,1.32,-0.84,10.20,7.28,1.13,-0.67,0.70,4.12,1009.25
5.87,2.32,0.84,0.53,10.20,7.28,1.13,-0.67,0.70,4.12,1009.25
5.87,2.32,0.84,0.53,10.20,7.28,1.13,-0.67,0.70,4.12,1009.43
5.878,2.32,0.84,0.53,17.48,-0.84,2.75,-0.67,0.70,4.12,1009.43
5.896,2.33,1.84,0.72,17.48,-0.84,2.75,-0.67,0.70,4.12,1009.43
5.915,-0.18,1.10,-1.21,17.48,-0.84,2.75,-0.67,0.70,4.12,1009.43
5.917,-0.18,1.10,-1.21,17.48,-0.84,2.75,-0.67,0.70,4.12,1009.87
5.928,-0.18,1.10,-1.21,17.48,-0.84,2.75,-0.08,0.48,0.65,1009.87
5.948,-0.18,1.10,-1.21,15.70,0.05,1.23,-0.08,0.48,0.65,1009.87
5.949,-0.17,0.89,0.13,15.70,0.05,1.23,-0.08,0.48,0.65,1009.87
5.949,0.24,0.98,0.25,15.70,0.05,1.23,-0.08,0.48,0.65,1009.87
5.99,0.24,0.98,0.25,15.70,0.05,1.23,-0.08,0.48,0.65,1009.59
5.991,0.13,1.04,0.01,15.70,0.05,1.23,-0.08,0.48,0.65,1009.59
5.992,0.12,1.02,0.04,15.70,0.05,1.23,-0.08,0.48,0.65,1009.59
5.999,0.12,1.02,0.04,15.70,0.05,1.23,-0.16,0.11,0.28,1009.59
6.018,0.12,1.02,0.04,-1.33,1.60,-4.72,-0.16,0.11,0.28,1009.59
6.019,0.13,0.97,0.14,-1.33,1.60,-4.72,-0.16,0.11,0.28,1009.59
6.029,0.16,1.02,0.01,-1.33,1.60,-4.72,-0.16,0.11,0.28,1009.59
6.068,0.16,1.02,0.01,-1.33,1.60,-4.72,-0.03,0.01,0.14,1009.59
6.069,0.14,1.00,0.05,-1.33,1.60,-4.72,-0.03,0.01,0.14,1009.59
6.07,0.14,0.96,0.09,-1.33,1.60,-4.72,-0.03,0.01,0.14,1009.59
6.071,0.14,0.96,0.09,-1.33,1.60,-4.72,-0.03,0.01,0.14,1009.35
6.088,0.12,0.94,0.11,-1.33,1.60,-4.72,-0.03,0.01,0.14,1009.35
6.089,0.12,0.94,0.11,0.41,0.50,0.00,-0.03,0.01,0.14,1009.35
6.11,0.11,0.94,0.10,0.41,0.50,0.00,-0.03,0.01,0.14,1009.35
6.111,0.11,0.94,0.10,0.41,0.50,0.00,-0.03,0.01,0.14,1009.24
6.139,0.11,0.94,0.10,0.41,0.50,0.00,0.09,-0.07,0.06,1009.24
6.14,0.13,0.97,0.03,0.41,0.50,0.00,0.09,-0.07,0.06,1009.24
6.159,0.13,0.97,0.03,0.37,0.13,0.08,0.09,-0.07,0.06,1009.24
6.16,0.13,0.98,0.02,0.37,0.13,0.08,0.09,-0.07,0.06,1009.24
6.191,0.13,0.98,0.02,0.37,0.13,0.08,0.09,-0.07,0.06,1009.23
6.192,0.11,0.97,0.05,0.37,0.13,0.08,0.09,-0.07,0.06,1009.23
6.192,0.07,0.97,0.08,0.37,0.13,0.08,0.09,-0.07,0.06,1009.23
6.208,0.07,0.97,0.08,0.37,0.13,0.08,0.11,-0.11,0.09,1009.23
6.228,0.07,0.97,0.08,0.20,0.05,-0.03,0.11,-0.11,0.09,1009.23
6.229,0.08,0.97,0.06,0.20,0.05,-0.03,0.11,-0.11,0.09,1009.23
6.229,0.10,0.98,0.02,0.20,0.05,-0.03,0.11,-0.11,0.09,1009.23
6.271,0.10,0.98,0.02,0.20,0.05,-0.03,0.11,-0.11,0.09,1009.31
6.272,0.12,0.98,0.01,0.20,0.05,-0.03,0.11,-0.11,0.09,1009.31
6.273,0.12,0.99,0.02,0.20,0.05,-0.03,0.11,-0.11,0.09,1009.31
6.278,0.12,0.99,0.02,0.20,0.05,-0.03,0.13,-0.16,0.22,1009.31
6.296,0.09,1.01,0.03,0.20,0.05,-0.03,0.13,-0.16,0.22,1009.31
6.297,0.09,1.01,0.03,-0.24,0.11,0.14,0.13,-0.16,0.22,1009.31
6.317,0.03,1.05,0.04,-0.24,0.11,0.14,0.13,-0.16,0.22,1009.31
6.318,0.03,1.05,0.04,-0.24,0.11,0.14,0.13,-0.16,0.22,1009.39
6.348,0.03,1.05,0.04,-0.24,0.11,0.14,0.06,-0.26,0.55,1009.39
6.35,-0.01,1.08,-0.03,-0.24,0.11,0.14,0.06,-0.26,0.55,1009.39
6.362,0.04,1.12,-0.13,-0.24,0.11,0.14,0.06,-0.26,0.55,1009.39
6.368,0.05,1.14,-0.07,-0.24,0.11,0.14,0.06,-0.26,0.55,1009.39
6.368,0.05,1.14,-0.07,-0.27,0.43,-0.06,0.06,-0.26,0.55,1009.39
6.39,-0.08,1.18,-0.02,-0.27,0.43,-0.06,0.06,-0.26,0.55,1009.39
6.391,-0.08,1.18,-0.02,-0.27,0.43,-0.06,0.06,-0.26,0.55,1009.57
6.418,-0.08,1.18,-0.02,-0.27,0.43,-0.06,-0.24,-0.12,1.52,1009.57
6.421,-0.09,1.32,-0.09,-0.27,0.43,-0.06,-0.24,-0.12,1.52,1009.57
6.43,-0.18,1.44,-0.10,-0.27,0.43,-0.06,-0.24,-0.12,1.52,1009.57
6.438,-0.18,1.44,-0.10,-1.66,1.50,-0.92,-0.24,-0.12,1.52,1009.57
6.47,-0.18,1.44,-0.10,-1.66,1.50,-0.92,-0.24,-0.12,1.52,1009.70
6.472,-0.32,1.54,-0.16,-1.66,1.50,-0.92,-0.24,-0.12,1.52,1009.70
6.472,-0.54,1.57,-0.04,-1.66,1.50,-0.92,-0.24,-0.12,1.52,1009.70
6.488,-0.54,1.57,-0.04,-1.66,1.50,-0.92,-0.68,-0.64,3.66,1009.70
6.499,-0.62,1.59,0.06,-1.66,1.50,-0.92,-0.68,-0.64,3.66,1009.70
6.508,-0.27,1.54,0.16,-1.66,1.50,-0.92,-0.68,-0.64,3.66,1009.70
6.509,-0.27,1.54,0.16,-4.57,4.19,-1.34,-0.68,-0.64,3.66,1009.70
6.512,-0.27,1.54,0.16,-4.57,4.19,-1.34,-0.68,-0.64,3.66,1008.95
6.558,-0.27,1.54,0.16,-4.57,4.19,-1.34,-0.21,-0.99,6.15,1008.95
6.56,-0.01,1.35,0.65,-4.57,4.19,-1.34,-0.21,-0.99,6.15,1008.95
6.561,-0.19,1.29,0.61,-4.57,4.19,-1.34,-0.21,-0.99,6.15,1008.95
6.578,0.15,0.85,0.25,-4.57,4.19,-1.34,-0.21,-0.99,6.15,1008.95
6.579,0.15,0.85,0.25,-10.43,7.87,-0.34,-0.21,-0.99,6.15,1008.95
6.59,2.02,0.98,0.14,-10.43,7.87,-0.34,-0.21,-0.99,6.15,1008.95
6.59,2.02,0.98,0.14,-10.43,7.87,-0.34,-0.21,-0.99,6.15,1008.35
6.638,2.02,0.98,0.14,-10.43,7.87,-0.34,-0.06,0.22,0.47,1008.35
6.639,0.15,0.67,0.37,-10.43,7.87,-0.34,-0.06,0.22,0.47,1008.35
6.64,-0.99,0.56,0.05,-10.43,7.87,-0.34,-0.06,0.22,0.47,1008.35
6.65,-0.51,0.58,-0.05,-10.43,7.87,-0.34,-0.06,0.22,0.47,1008.35
6.651,-0.51,0.58,-0.05,-6.11,5.42,3.74,-0.06,0.22,0.47,1008.35
6.673,-0.03,0.52,0.16,-6.11,5.42,3.74,-0.06,0.22,0.47,1008.35
6.674,-0.03,0.52,0.16,-6.11,5.42,3.74,-0.06,0.22,0.47,1008.85
6.699,0.10,0.55,0.19,-6.11,5.42,3.74,-0.06,0.22,0.47,1008.85
6.7,0.10,0.55,0.19,-6.11,5.42,3.74,-0.11,0.70,-2.75,1008.85
6.713,0.02,0.65,0.11,-6.11,5.42,3.74,-0.11,0.70,-2.75,1008.85
6.714,0.02,0.65,0.11,-6.11,5.42,3.74,-0.11,0.70,-2.75,1009.13
6.718,0.02,0.65,0.11,-7.49,1.17,0.73,-0.11,0.70,-2.75,1009.13
6.763,-0.06,0.76,0.06,-7.49,1.17,0.73,-0.11,0.70,-2.75,1009.13
6.765,0.05,0.92,-0.01,-7.49,1.17,0.73,-0.11,0.70,-2.75,1009.13
6.768,0.05,0.92,-0.01,-7.49,1.17,0.73,0.39,-0.09,-4.85,1009.13
6.789,0.05,0.92,-0.01,-5.10,-1.87,0.51,0.39,-0.09,-4.85,1009.13
6.79,0.18,1.07,-0.02,-5.10,-1.87,0.51,0.39,-0.09,-4.85,1009.13
6.79,0.29,1.16,-0.02,-5.10,-1.87,0.51,0.39,-0.09,-4.85,1009.13
6.791,0.29,1.16,-0.02,-5.10,-1.87,0.51,0.39,-0.09,-4.85,1009.23
6.829,0.22,1.29,-0.06,-5.10,-1.87,0.51,0.39,-0.09,-4.85,1009.23
6.83,0.15,1.48,-0.12,-5.10,-1.87,0.51,0.39,-0.09,-4.85,1009.23
6.839,0.15,1.48,-0.12,-5.10,-1.87,0.51,0.35,0.20,-4.90,1009.23
6.86,0.15,1.48,-0.12,-0.83,0.86,-0.72,0.35,0.20,-4.90,1009.23
6.862,0.17,1.67,-0.19,-0.83,0.86,-0.72,0.35,0.20,-4.90,1009.23
6.871,0.69,1.81,-0.20,-0.83,0.86,-0.72,0.35,0.20,-4.90,1009.23
6.871,0.69,1.81,-0.20,-0.83,0.86,-0.72,0.35,0.20,-4.90,1009.17
6.9,1.43,1.64,0.02,-0.83,0.86,-0.72,0.35,0.20,-4.90,1009.17
6.908,1.43,1.64,0.02,-0.83,0.86,-0.72,0.24,0.81,-3.94,1009.17
6.91,1.84,1.31,0.28,-0.83,0.86,-0.72,0.24,0.81,-3.94,1009.17
6.911,1.84,1.31,0.28,-0.83,0.86,-0.72,0.24,0.81,-3.94,1009.17
6.93,2.02,1.04,0.21,-0.83,0.86,-0.72,0.24,0.81,-3.94,1009.17
6.931,2.02,1.04,0.21,2.79,5.55,-1.84,0.24,0.81,-3.94,1009.17
6.963,2.29,0.77,0.37,2.79,5.55,-1.84,0.24,0.81,-3.94,1009.17
6.979,1.59,0.70,0.05,2.79,5.55,-1.84,0.24,0.81,-3.94,1009.17
6.98,1.59,0.70,0.05,2.79,5.55,-1.84,0.31,-0.17,-1.46,1009.17
6.99,0.33,0.67,0.29,2.79,5.55,-1.84,0.31,-0.17,-1.46,1009.17
6.991,0.33,0.67,0.29,2.79,5.55,-1.84,0.31,-0.17,-1.46,1009.36
6.998,0.33,0.67,0.29,18.69,4.67,1.13,0.31,-0.17,-1.46,1009.36
7.029,0.05,1.09,-0.94,18.69,4.67,1.13,0.31,-0.17,-1.46,1009.36
7.03,0.20,1.18,-0.25,18.69,4.67,1.13,0.31,-0.17,-1.46,1009.36
7.048,0.20,1.18,-0.25,18.69,4.67,1.13,-0.89,0.57,4.65,1009.36
7.068,0.20,1.18,-0.25,13.16,-1.97,-0.08,-0.89,0.57,4.65,1009.36
7.07,3.39,0.55,2.52,13.16,-1.97,-0.08,-0.89,0.57,4.65,1009.36
7.071,-0.07,1.92,-1.53,13.16,-1.97,-0.08,-0.89,0.57,4.65,1009.36
7.071,-0.07,1.92,-1.53,13.16,-1.97,-0.08,-0.89,0.57,4.65,1009.84
7.101,1.19,1.24,-0.19,13.16,-1.97,-0.08,-0.89,0.57,4.65,1009.84
7.11,1.19,1.24,-0.19,13.16,-1.97,-0.08,-0.89,0.57,4.65,1009.65
7.111,-0.37,0.84,0.09,13.16,-1.97,-0.08,-0.89,0.57,4.65,1009.65
7.118,-0.37,0.84,0.09,13.16,-1.97,-0.08,0.14,0.34,0.19,1009.65
7.138,-0.37,0.84,0.09,8.88,2.55,0.73,0.14,0.34,0.19,1009.65
7.14,0.19,1.00,0.03,8.88,2.55,0.73,0.14,0.34,0.19,1009.65
7.163,0.15,1.04,0.04,8.88,2.55,0.73,0.14,0.34,0.19,1009.65
7.188,0.15,1.04,0.04,8.88,2.55,0.73,-0.09,0.09,0.23,1009.65
7.189,0.12,0.99,0.12,8.88,2.55,0.73,-0.09,0.09,0.23,1009.65
7.19,0.12,0.99,0.12,8.88,2.55,0.73,-0.09,0.09,0.23,1009.48
7.19,0.15,0.96,0.13,8.88,2.55,0.73,-0.09,0.09,0.23,1009.48
7.208,0.15,0.96,0.13,2.09,0.67,-0.52,-0.09,0.09,0.23,1009.48
7.209,0.16,1.01,0.02,2.09,0.67,-0.52,-0.09,0.09,0.23,1009.48
7.229,0.13,1.00,0.02,2.09,0.67,-0.52,-0.09,0.09,0.23,1009.48
7.258,0.13,1.00,0.02,2.09,0.67,-0.52,-0.00,0.01,0.08,1009.48
7.261,0.13,0.97,0.06,2.09,0.67,-0.52,-0.00,0.01,0.08,1009.48
7.27,0.13,0.96,0.09,2.09,0.67,-0.52,-0.00,0.01,0.08,1009.48
7.271,0.13,0.96,0.09,2.09,0.67,-0.52,-0.00,0.01,0.08,1009.36
7.279,0.13,0.96,0.09,0.38,0.44,-0.03,-0.00,0.01,0.08,1009.36
7.296,0.13,0.96,0.09,0.38,0.44,-0.03,-0.00,0.01,0.08,1009.36
7.31,0.13,0.95,0.08,0.38,0.44,-0.03,-0.00,0.01,0.08,1009.36
7.311,0.13,0.95,0.08,0.38,0.44,-0.03,-0.00,0.01,0.08,1009.27
7.329,0.13,0.95,0.08,0.38,0.44,-0.03,0.06,-0.03,0.01,1009.27
7.35,0.14,0.96,0.05,0.38,0.44,-0.03,0.06,-0.03,0.01,1009.27
7.351,0.11,0.97,0.05,0.38,0.44,-0.03,0.06,-0.03,0.01,1009.27
7.352,0.11,0.97,0.05,0.18,0.21,-0.04,0.06,-0.03,0.01,1009.27
7.39,0.11,0.97,0.05,0.18,0.21,-0.04,0.06,-0.03,0.01,1009.31
7.392,0.04,0.97,0.09,0.18,0.21,-0.04,0.06,-0.03,0.01,1009.31
7.392,0.06,0.97,0.10,0.18,0.21,-0.04,0.06,-0.03,0.01,1009.31
7.402,0.06,0.97,0.10,0.18,0.21,-0.04,0.12,-0.07,0.05,1009.31
7.418,0.06,0.97,0.10,0.19,0.05,0.06,0.12,-0.07,0.05,1009.31
7.42,0.06,0.97,0.06,0.19,0.05,0.06,0.12,-0.07,0.05,1009.31
7.429,0.10,0.99,0.02,0.19,0.05,0.06,0.12,-0.07,0.05,1009.31
7.469,0.10,0.99,0.02,0.19,0.05,0.06,0.20,-0.13,0.27,1009.31
7.471,0.10,1.00,0.03,0.19,0.05,0.06,0.20,-0.13,0.27,1009.31
7.471,0.08,1.02,0.04,0.19,0.05,0.06,0.20,-0.13,0.27,1009.31
7.472,0.08,1.02,0.04,0.19,0.05,0.06,0.20,-0.13,0.27,1009.35
7.488,0.03,1.03,0.05,0.19,0.05,0.06,0.20,-0.13,0.27,1009.35
7.489,0.03,1.03,0.05,-0.57,0.19,0.26,0.20,-0.13,0.27,1009.35
7.51,0.00,1.08,-0.03,-0.57,0.19,0.26,0.20,-0.13,0.27,1009.35
7.511,0.00,1.08,-0.03,-0.57,0.19,0.26,0.20,-0.13,0.27,1009.36
7.539,0.00,1.08,-0.03,-0.57,0.19,0.26,0.12,-0.37,0.69,1009.36
7.54,0.00,1.16,-0.14,-0.57,0.19,0.26,0.12,-0.37,0.69,1009.36
7.559,0.00,1.16,-0.14,-0.71,0.59,0.06,0.12,-0.37,0.69,1009.36
7.561,-0.08,1.22,-0.10,-0.71,0.59,0.06,0.12,-0.37,0.69,1009.36
7.591,-0.21,1.36,-0.06,-0.71,0.59,0.06,0.12,-0.37,0.69,1009.36
7.592,-0.26,1.56,-0.13,-0.71,0.59,0.06,0.12,-0.37,0.69,1009.36
7.592,-0.26,1.56,-0.13,-0.71,0.59,0.06,0.12,-0.37,0.69,1009.62
7.608,-0.26,1.56,-0.13,-0.71,0.59,0.06,-0.39,-0.30,2.23,1009.62
7.629,-0.45,1.70,-0.12,-0.71,0.59,0.06,-0.39,-0.30,2.23,1009.62
7.63,-0.83,1.72,-0.09,-0.71,0.59,0.06,-0.39,-0.30,2.23,1009.62
7.631,-0.83,1.72,-0.09,-2.62,2.29,-1.13,-0.39,-0.30,2.23,1009.62
7.67,-0.83,1.72,-0.09,-2.62,2.29,-1.13,-0.39,-0.30,2.23,1009.52
7.672,-1.00,1.66,-0.14,-2.62,2.29,-1.13,-0.39,-0.30,2.23,1009.52
7.673,-0.48,1.45,0.21,-2.62,2.29,-1.13,-0.39,-0.30,2.23,1009.52
7.678,-0.48,1.45,0.21,-2.62,2.29,-1.13,-1.25,-1.28,5.60,1009.52
7.702,0.54,1.43,0.76,-2.62,2.29,-1.13,-1.25,-1.28,5.60,1009.52
7.703,0.54,1.43,0.76,-8.79,7.34,-1.59,-1.25,-1.28,5.60,1009.52
7.71,0.41,1.12,0.46,-8.79,7.34,-1.59,-1.25,-1.28,5.60,1009.52
7.711,0.41,1.12,0.46,-8.79,7.34,-1.59,-1.25,-1.28,5.60,1008.32
7.749,0.41,1.12,0.46,-8.79,7.34,-1.59,-0.53,-1.73,3.28,1008.32
7.751,0.86,0.60,0.34,-8.79,7.34,-1.59,-0.53,-1.73,3.28,1008.32
7.763,0.44,0.82,0.39,-8.79,7.34,-1.59,-0.53,-1.73,3.28,1008.32
7.768,-0.94,0.56,-0.03,-8.79,7.34,-1.59,-0.53,-1.73,3.28,1008.32
7.769,-0.94,0.56,-0.03,-9.27,8.55,2.69,-0.53,-1.73,3.28,1008.32
7.79,-0.31,0.51,-0.07,-9.27,8.55,2.69,-0.53,-1.73,3.28,1008.32
7.791,-0.31,0.51,-0.07,-9.27,8.55,2.69,-0.53,-1.73,3.28,1008.78
7.819,-0.31,0.51,-0.07,-9.27,8.55,2.69,-1.13,-0.20,-1.50,1008.78
7.82,-0.10,0.41,0.05,-9.27,8.55,2.69,-1.13,-0.20,-1.50,1008.78
7.83,0.08,0.50,-0.09,-9.27,8.55,2.69,-1.13,-0.20,-1.50,1008.78
7.84,0.08,0.50,-0.09,-5.89,0.90,2.26,-1.13,-0.20,-1.50,1008.78
7.87,0.08,0.50,-0.09,-5.89,0.90,2.26,-1.13,-0.20,-1.50,1009.06
7.871,-0.03,0.54,-0.15,-5.89,0.90,2.26,-1.13,-0.20,-1.50,1009.06
7.872,-0.11,0.67,-0.27,-5.89,0.90,2.26,-1.13,-0.20,-1.50,1009.06
7.888,-0.11,0.67,-0.27,-5.89,0.90,2.26,-1.07,-0.57,-4.20,1009.06
7.896,0.05,0.88,-0.43,-5.89,0.90,2.26,-1.07,-0.57,-4.20,1009.06
7.909,0.05,0.88,-0.43,-6.86,-2.41,-1.19,-1.07,-0.57,-4.20,1009.06
7.911,0.17,1.03,-0.46,-6.86,-2.41,-1.19,-1.07,-0.57,-4.20,1009.06
7.911,0.17,1.03,-0.46,-6.86,-2.41,-1.19,-1.07,-0.57,-4.20,1009.17
7.959,0.17,1.03,-0.46,-6.86,-2.41,-1.19,-0.64,-0.85,-4.98,1009.17
7.96,0.23,1.23,-0.50,-6.86,-2.41,-1.19,-0.64,-0.85,-4.98,1009.17
7.961,0.19,1.40,-0.53,-6.86,-2.41,-1.19,-0.64,-0.85,-4.98,1009.17
7.979,0.19,1.40,-0.53,-3.21,-0.63,-4.30,-0.64,-0.85,-4.98,1009.17
7.98,0.12,1.50,-0.49,-3.21,-0.63,-4.30,-0.64,-0.85,-4.98,1009.17
7.99,0.20,1.62,-0.58,-3.21,-0.63,-4.30,-0.64,-0.85,-4.98,1009.17
7.991,0.20,1.62,-0.58,-3.21,-0.63,-4.30,-0.64,-0.85,-4.98,1009.24
8.029,0.43,1.74,-0.87,-3.21,-0.63,-4.30,-0.64,-0.85,-4.98,1009.24
8.03,0.43,1.74,-0.87,-3.21,-0.63,-4.30,-0.63,-2.63,-3.87,1009.24
8.031,0.76,1.67,-0.93,-3.21,-0.63,-4.30,-0.63,-2.63,-3.87,1009.24
8.051,1.47,1.29,-0.58,-3.21,-0.63,-4.30,-0.63,-2.63,-3.87,1009.24
8.052,1.47,1.29,-0.58,1.32,4.47,-5.86,-0.63,-2.63,-3.87,1009.24
8.07,1.47,1.29,-0.58,1.32,4.47,-5.86,-0.63,-2.63,-3.87,1009.24
8.071,2.47,0.78,-0.28,1.32,4.47,-5.86,-0.63,-2.63,-3.87,1009.24
8.096,2.85,0.37,0.12,1.32,4.47,-5.86,-0.63,-2.63,-3.87,1009.24
8.105,2.85,0.37,0.12,1.32,4.47,-5.86,-0.30,-2.18,-0.44,1009.24
8.11,1.67,0.40,-0.06,1.32,4.47,-5.86,-0.30,-2.18,-0.44,1009.24
8.111,1.67,0.40,-0.06,1.32,4.47,-5.86,-0.30,-2.18,-0.44,1009.51
8.12,1.67,0.40,-0.06,8.51,6.18,-8.80,-0.30,-2.18,-0.44,1009.51
8.163,0.80,-0.09,1.08,8.51,6.18,-8.80,-0.30,-2.18,-0.44,1009.51
8.164,3.43,2.37,1.53,8.51,6.18,-8.80,-0.30,-2.18,-0.44,1009.51
8.168,3.43,2.37,1.53,8.51,6.18,-8.80,1.62,-0.22,1.48,1009.51
8.189,3.43,2.37,1.53,20.30,-4.49,-2.31,1.62,-0.22,1.48,1009.51
8.19,-1.78,0.78,-4.37,20.30,-4.49,-2.31,1.62,-0.22,1.48,1009.51
8.191,1.17,1.48,-0.26,20.30,-4.49,-2.31,1.62,-0.22,1.48,1009.51
8.191,1.17,1.48,-0.26,20.30,-4.49,-2.31,1.62,-0.22,1.48,1009.79
8.23,-0.07,0.93,0.62,20.30,-4.49,-2.31,1.62,-0.22,1.48,1009.79
8.232,0.15,0.93,0.24,20.30,-4.49,-2.31,1.62,-0.22,1.48,1009.79
8.239,0.15,0.93,0.24,20.30,-4.49,-2.31,-0.50,0.29,0.37,1009.79
8.259,0.14,0.99,-0.02,20.30,-4.49,-2.31,-0.50,0.29,0.37,1009.79
8.26,0.14,0.99,-0.02,8.03,2.97,-5.69,-0.50,0.29,0.37,1009.79
8.27,0.14,1.04,0.18,8.03,2.97,-5.69,-0.50,0.29,0.37,1009.79
8.271,0.14,1.04,0.18,8.03,2.97,-5.69,-0.50,0.29,0.37,1009.40
8.296,0.15,1.02,-0.15,8.03,2.97,-5.69,-0.50,0.29,0.37,1009.40
8.308,0.15,1.02,-0.15,8.03,2.97,-5.69,-0.01,0.04,0.20,1009.40
8.31,0.14,0.99,0.09,8.03,2.97,-5.69,-0.01,0.04,0.20,1009.40
8.31,0.14,0.99,0.09,8.03,2.97,-5.69,-0.01,0.04,0.20,1009.35
8.329,0.13,1.00,0.06,8.03,2.97,-5.69,-0.01,0.04,0.20,1009.35
8.33,0.13,1.00,0.06,-0.40,0.07,2.09,-0.01,0.04,0.20,1009.35
8.363,0.13,0.97,0.04,-0.40,0.07,2.09,-0.01,0.04,0.20,1009.35
8.379,0.14,0.95,0.11,-0.40,0.07,2.09,-0.01,0.04,0.20,1009.35
8.38,0.14,0.95,0.11,-0.40,0.07,2.09,-0.03,-0.02,0.08,1009.35
8.39,0.12,0.94,0.13,-0.40,0.07,2.09,-0.03,-0.02,0.08,1009.35
8.391,0.12,0.94,0.13,-0.40,0.07,2.09,-0.03,-0.02,0.08,1009.18
8.405,0.12,0.94,0.13,0.24,0.61,-0.35,-0.03,-0.02,0.08,1009.18
8.43,0.13,0.95,0.11,0.24,0.61,-0.35,-0.03,-0.02,0.08,1009.18
8.431,0.14,0.97,0.03,0.24,0.61,-0.35,-0.03,-0.02,0.08,1009.18
8.45,0.14,0.97,0.03,0.24,0.61,-0.35,0.07,-0.08,0.02,1009.18
8.469,0.14,0.97,0.03,0.01,0.04,0.42,0.07,-0.08,0.02,1009.18
8.47,0.13,0.97,0.01,0.01,0.04,0.42,0.07,-0.08,0.02,1009.18
8.471,0.13,0.98,0.05,0.01,0.04,0.42,0.07,-0.08,0.02,1009.18
8.472,0.13,0.98,0.05,0.01,0.04,0.42,0.07,-0.08,0.02,1009.23
8.496,0.10,0.96,0.07,0.01,0.04,0.42,0.07,-0.08,0.02,1009.23
8.514,0.13,0.98,0.05,0.01,0.04,0.42,0.07,-0.08,0.02,1009.23
8.515,0.13,0.98,0.05,0.01,0.04,0.42,0.07,-0.08,0.02,1009.35
8.519,0.13,0.98,0.05,0.01,0.04,0.42,0.00,-0.13,-0.00,1009.35
8.529,0.09,0.97,0.07,0.01,0.04,0.42,0.00,-0.13,-0.00,1009.35
8.539,0.09,0.97,0.07,0.04,0.17,-0.15,0.00,-0.13,-0.00,1009.35
8.589,0.09,0.97,0.07,0.04,0.17,-0.15,0.06,-0.16,0.10,1009.35
8.59,0.09,0.97,0.07,0.04,0.17,-0.15,0.06,-0.16,0.10,1009.35
8.59,0.08,1.00,0.07,0.04,0.17,-0.15,0.06,-0.16,0.10,1009.35
8.591,0.04,1.02,0.07,0.04,0.17,-0.15,0.06,-0.16,0.10,1009.35
8.591,0.04,1.02,0.07,0.04,0.17,-0.15,0.06,-0.16,0.10,1009.38
8.609,0.07,1.02,0.05,0.04,0.17,-0.15,0.06,-0.16,0.10,1009.38
8.609,0.07,1.02,0.05,-0.24,0.19,0.15,0.06,-0.16,0.10,1009.38
8.66,0.07,1.02,0.05,-0.24,0.19,0.15,0.03,-0.37,0.32,1009.38
8.661,0.11,1.03,-0.06,-0.24,0.19,0.15,0.03,-0.37,0.32,1009.38
8.661,0.08,1.04,-0.00,-0.24,0.19,0.15,0.03,-0.37,0.32,1009.38
8.67,0.03,1.05,0.06,-0.24,0.19,0.15,0.03,-0.37,0.32,1009.38
8.671,0.03,1.05,0.06,-0.24,0.19,0.15,0.03,-0.37,0.32,1009.36
8.68,0.03,1.05,0.06,-0.76,0.55,0.20,0.03,-0.37,0.32,1009.36
8.71,0.03,1.05,0.06,-0.76,0.55,0.20,0.03,-0.37,0.32,1009.37
8.711,0.00,1.14,-0.03,-0.76,0.55,0.20,0.03,-0.37,0.32,1009.37
8.711,0.17,1.19,-0.25,-0.76,0.55,0.20,0.03,-0.37,0.32,1009.37
8.731,-0.12,1.35,-0.35,-0.76,0.55,0.20,0.03,-0.37,0.32,1009.37
8.732,-0.12,1.35,-0.35,-0.76,0.55,0.20,-0.57,-0.76,0.67,1009.37
8.749,-0.51,1.60,-0.02,-0.76,0.55,0.20,-0.57,-0.76,0.67,1009.37
8.75,-0.51,1.60,-0.02,-1.02,1.03,-0.41,-0.57,-0.76,0.67,1009.37
8.79,-0.51,1.60,-0.02,-1.02,1.03,-0.41,-0.57,-0.76,0.67,1009.21
8.792,-0.74,1.79,-0.07,-1.02,1.03,-0.41,-0.57,-0.76,0.67,1009.21
8.792,-0.81,1.71,0.15,-1.02,1.03,-0.41,-0.57,-0.76,0.67,1009.21
8.806,-0.81,1.71,0.15,-1.02,1.03,-0.41,-2.01,-1.59,2.81,1009.21
8.821,-0.81,1.71,0.15,-3.77,4.06,-2.83,-2.01,-1.59,2.81,1009.21
8.822,-0.59,1.49,0.24,-3.77,4.06,-2.83,-2.01,-1.59,2.81,1009.21
8.863,-0.09,1.35,0.36,-3.77,4.06,-2.83,-2.01,-1.59,2.81,1009.21
8.865,0.41,0.86,0.44,-3.77,4.06,-2.83,-2.01,-1.59,2.81,1009.21
8.869,0.41,0.86,0.44,-3.77,4.06,-2.83,-2.21,-3.11,3.64,1009.21
8.87,0.39,0.37,0.19,-3.77,4.06,-2.83,-2.21,-3.11,3.64,1009.21
8.87,0.39,0.37,0.19,-3.77,4.06,-2.83,-2.21,-3.11,3.64,1008.62
8.889,0.39,0.37,0.19,-11.17,8.04,-0.63,-2.21,-3.11,3.64,1008.62
8.891,0.17,0.57,0.07,-11.17,8.04,-0.63,-2.21,-3.11,3.64,1008.62
8.91,-0.53,0.45,-0.41,-11.17,8.04,-0.63,-2.21,-3.11,3.64,1008.62
8.915,-0.53,0.45,-0.41,-11.17,8.04,-0.63,-2.21,-3.11,3.64,1008.87
8.93,-0.11,0.50,-0.56,-11.17,8.04,-0.63,-2.21,-3.11,3.64,1008.87
8.939,-0.11,0.50,-0.56,-11.17,8.04,-0.63,-0.99,-2.78,-0.87,1008.87
8.96,-0.11,0.50,-0.56,-3.27,-0.41,1.39,-0.99,-2.78,-0.87,1008.87
8.961,0.04,0.48,-0.55,-3.27,-0.41,1.39,-0.99,-2.78,-0.87,1008.87
8.99,0.04,0.48,-0.55,-3.27,-0.41,1.39,-0.99,-2.78,-0.87,1009.06
8.991,0.10,0.54,-0.50,-3.27,-0.41,1.39,-0.99,-2.78,-0.87,1009.06
8.992,0.14,0.70,-0.50,-3.27,-0.41,1.39,-0.99,-2.78,-0.87,1009.06
9.01,0.14,0.70,-0.50,-3.27,-0.41,1.39,-0.87,-1.03,-2.83,1009.06
9.03,0.14,0.70,-0.50,-6.78,-2.98,-6.00,-0.87,-1.03,-2.83,1009.06
9.031,0.01,0.81,-0.48,-6.78,-2.98,-6.00,-0.87,-1.03,-2.83,1009.06
9.032,-0.01,0.93,-0.54,-6.78,-2.98,-6.00,-0.87,-1.03,-2.83,1009.06
9.063,0.06,1.04,-0.56,-6.78,-2.98,-6.00,-0.87,-1.03,-2.83,1009.06
9.07,0.10,1.14,-0.52,-6.78,-2.98,-6.00,-0.87,-1.03,-2.83,1009.06
9.071,0.10,1.14,-0.52,-6.78,-2.98,-6.00,-0.87,-1.03,-2.83,1009.18
9.079,0.10,1.14,-0.52,-6.78,-2.98,-6.00,0.11,-1.78,-3.65,1009.18
9.106,0.10,1.20,-0.45,-6.78,-2.98,-6.00,0.11,-1.78,-3.65,1009.18
9.107,0.10,1.20,-0.45,-2.66,-1.04,-5.73,0.11,-1.78,-3.65,1009.18
9.11,0.10,1.20,-0.45,-2.66,-1.04,-5.73,0.11,-1.78,-3.65,1009.21
9.11,-0.06,1.27,-0.45,-2.66,-1.04,-5.73,0.11,-1.78,-3.65,1009.21
9.13,-0.07,1.41,-0.46,-2.66,-1.04,-5.73,0.11,-1.78,-3.65,1009.21
9.15,-0.07,1.41,-0.46,-2.66,-1.04,-5.73,0.32,-2.18,-2.84,1009.21
9.171,0.01,1.53,-0.43,-2.66,-1.04,-5.73,0.32,-2.18,-2.84,1009.21
9.172,0.18,1.60,-0.47,-2.66,-1.04,-5.73,0.32,-2.18,-2.84,1009.21
9.173,0.18,1.60,-0.47,-0.38,1.90,-5.08,0.32,-2.18,-2.84,1009.21
9.19,0.56,1.56,-0.42,-0.38,1.90,-5.08,0.32,-2.18,-2.84,1009.21
9.191,0.56,1.56,-0.42,-0.38,1.90,-5.08,0.32,-2.18,-2.84,1009.16
9.225,0.56,1.56,-0.42,-0.38,1.90,-5.08,-0.66,-2.68,-1.37,1009.16
9.229,1.14,1.39,-0.41,-0.38,1.90,-5.08,-0.66,-2.68,-1.37,1009.16
9.24,1.14,1.39,-0.41,0.41,5.13,-4.56,-0.66,-2.68,-1.37,1009.16
9.242,1.84,1.00,-0.13,0.41,5.13,-4.56,-0.66,-2.68,-1.37,1009.16
9.263,1.88,0.34,0.46,0.41,5.13,-4.56,-0.66,-2.68,-1.37,1009.16
9.27,1.12,0.60,-0.08,0.41,5.13,-4.56,-0.66,-2.68,-1.37,1009.16
9.271,1.12,0.60,-0.08,0.41,5.13,-4.56,-0.66,-2.68,-1.37,1009.17
9.289,1.12,0.60,-0.08,0.41,5.13,-4.56,0.20,-2.42,-0.49,1009.17
9.309,1.12,0.60,-0.08,13.60,2.30,-2.48,0.20,-2.42,-0.49,1009.17
9.31,0.51,0.71,-0.20,13.60,2.30,-2.48,0.20,-2.42,-0.49,1009.17
9.311,0.99,0.56,0.13,13.60,2.30,-2.48,0.20,-2.42,-0.49,1009.17
9.311,0.99,0.56,0.13,13.60,2.30,-2.48,0.20,-2.42,-0.49,1009.49
9.331,1.43,1.00,1.51,13.60,2.30,-2.48,0.20,-2.42,-0.49,1009.49
9.36,1.43,1.00,1.51,13.60,2.30,-2.48,0.28,-0.61,1.48,1009.49
9.36,1.59,1.64,0.40,13.60,2.30,-2.48,0.28,-0.61,1.48,1009.49
9.38,1.59,1.64,0.40,9.45,-3.79,-0.39,0.28,-0.61,1.48,1009.49
9.381,-0.91,1.29,-2.10,9.45,-3.79,-0.39,0.28,-0.61,1.48,1009.49
9.39,0.70,1.23,-0.22,9.45,-3.79,-0.39,0.28,-0.61,1.48,1009.49
9.391,0.70,1.23,-0.22,9.45,-3.79,-0.39,0.28,-0.61,1.48,1009.68
9.429,0.70,1.23,-0.22,9.45,-3.79,-0.39,-0.29,0.29,0.35,1009.68
9.43,-0.18,0.90,0.67,9.45,-3.79,-0.39,-0.29,0.29,0.35,1009.68
9.438,0.34,0.97,-0.23,9.45,-3.79,-0.39,-0.29,0.29,0.35,1009.68
9.45,0.03,0.96,0.23,9.45,-3.79,-0.39,-0.29,0.29,0.35,1009.68
9.45,0.03,0.96,0.23,6.32,3.63,-1.60,-0.29,0.29,0.35,1009.68
9.471,0.06,1.02,0.15,6.32,3.63,-1.60,-0.29,0.29,0.35,1009.68
9.471,0.06,1.02,0.15,6.32,3.63,-1.60,-0.29,0.29,0.35,1009.47
9.5,0.06,1.02,0.15,6.32,3.63,-1.60,-0.06,0.12,0.10,1009.47
9.501,0.11,1.01,0.08,6.32,3.63,-1.60,-0.06,0.12,0.10,1009.47
9.514,0.11,1.00,0.08,6.32,3.63,-1.60,-0.06,0.12,0.10,1009.47
9.515,0.11,1.00,0.08,6.32,3.63,-1.60,-0.06,0.12,0.10,1009.53
9.523,0.11,1.00,0.08,0.48,-0.07,1.39,-0.06,0.12,0.10,1009.53
9.53,0.09,1.03,0.03,0.48,-0.07,1.39,-0.06,0.12,0.10,1009.53
9.57,0.09,1.03,0.03,0.48,-0.07,1.39,-0.01,0.04,0.05,1009.53
9.572,0.08,1.02,0.01,0.48,-0.07,1.39,-0.01,0.04,0.05,1009.53
9.591,0.08,0.99,0.10,0.48,-0.07,1.39,-0.01,0.04,0.05,1009.53
9.593,0.08,0.97,0.12,0.48,-0.07,1.39,-0.01,0.04,0.05,1009.53
9.594,0.08,0.97,0.12,0.02,0.51,0.41,-0.01,0.04,0.05,1009.53
9.595,0.08,0.97,0.12,0.02,0.51,0.41,-0.01,0.04,0.05,1009.41
9.639,0.08,0.97,0.12,0.02,0.51,0.41,-0.01,0.04,0.05,1009.41
9.64,0.08,0.98,0.09,0.02,0.51,0.41,-0.01,0.04,0.05,1009.41
9.641,0.08,0.98,0.09,0.02,0.51,0.41,0.04,-0.01,0.04,1009.41
9.66,0.08,0.98,0.09,-0.13,0.40,0.13,0.04,-0.01,0.04,1009.41
9.661,0.09,0.99,0.05,-0.13,0.40,0.13,0.04,-0.01,0.04,1009.41
9.67,0.09,0.99,0.06,-0.13,0.40,0.13,0.04,-0.01,0.04,1009.41
9.671,0.09,0.99,0.06,-0.13,0.40,0.13,0.04,-0.01,0.04,1009.37
9.71,0.08,0.98,0.07,-0.13,0.40,0.13,0.04,-0.01,0.04,1009.37
9.711,0.08,0.98,0.07,-0.13,0.40,0.13,0.03,-0.03,0.04,1009.37
9.712,0.08,0.97,0.09,-0.13,0.40,0.13,0.03,-0.03,0.04,1009.37
9.713,0.08,0.97,0.09,-0.13,0.40,0.13,0.03,-0.03,0.04,1009.40
9.73,0.08,0.97,0.09,-0.10,0.19,0.29,0.03,-0.03,0.04,1009.40
9.731,0.06,0.96,0.10,-0.10,0.19,0.29,0.03,-0.03,0.04,1009.40
9.78,0.06,0.96,0.10,-0.10,0.19,0.29,0.09,-0.03,0.12,1009.40
9.781,0.04,0.97,0.10,-0.10,0.19,0.29,0.09,-0.03,0.12,1009.40
9.782,0.08,0.99,0.09,-0.10,0.19,0.29,0.09,-0.03,0.12,1009.40
9.79,0.09,0.99,0.05,-0.10,0.19,0.29,0.09,-0.03,0.12,1009.40
9.791,0.09,0.99,0.05,-0.10,0.19,0.29,0.09,-0.03,0.12,1009.38
9.8,0.09,0.99,0.05,-0.23,0.14,0.31,0.09,-0.03,0.12,1009.38
9.838,0.12,0.99,0.02,-0.23,0.14,0.31,0.09,-0.03,0.12,1009.38
9.84,0.07,0.99,0.07,-0.23,0.14,0.31,0.09,-0.03,0.12,1009.38
9.849,0.07,0.99,0.07,-0.23,0.14,0.31,0.08,-0.03,0.19,1009.38
9.863,0.01,0.99,0.11,-0.23,0.14,0.31,0.08,-0.03,0.19,1009.38
9.871,0.08,1.01,0.08,-0.23,0.14,0.31,0.08,-0.03,0.19,1009.38
9.872,0.08,1.01,0.08,-0.23,0.14,0.31,0.08,-0.03,0.19,1009.36
9.872,0.08,1.01,0.08,-0.35,0.23,0.28,0.08,-0.03,0.19,1009.36
9.911,0.08,1.01,0.08,-0.35,0.23,0.28,0.08,-0.03,0.19,1009.29
9.912,0.04,1.02,0.03,-0.35,0.23,0.28,0.08,-0.03,0.19,1009.29
9.912,0.08,1.03,0.02,-0.35,0.23,0.28,0.08,-0.03,0.19,1009.29
9.924,0.08,1.03,0.02,-0.35,0.23,0.28,0.15,-0.24,0.40,1009.29
9.93,0.05,1.06,0.02,-0.35,0.23,0.28,0.15,-0.24,0.40,1009.29
9.939,0.05,1.06,0.02,-0.60,0.36,0.42,0.15,-0.24,0.40,1009.29
9.99,0.05,1.06,0.02,-0.60,0.36,0.42,-0.07,-0.40,1.11,1009.29
9.992,-0.11,1.13,0.03,-0.60,0.36,0.42,-0.07,-0.40,1.11,1009.29
9.992,-0.13,1.18,0.03,-0.60,0.36,0.42,-0.07,-0.40,1.11,1009.29
9.993,-0.13,1.18,0.03,-0.60,0.36,0.42,-0.07,-0.40,1.11,1009.44
9.993,-0.08,1.28,-0.07,-0.60,0.36,0.42,-0.07,-0.40,1.11,1009.44
10.01,-0.20,1.41,-0.11,-0.60,0.36,0.42,-0.07,-0.40,1.11,1009.44
10.01,-0.20,1.41,-0.11,-1.25,0.93,0.02,-0.07,-0.40,1.11,1009.44
10.038,-0.31,1.58,-0.20,-1.25,0.93,0.02,-0.07,-0.40,1.11,1009.44
10.06,-0.31,1.58,-0.20,-1.25,0.93,0.02,-0.79,-0.58,3.00,1009.44
10.061,-0.56,1.63,-0.18,-1.25,0.93,0.02,-0.79,-0.58,3.00,1009.44
10.072,-0.76,1.58,-0.16,-1.25,0.93,0.02,-0.79,-0.58,3.00,1009.44
10.073,-0.76,1.58,-0.16,-1.25,0.93,0.02,-0.79,-0.58,3.00,1009.61
10.08,-0.76,1.58,-0.16,-4.06,3.32,-0.72,-0.79,-0.58,3.00,1009.61
10.11,-0.76,1.58,-0.16,-4.06,3.32,-0.72,-0.79,-0.58,3.00,1008.66
10.112,-0.68,1.53,-0.05,-4.06,3.32,-0.72,-0.79,-0.58,3.00,1008.66
10.112,0.22,1.40,0.56,-4.06,3.32,-0.72,-0.79,-0.58,3.00,1008.66
10.13,0.22,1.40,0.56,-4.06,3.32,-0.72,-1.50,-1.67,5.71,1008.66
10.131,0.42,1.35,0.77,-4.06,3.32,-0.72,-1.50,-1.67,5.71,1008.66
10.15,0.42,1.35,0.77,-10.82,7.61,-2.54,-1.50,-1.67,5.71,1008.66
10.152,0.29,0.95,0.27,-10.82,7.61,-2.54,-1.50,-1.67,5.71,1008.66
10.19,0.29,0.95,0.27,-10.82,7.61,-2.54,-1.50,-1.67,5.71,1008.47
10.192,0.95,0.65,0.24,-10.82,7.61,-2.54,-1.50,-1.67,5.71,1008.47
10.192,-0.18,0.57,0.35,-10.82,7.61,-2.54,-1.50,-1.67,5.71,1008.47
10.199,-0.18,0.57,0.35,-10.82,7.61,-2.54,-0.95,-1.78,1.27,1008.47
10.227,-0.98,0.57,-0.18,-10.82,7.61,-2.54,-0.95,-1.78,1.27,1008.47
10.228,-0.98,0.57,-0.18,-5.84,6.80,3.97,-0.95,-1.78,1.27,1008.47
10.266,-0.41,0.54,-0.26,-5.84,6.80,3.97,-0.95,-1.78,1.27,1008.47
10.267,-0.09,0.52,-0.11,-5.84,6.80,3.97,-0.95,-1.78,1.27,1008.47
10.271,-0.09,0.52,-0.11,-5.84,6.80,3.97,-1.35,-0.72,-2.45,1008.47
10.272,0.10,0.65,-0.19,-5.84,6.80,3.97,-1.35,-0.72,-2.45,1008.47
10.272,0.10,0.65,-0.19,-5.84,6.80,3.97,-1.35,-0.72,-2.45,1008.95
10.29,-0.01,0.72,-0.28,-5.84,6.80,3.97,-1.35,-0.72,-2.45,1008.95
10.291,-0.01,0.72,-0.28,-8.28,-0.47,0.43,-1.35,-0.72,-2.45,1008.95
10.311,-0.02,0.88,-0.47,-8.28,-0.47,0.43,-1.35,-0.72,-2.45,1008.95
10.312,-0.02,0.88,-0.47,-8.28,-0.47,0.43,-1.35,-0.72,-2.45,1009.13
10.333,0.11,1.04,-0.59,-8.28,-0.47,0.43,-1.35,-0.72,-2.45,1009.13
10.342,0.11,1.04,-0.59,-8.28,-0.47,0.43,-0.75,-0.63,-4.82,1009.13
10.363,0.11,1.04,-0.59,-5.58,-1.74,-2.53,-0.75,-0.63,-4.82,1009.13
10.364,0.15,1.16,-0.58,-5.58,-1.74,-2.53,-0.75,-0.63,-4.82,1009.13
10.391,0.15,1.16,-0.58,-5.58,-1.74,-2.53,-0.75,-0.63,-4.82,1009.18
10.393,0.19,1.30,-0.59,-5.58,-1.74,-2.53,-0.75,-0.63,-4.82,1009.18
10.394,0.27,1.45,-0.55,-5.58,-1.74,-2.53,-0.75,-0.63,-4.82,1009.18
10.41,0.27,1.45,-0.55,-5.58,-1.74,-2.53,0.11,-0.51,-4.99,1009.18
10.433,0.32,1.54,-0.45,-5.58,-1.74,-2.53,0.11,-0.51,-4.99,1009.18
10.434,0.27,1.66,-0.55,-5.58,-1.74,-2.53,0.11,-0.51,-4.99,1009.18
10.435,0.27,1.66,-0.55,-1.23,1.31,-5.96,0.11,-0.51,-4.99,1009.18
10.463,0.37,1.80,-0.66,-1.23,1.31,-5.96,0.11,-0.51,-4.99,1009.18
10.472,1.15,1.73,-0.48,-1.23,1.31,-5.96,0.11,-0.51,-4.99,1009.18
10.473,1.15,1.73,-0.48,-1.23,1.31,-5.96,0.11,-0.51,-4.99,1009.28
10.48,1.15,1.73,-0.48,-1.23,1.31,-5.96,0.41,-1.42,-4.03,1009.28
10.491,1.88,1.29,-0.00,-1.23,1.31,-5.96,0.41,-1.42,-4.03,1009.28
10.5,1.88,1.29,-0.00,3.59,5.52,-5.37,0.41,-1.42,-4.03,1009.28
10.51,1.84,0.87,0.26,3.59,5.52,-5.37,0.41,-1.42,-4.03,1009.28
10.511,1.84,0.87,0.26,3.59,5.52,-5.37,0.41,-1.42,-4.03,1009.34
10.53,1.73,0.92,-0.02,3.59,5.52,-5.37,0.41,-1.42,-4.03,1009.34
10.55,1.73,0.92,-0.02,3.59,5.52,-5.37,0.62,-1.81,-1.23,1009.34
10.57,1.73,0.92,-0.02,14.99,5.72,-2.79,0.62,-1.81,-1.23,1009.34
10.571,1.52,0.83,-0.05,14.99,5.72,-2.79,0.62,-1.81,-1.23,1009.34
10.572,0.43,1.01,0.43,14.99,5.72,-2.79,0.62,-1.81,-1.23,1009.34
10.59,-0.41,0.97,-0.56,14.99,5.72,-2.79,0.62,-1.81,-1.23,1009.34
10.592,-0.41,0.97,-0.56,14.99,5.72,-2.79,0.62,-1.81,-1.23,1009.51
10.628,-0.41,0.97,-0.56,14.99,5.72,-2.79,-0.59,0.06,3.70,1009.51
10.63,-0.61,0.98,-0.54,14.99,5.72,-2.79,-0.59,0.06,3.70,1009.51
10.644,-0.61,0.98,-0.54,14.39,-0.37,1.11,-0.59,0.06,3.70,1009.51
10.645,1.22,1.14,0.00,14.39,-0.37,1.11,-0.59,0.06,3.70,1009.51
10.663,2.28,1.17,1.97,14.39,-0.37,1.11,-0.59,0.06,3.70,1009.51
10.671,-0.44,1.16,-1.23,14.39,-0.37,1.11,-0.59,0.06,3.70,1009.51
10.672,-0.44,1.16,-1.23,14.39,-0.37,1.11,-0.59,0.06,3.70,1009.55
10.69,-0.44,1.16,-1.23,14.39,-0.37,1.11,0.01,0.44,1.13,1009.55
10.711,-0.44,1.16,-1.23,14.39,-0.37,1.11,0.01,0.44,1.13,1009.55
10.712,-0.44,1.16,-1.23,3.47,0.67,0.00,0.01,0.44,1.13,1009.55
10.713,0.70,1.13,0.18,3.47,0.67,0.00,0.01,0.44,1.13,1009.55
10.714,0.10,0.98,0.07,3.47,0.67,0.00,0.01,0.44,1.13,1009.55
10.76,0.12,1.05,-0.06,3.47,0.67,0.00,0.01,0.44,1.13,1009.55
10.761,0.06,1.02,0.07,3.47,0.67,0.00,0.01,0.44,1.13,1009.55
10.762,0.06,1.02,0.07,3.47,0.67,0.00,-0.05,0.10,0.16,1009.55
10.78,0.06,1.02,0.07,3.20,1.68,-1.31,-0.05,0.10,0.16,1009.55
10.781,0.08,0.98,0.13,3.20,1.68,-1.31,-0.05,0.10,0.16,1009.55
10.791,0.12,1.01,0.08,3.20,1.68,-1.31,-0.05,0.10,0.16,1009.55
10.792,0.12,1.01,0.08,3.20,1.68,-1.31,-0.05,0.10,0.16,1009.39
10.831,0.12,1.01,0.08,3.20,1.68,-1.31,-0.03,-0.01,0.08,1009.39
10.832,0.11,1.00,0.08,3.20,1.68,-1.31,-0.03,-0.01,0.08,1009.39
10.847,0.09,0.98,0.09,3.20,1.68,-1.31,-0.03,-0.01,0.08,1009.39
10.85,0.08,0.97,0.11,3.20,1.68,-1.31,-0.03,-0.01,0.08,1009.39
10.85,0.08,0.97,0.11,0.07,0.58,-0.01,-0.03,-0.01,0.08,1009.39
10.87,0.06,0.97,0.11,0.07,0.58,-0.01,-0.03,-0.01,0.08,1009.39
10.871,0.06,0.97,0.11,0.07,0.58,-0.01,-0.03,-0.01,0.08,1009.28
10.9,0.06,0.97,0.11,0.07,0.58,-0.01,0.05,-0.06,0.07,1009.28
10.901,0.08,0.97,0.10,0.07,0.58,-0.01,0.05,-0.06,0.07,1009.28
10.914,0.11,0.98,0.06,0.07,0.58,-0.01,0.05,-0.06,0.07,1009.28
10.916,0.11,0.98,0.06,0.07,0.58,-0.01,0.05,-0.06,0.07,1009.31
10.92,0.11,0.98,0.06,0.01,0.29,0.33,0.05,-0.06,0.07,1009.31
10.97,0.11,0.98,0.06,0.01,0.29,0.33,0.07,-0.09,0.09,1009.31
10.973,0.08,0.97,0.09,0.01,0.29,0.33,0.07,-0.09,0.09,1009.31
10.973,0.09,0.97,0.08,0.01,0.29,0.33,0.07,-0.09,0.09,1009.31
10.99,0.06,0.97,0.09,0.01,0.29,0.33,0.07,-0.09,0.09,1009.31
10.992,0.07,0.97,0.08,0.01,0.29,0.33,0.07,-0.09,0.09,1009.31
10.993,0.07,0.97,0.08,-0.14,0.14,0.40,0.07,-0.09,0.09,1009.31
10.993,0.07,0.97,0.08,-0.14,0.14,0.40,0.07,-0.09,0.09,1009.35
11.039,0.08,0.97,0.09,-0.14,0.14,0.40,0.07,-0.09,0.09,1009.35
11.04,0.04,0.98,0.08,-0.14,0.14,0.40,0.07,-0.09,0.09,1009.35
11.041,0.04,0.98,0.08,-0.14,0.14,0.40,0.12,-0.07,0.22,1009.35
11.06,0.04,0.98,0.08,-0.31,0.14,0.37,0.12,-0.07,0.22,1009.35
11.062,0.08,1.00,0.05,-0.31,0.14,0.37,0.12,-0.07,0.22,1009.35
11.07,0.08,1.02,0.05,-0.31,0.14,0.37,0.12,-0.07,0.22,1009.35
11.071,0.08,1.02,0.05,-0.31,0.14,0.37,0.12,-0.07,0.22,1009.37
11.113,0.08,1.02,0.05,-0.31,0.14,0.37,0.16,-0.28,0.40,1009.37
11.117,0.08,1.02,0.05,-0.31,0.14,0.37,0.16,-0.28,0.40,1009.30
11.117,0.05,1.02,0.08,-0.31,0.14,0.37,0.16,-0.28,0.40,1009.30
11.118,0.05,1.04,0.04,-0.31,0.14,0.37,0.16,-0.28,0.40,1009.30
11.134,0.05,1.04,0.04,-0.55,0.33,0.36,0.16,-0.28,0.40,1009.30
11.135,0.05,1.09,-0.02,-0.55,0.33,0.36,0.16,-0.28,0.40,1009.30
11.181,0.05,1.09,-0.02,-0.55,0.33,0.36,-0.10,-0.35,1.04,1009.30
11.183,-0.10,1.18,-0.06,-0.55,0.33,0.36,-0.10,-0.35,1.04,1009.30
11.184,-0.11,1.21,-0.01,-0.55,0.33,0.36,-0.10,-0.35,1.04,1009.30
11.19,-0.11,1.21,-0.01,-0.55,0.33,0.36,-0.10,-0.35,1.04,1009.44
11.191,-0.11,1.31,-0.09,-0.55,0.33,0.36,-0.10,-0.35,1.04,1009.44
11.2,-0.11,1.31,-0.09,-1.03,0.93,0.12,-0.10,-0.35,1.04,1009.44
11.212,-0.20,1.41,-0.10,-1.03,0.93,0.12,-0.10,-0.35,1.04,1009.44
11.238,-0.32,1.57,-0.19,-1.03,0.93,0.12,-0.10,-0.35,1.04,1009.44
11.25,-0.32,1.57,-0.19,-1.03,0.93,0.12,-0.73,-0.34,2.86,1009.44
11.263,-0.59,1.63,-0.16,-1.03,0.93,0.12,-0.73,-0.34,2.86,1009.44
11.27,-0.81,1.61,-0.16,-1.03,0.93,0.12,-0.73,-0.34,2.86,1009.44
11.271,-0.81,1.61,-0.16,-1.03,0.93,0.12,-0.73,-0.34,2.86,1009.56
11.271,-0.81,1.61,-0.16,-3.73,3.14,-0.94,-0.73,-0.34,2.86,1009.56
11.311,-0.81,1.61,-0.16,-3.73,3.14,-0.94,-0.73,-0.34,2.86,1008.66
11.313,-0.45,1.57,0.19,-3.73,3.14,-0.94,-0.73,-0.34,2.86,1008.66
11.313,0.30,1.46,0.67,-3.73,3.14,-0.94,-0.73,-0.34,2.86,1008.66
11.32,0.30,1.46,0.67,-3.73,3.14,-0.94,-1.32,-1.14,5.74,1008.66
11.34,0.30,1.46,0.67,-10.12,7.44,-2.45,-1.32,-1.14,5.74,1008.66
11.342,0.07,1.31,0.64,-10.12,7.44,-2.45,-1.32,-1.14,5.74,1008.66
11.391,0.00,0.85,0.18,-10.12,7.44,-2.45,-1.32,-1.14,5.74,1008.66
11.393,1.59,0.66,0.35,-10.12,7.44,-2.45,-1.32,-1.14,5.74,1008.66
11.393,1.59,0.66,0.35,-10.12,7.44,-2.45,-0.52,-1.53,2.42,1008.66
11.394,-0.04,0.52,0.44,-10.12,7.44,-2.45,-0.52,-1.53,2.42,1008.66
11.394,-0.04,0.52,0.44,-10.12,7.44,-2.45,-0.52,-1.53,2.42,1008.48
11.41,-0.04,0.52,0.44,-8.04,8.38,3.82,-0.52,-1.53,2.42,1008.48
11.412,-1.05,0.55,-0.07,-8.04,8.38,3.82,-0.52,-1.53,2.42,1008.48
11.439,-0.36,0.54,-0.13,-8.04,8.38,3.82,-0.52,-1.53,2.42,1008.48
11.46,-0.36,0.54,-0.13,-8.04,8.38,3.82,-0.54,-0.32,-2.37,1008.48
11.462,-0.05,0.47,0.09,-8.04,8.38,3.82,-0.54,-0.32,-2.37,1008.48
11.47,-0.01,0.55,0.01,-8.04,8.38,3.82,-0.54,-0.32,-2.37,1008.48
11.47,-0.01,0.55,0.01,-8.04,8.38,3.82,-0.54,-0.32,-2.37,1008.99
11.48,-0.01,0.55,0.01,-5.85,-0.30,1.89,-0.54,-0.32,-2.37,1008.99
11.514,-0.01,0.55,0.01,-5.85,-0.30,1.89,-0.54,-0.32,-2.37,1009.16
11.515,-0.09,0.69,-0.12,-5.85,-0.30,1.89,-0.54,-0.32,-2.37,1009.16
11.516,-0.07,0.82,-0.15,-5.85,-0.30,1.89,-0.54,-0.32,-2.37,1009.16
11.535,-0.07,0.82,-0.15,-5.85,-0.30,1.89,-0.28,-0.46,-4.62,1009.16
11.551,-0.07,0.82,-0.15,-6.89,-2.07,-0.72,-0.28,-0.46,-4.62,1009.16
11.551,0.07,0.98,-0.21,-6.89,-2.07,-0.72,-0.28,-0.46,-4.62,1009.16
11.552,0.23,1.16,-0.31,-6.89,-2.07,-0.72,-0.28,-0.46,-4.62,1009.16
11.592,0.34,1.26,-0.31,-6.89,-2.07,-0.72,-0.28,-0.46,-4.62,1009.16
11.594,0.34,1.26,-0.31,-6.89,-2.07,-0.72,-0.28,-0.46,-4.62,1009.20
11.597,0.27,1.36,-0.27,-6.89,-2.07,-0.72,-0.28,-0.46,-4.62,1009.20
11.601,0.27,1.36,-0.27,-6.89,-2.07,-0.72,0.03,-0.01,-5.21,1009.20
11.621,0.24,1.54,-0.30,-6.89,-2.07,-0.72,0.03,-0.01,-5.21,1009.20
11.622,0.24,1.54,-0.30,-2.24,0.43,-2.43,0.03,-0.01,-5.21,1009.20
11.638,0.27,1.69,-0.34,-2.24,0.43,-2.43,0.03,-0.01,-5.21,1009.20
11.663,0.47,1.79,-0.34,-2.24,0.43,-2.43,0.03,-0.01,-5.21,1009.20
11.67,0.47,1.79,-0.34,-2.24,0.43,-2.43,0.33,0.17,-4.34,1009.20
11.671,0.47,1.79,-0.34,-2.24,0.43,-2.43,0.33,0.17,-4.34,1009.21
11.691,1.11,1.72,-0.16,-2.24,0.43,-2.43,0.33,0.17,-4.34,1009.21
11.693,2.09,1.32,0.20,-2.24,0.43,-2.43,0.33,0.17,-4.34,1009.21
11.694,2.09,1.32,0.20,3.17,4.61,-3.14,0.33,0.17,-4.34,1009.21
11.71,2.09,1.32,0.20,3.17,4.61,-3.14,0.33,0.17,-4.34,1009.30
11.731,2.47,0.91,0.18,3.17,4.61,-3.14,0.33,0.17,-4.34,1009.30
11.75,2.47,0.91,0.18,3.17,4.61,-3.14,0.42,-0.06,-1.29,1009.30
11.751,1.17,1.04,0.05,3.17,4.61,-3.14,0.42,-0.06,-1.29,1009.30
11.761,1.53,0.52,-0.31,3.17,4.61,-3.14,0.42,-0.06,-1.29,1009.30
11.763,1.53,0.52,-0.31,13.24,6.87,-1.18,0.42,-0.06,-1.29,1009.30
11.791,0.18,1.09,-0.26,13.24,6.87,-1.18,0.42,-0.06,-1.29,1009.30
11.792,0.18,1.09,-0.26,13.24,6.87,-1.18,0.42,-0.06,-1.29,1009.49
11.796,0.58,1.23,-0.10,13.24,6.87,-1.18,0.42,-0.06,-1.29,1009.49
11.81,0.58,1.23,-0.10,13.24,6.87,-1.18,-1.11,0.33,3.89,1009.49
11.831,0.58,1.23,-0.10,16.50,-1.16,-0.93,-1.11,0.33,3.89,1009.49
11.833,1.60,1.05,0.81,16.50,-1.16,-0.93,-1.11,0.33,3.89,1009.49
11.833,1.29,1.43,0.54,16.50,-1.16,-0.93,-1.11,0.33,3.89,1009.49
11.864,-0.19,1.03,-0.40,16.50,-1.16,-0.93,-1.11,0.33,3.89,1009.49
11.871,-0.19,1.03,-0.40,16.50,-1.16,-0.93,-1.11,0.33,3.89,1009.79
11.881,-0.19,1.03,-0.40,16.50,-1.16,-0.93,0.03,0.39,0.62,1009.79
11.882,0.15,1.01,-0.02,16.50,-1.16,-0.93,0.03,0.39,0.62,1009.79
11.902,0.15,1.01,-0.02,8.56,2.79,3.07,0.03,0.39,0.62,1009.79
11.902,0.34,1.06,0.09,8.56,2.79,3.07,0.03,0.39,0.62,1009.79
11.914,0.34,1.06,0.09,8.56,2.79,3.07,0.03,0.39,0.62,1009.55
11.931,0.14,1.04,0.00,8.56,2.79,3.07,0.03,0.39,0.62,1009.55
11.951,0.14,1.04,0.00,8.56,2.79,3.07,-0.19,0.05,0.26,1009.55
11.952,0.10,1.02,0.07,8.56,2.79,3.07,-0.19,0.05,0.26,1009.55
11.971,0.10,1.02,0.07,-0.06,0.71,-1.57,-0.19,0.05,0.26,1009.55
11.972,0.14,0.99,0.14,-0.06,0.71,-1.57,-0.19,0.05,0.26,1009.55
11.972,0.15,0.98,0.11,-0.06,0.71,-1.57,-0.19,0.05,0.26,1009.55
11.99,0.15,0.98,0.11,-0.06,0.71,-1.57,-0.19,0.05,0.26,1009.29
11.996,0.12,0.98,0.13,-0.06,0.71,-1.57,-0.19,0.05,0.26,1009.29
12.02,0.12,0.98,0.13,-0.06,0.71,-1.57,-0.07,-0.02,0.11,1009.29
12.021,0.12,0.97,0.12,-0.06,0.71,-1.57,-0.07,-0.02,0.11,1009.29
12.039,0.11,0.97,0.12,-0.06,0.71,-1.57,-0.07,-0.02,0.11,1009.29
12.041,0.11,0.97,0.12,0.38,0.50,0.40,-0.07,-0.02,0.11,1009.29
12.063,0.12,0.97,0.11,0.38,0.50,0.40,-0.07,-0.02,0.11,1009.29
12.07,0.12,0.97,0.11,0.38,0.50,0.40,-0.07,-0.02,0.11,1009.13
12.091,0.12,0.97,0.11,0.38,0.50,0.40,0.04,-0.05,0.05,1009.13
12.092,0.13,0.96,0.10,0.38,0.50,0.40,0.04,-0.05,0.05,1009.13
12.11,0.12,0.96,0.10,0.38,0.50,0.40,0.04,-0.05,0.05,1009.13
12.111,0.12,0.96,0.10,0.38,0.50,0.40,0.04,-0.05,0.05,1009.20
12.112,0.08,0.96,0.10,0.38,0.50,0.40,0.04,-0.05,0.05,1009.20
12.112,0.08,0.96,0.10,0.06,0.14,0.57,0.04,-0.05,0.05,1009.20
12.161,0.08,0.96,0.10,0.06,0.14,0.57,0.04,-0.12,0.07,1009.20
12.162,0.10,0.97,0.08,0.06,0.14,0.57,0.04,-0.12,0.07,1009.20
12.163,0.10,0.97,0.06,0.06,0.14,0.57,0.04,-0.12,0.07,1009.20
12.181,0.09,0.97,0.10,0.06,0.14,0.57,0.04,-0.12,0.07,1009.20
12.182,0.09,0.97,0.10,-0.03,0.08,0.37,0.04,-0.12,0.07,1009.20
12.19,0.09,0.97,0.10,-0.03,0.08,0.37,0.04,-0.12,0.07,1009.24
12.197,0.07,0.98,0.11,-0.03,0.08,0.37,0.04,-0.12,0.07,1009.24
12.232,0.07,0.98,0.11,-0.03,0.08,0.37,0.04,-0.18,0.18,1009.24
12.234,0.11,1.00,0.07,-0.03,0.08,0.37,0.04,-0.18,0.18,1009.24
12.239,0.08,1.01,0.06,-0.03,0.08,0.37,0.04,-0.18,0.18,1009.24
12.253,0.04,1.05,0.09,-0.03,0.08,0.37,0.04,-0.18,0.18,1009.24
12.254,0.04,1.05,0.09,-0.28,0.18,0.25,0.04,-0.18,0.18,1009.24
12.27,0.04,1.05,0.09,-0.28,0.18,0.25,0.04,-0.18,0.18,1009.36
12.301,0.04,1.05,0.09,-0.28,0.18,0.25,-0.07,-0.35,0.58,1009.36
12.303,-0.05,1.09,0.02,-0.28,0.18,0.25,-0.07,-0.35,0.58,1009.36
12.303,-0.04,1.13,-0.01,-0.28,0.18,0.25,-0.07,-0.35,0.58,1009.36
12.316,-0.04,1.13,-0.01,-0.28,0.18,0.25,-0.07,-0.35,0.58,1009.59
12.321,-0.04,1.13,-0.01,-0.60,0.58,0.24,-0.07,-0.35,0.58,1009.59
12.321,-0.06,1.15,-0.03,-0.60,0.58,0.24,-0.07,-0.35,0.58,1009.59
12.371,-0.02,1.18,-0.04,-0.60,0.58,0.24,-0.07,-0.35,0.58,1009.59
12.373,-0.08,1.25,-0.03,-0.60,0.58,0.24,-0.07,-0.35,0.58,1009.59
12.374,-0.08,1.25,-0.03,-0.60,0.58,0.24,-0.55,-0.28,1.69,1009.59
12.374,-0.13,1.40,-0.11,-0.60,0.58,0.24,-0.55,-0.28,1.69,1009.59
12.39,-0.13,1.40,-0.11,-0.60,0.58,0.24,-0.55,-0.28,1.69,1009.77
12.392,-0.33,1.57,-0.14,-0.60,0.58,0.24,-0.55,-0.28,1.69,1009.77
12.392,-0.33,1.57,-0.14,-2.39,1.84,-0.74,-0.55,-0.28,1.69,1009.77
12.446,-0.66,1.78,-0.35,-2.39,1.84,-0.74,-0.55,-0.28,1.69,1009.77
12.447,-0.83,1.78,-0.16,-2.39,1.84,-0.74,-0.55,-0.28,1.69,1009.77
12.448,-0.83,1.78,-0.16,-2.39,1.84,-0.74,-1.61,-0.97,4.10,1009.77
12.46,-0.83,1.78,-0.16,-4.99,4.66,-1.93,-1.61,-0.97,4.10,1009.77
12.461,-0.22,1.85,0.36,-4.99,4.66,-1.93,-1.61,-0.97,4.10,1009.77
12.47,-0.22,1.85,0.36,-4.99,4.66,-1.93,-1.61,-0.97,4.10,1009.22
12.517,-0.22,1.85,0.36,-4.99,4.66,-1.93,-0.95,-1.38,5.75,1009.22
12.518,-0.22,1.85,0.36,-4.99,4.66,-1.93,-0.95,-1.38,5.75,1008.34
12.519,0.12,1.56,0.52,-4.99,4.66,-1.93,-0.95,-1.38,5.75,1008.34
12.519,-0.18,1.34,0.62,-4.99,4.66,-1.93,-0.95,-1.38,5.75,1008.34
12.539,0.05,0.76,0.30,-4.99,4.66,-1.93,-0.95,-1.38,5.75,1008.34
12.541,1.46,0.53,0.36,-4.99,4.66,-1.93,-0.95,-1.38,5.75,1008.34
12.543,1.46,0.53,0.36,-10.92,10.53,-1.39,-0.95,-1.38,5.75,1008.34
12.582,1.46,0.53,0.36,-10.92,10.53,-1.39,-0.05,-1.01,-0.68,1008.34
12.583,-0.44,0.46,0.34,-10.92,10.53,-1.39,-0.05,-1.01,-0.68,1008.34
12.583,-0.89,0.42,-0.03,-10.92,10.53,-1.39,-0.05,-1.01,-0.68,1008.34
12.591,-0.89,0.42,-0.03,-10.92,10.53,-1.39,-0.05,-1.01,-0.68,1008.82
12.598,-0.15,0.46,-0.13,-10.92,10.53,-1.39,-0.05,-1.01,-0.68,1008.82
12.601,-0.15,0.46,-0.13,-3.98,4.17,3.27,-0.05,-1.01,-0.68,1008.82
12.639,0.10,0.45,-0.02,-3.98,4.17,3.27,-0.05,-1.01,-0.68,1008.82
12.64,0.00,0.52,-0.04,-3.98,4.17,3.27,-0.05,-1.01,-0.68,1008.82
12.651,0.00,0.52,-0.04,-3.98,4.17,3.27,0.23,-0.25,-3.58,1008.82
12.663,-0.02,0.66,-0.10,-3.98,4.17,3.27,0.23,-0.25,-3.58,1008.82
12.672,-0.02,0.66,-0.10,-3.98,4.17,3.27,0.23,-0.25,-3.58,1009.14
12.672,0.01,0.77,-0.10,-3.98,4.17,3.27,0.23,-0.25,-3.58,1009.14
12.673,0.01,0.77,-0.10,-10.90,-1.89,-0.28,0.23,-0.25,-3.58,1009.14
12.714,0.08,0.93,-0.10,-10.90,-1.89,-0.28,0.23,-0.25,-3.58,1009.14
12.714,0.08,0.93,-0.10,-10.90,-1.89,-0.28,0.23,-0.25,-3.58,1009.21
12.721,0.29,1.09,-0.13,-10.90,-1.89,-0.28,0.23,-0.25,-3.58,1009.21
12.722,0.29,1.09,-0.13,-10.90,-1.89,-0.28,0.46,-0.79,-5.08,1009.21
12.742,0.29,1.09,-0.13,-4.39,-2.03,-1.03,0.46,-0.79,-5.08,1009.21
12.743,0.40,1.22,-0.21,-4.39,-2.03,-1.03,0.46,-0.79,-5.08,1009.21
12.791,0.40,1.22,-0.21,-4.39,-2.03,-1.03,0.51,0.33,-5.01,1009.21
12.793,0.40,1.22,-0.21,-4.39,-2.03,-1.03,0.51,0.33,-5.01,1009.23
12.793,0.36,1.36,-0.26,-4.39,-2.03,-1.03,0.51,0.33,-5.01,1009.23
12.794,0.31,1.51,-0.30,-4.39,-2.03,-1.03,0.51,0.33,-5.01,1009.23
12.797,0.40,1.55,-0.23,-4.39,-2.03,-1.03,0.51,0.33,-5.01,1009.23
12.812,0.62,1.61,-0.17,-4.39,-2.03,-1.03,0.51,0.33,-5.01,1009.23
12.813,0.62,1.61,-0.17,1.33,1.71,-1.49,0.51,0.33,-5.01,1009.23
12.861,0.62,1.61,-0.17,1.33,1.71,-1.49,0.59,0.29,-3.52,1009.23
12.862,0.93,1.54,0.01,1.33,1.71,-1.49,0.59,0.29,-3.52,1009.23
12.863,1.38,1.48,0.07,1.33,1.71,-1.49,0.59,0.29,-3.52,1009.23
12.87,1.38,1.48,0.07,1.33,1.71,-1.49,0.59,0.29,-3.52,1009.22
12.87,1.92,1.24,0.21,1.33,1.71,-1.49,0.59,0.29,-3.52,1009.22
12.881,1.92,1.24,0.21,5.65,5.78,-1.90,0.59,0.29,-3.52,1009.22
12.916,2.14,0.98,0.18,5.65,5.78,-1.90,0.59,0.29,-3.52,1009.22
12.918,2.14,0.98,0.18,5.65,5.78,-1.90,0.59,0.29,-3.52,1009.34
12.937,0.75,1.66,-0.25,5.65,5.78,-1.90,0.59,0.29,-3.52,1009.34
12.938,0.75,1.66,-0.25,5.65,5.78,-1.90,-0.36,0.78,0.37,1009.34
12.951,0.75,1.66,-0.25,17.61,4.45,1.88,-0.36,0.78,0.37,1009.34
12.952,1.37,0.50,0.08,17.61,4.45,1.88,-0.36,0.78,0.37,1009.34
12.953,-0.67,1.01,-0.12,17.61,4.45,1.88,-0.36,0.78,0.37,1009.34
12.99,0.11,1.09,-0.06,17.61,4.45,1.88,-0.36,0.78,0.37,1009.34
12.992,0.11,1.09,-0.06,17.61,4.45,1.88,-0.36,0.78,0.37,1009.55
12.996,1.72,0.99,0.89,17.61,4.45,1.88,-0.36,0.78,0.37,1009.55
13.0,1.72,0.99,0.89,17.61,4.45,1.88,-1.10,0.45,3.35,1009.55
13.021,1.72,0.99,0.89,7.85,0.84,-0.31,-1.10,0.45,3.35,1009.55
13.022,1.25,1.39,0.65,7.85,0.84,-0.31,-1.10,0.45,3.35,1009.55
13.063,0.04,1.08,-0.68,7.85,0.84,-0.31,-1.10,0.45,3.35,1009.55
13.065,0.27,1.07,-0.08,7.85,0.84,-0.31,-1.10,0.45,3.35,1009.55
13.07,0.27,1.07,-0.08,7.85,0.84,-0.31,-1.10,0.45,3.35,1009.63
13.07,0.27,1.07,-0.08,7.85,0.84,-0.31,-0.11,0.33,0.61,1009.63
13.091,0.34,1.10,-0.13,7.85,0.84,-0.31,-0.11,0.33,0.61,1009.63
13.092,0.08,1.00,0.11,7.85,0.84,-0.31,-0.11,0.33,0.61,1009.63
13.093,0.08,1.00,0.11,7.05,1.69,2.97,-0.11,0.33,0.61,1009.63
13.11,0.08,1.00,0.11,7.05,1.69,2.97,-0.11,0.33,0.61,1009.47
13.13,0.08,0.99,0.13,7.05,1.69,2.97,-0.11,0.33,0.61,1009.47
13.141,0.08,0.99,0.13,7.05,1.69,2.97,-0.28,0.04,0.22,1009.47
13.142,0.13,0.98,0.13,7.05,1.69,2.97,-0.28,0.04,0.22,1009.47
13.161,0.13,0.98,0.13,2.08,1.18,-1.41,-0.28,0.04,0.22,1009.47
13.162,0.13,0.99,0.08,2.08,1.18,-1.41,-0.28,0.04,0.22,1009.47
13.19,0.13,0.99,0.05,2.08,1.18,-1.41,-0.28,0.04,0.22,1009.47
13.191,0.13,0.99,0.05,2.08,1.18,-1.41,-0.28,0.04,0.22,1009.28
13.196,0.13,0.97,0.09,2.08,1.18,-1.41,-0.28,0.04,0.22,1009.28
13.213,0.13,0.97,0.09,2.08,1.18,-1.41,-0.09,-0.03,0.12,1009.28
13.231,0.13,0.97,0.09,0.07,0.31,0.63,-0.09,-0.03,0.12,1009.28
13.232,0.12,0.96,0.10,0.07,0.31,0.63,-0.09,-0.03,0.12,1009.28
13.233,0.11,0.98,0.08,0.07,0.31,0.63,-0.09,-0.03,0.12,1009.28
13.263,0.11,0.97,0.09,0.07,0.31,0.63,-0.09,-0.03,0.12,1009.28
13.27,0.11,0.97,0.09,0.07,0.31,0.63,-0.09,-0.03,0.12,1009.20
13.282,0.11,0.97,0.09,0.07,0.31,0.63,-0.09,-0.03,0.12,1009.20
13.283,0.11,0.97,0.09,0.07,0.31,0.63,0.01,-0.07,0.08,1009.20
13.301,0.11,0.97,0.09,0.08,0.16,0.35,0.01,-0.07,0.08,1009.20
13.303,0.11,0.96,0.08,0.08,0.16,0.35,0.01,-0.07,0.08,1009.20
13.31,0.11,0.96,0.08,0.08,0.16,0.35,0.01,-0.07,0.08,1009.20
13.336,0.11,0.97,0.07,0.08,0.16,0.35,0.01,-0.07,0.08,1009.20
13.356,0.11,0.97,0.07,0.08,0.16,0.35,0.05,-0.13,0.11,1009.20
13.357,0.11,0.97,0.06,0.08,0.16,0.35,0.05,-0.13,0.11,1009.20
13.372,0.11,0.97,0.06,-0.10,0.12,0.38,0.05,-0.13,0.11,1009.20
13.372,0.11,0.97,0.06,-0.10,0.12,0.38,0.05,-0.13,0.11,1009.20
13.373,0.10,0.97,0.06,-0.10,0.12,0.38,0.05,-0.13,0.11,1009.20
13.391,0.10,0.97,0.06,-0.10,0.12,0.38,0.05,-0.13,0.11,1009.24
13.397,0.10,0.98,0.06,-0.10,0.12,0.38,0.05,-0.13,0.11,1009.24
13.421,0.10,0.98,0.06,-0.10,0.12,0.38,0.05,-0.20,0.19,1009.24
13.422,0.07,1.01,0.07,-0.10,0.12,0.38,0.05,-0.20,0.19,1009.24
13.439,0.05,1.04,0.06,-0.10,0.12,0.38,0.05,-0.20,0.19,1009.24
13.441,0.05,1.04,0.06,-0.16,0.16,0.21,0.05,-0.20,0.19,1009.24
13.463,0.04,1.08,-0.02,-0.16,0.16,0.21,0.05,-0.20,0.19,1009.24
13.47,0.04,1.08,-0.02,-0.16,0.16,0.21,0.05,-0.20,0.19,1009.36
13.491,0.04,1.08,-0.02,-0.16,0.16,0.21,-0.10,-0.31,0.60,1009.36
13.492,0.02,1.12,-0.06,-0.16,0.16,0.21,-0.10,-0.31,0.60,1009.36
13.51,0.02,1.12,-0.06,-0.16,0.16,0.21,-0.10,-0.31,0.60,1009.57
13.512,-0.06,1.13,-0.04,-0.16,0.16,0.21,-0.10,-0.31,0.60,1009.57
13.513,-0.07,1.16,0.01,-0.16,0.16,0.21,-0.10,-0.31,0.60,1009.57
13.513,-0.07,1.16,0.01,-0.75,0.64,0.17,-0.10,-0.31,0.60,1009.57
13.552,-0.09,1.22,0.00,-0.75,0.64,0.17,-0.10,-0.31,0.60,1009.57
13.553,-0.15,1.40,-0.16,-0.75,0.64,0.17,-0.10,-0.31,0.60,1009.57
13.562,-0.15,1.40,-0.16,-0.75,0.64,0.17,-0.49,-0.24,1.80,1009.57
13.583,-0.35,1.53,-0.12,-0.75,0.64,0.17,-0.49,-0.24,1.80,1009.57
13.584,-0.35,1.53,-0.12,-2.35,1.84,-0.78,-0.49,-0.24,1.80,1009.57
13.591,-0.35,1.53,-0.12,-2.35,1.84,-0.78,-0.49,-0.24,1.80,1009.67
13.597,-0.60,1.71,-0.24,-2.35,1.84,-0.78,-0.49,-0.24,1.80,1009.67
13.635,-0.60,1.71,-0.24,-2.35,1.84,-0.78,-1.11,-0.75,4.43,1009.67
13.636,-0.74,1.74,-0.12,-2.35,1.84,-0.78,-1.11,-0.75,4.43,1009.67
13.651,-0.74,1.74,-0.12,-6.04,5.24,-1.94,-1.11,-0.75,4.43,1009.67
13.652,-0.52,1.80,0.12,-6.04,5.24,-1.94,-1.11,-0.75,4.43,1009.67
13.653,-0.02,1.55,0.47,-6.04,5.24,-1.94,-1.11,-0.75,4.43,1009.67
13.67,-0.02,1.55,0.47,-6.04,5.24,-1.94,-1.11,-0.75,4.43,1008.89
13.702,-0.02,1.55,0.47,-6.04,5.24,-1.94,-0.39,-0.93,6.08,1008.89
13.704,-0.18,1.24,0.75,-6.04,5.24,-1.94,-0.39,-0.93,6.08,1008.89
13.704,-0.33,1.00,0.44,-6.04,5.24,-1.94,-0.39,-0.93,6.08,1008.89
13.71,-0.33,1.00,0.44,-6.04,5.24,-1.94,-0.39,-0.93,6.08,1008.50
13.721,-0.33,1.00,0.44,-11.10,9.91,-0.11,-0.39,-0.93,6.08,1008.50
13.722,1.47,0.33,0.13,-11.10,9.91,-0.11,-0.39,-0.93,6.08,1008.50
13.772,1.47,0.33,0.13,-11.10,9.91,-0.11,0.12,-0.54,-1.53,1008.50
13.773,0.93,0.86,0.57,-11.10,9.91,-0.11,0.12,-0.54,-1.53,1008.50
13.774,-1.18,0.41,0.10,-11.10,9.91,-0.11,0.12,-0.54,-1.53,1008.50
13.79,-1.18,0.41,0.10,-11.10,9.91,-0.11,0.12,-0.54,-1.53,1008.98
13.791,-0.64,0.46,-0.11,-11.10,9.91,-0.11,0.12,-0.54,-1.53,1008.98
13.792,-0.13,0.48,0.00,-11.10,9.91,-0.11,0.12,-0.54,-1.53,1008.98
13.792,-0.13,0.48,0.00,-2.33,3.82,3.91,0.12,-0.54,-1.53,1008.98
13.842,-0.13,0.48,0.00,-2.33,3.82,3.91,0.21,0.18,-4.10,1008.98
13.843,0.06,0.48,0.12,-2.33,3.82,3.91,0.21,0.18,-4.10,1008.98
13.843,-0.01,0.60,0.02,-2.33,3.82,3.91,0.21,0.18,-4.10,1008.98
13.862,-0.01,0.60,0.02,-12.42,-2.14,0.06,0.21,0.18,-4.10,1008.98
13.864,-0.10,0.72,-0.02,-12.42,-2.14,0.06,0.21,0.18,-4.10,1008.98
13.871,-0.10,0.72,-0.02,-12.42,-2.14,0.06,0.21,0.18,-4.10,1009.17
13.911,-0.10,0.72,-0.02,-12.42,-2.14,0.06,0.21,0.18,-4.10,1009.21
13.911,-0.03,0.89,-0.08,-12.42,-2.14,0.06,0.21,0.18,-4.10,1009.21
13.912,0.13,1.09,-0.10,-12.42,-2.14,0.06,0.21,0.18,-4.10,1009.21
13.912,0.13,1.09,-0.10,-12.42,-2.14,0.06,0.58,0.00,-5.43,1009.21
13.929,0.23,1.24,-0.12,-12.42,-2.14,0.06,0.58,0.00,-5.43,1009.21
13.932,0.19,1.48,-0.23,-12.42,-2.14,0.06,0.58,0.00,-5.43,1009.21
13.932,0.19,1.48,-0.23,-4.13,-2.17,-0.11,0.58,0.00,-5.43,1009.21
13.982,0.19,1.48,-0.23,-4.13,-2.17,-0.11,0.64,0.87,-4.73,1009.21
13.983,0.30,1.68,-0.29,-4.13,-2.17,-0.11,0.64,0.87,-4.73,1009.21
13.984,0.43,1.78,-0.27,-4.13,-2.17,-0.11,0.64,0.87,-4.73,1009.21
13.991,0.43,1.78,-0.27,-4.13,-2.17,-0.11,0.64,0.87,-4.73,1009.18
13.997,0.86,1.83,-0.07,-4.13,-2.17,-0.11,0.64,0.87,-4.73,1009.18
14.003,0.86,1.83,-0.07,0.99,2.69,-1.35,0.64,0.87,-4.73,1009.18
14.038,1.80,1.67,0.35,0.99,2.69,-1.35,0.64,0.87,-4.73,1009.18
14.045,2.28,1.21,0.49,0.99,2.69,-1.35,0.64,0.87,-4.73,1009.18
14.058,2.28,1.21,0.49,0.99,2.69,-1.35,0.65,0.86,-3.30,1009.18
14.059,1.99,1.01,0.22,0.99,2.69,-1.35,0.65,0.86,-3.30,1009.18
14.07,1.99,1.01,0.22,0.99,2.69,-1.35,0.65,0.86,-3.30,1009.27
14.071,1.75,0.81,0.28,0.99,2.69,-1.35,0.65,0.86,-3.30,1009.27
14.072,1.75,0.81,0.28,8.43,8.08,-0.90,0.65,0.86,-3.30,1009.27
14.111,0.55,1.14,-0.33,8.43,8.08,-0.90,0.65,0.86,-3.30,1009.27
14.112,0.55,1.14,-0.33,8.43,8.08,-0.90,0.65,0.86,-3.30,1009.51
14.124,0.55,1.14,-0.33,8.43,8.08,-0.90,-0.77,0.34,2.22,1009.51
14.125,0.49,1.10,0.02,8.43,8.08,-0.90,-0.77,0.34,2.22,1009.51
14.142,-0.58,1.09,-0.05,8.43,8.08,-0.90,-0.77,0.34,2.22,1009.51
14.143,-0.58,1.09,-0.05,22.28,1.76,4.08,-0.77,0.34,2.22,1009.51
14.191,1.14,1.06,0.46,22.28,1.76,4.08,-0.77,0.34,2.22,1009.51
14.192,2.30,1.41,1.10,22.28,1.76,4.08,-0.77,0.34,2.22,1009.51
14.193,2.30,1.41,1.10,22.28,1.76,4.08,-0.77,0.34,2.22,1009.44
14.194,2.30,1.41,1.10,22.28,1.76,4.08,-0.60,0.31,2.21,1009.44
14.197,-0.63,1.03,-0.91,22.28,1.76,4.08,-0.60,0.31,2.21,1009.44
14.213,0.60,1.10,0.00,22.28,1.76,4.08,-0.60,0.31,2.21,1009.44
14.214,0.60,1.10,0.00,2.16,1.48,-1.00,-0.60,0.31,2.21,1009.44
14.262,0.60,1.10,0.00,2.16,1.48,-1.00,-0.47,0.18,0.36,1009.44
14.263,0.18,1.06,-0.01,2.16,1.48,-1.00,-0.47,0.18,0.36,1009.44
14.263,0.06,1.02,0.03,2.16,1.48,-1.00,-0.47,0.18,0.36,1009.44
14.27,0.06,1.02,0.03,2.16,1.48,-1.00,-0.47,0.18,0.36,1009.53
14.285,0.11,1.01,0.11,2.16,1.48,-1.00,-0.47,0.18,0.36,1009.53
14.286,0.11,1.01,0.11,8.24,2.00,1.57,-0.47,0.18,0.36,1009.53
14.311,0.06,0.97,0.17,8.24,2.00,1.57,-0.47,0.18,0.36,1009.53
14.312,0.06,0.97,0.17,8.24,2.00,1.57,-0.47,0.18,0.36,1009.40
14.33,0.12,1.01,0.09,8.24,2.00,1.57,-0.47,0.18,0.36,1009.40
14.331,0.12,1.01,0.09,8.24,2.00,1.57,-0.25,-0.00,0.19,1009.40
14.352,0.13,1.01,0.05,8.24,2.00,1.57,-0.25,-0.00,0.19,1009.40
14.353,0.10,0.98,0.09,8.24,2.00,1.57,-0.25,-0.00,0.19,1009.40
14.353,0.10,0.98,0.09,0.34,0.64,0.08,-0.25,-0.00,0.19,1009.40
14.391,0.09,0.96,0.12,0.34,0.64,0.08,-0.25,-0.00,0.19,1009.40
14.392,0.09,0.96,0.12,0.34,0.64,0.08,-0.25,-0.00,0.19,1009.25
14.397,0.08,0.95,0.13,0.34,0.64,0.08,-0.25,-0.00,0.19,1009.25
14.402,0.08,0.95,0.13,0.34,0.64,0.08,-0.08,-0.09,0.06,1009.25
14.422,0.08,0.95,0.13,0.23,0.38,0.25,-0.08,-0.09,0.06,1009.25
14.422,0.09,0.95,0.13,0.23,0.38,0.25,-0.08,-0.09,0.06,1009.25
14.438,0.10,0.96,0.11,0.23,0.38,0.25,-0.08,-0.09,0.06,1009.25
14.463,0.07,0.97,0.08,0.23,0.38,0.25,-0.08,-0.09,0.06,1009.25
14.47,0.07,0.97,0.08,0.23,0.38,0.25,-0.08,-0.09,0.06,1009.16
14.471,0.07,0.97,0.08,0.23,0.38,0.25,0.05,-0.18,0.05,1009.16
14.492,0.07,0.97,0.08,0.01,0.02,0.57,0.05,-0.18,0.05,1009.16
14.493,0.07,0.98,0.05,0.01,0.02,0.57,0.05,-0.18,0.05,1009.16
14.494,0.08,0.99,0.04,0.01,0.02,0.57,0.05,-0.18,0.05,1009.16
14.51,0.08,0.99,0.04,0.01,0.02,0.57,0.05,-0.18,0.05,1009.21
14.529,0.07,0.97,0.08,0.01,0.02,0.57,0.05,-0.18,0.05,1009.21
14.542,0.07,0.97,0.08,0.01,0.02,0.57,0.02,-0.19,0.14,1009.21
14.542,0.05,0.97,0.10,0.01,0.02,0.57,0.02,-0.19,0.14,1009.21
14.563,0.05,0.97,0.10,-0.16,0.21,0.02,0.02,-0.19,0.14,1009.21
14.564,0.03,0.97,0.14,-0.16,0.21,0.02,0.02,-0.19,0.14,1009.21
14.591,0.02,1.03,0.08,-0.16,0.21,0.02,0.02,-0.19,0.14,1009.21
14.592,0.02,1.03,0.08,-0.16,0.21,0.02,0.02,-0.19,0.14,1009.34
14.597,-0.01,1.07,0.03,-0.16,0.21,0.02,0.02,-0.19,0.14,1009.34
14.612,-0.01,1.07,0.03,-0.16,0.21,0.02,0.05,-0.33,0.43,1009.34
14.632,-0.01,1.07,0.03,-0.58,0.21,0.47,0.05,-0.33,0.43,1009.34
14.633,-0.04,1.12,-0.05,-0.58,0.21,0.47,0.05,-0.33,0.43,1009.34
14.634,-0.03,1.16,-0.12,-0.58,0.21,0.47,0.05,-0.33,0.43,1009.34
14.663,-0.03,1.16,-0.08,-0.58,0.21,0.47,0.05,-0.33,0.43,1009.34
14.67,-0.03,1.16,-0.08,-0.58,0.21,0.47,0.05,-0.33,0.43,1009.50
14.682,-0.03,1.16,-0.08,-0.58,0.21,0.47,-0.36,-0.19,1.27,1009.50
14.683,-0.12,1.19,0.05,-0.58,0.21,0.47,-0.36,-0.19,1.27,1009.50
14.692,-0.19,1.29,0.02,-0.58,0.21,0.47,-0.36,-0.19,1.27,1009.50
14.702,-0.19,1.29,0.02,-1.65,1.52,-0.90,-0.36,-0.19,1.27,1009.50
14.71,-0.19,1.29,0.02,-1.65,1.52,-0.90,-0.36,-0.19,1.27,1009.64
14.729,-0.28,1.45,-0.00,-1.65,1.52,-0.90,-0.36,-0.19,1.27,1009.64
14.752,-0.52,1.60,-0.06,-1.65,1.52,-0.90,-0.36,-0.19,1.27,1009.64
14.753,-0.52,1.60,-0.06,-1.65,1.52,-0.90,-0.64,-0.58,3.18,1009.64
14.772,-0.52,1.60,-0.06,-3.96,3.12,-0.88,-0.64,-0.58,3.18,1009.64
14.773,-0.67,1.74,-0.13,-3.96,3.12,-0.88,-0.64,-0.58,3.18,1009.64
14.773,-0.63,1.77,-0.09,-3.96,3.12,-0.88,-0.64,-0.58,3.18,1009.64
14.791,-0.63,1.77,-0.09,-3.96,3.12,-0.88,-0.64,-0.58,3.18,1009.50
14.797,-0.28,1.62,0.23,-3.96,3.12,-0.88,-0.64,-0.58,3.18,1009.50
14.826,-0.08,1.25,0.56,-3.96,3.12,-0.88,-0.64,-0.58,3.18,1009.50
14.827,-0.08,1.25,0.56,-3.96,3.12,-0.88,-0.76,-0.95,5.85,1009.50
14.84,-0.25,1.22,0.68,-3.96,3.12,-0.88,-0.76,-0.95,5.85,1009.50
14.842,-0.25,1.22,0.68,-10.74,8.55,-1.87,-0.76,-0.95,5.85,1009.50
14.863,0.16,0.40,0.19,-10.74,8.55,-1.87,-0.76,-0.95,5.85,1009.50
14.873,0.16,0.40,0.19,-10.74,8.55,-1.87,-0.76,-0.95,5.85,1008.72
14.893,0.16,0.40,0.19,-10.74,8.55,-1.87,-0.07,-0.74,2.15,1008.72
14.894,2.18,0.99,0.37,-10.74,8.55,-1.87,-0.07,-0.74,2.15,1008.72
14.911,-0.42,0.43,0.38,-10.74,8.55,-1.87,-0.07,-0.74,2.15,1008.72
14.912,-0.42,0.43,0.38,-10.74,8.55,-1.87,-0.07,-0.74,2.15,1008.66
14.912,-0.80,0.45,0.04,-10.74,8.55,-1.87,-0.07,-0.74,2.15,1008.66
14.913,-0.80,0.45,0.04,-9.71,7.58,3.86,-0.07,-0.74,2.15,1008.66
14.963,-0.80,0.45,0.04,-9.71,7.58,3.86,0.21,0.14,-2.75,1008.66
14.964,-0.34,0.44,-0.02,-9.71,7.58,3.86,0.21,0.14,-2.75,1008.66
14.964,-0.02,0.43,0.12,-9.71,7.58,3.86,0.21,0.14,-2.75,1008.66
14.983,-0.02,0.43,0.12,-4.02,-0.71,1.50,0.21,0.14,-2.75,1008.66
14.984,0.12,0.51,0.11,-4.02,-0.71,1.50,0.21,0.14,-2.75,1008.66
14.991,0.12,0.51,0.11,-4.02,-0.71,1.50,0.21,0.14,-2.75,1009.07
14.997,0.01,0.61,0.04,-4.02,-0.71,1.50,0.21,0.14,-2.75,1009.07
15.033,0.01,0.61,0.04,-4.02,-0.71,1.50,0.54,0.12,-5.08,1009.07
15.034,-0.11,0.75,0.02,-4.02,-0.71,1.50,0.54,0.12,-5.08,1009.07
15.039,0.01,0.93,0.01,-4.02,-0.71,1.50,0.54,0.12,-5.08,1009.07
15.052,0.22,1.12,0.03,-4.02,-0.71,1.50,0.54,0.12,-5.08,1009.07
15.053,0.22,1.12,0.03,-5.95,-2.86,0.00,0.54,0.12,-5.08,1009.07
15.07,0.22,1.12,0.03,-5.95,-2.86,0.00,0.54,0.12,-5.08,1009.25
15.103,0.29,1.27,-0.09,-5.95,-2.86,0.00,0.54,0.12,-5.08,1009.25
15.105,0.18,1.48,-0.23,-5.95,-2.86,0.00,0.54,0.12,-5.08,1009.25
15.106,0.18,1.48,-0.23,-5.95,-2.86,0.00,0.60,0.17,-5.25,1009.25
15.11,0.18,1.48,-0.23,-5.95,-2.86,0.00,0.60,0.17,-5.25,1009.26
15.122,0.18,1.48,-0.23,-1.91,-0.26,-0.04,0.60,0.17,-5.25,1009.26
15.123,0.37,1.62,-0.21,-1.91,-0.26,-0.04,0.60,0.17,-5.25,1009.26
15.172,0.37,1.62,-0.21,-1.91,-0.26,-0.04,0.40,0.88,-3.88,1009.26
15.174,0.51,1.66,-0.13,-1.91,-0.26,-0.04,0.40,0.88,-3.88,1009.26
15.175,0.87,1.68,0.07,-1.91,-0.26,-0.04,0.40,0.88,-3.88,1009.26
15.19,1.52,1.55,0.32,-1.91,-0.26,-0.04,0.40,0.88,-3.88,1009.26
15.191,1.52,1.55,0.32,-1.91,-0.26,-0.04,0.40,0.88,-3.88,1009.17
15.192,1.52,1.55,0.32,3.85,5.23,-1.68,0.40,0.88,-3.88,1009.17
15.193,1.91,1.29,0.38,3.85,5.23,-1.68,0.40,0.88,-3.88,1009.17
15.239,1.76,1.14,0.14,3.85,5.23,-1.68,0.40,0.88,-3.88,1009.17
15.24,1.61,1.00,0.07,3.85,5.23,-1.68,0.40,0.88,-3.88,1009.17
15.242,1.61,1.00,0.07,3.85,5.23,-1.68,0.02,0.50,-1.44,1009.17
15.262,1.02,1.03,0.10,3.85,5.23,-1.68,0.02,0.50,-1.44,1009.17
15.263,1.02,1.03,0.10,15.38,6.01,2.42,0.02,0.50,-1.44,1009.17
15.27,1.02,1.03,0.10,15.38,6.01,2.42,0.02,0.50,-1.44,1009.28
15.311,1.02,1.03,0.10,15.38,6.01,2.42,0.02,0.50,-1.44,1009.46
15.312,0.72,0.97,0.09,15.38,6.01,2.42,0.02,0.50,-1.44,1009.46
15.313,-0.44,1.21,-0.33,15.38,6.01,2.42,0.02,0.50,-1.44,1009.46
15.314,-0.44,1.21,-0.33,15.38,6.01,2.42,-0.85,0.61,3.46,1009.46
15.33,0.86,1.11,-0.18,15.38,6.01,2.42,-0.85,0.61,3.46,1009.46
15.332,1.74,1.10,1.42,15.38,6.01,2.42,-0.85,0.61,3.46,1009.46
15.333,1.74,1.10,1.42,15.38,0.77,2.00,-0.85,0.61,3.46,1009.46
15.383,-0.28,1.20,-0.75,15.38,0.77,2.00,-0.85,0.61,3.46,1009.46
15.384,0.59,1.17,-0.22,15.38,0.77,2.00,-0.85,0.61,3.46,1009.46
15.385,0.59,1.17,-0.22,15.38,0.77,2.00,-0.21,0.67,0.92,1009.46
15.391,0.59,1.17,-0.22,15.38,0.77,2.00,-0.21,0.67,0.92,1009.45
15.397,-0.02,1.00,-0.02,15.38,0.77,2.00,-0.21,0.67,0.92,1009.45
15.403,-0.02,1.00,-0.02,6.28,1.83,1.64,-0.21,0.67,0.92,1009.45
15.453,-0.02,1.00,-0.02,6.28,1.83,1.64,-0.39,0.10,0.34,1009.45
15.454,0.19,1.04,-0.03,6.28,1.83,1.64,-0.39,0.10,0.34,1009.45
15.454,0.13,1.02,0.08,6.28,1.83,1.64,-0.39,0.10,0.34,1009.45
15.463,0.09,0.97,0.15,6.28,1.83,1.64,-0.39,0.10,0.34,1009.45
15.47,0.09,0.97,0.15,6.28,1.83,1.64,-0.39,0.10,0.34,1009.49
15.472,0.10,0.98,0.13,6.28,1.83,1.64,-0.39,0.10,0.34,1009.49
15.473,0.10,0.98,0.13,0.60,1.59,-3.11,-0.39,0.10,0.34,1009.49
15.511,0.08,1.00,0.12,0.60,1.59,-3.11,-0.39,0.10,0.34,1009.49
15.513,0.08,1.00,0.12,0.60,1.59,-3.11,-0.39,0.10,0.34,1009.28
15.523,0.11,0.99,0.08,0.60,1.59,-3.11,-0.39,0.10,0.34,1009.28
15.524,0.11,0.99,0.08,0.60,1.59,-3.11,-0.14,-0.02,0.14,1009.28
15.542,0.09,0.98,0.08,0.60,1.59,-3.11,-0.14,-0.02,0.14,1009.28
15.544,0.09,0.98,0.08,0.31,0.43,0.31,-0.14,-0.02,0.14,1009.28
15.59,0.09,0.98,0.08,0.31,0.43,0.31,-0.14,-0.02,0.14,1009.18
15.592,0.09,0.98,0.08,0.31,0.43,0.31,-0.14,-0.02,0.14,1009.18
15.593,0.10,0.98,0.08,0.31,0.43,0.31,-0.14,-0.02,0.14,1009.18
15.594,0.10,0.98,0.08,0.31,0.43,0.31,-0.03,-0.09,0.07,1009.18
15.597,0.07,0.96,0.13,0.31,0.43,0.31,-0.03,-0.09,0.07,1009.18
15.612,0.05,0.96,0.11,0.31,0.43,0.31,-0.03,-0.09,0.07,1009.18
15.613,0.05,0.96,0.11,0.10,0.32,0.28,-0.03,-0.09,0.07,1009.18
15.639,0.06,0.96,0.08,0.10,0.32,0.28,-0.03,-0.09,0.07,1009.18
15.664,0.06,0.96,0.08,0.10,0.32,0.28,0.07,-0.19,0.12,1009.18
15.665,0.09,0.97,0.06,0.10,0.32,0.28,0.07,-0.19,0.12,1009.18
15.67,0.09,0.97,0.06,0.10,0.32,0.28,0.07,-0.19,0.12,1009.18
15.683,0.09,0.97,0.06,-0.10,0.16,0.38,0.07,-0.19,0.12,1009.18
15.684,0.07,0.97,0.06,-0.10,0.16,0.38,0.07,-0.19,0.12,1009.18
15.711,0.08,0.98,0.06,-0.10,0.16,0.38,0.07,-0.19,0.12,1009.18
15.712,0.08,0.98,0.06,-0.10,0.16,0.38,0.07,-0.19,0.12,1009.26
15.73,0.07,0.99,0.09,-0.10,0.16,0.38,0.07,-0.19,0.12,1009.26
15.732,0.07,0.99,0.09,-0.10,0.16,0.38,0.05,-0.20,0.23,1009.26
15.752,0.07,0.99,0.09,-0.27,0.18,0.08,0.05,-0.20,0.23,1009.26
15.753,0.03,1.02,0.07,-0.27,0.18,0.08,0.05,-0.20,0.23,1009.26
15.754,0.02,1.06,0.02,-0.27,0.18,0.08,0.05,-0.20,0.23,1009.26
15.79,-0.04,1.09,-0.00,-0.27,0.18,0.08,0.05,-0.20,0.23,1009.26
15.792,-0.04,1.09,-0.00,-0.27,0.18,0.08,0.05,-0.20,0.23,1009.40
15.796,-0.08,1.13,-0.04,-0.27,0.18,0.08,0.05,-0.20,0.23,1009.40
15.802,-0.08,1.13,-0.04,-0.27,0.18,0.08,-0.07,-0.29,0.69,1009.40
15.822,-0.08,1.13,-0.04,-0.75,0.66,0.08,-0.07,-0.29,0.69,1009.40
15.823,-0.03,1.15,-0.06,-0.75,0.66,0.08,-0.07,-0.29,0.69,1009.40
15.863,-0.09,1.19,-0.00,-0.75,0.66,0.08,-0.07,-0.29,0.69,1009.40
15.864,-0.19,1.32,-0.03,-0.75,0.66,0.08,-0.07,-0.29,0.69,1009.40
15.87,-0.19,1.32,-0.03,-0.75,0.66,0.08,-0.07,-0.29,0.69,1009.57
15.872,-0.19,1.32,-0.03,-0.75,0.66,0.08,-0.42,-0.27,1.87,1009.57
15.874,-0.31,1.47,-0.06,-0.75,0.66,0.08,-0.42,-0.27,1.87,1009.57
15.892,-0.31,1.47,-0.06,-2.38,1.87,-0.93,-0.42,-0.27,1.87,1009.57
15.894,-0.51,1.62,-0.11,-2.38,1.87,-0.93,-0.42,-0.27,1.87,1009.57
15.91,-0.51,1.62,-0.11,-2.38,1.87,-0.93,-0.42,-0.27,1.87,1009.68
15.93,-0.71,1.71,-0.13,-2.38,1.87,-0.93,-0.42,-0.27,1.87,1009.68
15.946,-0.71,1.71,-0.13,-2.38,1.87,-0.93,-0.87,-0.91,4.41,1009.68
15.947,-0.58,1.77,-0.02,-2.38,1.87,-0.93,-0.87,-0.91,4.41,1009.68
15.962,-0.58,1.77,-0.02,-6.53,5.27,-1.40,-0.87,-0.91,4.41,1009.68
15.963,-0.28,1.59,0.28,-6.53,5.27,-1.40,-0.87,-0.91,4.41,1009.68
15.991,-0.19,1.26,0.62,-6.53,5.27,-1.40,-0.87,-0.91,4.41,1009.68
15.992,-0.19,1.26,0.62,-6.53,5.27,-1.40,-0.87,-0.91,4.41,1009.13
15.997,-0.47,1.21,0.66,-6.53,5.27,-1.40,-0.87,-0.91,4.41,1009.13
16.013,-0.47,1.21,0.66,-6.53,5.27,-1.40,-0.35,-1.11,6.04,1009.13
16.034,-0.47,1.21,0.66,-11.03,9.19,0.23,-0.35,-1.11,6.04,1009.13
16.034,0.46,0.34,0.04,-11.03,9.19,0.23,-0.35,-1.11,6.04,1009.13
16.036,2.29,1.05,0.53,-11.03,9.19,0.23,-0.35,-1.11,6.04,1009.13
16.063,-0.72,0.36,0.30,-11.03,9.19,0.23,-0.35,-1.11,6.04,1009.13
16.07,-0.72,0.36,0.30,-11.03,9.19,0.23,-0.35,-1.11,6.04,1008.54
16.083,-0.72,0.36,0.30,-11.03,9.19,0.23,0.02,-0.16,-1.42,1008.54
16.084,-0.85,0.50,-0.10,-11.03,9.19,0.23,0.02,-0.16,-1.42,1008.54
16.103,-0.85,0.50,-0.10,-1.75,3.67,3.74,0.02,-0.16,-1.42,1008.54
16.104,-0.23,0.47,-0.07,-1.75,3.67,3.74,0.02,-0.16,-1.42,1008.54
16.111,-0.23,0.47,-0.07,-1.75,3.67,3.74,0.02,-0.16,-1.42,1008.97
16.136,0.08,0.43,0.14,-1.75,3.67,3.74,0.02,-0.16,-1.42,1008.97
16.16,0.08,0.43,0.14,-1.75,3.67,3.74,0.05,0.36,-4.03,1008.97
16.161,0.07,0.53,0.09,-1.75,3.67,3.74,0.05,0.36,-4.03,1008.97
16.178,0.07,0.53,0.09,-11.50,-2.23,-0.22,0.05,0.36,-4.03,1008.97
16.18,0.06,0.64,0.04,-11.50,-2.23,-0.22,0.05,0.36,-4.03,1008.97
16.18,-0.09,0.71,0.04,-11.50,-2.23,-0.22,0.05,0.36,-4.03,1008.97
16.193,-0.09,0.71,0.04,-11.50,-2.23,-0.22,0.05,0.36,-4.03,1009.18
16.196,0.00,0.91,-0.06,-11.50,-2.23,-0.22,0.05,0.36,-4.03,1009.18
16.226,0.24,1.10,-0.13,-11.50,-2.23,-0.22,0.05,0.36,-4.03,1009.18
16.226,0.24,1.10,-0.13,-11.50,-2.23,-0.22,0.43,-0.22,-5.35,1009.18
16.242,0.24,1.10,-0.13,-3.60,-2.49,0.03,0.43,-0.22,-5.35,1009.18
16.243,0.31,1.22,-0.19,-3.60,-2.49,0.03,0.43,-0.22,-5.35,1009.18
16.263,0.30,1.39,-0.24,-3.60,-2.49,0.03,0.43,-0.22,-5.35,1009.18
16.28,0.30,1.39,-0.24,-3.60,-2.49,0.03,0.43,-0.22,-5.35,1009.22
16.293,0.30,1.39,-0.24,-3.60,-2.49,0.03,0.53,0.96,-5.02,1009.22
16.294,0.44,1.54,-0.25,-3.60,-2.49,0.03,0.53,0.96,-5.02,1009.22
16.31,0.66,1.66,-0.12,-3.60,-2.49,0.03,0.53,0.96,-5.02,1009.22
16.311,0.66,1.66,-0.12,-3.60,-2.49,0.03,0.53,0.96,-5.02,1009.19
16.313,0.95,1.69,0.20,-3.60,-2.49,0.03,0.53,0.96,-5.02,1009.19
16.313,0.95,1.69,0.20,1.37,1.69,-1.75,0.53,0.96,-5.02,1009.19
16.353,1.31,1.63,0.19,1.37,1.69,-1.75,0.53,0.96,-5.02,1009.19
16.353,2.48,1.43,0.52,1.37,1.69,-1.75,0.53,0.96,-5.02,1009.19
16.363,2.48,1.43,0.52,1.37,1.69,-1.75,0.58,1.78,-2.16,1009.19
16.384,2.48,1.43,0.52,8.24,6.57,-0.60,0.58,1.78,-2.16,1009.19
16.385,2.15,1.24,0.29,8.24,6.57,-0.60,0.58,1.78,-2.16,1009.19
16.39,2.15,1.24,0.29,8.24,6.57,-0.60,0.58,1.78,-2.16,1009.26
16.398,1.46,0.79,0.46,8.24,6.57,-0.60,0.58,1.78,-2.16,1009.26
16.432,1.46,0.79,0.46,8.24,6.57,-0.60,-0.79,0.96,2.45,1009.26
16.433,0.52,0.89,0.54,8.24,6.57,-0.60,-0.79,0.96,2.45,1009.26
16.455,0.52,0.89,0.54,20.66,4.12,3.82,-0.79,0.96,2.45,1009.26
16.457,0.25,1.36,-0.23,20.66,4.12,3.82,-0.79,0.96,2.45,1009.26
16.458,1.60,1.07,0.62,20.66,4.12,3.82,-0.79,0.96,2.45,1009.26
16.472,1.60,1.07,0.62,20.66,4.12,3.82,-0.79,0.96,2.45,1009.31
16.504,1.60,1.07,0.62,20.66,4.12,3.82,-0.44,0.44,1.15,1009.31
16.505,-0.15,1.38,-0.51,20.66,4.12,3.82,-0.44,0.44,1.15,1009.31
16.506,0.47,1.11,-0.28,20.66,4.12,3.82,-0.44,0.44,1.15,1009.31
16.51,0.47,1.11,-0.28,20.66,4.12,3.82,-0.44,0.44,1.15,1009.32
16.522,0.05,0.94,0.07,20.66,4.12,3.82,-0.44,0.44,1.15,1009.32
16.523,0.05,0.94,0.07,8.33,0.91,3.18,-0.44,0.44,1.15,1009.32
16.574,0.30,1.02,0.14,8.33,0.91,3.18,-0.44,0.44,1.15,1009.32
16.575,0.14,1.00,0.04,8.33,0.91,3.18,-0.44,0.44,1.15,1009.32
16.576,0.14,1.00,0.04,8.33,0.91,3.18,-0.40,-0.00,0.40,1009.32
16.593,0.17,0.96,0.17,8.33,0.91,3.18,-0.40,-0.00,0.40,1009.32
16.594,0.17,0.96,0.17,8.33,0.91,3.18,-0.40,-0.00,0.40,1009.22
16.595,0.17,0.96,0.17,0.67,1.63,-2.04,-0.40,-0.00,0.40,1009.22
16.595,0.13,0.98,0.09,0.67,1.63,-2.04,-0.40,-0.00,0.40,1009.22
16.643,0.13,0.98,0.09,0.67,1.63,-2.04,-0.14,-0.07,0.11,1009.22
16.644,0.09,1.00,0.08,0.67,1.63,-2.04,-0.14,-0.07,0.11,1009.22
16.644,0.09,0.99,0.07,0.67,1.63,-2.04,-0.14,-0.07,0.11,1009.22
16.663,0.09,0.99,0.07,1.13,0.36,0.40,-0.14,-0.07,0.11,1009.22
16.665,0.09,0.97,0.09,1.13,0.36,0.40,-0.14,-0.07,0.11,1009.22
16.672,0.09,0.97,0.09,1.13,0.36,0.40,-0.14,-0.07,0.11,1009.15
16.71,0.09,0.97,0.09,1.13,0.36,0.40,-0.14,-0.07,0.11,1009.18
16.712,0.11,0.97,0.08,1.13,0.36,0.40,-0.14,-0.07,0.11,1009.18
16.713,0.08,0.97,0.08,1.13,0.36,0.40,-0.14,-0.07,0.11,1009.18
16.713,0.08,0.97,0.08,1.13,0.36,0.40,-0.02,-0.11,0.08,1009.18
16.729,0.08,0.99,0.05,1.13,0.36,0.40,-0.02,-0.11,0.08,1009.18
16.732,0.08,0.98,0.06,1.13,0.36,0.40,-0.02,-0.11,0.08,1009.18
16.733,0.08,0.98,0.06,0.10,0.30,0.24,-0.02,-0.11,0.08,1009.18
16.783,0.08,0.98,0.06,0.10,0.30,0.24,0.01,-0.12,0.12,1009.18
16.784,0.08,0.96,0.08,0.10,0.30,0.24,0.01,-0.12,0.12,1009.18
16.784,0.09,0.97,0.07,0.10,0.30,0.24,0.01,-0.12,0.12,1009.18
16.789,0.09,0.97,0.07,0.10,0.30,0.24,0.01,-0.12,0.12,1009.24
16.796,0.10,0.97,0.06,0.10,0.30,0.24,0.01,-0.12,0.12,1009.24
16.802,0.10,0.97,0.06,-0.03,0.24,0.07,0.01,-0.12,0.12,1009.24
16.854,0.10,0.97,0.06,-0.03,0.24,0.07,0.00,-0.14,0.19,1009.24
16.855,0.08,0.99,0.06,-0.03,0.24,0.07,0.00,-0.14,0.19,1009.24
16.855,0.06,0.98,0.07,-0.03,0.24,0.07,0.00,-0.14,0.19,1009.24
16.864,0.09,1.00,0.05,-0.03,0.24,0.07,0.00,-0.14,0.19,1009.24
16.871,0.09,1.00,0.05,-0.03,0.24,0.07,0.00,-0.14,0.19,1009.26
16.873,0.07,1.00,0.06,-0.03,0.24,0.07,0.00,-0.14,0.19,1009.26
16.874,0.07,1.00,0.06,-0.07,0.16,0.10,0.00,-0.14,0.19,1009.26
16.911,0.06,1.01,0.06,-0.07,0.16,0.10,0.00,-0.14,0.19,1009.26
16.912,0.06,1.01,0.06,-0.07,0.16,0.10,0.00,-0.14,0.19,1009.31
16.922,0.07,1.02,0.04,-0.07,0.16,0.10,0.00,-0.14,0.19,1009.31
16.923,0.07,1.02,0.04,-0.07,0.16,0.10,0.02,-0.05,0.42,1009.31
16.946,0.07,1.02,0.04,-0.41,0.39,0.03,0.02,-0.05,0.42,1009.31
16.947,0.06,1.03,0.03,-0.41,0.39,0.03,0.02,-0.05,0.42,1009.31
16.99,0.06,1.03,0.03,-0.41,0.39,0.03,0.02,-0.05,0.42,1009.31
16.992,0.04,1.04,0.03,-0.41,0.39,0.03,0.02,-0.05,0.42,1009.31
16.993,0.02,1.07,0.03,-0.41,0.39,0.03,0.02,-0.05,0.42,1009.31
16.994,0.02,1.07,0.03,-0.41,0.39,0.03,-0.00,0.00,0.90,1009.31
16.996,-0.01,1.11,0.02,-0.41,0.39,0.03,-0.00,0.00,0.90,1009.31
17.013,-0.06,1.18,-0.02,-0.41,0.39,0.03,-0.00,0.00,0.90,1009.31
17.014,-0.06,1.18,-0.02,-0.90,0.74,-0.14,-0.00,0.00,0.90,1009.31
17.033,-0.11,1.28,-0.08,-0.90,0.74,-0.14,-0.00,0.00,0.90,1009.31
17.064,-0.11,1.28,-0.08,-0.90,0.74,-0.14,-0.26,-0.15,2.04,1009.31
17.064,-0.23,1.52,-0.17,-0.90,0.74,-0.14,-0.26,-0.15,2.04,1009.31
17.071,-0.23,1.52,-0.17,-0.90,0.74,-0.14,-0.26,-0.15,2.04,1009.35
17.084,-0.23,1.52,-0.17,-2.34,1.74,-0.41,-0.26,-0.15,2.04,1009.35
17.084,-0.56,1.70,-0.21,-2.34,1.74,-0.41,-0.26,-0.15,2.04,1009.35
17.111,-0.85,1.72,-0.23,-2.34,1.74,-0.41,-0.26,-0.15,2.04,1009.35
17.112,-0.85,1.72,-0.23,-2.34,1.74,-0.41,-0.26,-0.15,2.04,1009.41
17.131,-0.26,1.40,0.06,-2.34,1.74,-0.41,-0.26,-0.15,2.04,1009.41
17.133,-0.26,1.40,0.06,-2.34,1.74,-0.41,-0.43,-0.49,4.62,1009.41
17.153,-0.26,1.40,0.06,-7.72,6.57,-2.40,-0.43,-0.49,4.62,1009.41
17.154,0.71,1.19,0.53,-7.72,6.57,-2.40,-0.43,-0.49,4.62,1009.41
17.155,0.46,0.86,0.73,-7.72,6.57,-2.40,-0.43,-0.49,4.62,1009.41
17.191,0.45,0.55,0.45,-7.72,6.57,-2.40,-0.43,-0.49,4.62,1009.41
17.192,0.45,0.55,0.45,-7.72,6.57,-2.40,-0.43,-0.49,4.62,1009.01
17.197,0.98,0.31,0.09,-7.72,6.57,-2.40,-0.43,-0.49,4.62,1009.01
17.202,0.98,0.31,0.09,-7.72,6.57,-2.40,0.86,0.16,2.93,1009.01
17.228,0.98,0.31,0.09,-5.32,5.24,2.79,0.86,0.16,2.93,1009.01
17.233,0.23,0.50,0.44,-5.32,5.24,2.79,0.86,0.16,2.93,1009.01
17.264,-0.62,0.22,0.46,-5.32,5.24,2.79,0.86,0.16,2.93,1009.01
17.265,-0.11,0.33,0.25,-5.32,5.24,2.79,0.86,0.16,2.93,1009.01
17.271,-0.11,0.33,0.25,-5.32,5.24,2.79,0.86,0.16,2.93,1009.01
17.273,-0.11,0.33,0.25,-5.32,5.24,2.79,1.84,0.34,-1.12,1009.01
17.293,-0.11,0.33,0.25,-3.15,-2.46,3.37,1.84,0.34,-1.12,1009.01
17.295,0.30,0.48,0.15,-3.15,-2.46,3.37,1.84,0.34,-1.12,1009.01
17.295,0.49,0.60,0.16,-3.15,-2.46,3.37,1.84,0.34,-1.12,1009.01
17.31,0.49,0.60,0.16,-3.15,-2.46,3.37,1.84,0.34,-1.12,1009.29
17.329,0.31,0.57,0.36,-3.15,-2.46,3.37,1.84,0.34,-1.12,1009.29
17.347,0.31,0.57,0.36,-3.15,-2.46,3.37,1.95,2.32,-3.05,1009.29
17.348,0.13,0.61,0.44,-3.15,-2.46,3.37,1.95,2.32,-3.05,1009.29
17.37,0.18,0.78,0.49,-3.15,-2.46,3.37,1.95,2.32,-3.05,1009.29
17.372,0.18,0.78,0.49,-4.63,-2.99,2.29,1.95,2.32,-3.05,1009.29
17.39,0.32,0.84,0.69,-4.63,-2.99,2.29,1.95,2.32,-3.05,1009.29
17.391,0.32,0.84,0.69,-4.63,-2.99,2.29,1.95,2.32,-3.05,1009.34
17.396,0.42,0.94,0.68,-4.63,-2.99,2.29,1.95,2.32,-3.05,1009.34
17.413,0.42,0.94,0.68,-4.63,-2.99,2.29,2.03,2.72,-3.48,1009.34
17.433,0.41,1.10,0.53,-4.63,-2.99,2.29,2.03,2.72,-3.48,1009.34
17.434,0.31,1.21,0.49,-4.63,-2.99,2.29,2.03,2.72,-3.48,1009.34
17.435,0.31,1.21,0.49,-1.87,-1.73,4.82,2.03,2.72,-3.48,1009.34
17.463,0.18,1.23,0.60,-1.87,-1.73,4.82,2.03,2.72,-3.48,1009.34
17.47,0.18,1.23,0.60,-1.87,-1.73,4.82,2.03,2.72,-3.48,1009.34
17.483,0.18,1.23,0.60,-1.87,-1.73,4.82,1.18,3.83,-3.29,1009.34
17.484,0.11,1.28,0.69,-1.87,-1.73,4.82,1.18,3.83,-3.29,1009.34
17.503,0.11,1.28,0.69,1.68,1.22,6.38,1.18,3.83,-3.29,1009.34
17.504,0.12,1.34,0.68,1.68,1.22,6.38,1.18,3.83,-3.29,1009.34
17.51,0.12,1.34,0.68,1.68,1.22,6.38,1.18,3.83,-3.29,1009.30
17.53,0.11,1.36,0.62,1.68,1.22,6.38,1.18,3.83,-3.29,1009.30
17.534,0.14,1.34,0.36,1.68,1.22,6.38,1.18,3.83,-3.29,1009.30
17.553,0.14,1.34,0.36,1.68,1.22,6.38,0.17,3.28,-2.64,1009.30
17.573,0.14,1.34,0.36,1.05,3.37,7.18,0.17,3.28,-2.64,1009.30
17.574,0.30,1.38,0.27,1.05,3.37,7.18,0.17,3.28,-2.64,1009.30
17.575,0.59,1.16,0.53,1.05,3.37,7.18,0.17,3.28,-2.64,1009.30
17.591,0.59,1.16,0.53,1.05,3.37,7.18,0.17,3.28,-2.64,1009.18
17.6,0.82,1.08,0.47,1.05,3.37,7.18,0.17,3.28,-2.64,1009.18
17.629,0.82,1.08,0.47,1.05,3.37,7.18,0.01,2.80,-0.95,1009.18
17.63,0.89,1.09,0.30,1.05,3.37,7.18,0.01,2.80,-0.95,1009.18
17.648,1.02,0.97,0.28,1.05,3.37,7.18,0.01,2.80,-0.95,1009.18
17.649,1.02,0.97,0.28,3.87,3.44,4.76,0.01,2.80,-0.95,1009.18
17.663,1.28,0.80,0.25,3.87,3.44,4.76,0.01,2.80,-0.95,1009.18
17.67,1.28,0.80,0.25,3.87,3.44,4.76,0.01,2.80,-0.95,1009.12
17.694,1.28,0.80,0.25,3.87,3.44,4.76,-0.35,2.26,0.66,1009.12
17.695,1.28,0.69,0.17,3.87,3.44,4.76,-0.35,2.26,0.66,1009.12
17.71,1.18,1.06,0.10,3.87,3.44,4.76,-0.35,2.26,0.66,1009.12
17.711,1.18,1.06,0.10,3.87,3.44,4.76,-0.35,2.26,0.66,1009.14
17.714,1.84,0.75,-0.40,3.87,3.44,4.76,-0.35,2.26,0.66,1009.14
17.715,1.84,0.75,-0.40,10.02,0.66,4.05,-0.35,2.26,0.66,1009.14
17.763,1.84,0.75,-0.40,10.02,0.66,4.05,-0.38,0.97,0.30,1009.14
17.765,0.32,1.29,-0.52,10.02,0.66,4.05,-0.38,0.97,0.30,1009.14
17.765,-0.69,1.14,-0.49,10.02,0.66,4.05,-0.38,0.97,0.30,1009.14
17.783,-0.69,1.14,-0.49,13.83,-1.24,0.58,-0.38,0.97,0.30,1009.14
17.785,0.52,1.15,0.24,13.83,-1.24,0.58,-0.38,0.97,0.30,1009.14
17.791,0.52,1.15,0.24,13.83,-1.24,0.58,-0.38,0.97,0.30,1009.21
17.796,-0.19,0.95,-0.13,13.83,-1.24,0.58,-0.38,0.97,0.30,1009.21
17.834,-0.19,0.95,-0.13,13.83,-1.24,0.58,-0.35,0.19,0.33,1009.21
17.836,0.26,0.97,0.02,13.83,-1.24,0.58,-0.35,0.19,0.33,1009.21
17.854,0.26,0.97,0.02,-0.44,1.99,-2.23,-0.35,0.19,0.33,1009.21
17.855,0.11,0.95,-0.01,-0.44,1.99,-2.23,-0.35,0.19,0.33,1009.21
17.856,0.09,0.98,0.01,-0.44,1.99,-2.23,-0.35,0.19,0.33,1009.21
17.87,0.09,0.98,0.01,-0.44,1.99,-2.23,-0.35,0.19,0.33,1009.35
17.904,0.09,0.98,0.01,-0.44,1.99,-2.23,-0.29,0.08,0.22,1009.35
17.905,0.08,1.02,-0.04,-0.44,1.99,-2.23,-0.29,0.08,0.22,1009.35
17.906,0.10,1.03,-0.04,-0.44,1.99,-2.23,-0.29,0.08,0.22,1009.35
17.911,0.10,1.03,-0.04,-0.44,1.99,-2.23,-0.29,0.08,0.22,1009.35
17.923,0.10,1.00,0.02,-0.44,1.99,-2.23,-0.29,0.08,0.22,1009.35
17.924,0.10,1.00,0.02,0.74,0.06,0.20,-0.29,0.08,0.22,1009.35
17.973,0.10,1.00,0.02,0.74,0.06,0.20,-0.10,0.05,0.17,1009.35
17.975,0.12,0.98,0.06,0.74,0.06,0.20,-0.10,0.05,0.17,1009.35
17.975,0.09,0.96,0.09,0.74,0.06,0.20,-0.10,0.05,0.17,1009.35
17.992,0.12,0.96,0.07,0.74,0.06,0.20,-0.10,0.05,0.17,1009.35
17.993,0.12,0.96,0.07,0.74,0.06,0.20,-0.10,0.05,0.17,1009.29
17.994,0.13,0.98,0.02,0.74,0.06,0.20,-0.10,0.05,0.17,1009.29
17.995,0.13,0.98,0.02,0.32,0.55,-0.11,-0.10,0.05,0.17,1009.29
18.043,0.13,0.98,0.02,0.32,0.55,-0.11,0.07,0.02,0.11,1009.29
18.045,0.12,0.98,-0.00,0.32,0.55,-0.11,0.07,0.02,0.11,1009.29
18.045,0.13,0.98,0.01,0.32,0.55,-0.11,0.07,0.02,0.11,1009.29
18.064,0.12,0.97,0.02,0.32,0.55,-0.11,0.07,0.02,0.11,1009.29
18.065,0.12,0.97,0.02,0.35,0.13,0.49,0.07,0.02,0.11,1009.29
18.069,0.12,0.97,0.02,0.35,0.13,0.49,0.07,0.02,0.11,1009.24
18.11,0.12,0.97,0.02,0.35,0.13,0.49,0.07,0.02,0.11,1009.25
18.112,0.11,0.96,0.03,0.35,0.13,0.49,0.07,0.02,0.11,1009.25
18.113,0.10,0.96,0.03,0.35,0.13,0.49,0.07,0.02,0.11,1009.25
18.114,0.10,0.96,0.03,0.35,0.13,0.49,0.14,-0.04,0.10,1009.25
18.129,0.12,0.96,0.00,0.35,0.13,0.49,0.14,-0.04,0.10,1009.25
18.133,0.12,0.97,0.01,0.35,0.13,0.49,0.14,-0.04,0.10,1009.25
18.134,0.12,0.97,0.01,0.35,0.17,0.11,0.14,-0.04,0.10,1009.25
18.184,0.12,0.97,0.01,0.35,0.17,0.11,0.23,-0.03,0.12,1009.25
18.185,0.12,0.97,0.01,0.35,0.17,0.11,0.23,-0.03,0.12,1009.25
18.187,0.12,0.98,-0.02,0.35,0.17,0.11,0.23,-0.03,0.12,1009.25
18.189,0.12,0.98,-0.02,0.35,0.17,0.11,0.23,-0.03,0.12,1009.25
18.196,0.11,0.99,-0.03,0.35,0.17,0.11,0.23,-0.03,0.12,1009.25
18.203,0.11,0.99,-0.03,0.19,0.08,0.25,0.23,-0.03,0.12,1009.25
18.24,0.10,0.98,-0.01,0.19,0.08,0.25,0.23,-0.03,0.12,1009.25
18.241,0.08,0.99,-0.03,0.19,0.08,0.25,0.23,-0.03,0.12,1009.25
18.253,0.08,0.99,-0.03,0.19,0.08,0.25,0.33,0.01,0.25,1009.25
18.263,0.08,1.01,-0.06,0.19,0.08,0.25,0.33,0.01,0.25,1009.25
18.27,0.08,1.01,-0.06,0.19,0.08,0.25,0.33,0.01,0.25,1009.32
18.273,0.05,1.04,-0.09,0.19,0.08,0.25,0.33,0.01,0.25,1009.32
18.273,0.05,1.04,-0.09,0.10,0.24,0.14,0.33,0.01,0.25,1009.32
18.311,0.03,1.06,-0.10,0.10,0.24,0.14,0.33,0.01,0.25,1009.32
18.312,0.03,1.06,-0.10,0.10,0.24,0.14,0.33,0.01,0.25,1009.28
18.323,0.03,1.08,-0.11,0.10,0.24,0.14,0.33,0.01,0.25,1009.28
18.324,0.03,1.08,-0.11,0.10,0.24,0.14,0.40,-0.02,0.69,1009.28
18.349,-0.02,1.15,-0.10,0.10,0.24,0.14,0.40,-0.02,0.69,1009.28
18.35,-0.02,1.15,-0.10,-0.50,0.57,0.00,0.40,-0.02,0.69,1009.28
18.375,-0.13,1.23,-0.07,-0.50,0.57,0.00,0.40,-0.02,0.69,1009.28
18.377,-0.15,1.31,-0.11,-0.50,0.57,0.00,0.40,-0.02,0.69,1009.28
18.39,-0.15,1.31,-0.11,-0.50,0.57,0.00,0.40,-0.02,0.69,1009.31
18.394,-0.15,1.31,-0.11,-0.50,0.57,0.00,0.47,0.02,1.80,1009.31
18.397,-0.22,1.36,-0.17,-0.50,0.57,0.00,0.47,0.02,1.80,1009.31
18.414,-0.19,1.34,-0.20,-0.50,0.57,0.00,0.47,0.02,1.80,1009.31
18.415,-0.19,1.34,-0.20,-1.95,1.69,-0.17,0.47,0.02,1.80,1009.31
18.439,-0.11,1.28,-0.06,-1.95,1.69,-0.17,0.47,0.02,1.80,1009.31
18.463,0.09,1.22,0.18,-1.95,1.69,-0.17,0.47,0.02,1.80,1009.31
18.464,0.09,1.22,0.18,-1.95,1.69,-0.17,0.69,0.27,3.43,1009.31
18.47,0.09,1.22,0.18,-1.95,1.69,-0.17,0.69,0.27,3.43,1009.30
18.484,0.09,1.22,0.18,-5.20,4.21,-0.30,0.69,0.27,3.43,1009.30
18.485,0.38,1.14,0.45,-5.20,4.21,-0.30,0.69,0.27,3.43,1009.30
18.511,0.03,0.87,0.42,-5.20,4.21,-0.30,0.69,0.27,3.43,1009.30
18.513,0.03,0.87,0.42,-5.20,4.21,-0.30,0.69,0.27,3.43,1009.19
18.529,0.45,0.76,0.49,-5.20,4.21,-0.30,0.69,0.27,3.43,1009.19
18.534,0.45,0.76,0.49,-5.20,4.21,-0.30,1.87,1.31,3.77,1009.19
18.562,1.47,0.66,0.55,-5.20,4.21,-0.30,1.87,1.31,3.77,1009.19
18.562,1.63,1.15,0.01,-5.20,4.21,-0.30,1.87,1.31,3.77,1009.19
18.563,1.63,1.15,0.01,-4.42,3.94,3.72,1.87,1.31,3.77,1009.19
18.591,-0.29,0.67,0.16,-4.42,3.94,3.72,1.87,1.31,3.77,1009.19
18.592,-0.29,0.67,0.16,-4.42,3.94,3.72,1.87,1.31,3.77,1009.25
18.597,-0.47,0.72,0.16,-4.42,3.94,3.72,1.87,1.31,3.77,1009.25
18.604,-0.47,0.72,0.16,-4.42,3.94,3.72,1.33,4.20,-0.64,1009.25
18.624,-0.47,0.72,0.16,3.06,1.85,4.70,1.33,4.20,-0.64,1009.25
18.625,-0.34,0.66,0.24,3.06,1.85,4.70,1.33,4.20,-0.64,1009.25
18.638,-0.09,0.66,0.32,3.06,1.85,4.70,1.33,4.20,-0.64,1009.25
18.665,0.15,0.67,0.38,3.06,1.85,4.70,1.33,4.20,-0.64,1009.25
18.671,0.15,0.67,0.38,3.06,1.85,4.70,1.33,4.20,-0.64,1009.20
18.674,0.15,0.67,0.38,3.06,1.85,4.70,1.22,2.18,-2.08,1009.20
18.694,0.15,0.67,0.38,-9.65,-0.30,1.84,1.22,2.18,-2.08,1009.20
18.696,0.12,0.69,0.41,-9.65,-0.30,1.84,1.22,2.18,-2.08,1009.20
18.697,0.04,0.72,0.43,-9.65,-0.30,1.84,1.22,2.18,-2.08,1009.20
18.71,0.04,0.72,0.43,-9.65,-0.30,1.84,1.22,2.18,-2.08,1009.28
18.73,0.07,0.80,0.38,-9.65,-0.30,1.84,1.22,2.18,-2.08,1009.28
18.752,0.14,0.94,0.31,-9.65,-0.30,1.84,1.22,2.18,-2.08,1009.28
18.753,0.14,0.94,0.31,-9.65,-0.30,1.84,1.74,1.32,-3.48,1009.28
18.776,0.29,1.03,0.37,-9.65,-0.30,1.84,1.74,1.32,-3.48,1009.28
18.779,0.29,1.03,0.37,-3.79,-1.34,3.85,1.74,1.32,-3.48,1009.28
18.79,0.32,1.05,0.47,-3.79,-1.34,3.85,1.74,1.32,-3.48,1009.28
18.79,0.32,1.05,0.47,-3.79,-1.34,3.85,1.74,1.32,-3.48,1009.36
18.797,0.29,1.14,0.42,-3.79,-1.34,3.85,1.74,1.32,-3.48,1009.36
18.814,0.29,1.14,0.42,-3.79,-1.34,3.85,1.17,2.44,-3.88,1009.36
18.834,0.29,1.14,0.42,-0.61,0.21,4.09,1.17,2.44,-3.88,1009.36
18.835,0.19,1.23,0.34,-0.61,0.21,4.09,1.17,2.44,-3.88,1009.36
18.836,0.13,1.30,0.32,-0.61,0.21,4.09,1.17,2.44,-3.88,1009.36
18.863,0.03,1.33,0.32,-0.61,0.21,4.09,1.17,2.44,-3.88,1009.36
18.87,0.03,1.33,0.32,-0.61,0.21,4.09,1.17,2.44,-3.88,1009.35
18.884,0.03,1.33,0.32,-0.61,0.21,4.09,0.39,3.54,-2.98,1009.35
18.885,0.02,1.38,0.28,-0.61,0.21,4.09,0.39,3.54,-2.98,1009.35
18.904,0.28,1.38,0.41,-0.61,0.21,4.09,0.39,3.54,-2.98,1009.35
18.905,0.28,1.38,0.41,1.91,2.37,4.36,0.39,3.54,-2.98,1009.35
18.91,0.28,1.38,0.41,1.91,2.37,4.36,0.39,3.54,-2.98,1009.16
18.914,0.76,1.28,0.54,1.91,2.37,4.36,0.39,3.54,-2.98,1009.16
18.955,0.76,1.28,0.54,1.91,2.37,4.36,0.40,2.04,-1.49,1009.16
18.957,1.18,1.20,0.46,1.91,2.37,4.36,0.40,2.04,-1.49,1009.16
18.975,1.62,1.06,0.13,1.91,2.37,4.36,0.40,2.04,-1.49,1009.16
18.977,1.58,0.84,0.11,1.91,2.37,4.36,0.40,2.04,-1.49,1009.16
18.977,1.58,0.84,0.11,2.82,3.92,4.45,0.40,2.04,-1.49,1009.16
18.99,1.58,0.84,0.11,2.82,3.92,4.45,0.40,2.04,-1.49,1009.12
18.997,1.27,0.59,0.35,2.82,3.92,4.45,0.40,2.04,-1.49,1009.12
19.024,1.27,0.59,0.35,2.82,3.92,4.45,-0.30,1.70,1.34,1009.12
19.025,0.74,1.14,0.47,2.82,3.92,4.45,-0.30,1.70,1.34,1009.12
19.045,0.74,1.14,0.47,14.75,1.15,3.72,-0.30,1.70,1.34,1009.12
19.046,2.96,0.97,-0.14,14.75,1.15,3.72,-0.30,1.70,1.34,1009.12
19.063,1.10,1.43,-0.12,14.75,1.15,3.72,-0.30,1.70,1.34,1009.12
19.07,1.10,1.43,-0.12,14.75,1.15,3.72,-0.30,1.70,1.34,1009.22
19.095,1.10,1.43,-0.12,14.75,1.15,3.72,-0.55,0.55,0.34,1009.22
19.095,-1.26,0.91,-0.74,14.75,1.15,3.72,-0.55,0.55,0.34,1009.22
19.111,0.96,1.11,0.17,14.75,1.15,3.72,-0.55,0.55,0.34,1009.22
19.111,0.96,1.11,0.17,14.75,1.15,3.72,-0.55,0.55,0.34,1009.36
19.115,-0.26,0.88,-0.32,14.75,1.15,3.72,-0.55,0.55,0.34,1009.36
19.115,-0.26,0.88,-0.32,17.71,-0.43,2.13,-0.55,0.55,0.34,1009.36
19.164,-0.26,0.88,-0.32,17.71,-0.43,2.13,-0.59,0.07,0.16,1009.36
19.165,0.26,0.94,0.23,17.71,-0.43,2.13,-0.59,0.07,0.16,1009.36
19.166,0.07,0.97,0.08,17.71,-0.43,2.13,-0.59,0.07,0.16,1009.36
19.185,0.07,0.97,0.08,-2.81,1.31,-1.79,-0.59,0.07,0.16,1009.36
19.185,0.13,0.99,0.02,-2.81,1.31,-1.79,-0.59,0.07,0.16,1009.36
19.19,0.13,0.99,0.02,-2.81,1.31,-1.79,-0.59,0.07,0.16,1009.31
19.197,0.08,0.97,0.10,-2.81,1.31,-1.79,-0.59,0.07,0.16,1009.31
19.224,0.06,1.02,-0.01,-2.81,1.31,-1.79,-0.59,0.07,0.16,1009.31
19.238,0.06,1.02,-0.01,-2.81,1.31,-1.79,-0.27,0.06,0.08,1009.31
19.239,0.09,1.03,-0.04,-2.81,1.31,-1.79,-0.27,0.06,0.08,1009.31
19.258,0.09,1.03,-0.04,0.97,0.03,1.20,-0.27,0.06,0.08,1009.31
19.259,0.08,0.99,0.02,0.97,0.03,1.20,-0.27,0.06,0.08,1009.31
19.271,0.08,0.99,0.02,0.97,0.03,1.20,-0.27,0.06,0.08,1009.33
19.305,0.08,0.99,0.02,0.97,0.03,1.20,-0.17,-0.03,0.10,1009.33
19.306,0.08,1.01,0.03,0.97,0.03,1.20,-0.17,-0.03,0.10,1009.33
19.306,0.09,0.99,0.05,0.97,0.03,1.20,-0.17,-0.03,0.10,1009.33
19.311,0.09,0.99,0.05,0.97,0.03,1.20,-0.17,-0.03,0.10,1009.27
19.324,0.09,0.99,0.05,0.20,0.47,0.02,-0.17,-0.03,0.10,1009.27
19.325,0.10,0.98,0.04,0.20,0.47,0.02,-0.17,-0.03,0.10,1009.27
19.374,0.10,0.98,0.04,0.20,0.47,0.02,-0.04,-0.03,0.11,1009.27
19.376,0.09,0.98,0.05,0.20,0.47,0.02,-0.04,-0.03,0.11,1009.27
19.377,0.09,0.98,0.04,0.20,0.47,0.02,-0.04,-0.03,0.11,1009.27
19.39,0.12,0.98,0.03,0.20,0.47,0.02,-0.04,-0.03,0.11,1009.27
19.391,0.12,0.98,0.03,0.20,0.47,0.02,-0.04,-0.03,0.11,1009.23
19.396,0.09,0.97,0.05,0.20,0.47,0.02,-0.04,-0.03,0.11,1009.23
19.397,0.09,0.97,0.05,0.27,0.27,0.33,-0.04,-0.03,0.11,1009.23
19.44,0.11,0.96,0.05,0.27,0.27,0.33,-0.04,-0.03,0.11,1009.23
19.446,0.11,0.96,0.02,0.27,0.27,0.33,-0.04,-0.03,0.11,1009.23
19.447,0.11,0.96,0.02,0.27,0.27,0.33,-0.00,-0.06,0.11,1009.23
19.464,0.11,0.95,0.06,0.27,0.27,0.33,-0.00,-0.06,0.11,1009.23
19.465,0.11,0.95,0.06,0.26,0.14,0.29,-0.00,-0.06,0.11,1009.23
19.471,0.11,0.95,0.06,0.26,0.14,0.29,-0.00,-0.06,0.11,1009.23
19.511,0.11,0.95,0.06,0.26,0.14,0.29,-0.00,-0.06,0.11,1009.30
19.512,0.10,0.97,0.05,0.26,0.14,0.29,-0.00,-0.06,0.11,1009.30
19.512,0.10,0.99,0.02,0.26,0.14,0.29,-0.00,-0.06,0.11,1009.30
19.515,0.10,0.99,0.02,0.26,0.14,0.29,0.03,-0.04,0.14,1009.30
19.531,0.11,1.00,0.00,0.26,0.14,0.29,0.03,-0.04,0.14,1009.30
19.535,0.08,1.01,0.00,0.26,0.14,0.29,0.03,-0.04,0.14,1009.30
19.535,0.08,1.01,0.00,0.31,-0.04,0.31,0.03,-0.04,0.14,1009.30
19.584,0.08,1.01,0.00,0.31,-0.04,0.31,0.06,0.02,0.33,1009.30
19.585,0.07,1.02,-0.00,0.31,-0.04,0.31,0.06,0.02,0.33,1009.30
19.586,0.04,1.03,0.01,0.31,-0.04,0.31,0.06,0.02,0.33,1009.30
19.59,0.04,1.03,0.01,0.31,-0.04,0.31,0.06,0.02,0.33,1009.33
19.597,-0.00,1.04,0.02,0.31,-0.04,0.31,0.06,0.02,0.33,1009.33
19.604,-0.00,1.04,0.02,0.05,0.34,0.09,0.06,0.02,0.33,1009.33
19.638,0.00,1.05,0.02,0.05,0.34,0.09,0.06,0.02,0.33,1009.33
19.639,0.00,1.06,0.00,0.05,0.34,0.09,0.06,0.02,0.33,1009.33
19.659,0.00,1.06,0.00,0.05,0.34,0.09,0.04,-0.10,0.91,1009.33
19.664,0.00,1.08,0.01,0.05,0.34,0.09,0.04,-0.10,0.91,1009.33
19.67,0.00,1.08,0.01,0.05,0.34,0.09,0.04,-0.10,0.91,1009.39
19.675,0.00,1.08,0.01,-0.95,0.73,0.08,0.04,-0.10,0.91,1009.39
19.676,0.02,1.10,0.00,-0.95,0.73,0.08,0.04,-0.10,0.91,1009.39
19.711,0.02,1.15,-0.05,-0.95,0.73,0.08,0.04,-0.10,0.91,1009.39
19.712,0.02,1.15,-0.05,-0.95,0.73,0.08,0.04,-0.10,0.91,1009.44
19.715,-0.04,1.26,-0.11,-0.95,0.73,0.08,0.04,-0.10,0.91,1009.44
19.725,-0.04,1.26,-0.11,-0.95,0.73,0.08,0.02,-0.12,1.82,1009.44
19.744,-0.04,1.26,-0.11,-1.94,1.32,0.08,0.02,-0.12,1.82,1009.44
19.745,-0.17,1.35,-0.10,-1.94,1.32,0.08,0.02,-0.12,1.82,1009.44
19.79,-0.17,1.35,-0.10,-1.94,1.32,0.08,0.02,-0.12,1.82,1009.47
19.791,-0.35,1.47,-0.17,-1.94,1.32,0.08,0.02,-0.12,1.82,1009.47
19.792,-0.43,1.56,-0.15,-1.94,1.32,0.08,0.02,-0.12,1.82,1009.47
19.794,-0.43,1.56,-0.15,-1.94,1.32,0.08,-0.17,-0.20,3.79,1009.47
19.796,-0.30,1.61,-0.03,-1.94,1.32,0.08,-0.17,-0.20,3.79,1009.47
19.816,-0.30,1.61,-0.03,-4.49,3.70,-0.90,-0.17,-0.20,3.79,1009.47
19.817,-0.01,1.55,0.21,-4.49,3.70,-0.90,-0.17,-0.20,3.79,1009.47
19.84,-0.12,1.18,0.58,-4.49,3.70,-0.90,-0.17,-0.20,3.79,1009.47
19.863,-0.05,0.96,0.63,-4.49,3.70,-0.90,-0.17,-0.20,3.79,1009.47
19.864,-0.05,0.96,0.63,-4.49,3.70,-0.90,0.38,-0.08,5.82,1009.47
19.87,-0.05,0.96,0.63,-4.49,3.70,-0.90,0.38,-0.08,5.82,1009.24
19.885,-0.05,0.96,0.63,-8.68,7.99,-0.16,0.38,-0.08,5.82,1009.24
19.886,-0.30,0.55,0.77,-8.68,7.99,-0.16,0.38,-0.08,5.82,1009.24
19.911,1.93,0.54,0.28,-8.68,7.99,-0.16,0.38,-0.08,5.82,1009.24
19.912,1.93,0.54,0.28,-8.68,7.99,-0.16,0.38,-0.08,5.82,1009.02
19.932,2.04,1.01,0.37,-8.68,7.99,-0.16,0.38,-0.08,5.82,1009.02
19.935,2.04,1.01,0.37,-8.68,7.99,-0.16,1.49,0.96,0.77,1009.02
19.956,2.04,1.01,0.37,-8.93,2.87,6.47,1.49,0.96,0.77,1009.02
19.957,-0.70,0.34,0.38,-8.93,2.87,6.47,1.49,0.96,0.77,1009.02
19.958,-0.72,0.44,0.06,-8.93,2.87,6.47,1.49,0.96,0.77,1009.02
19.99,-0.28,0.51,0.18,-8.93,2.87,6.47,1.49,0.96,0.77,1009.02
19.991,-0.28,0.51,0.18,-8.93,2.87,6.47,1.49,0.96,0.77,1009.17
19.998,0.21,0.55,0.43,-8.93,2.87,6.47,1.49,0.96,0.77,1009.17
20.004,0.21,0.55,0.43,-8.93,2.87,6.47,1.68,0.45,-3.01,1009.17
20.024,0.21,0.55,0.43,-0.91,0.87,2.28,1.68,0.45,-3.01,1009.17
20.026,0.33,0.62,0.55,-0.91,0.87,2.28,1.68,0.45,-3.01,1009.17
20.039,0.32,0.72,0.49,-0.91,0.87,2.28,1.68,0.45,-3.01,1009.17
20.063,0.43,0.89,0.32,-0.91,0.87,2.28,1.68,0.45,-3.01,1009.17
20.07,0.43,0.89,0.32,-0.91,0.87,2.28,1.68,0.45,-3.01,1009.28
20.075,0.43,0.89,0.32,-0.91,0.87,2.28,1.51,0.92,-4.87,1009.28
20.095,0.43,0.89,0.32,-4.29,-1.85,4.73,1.51,0.92,-4.87,1009.28
20.096,0.50,1.00,0.36,-4.29,-1.85,4.73,1.51,0.92,-4.87,1009.28
20.097,0.41,1.02,0.42,-4.29,-1.85,4.73,1.51,0.92,-4.87,1009.28
20.11,0.41,1.02,0.42,-4.29,-1.85,4.73,1.51,0.92,-4.87,1009.31
20.139,0.24,1.18,0.25,-4.29,-1.85,4.73,1.51,0.92,-4.87,1009.31
20.144,0.24,1.18,0.25,-4.29,-1.85,4.73,-0.14,2.87,-4.73,1009.31
20.145,0.06,1.28,0.16,-4.29,-1.85,4.73,-0.14,2.87,-4.73,1009.31
20.164,-0.04,1.32,0.20,-4.29,-1.85,4.73,-0.14,2.87,-4.73,1009.31
20.166,-0.04,1.32,0.20,1.53,0.32,4.36,-0.14,2.87,-4.73,1009.31
20.19,-0.03,1.32,0.25,1.53,0.32,4.36,-0.14,2.87,-4.73,1009.31
20.191,-0.03,1.32,0.25,1.53,0.32,4.36,-0.14,2.87,-4.73,1009.14
20.198,0.21,1.41,0.22,1.53,0.32,4.36,-0.14,2.87,-4.73,1009.14
20.215,0.21,1.41,0.22,1.53,0.32,4.36,-0.42,1.69,-3.09,1009.14
20.235,0.21,1.41,0.22,0.57,3.00,1.88,-0.42,1.69,-3.09,1009.14
20.236,0.71,1.51,0.08,0.57,3.00,1.88,-0.42,1.69,-3.09,1009.14
20.237,1.51,1.37,0.01,0.57,3.00,1.88,-0.42,1.69,-3.09,1009.14
20.257,1.91,1.07,0.00,0.57,3.00,1.88,-0.42,1.69,-3.09,1009.14
20.282,1.91,1.07,0.00,0.57,3.00,1.88,-0.42,1.69,-3.09,1009.11
20.285,1.91,1.07,0.00,0.57,3.00,1.88,0.69,-0.84,-2.86,1009.11
20.285,1.57,0.82,0.39,0.57,3.00,1.88,0.69,-0.84,-2.86,1009.11
20.304,1.57,0.82,0.39,8.38,4.59,1.27,0.69,-0.84,-2.86,1009.11
20.305,1.40,0.81,0.07,8.38,4.59,1.27,0.69,-0.84,-2.86,1009.11
20.31,1.40,0.81,0.07,8.38,4.59,1.27,0.69,-0.84,-2.86,1009.27
20.33,0.84,0.62,-0.17,8.38,4.59,1.27,0.69,-0.84,-2.86,1009.27
20.355,0.84,0.62,-0.17,8.38,4.59,1.27,0.00,-0.93,2.34,1009.27
20.356,1.40,0.62,0.02,8.38,4.59,1.27,0.00,-0.93,2.34,1009.27
20.376,1.40,0.62,0.02,17.31,-0.51,1.15,0.00,-0.93,2.34,1009.27
20.377,0.28,1.25,0.04,17.31,-0.51,1.15,0.00,-0.93,2.34,1009.27
20.378,0.26,1.53,-0.29,17.31,-0.51,1.15,0.00,-0.93,2.34,1009.27
20.391,0.26,1.53,-0.29,17.31,-0.51,1.15,0.00,-0.93,2.34,1009.42
20.398,1.40,0.96,0.71,17.31,-0.51,1.15,0.00,-0.93,2.34,1009.42
20.425,1.40,0.96,0.71,17.31,-0.51,1.15,-0.46,0.77,1.66,1009.42
20.427,2.07,1.65,0.35,17.31,-0.51,1.15,-0.46,0.77,1.66,1009.42
20.445,-1.07,0.79,-0.98,17.31,-0.51,1.15,-0.46,0.77,1.66,1009.42
20.446,-1.07,0.79,-0.98,6.33,0.91,-1.17,-0.46,0.77,1.66,1009.42
20.463,0.57,0.99,0.38,6.33,0.91,-1.17,-0.46,0.77,1.66,1009.42
20.47,0.57,0.99,0.38,6.33,0.91,-1.17,-0.46,0.77,1.66,1009.54
