time,gFx,gFy,gFz,ax,ay,az,wx,wy,wz,P
0.004,-0.28,0.74,0.64,0.04,-0.02,-0.03,0.05,-0.11,-0.00,1005.86
0.005,-0.25,0.76,0.60,0.04,-0.02,-0.03,0.05,-0.11,-0.00,1005.86
0.005,-0.25,0.74,0.68,0.04,-0.02,-0.03,0.05,-0.11,-0.00,1005.86
0.039,-0.25,0.74,0.68,0.04,-0.02,-0.03,0.05,-0.11,-0.00,1005.86
0.041,-0.25,0.74,0.68,0.04,-0.02,-0.03,-0.01,0.00,0.00,1005.86
0.042,-0.25,0.74,0.68,0.08,-0.04,0.17,-0.01,0.00,0.00,1005.86
0.061,-0.26,0.75,0.65,0.08,-0.04,0.17,-0.01,0.00,0.00,1005.86
0.061,-0.26,0.74,0.65,0.08,-0.04,0.17,-0.01,0.00,0.00,1005.86
0.061,-0.27,0.75,0.65,0.08,-0.04,0.17,-0.01,0.00,0.00,1005.86
0.1,-0.27,0.75,0.65,0.08,-0.04,0.17,0.00,-0.00,-0.00,1005.86
0.1,-0.27,0.75,0.65,-0.00,0.00,0.05,0.00,-0.00,-0.00,1005.86
0.122,-0.26,0.75,0.65,-0.00,0.00,0.05,0.00,-0.00,-0.00,1005.86
0.122,-0.26,0.75,0.65,-0.00,0.00,0.05,0.00,-0.00,-0.00,1005.86
0.123,-0.26,0.75,0.65,-0.00,0.00,0.05,0.00,-0.00,-0.00,1005.86
0.123,-0.26,0.75,0.65,-0.00,0.00,0.05,0.00,-0.00,-0.00,1005.85
0.16,-0.26,0.75,0.65,-0.00,0.00,0.05,-0.01,0.03,-0.01,1005.85
0.161,-0.26,0.75,0.65,-0.00,0.00,0.05,-0.01,0.03,-0.01,1005.85
0.161,-0.26,0.75,0.65,0.06,0.06,0.02,-0.01,0.03,-0.01,1005.85
0.178,-0.25,0.75,0.65,0.06,0.06,0.02,-0.01,0.03,-0.01,1005.85
0.179,-0.26,0.76,0.64,0.06,0.06,0.02,-0.01,0.03,-0.01,1005.85
0.179,-0.27,0.75,0.64,0.06,0.06,0.02,-0.01,0.03,-0.01,1005.85
0.217,-0.27,0.75,0.64,-0.06,-0.04,0.06,-0.01,0.03,-0.01,1005.85
0.217,-0.27,0.75,0.64,-0.06,-0.04,0.06,-0.02,0.06,0.00,1005.85
0.238,-0.27,0.74,0.66,-0.06,-0.04,0.06,-0.02,0.06,0.00,1005.85
0.238,-0.27,0.75,0.65,-0.06,-0.04,0.06,-0.02,0.06,0.00,1005.85
0.239,-0.28,0.75,0.65,-0.06,-0.04,0.06,-0.02,0.06,0.00,1005.85
0.239,-0.28,0.75,0.65,-0.06,-0.04,0.06,-0.02,0.06,0.00,1005.85
0.275,-0.28,0.75,0.65,0.02,0.03,0.06,-0.02,0.06,0.00,1005.85
0.275,-0.28,0.75,0.65,0.02,0.03,0.06,-0.02,0.00,-0.01,1005.85
0.295,-0.26,0.75,0.65,0.02,0.03,0.06,-0.02,0.00,-0.01,1005.85
0.296,-0.25,0.74,0.65,0.02,0.03,0.06,-0.02,0.00,-0.01,1005.85
0.296,-0.25,0.74,0.65,0.02,0.03,0.06,-0.02,0.00,-0.01,1005.85
0.321,-0.25,0.74,0.65,0.02,0.03,0.06,-0.02,0.00,-0.01,1005.86
0.333,-0.25,0.74,0.65,0.06,-0.03,0.10,-0.02,0.00,-0.01,1005.86
0.334,-0.25,0.74,0.65,0.06,-0.03,0.10,-0.02,0.03,-0.01,1005.86
0.353,-0.27,0.74,0.66,0.06,-0.03,0.10,-0.02,0.03,-0.01,1005.86
0.354,-0.26,0.75,0.66,0.06,-0.03,0.10,-0.02,0.03,-0.01,1005.86
0.354,-0.25,0.74,0.66,0.06,-0.03,0.10,-0.02,0.03,-0.01,1005.86
0.36,-0.25,0.74,0.66,0.06,-0.03,0.10,-0.02,0.03,-0.01,1005.85
0.392,-0.25,0.74,0.66,0.02,-0.04,0.03,-0.02,0.03,-0.01,1005.85
0.392,-0.25,0.74,0.66,0.02,-0.04,0.03,-0.01,0.04,-0.01,1005.85
0.41,-0.26,0.74,0.65,0.02,-0.04,0.03,-0.01,0.04,-0.01,1005.85
0.411,-0.29,0.74,0.65,0.02,-0.04,0.03,-0.01,0.04,-0.01,1005.85
0.411,-0.29,0.72,0.66,0.02,-0.04,0.03,-0.01,0.04,-0.01,1005.85
0.442,-0.29,0.72,0.66,0.02,-0.04,0.03,-0.01,0.04,-0.01,1005.85
0.45,-0.29,0.72,0.66,0.05,-0.06,0.10,-0.01,0.04,-0.01,1005.85
0.45,-0.29,0.72,0.66,0.05,-0.06,0.10,-0.01,0.03,-0.02,1005.85
0.47,-0.26,0.74,0.66,0.05,-0.06,0.10,-0.01,0.03,-0.02,1005.85
0.472,-0.25,0.75,0.65,0.05,-0.06,0.10,-0.01,0.03,-0.02,1005.85
0.473,-0.28,0.75,0.65,0.05,-0.06,0.10,-0.01,0.03,-0.02,1005.85
0.51,-0.28,0.75,0.65,-0.05,-0.01,-0.01,-0.01,0.03,-0.02,1005.85
0.511,-0.28,0.75,0.65,-0.05,-0.01,-0.01,-0.00,-0.00,-0.03,1005.85
0.524,-0.28,0.75,0.65,-0.05,-0.01,-0.01,-0.00,-0.00,-0.03,1005.86
0.529,-0.28,0.74,0.66,-0.05,-0.01,-0.01,-0.00,-0.00,-0.03,1005.86
0.53,-0.28,0.73,0.65,-0.05,-0.01,-0.01,-0.00,-0.00,-0.03,1005.86
0.53,-0.26,0.74,0.65,-0.05,-0.01,-0.01,-0.00,-0.00,-0.03,1005.86
0.56,-0.26,0.74,0.65,-0.05,-0.01,-0.01,-0.00,-0.00,-0.03,1005.86
0.566,-0.26,0.74,0.65,-0.05,-0.01,-0.01,-0.01,0.02,-0.00,1005.86
0.567,-0.26,0.74,0.65,0.06,0.01,0.06,-0.01,0.02,-0.00,1005.86
0.588,-0.26,0.75,0.65,0.06,0.01,0.06,-0.01,0.02,-0.00,1005.86
0.59,-0.27,0.74,0.67,0.06,0.01,0.06,-0.01,0.02,-0.00,1005.86
0.59,-0.27,0.74,0.66,0.06,0.01,0.06,-0.01,0.02,-0.00,1005.86
0.631,-0.27,0.74,0.66,0.06,-0.00,0.03,-0.01,0.02,-0.00,1005.86
0.634,-0.27,0.74,0.66,0.06,-0.00,0.03,-0.01,0.01,-0.00,1005.86
0.65,-0.27,0.74,0.66,0.06,-0.00,0.03,-0.01,0.01,-0.00,1005.86
0.652,-0.27,0.74,0.66,0.06,-0.00,0.03,-0.01,0.01,-0.00,1005.86
0.652,-0.26,0.75,0.65,0.06,-0.00,0.03,-0.01,0.01,-0.00,1005.86
0.653,-0.27,0.74,0.64,0.06,-0.00,0.03,-0.01,0.01,-0.00,1005.86
0.683,-0.27,0.74,0.64,0.06,-0.00,0.03,-0.00,0.03,0.01,1005.86
0.684,-0.27,0.74,0.64,-0.03,-0.05,-0.01,-0.00,0.03,0.01,1005.86
0.704,-0.28,0.74,0.66,-0.03,-0.05,-0.01,-0.00,0.03,0.01,1005.86
0.706,-0.28,0.73,0.66,-0.03,-0.05,-0.01,-0.00,0.03,0.01,1005.86
0.707,-0.29,0.73,0.66,-0.03,-0.05,-0.01,-0.00,0.03,0.01,1005.86
0.724,-0.29,0.73,0.66,-0.03,-0.05,-0.01,-0.00,0.03,0.01,1005.86
0.744,-0.29,0.73,0.66,-0.03,-0.05,-0.01,0.02,-0.01,-0.01,1005.86
0.746,-0.29,0.73,0.66,-0.08,-0.05,0.03,0.02,-0.01,-0.01,1005.86
0.76,-0.29,0.73,0.66,-0.08,-0.05,0.03,0.02,-0.01,-0.01,1005.85
0.761,-0.29,0.74,0.66,-0.08,-0.05,0.03,0.02,-0.01,-0.01,1005.85
0.762,-0.27,0.74,0.65,-0.08,-0.05,0.03,0.02,-0.01,-0.01,1005.85
0.762,-0.26,0.75,0.65,-0.08,-0.05,0.03,0.02,-0.01,-0.01,1005.85
0.8,-0.26,0.75,0.65,-0.08,-0.05,0.03,0.00,-0.04,0.00,1005.85
0.802,-0.26,0.75,0.65,0.06,0.02,0.01,0.00,-0.04,0.00,1005.85
0.82,-0.27,0.75,0.65,0.06,0.02,0.01,0.00,-0.04,0.00,1005.85
0.822,-0.27,0.74,0.66,0.06,0.02,0.01,0.00,-0.04,0.00,1005.85
0.823,-0.27,0.73,0.66,0.06,0.02,0.01,0.00,-0.04,0.00,1005.85
0.845,-0.27,0.73,0.66,0.06,0.02,0.01,0.00,-0.04,0.00,1005.85
0.861,-0.27,0.73,0.66,0.03,-0.01,0.04,0.00,-0.04,0.00,1005.85
0.862,-0.27,0.73,0.66,0.03,-0.01,0.04,-0.00,-0.02,0.01,1005.85
0.878,-0.26,0.74,0.66,0.03,-0.01,0.04,-0.00,-0.02,0.01,1005.85
0.879,-0.26,0.75,0.65,0.03,-0.01,0.04,-0.00,-0.02,0.01,1005.85
0.879,-0.27,0.75,0.66,0.03,-0.01,0.04,-0.00,-0.02,0.01,1005.85
0.917,-0.27,0.75,0.66,0.03,-0.01,0.04,-0.00,-0.02,0.00,1005.85
0.919,-0.27,0.75,0.66,-0.02,-0.03,0.04,-0.00,-0.02,0.00,1005.85
0.929,-0.27,0.75,0.66,-0.02,-0.03,0.04,-0.00,-0.02,0.00,1005.86
0.953,-0.27,0.74,0.66,-0.02,-0.03,0.04,-0.00,-0.02,0.00,1005.86
0.954,-0.27,0.73,0.66,-0.02,-0.03,0.04,-0.00,-0.02,0.00,1005.86
0.955,-0.27,0.74,0.65,-0.02,-0.03,0.04,-0.00,-0.02,0.00,1005.86
0.961,-0.27,0.74,0.65,-0.02,-0.03,0.04,-0.00,-0.02,0.00,1005.86
0.976,-0.27,0.74,0.65,-0.02,-0.03,0.04,0.01,-0.03,0.01,1005.86
0.977,-0.27,0.74,0.65,0.03,0.03,-0.01,0.01,-0.03,0.01,1005.86
0.994,-0.27,0.75,0.65,0.03,0.03,-0.01,0.01,-0.03,0.01,1005.86
0.995,-0.26,0.75,0.66,0.03,0.03,-0.01,0.01,-0.03,0.01,1005.86
0.996,-0.27,0.75,0.66,0.03,0.03,-0.01,0.01,-0.03,0.01,1005.86
1.034,-0.27,0.75,0.66,0.03,0.03,-0.01,0.00,0.00,-0.00,1005.86
1.035,-0.27,0.75,0.66,-0.03,0.02,0.03,0.00,0.00,-0.00,1005.86
1.041,-0.27,0.75,0.66,-0.03,0.02,0.03,0.00,0.00,-0.00,1005.86
1.052,-0.27,0.75,0.66,-0.03,0.02,0.03,0.00,0.00,-0.00,1005.86
1.053,-0.28,0.74,0.66,-0.03,0.02,0.03,0.00,0.00,-0.00,1005.86
1.053,-0.27,0.74,0.65,-0.03,0.02,0.03,0.00,0.00,-0.00,1005.86
1.091,-0.27,0.74,0.65,-0.03,0.02,0.03,0.01,0.00,-0.00,1005.86
1.092,-0.27,0.74,0.65,0.09,0.01,-0.02,0.01,0.00,-0.00,1005.86
1.111,-0.25,0.75,0.65,0.09,0.01,-0.02,0.01,0.00,-0.00,1005.86
1.112,-0.26,0.74,0.65,0.09,0.01,-0.02,0.01,0.00,-0.00,1005.86
1.113,-0.28,0.74,0.66,0.09,0.01,-0.02,0.01,0.00,-0.00,1005.86
1.12,-0.28,0.74,0.66,0.09,0.01,-0.02,0.01,0.00,-0.00,1005.87
1.151,-0.28,0.74,0.66,0.09,0.01,-0.02,0.00,-0.01,-0.01,1005.87
1.153,-0.28,0.74,0.66,-0.07,-0.04,0.03,0.00,-0.01,-0.01,1005.87
1.164,-0.28,0.74,0.66,-0.07,-0.04,0.03,0.00,-0.01,-0.01,1005.86
1.17,-0.28,0.73,0.66,-0.07,-0.04,0.03,0.00,-0.01,-0.01,1005.86
1.171,-0.26,0.74,0.65,-0.07,-0.04,0.03,0.00,-0.01,-0.01,1005.86
1.173,-0.26,0.75,0.65,-0.07,-0.04,0.03,0.00,-0.01,-0.01,1005.86
1.209,-0.26,0.75,0.65,-0.04,0.03,-0.05,0.00,-0.01,-0.01,1005.86
1.21,-0.26,0.75,0.65,-0.04,0.03,-0.05,-0.00,-0.00,-0.00,1005.86
1.231,-0.27,0.75,0.65,-0.04,0.03,-0.05,-0.00,-0.00,-0.00,1005.86
1.234,-0.29,0.74,0.65,-0.04,0.03,-0.05,-0.00,-0.00,-0.00,1005.86
1.239,-0.30,0.72,0.65,-0.04,0.03,-0.05,-0.00,-0.00,-0.00,1005.86
1.241,-0.30,0.72,0.65,-0.04,0.03,-0.05,-0.00,-0.00,-0.00,1005.86
1.267,-0.30,0.72,0.65,-0.04,0.03,-0.05,-0.00,0.01,-0.06,1005.86
1.268,-0.30,0.72,0.65,-0.45,-0.27,-0.03,-0.00,0.01,-0.06,1005.86
1.287,-0.32,0.71,0.65,-0.45,-0.27,-0.03,-0.00,0.01,-0.06,1005.86
1.29,-0.34,0.70,0.65,-0.45,-0.27,-0.03,-0.00,0.01,-0.06,1005.86
1.291,-0.35,0.68,0.63,-0.45,-0.27,-0.03,-0.00,0.01,-0.06,1005.86
1.321,-0.35,0.68,0.63,-0.45,-0.27,-0.03,-0.00,0.01,-0.06,1005.87
1.331,-0.35,0.68,0.63,-0.61,-1.18,-0.69,-0.00,0.01,-0.06,1005.87
1.333,-0.35,0.68,0.63,-0.61,-1.18,-0.69,0.08,0.13,-0.30,1005.87
1.345,-0.36,0.62,0.60,-0.61,-1.18,-0.69,0.08,0.13,-0.30,1005.87
1.346,-0.35,0.55,0.51,-0.61,-1.18,-0.69,0.08,0.13,-0.30,1005.87
1.346,-0.42,0.55,0.57,-0.61,-1.18,-0.69,0.08,0.13,-0.30,1005.87
1.36,-0.42,0.55,0.57,-0.61,-1.18,-0.69,0.08,0.13,-0.30,1005.85
1.383,-0.42,0.55,0.57,-0.61,-1.18,-0.69,0.44,0.34,-0.56,1005.85
1.384,-0.42,0.55,0.57,-0.81,-2.00,-1.13,0.44,0.34,-0.56,1005.85
1.402,-0.43,0.51,0.50,-0.81,-2.00,-1.13,0.44,0.34,-0.56,1005.85
1.404,-0.39,0.53,0.43,-0.81,-2.00,-1.13,0.44,0.34,-0.56,1005.85
1.405,-0.36,0.55,0.41,-0.81,-2.00,-1.13,0.44,0.34,-0.56,1005.85
1.44,-0.36,0.55,0.41,-0.81,-2.00,-1.13,0.44,0.34,-0.56,1005.84
1.444,-0.36,0.55,0.41,-0.81,-2.00,-1.13,0.82,0.66,-0.51,1005.84
1.445,-0.36,0.55,0.41,0.52,-2.01,-1.99,0.82,0.66,-0.51,1005.84
1.462,-0.31,0.53,0.33,0.52,-2.01,-1.99,0.82,0.66,-0.51,1005.84
1.464,-0.30,0.54,0.34,0.52,-2.01,-1.99,0.82,0.66,-0.51,1005.84
1.465,-0.28,0.57,0.32,0.52,-2.01,-1.99,0.82,0.66,-0.51,1005.84
1.5,-0.28,0.57,0.32,0.52,-2.01,-1.99,1.08,0.85,-0.25,1005.84
1.501,-0.28,0.57,0.32,1.28,-1.44,-1.57,1.08,0.85,-0.25,1005.84
1.52,-0.27,0.61,0.32,1.28,-1.44,-1.57,1.08,0.85,-0.25,1005.84
1.522,-0.29,0.69,0.35,1.28,-1.44,-1.57,1.08,0.85,-0.25,1005.84
1.523,-0.38,0.75,0.39,1.28,-1.44,-1.57,1.08,0.85,-0.25,1005.84
1.525,-0.38,0.75,0.39,1.28,-1.44,-1.57,1.08,0.85,-0.25,1005.83
1.559,-0.38,0.75,0.39,1.28,-1.44,-1.57,1.35,0.18,0.19,1005.83
1.561,-0.38,0.75,0.39,0.56,-0.49,-0.59,1.35,0.18,0.19,1005.83
1.561,-0.38,0.75,0.39,0.56,-0.49,-0.59,1.35,0.18,0.19,1005.84
1.578,-0.36,0.76,0.35,0.56,-0.49,-0.59,1.35,0.18,0.19,1005.84
1.58,-0.31,0.76,0.34,0.56,-0.49,-0.59,1.35,0.18,0.19,1005.84
1.581,-0.26,0.78,0.33,0.56,-0.49,-0.59,1.35,0.18,0.19,1005.84
1.616,-0.26,0.78,0.33,0.56,-0.49,-0.59,1.46,-0.53,0.49,1005.84
1.618,-0.26,0.78,0.33,1.21,-0.50,-0.47,1.46,-0.53,0.49,1005.84
1.636,-0.23,0.80,0.31,1.21,-0.50,-0.47,1.46,-0.53,0.49,1005.84
1.638,-0.23,0.82,0.29,1.21,-0.50,-0.47,1.46,-0.53,0.49,1005.84
1.639,-0.22,0.83,0.28,1.21,-0.50,-0.47,1.46,-0.53,0.49,1005.84
1.64,-0.22,0.83,0.28,1.21,-0.50,-0.47,1.46,-0.53,0.49,1005.84
1.678,-0.22,0.83,0.28,1.15,-0.12,-0.25,1.46,-0.53,0.49,1005.84
1.681,-0.22,0.83,0.28,1.15,-0.12,-0.25,1.47,-0.48,0.70,1005.84
1.695,-0.20,0.88,0.27,1.15,-0.12,-0.25,1.47,-0.48,0.70,1005.84
1.697,-0.18,0.93,0.26,1.15,-0.12,-0.25,1.47,-0.48,0.70,1005.84
1.698,-0.19,0.97,0.26,1.15,-0.12,-0.25,1.47,-0.48,0.70,1005.84
1.72,-0.19,0.97,0.26,1.15,-0.12,-0.25,1.47,-0.48,0.70,1005.84
1.735,-0.19,0.97,0.26,1.15,-0.12,-0.25,1.40,-0.25,0.82,1005.84
1.736,-0.19,0.97,0.26,0.79,0.68,0.30,1.40,-0.25,0.82,1005.84
1.753,-0.19,1.00,0.26,0.79,0.68,0.30,1.40,-0.25,0.82,1005.84
1.754,-0.18,1.03,0.26,0.79,0.68,0.30,1.40,-0.25,0.82,1005.84
1.754,-0.17,1.09,0.25,0.79,0.68,0.30,1.40,-0.25,0.82,1005.84
1.76,-0.17,1.09,0.25,0.79,0.68,0.30,1.40,-0.25,0.82,1005.84
1.792,-0.17,1.09,0.25,0.79,0.68,0.30,1.31,-0.17,0.86,1005.84
1.795,-0.17,1.09,0.25,0.44,1.79,0.95,1.31,-0.17,0.86,1005.84
1.812,-0.17,1.16,0.26,0.44,1.79,0.95,1.31,-0.17,0.86,1005.84
1.814,-0.18,1.19,0.26,0.44,1.79,0.95,1.31,-0.17,0.86,1005.84
1.814,-0.19,1.19,0.27,0.44,1.79,0.95,1.31,-0.17,0.86,1005.84
1.846,-0.19,1.19,0.27,0.44,1.79,0.95,1.31,-0.17,0.86,1005.85
1.85,-0.19,1.19,0.27,-0.24,1.90,1.63,1.31,-0.17,0.86,1005.85
1.851,-0.19,1.19,0.27,-0.24,1.90,1.63,1.10,-0.11,0.90,1005.85
1.869,-0.19,1.19,0.27,-0.24,1.90,1.63,1.10,-0.11,0.90,1005.85
1.87,-0.18,1.15,0.27,-0.24,1.90,1.63,1.10,-0.11,0.90,1005.85
1.871,-0.20,1.10,0.25,-0.24,1.90,1.63,1.10,-0.11,0.90,1005.85
1.91,-0.20,1.10,0.25,-0.24,1.90,1.63,0.82,-0.24,0.96,1005.85
1.912,-0.20,1.10,0.25,-1.10,0.31,1.74,0.82,-0.24,0.96,1005.85
1.921,-0.20,1.10,0.25,-1.10,0.31,1.74,0.82,-0.24,0.96,1005.87
1.928,-0.24,1.04,0.24,-1.10,0.31,1.74,0.82,-0.24,0.96,1005.87
1.93,-0.24,0.95,0.23,-1.10,0.31,1.74,0.82,-0.24,0.96,1005.87
1.931,-0.20,0.85,0.16,-1.10,0.31,1.74,0.82,-0.24,0.96,1005.87
1.967,-0.20,0.85,0.16,-1.10,0.31,1.74,0.82,-0.24,0.96,1005.88
1.969,-0.20,0.85,0.16,-1.10,0.31,1.74,0.52,-0.43,1.00,1005.88
1.969,-0.20,0.85,0.16,-1.59,-0.55,1.28,0.52,-0.43,1.00,1005.88
1.986,-0.24,0.79,0.22,-1.59,-0.55,1.28,0.52,-0.43,1.00,1005.88
1.987,-0.21,1.19,0.12,-1.59,-0.55,1.28,0.52,-0.43,1.00,1005.88
1.988,-0.43,3.17,0.85,-1.59,-0.55,1.28,0.52,-0.43,1.00,1005.88
2.032,-0.43,3.17,0.85,-1.59,-0.55,1.28,0.42,0.36,0.87,1005.88
2.033,-0.43,3.17,0.85,-2.26,10.11,2.03,0.42,0.36,0.87,1005.88
2.042,-0.43,3.17,0.85,-2.26,10.11,2.03,0.42,0.36,0.87,1005.88
2.052,-0.10,2.56,0.16,-2.26,10.11,2.03,0.42,0.36,0.87,1005.88
2.053,-0.20,0.45,-0.34,-2.26,10.11,2.03,0.42,0.36,0.87,1005.88
2.053,-0.03,-0.02,-0.18,-2.26,10.11,2.03,0.42,0.36,0.87,1005.88
2.083,-0.03,-0.02,-0.18,-2.26,10.11,2.03,0.61,-0.01,0.95,1005.88
2.085,-0.03,-0.02,-0.18,0.97,-4.24,0.98,0.61,-0.01,0.95,1005.88
2.104,0.33,0.65,0.29,0.97,-4.24,0.98,0.61,-0.01,0.95,1005.88
2.106,0.14,1.11,0.13,0.97,-4.24,0.98,0.61,-0.01,0.95,1005.88
2.108,0.04,1.22,-0.18,0.97,-4.24,0.98,0.61,-0.01,0.95,1005.88
2.12,0.04,1.22,-0.18,0.97,-4.24,0.98,0.61,-0.01,0.95,1005.89
2.142,0.04,1.22,-0.18,0.97,-4.24,0.98,0.65,-0.06,0.77,1005.89
2.144,0.04,1.22,-0.18,-0.29,1.84,-1.14,0.65,-0.06,0.77,1005.89
2.165,0.04,1.22,-0.18,-0.29,1.84,-1.14,0.65,-0.06,0.77,1005.90
2.168,0.02,1.24,-0.22,-0.29,1.84,-1.14,0.65,-0.06,0.77,1005.90
2.169,0.13,1.15,-0.14,-0.29,1.84,-1.14,0.65,-0.06,0.77,1005.90
2.17,0.20,0.98,-0.14,-0.29,1.84,-1.14,0.65,-0.06,0.77,1005.90
2.201,0.20,0.98,-0.14,-0.29,1.84,-1.14,0.60,0.03,0.60,1005.90
2.202,0.20,0.98,-0.14,-0.41,-0.30,0.23,0.60,0.03,0.60,1005.90
2.22,0.09,0.92,-0.08,-0.41,-0.30,0.23,0.60,0.03,0.60,1005.90
2.221,-0.03,1.04,0.01,-0.41,-0.30,0.23,0.60,0.03,0.60,1005.90
2.222,-0.10,1.30,-0.23,-0.41,-0.30,0.23,0.60,0.03,0.60,1005.90
2.242,-0.10,1.30,-0.23,-0.41,-0.30,0.23,0.60,0.03,0.60,1005.89
2.262,-0.10,1.30,-0.23,-0.41,-0.30,0.23,0.47,0.05,0.67,1005.89
2.263,-0.10,1.30,-0.23,-2.58,5.43,-1.68,0.47,0.05,0.67,1005.89
2.28,-0.03,1.59,-0.25,-2.58,5.43,-1.68,0.47,0.05,0.67,1005.89
2.283,-0.17,1.81,-0.41,-2.58,5.43,-1.68,0.47,0.05,0.67,1005.89
2.284,-0.26,1.76,-0.27,-2.58,5.43,-1.68,0.47,0.05,0.67,1005.89
2.318,-0.26,1.76,-0.27,-2.58,5.43,-1.68,0.11,-0.93,1.01,1005.89
2.322,-0.26,1.76,-0.27,-3.64,3.06,-0.96,0.11,-0.93,1.01,1005.89
2.324,-0.26,1.76,-0.27,-3.64,3.06,-0.96,0.11,-0.93,1.01,1005.88
2.336,-0.26,1.38,-0.16,-3.64,3.06,-0.96,0.11,-0.93,1.01,1005.88
2.338,0.02,0.82,-0.30,-3.64,3.06,-0.96,0.11,-0.93,1.01,1005.88
2.339,0.19,0.63,-0.39,-3.64,3.06,-0.96,0.11,-0.93,1.01,1005.88
2.36,0.19,0.63,-0.39,-3.64,3.06,-0.96,0.11,-0.93,1.01,1005.87
2.377,0.19,0.63,-0.39,-3.64,3.06,-0.96,-0.42,-0.58,0.62,1005.87
2.379,0.19,0.63,-0.39,-3.90,-2.84,0.47,-0.42,-0.58,0.62,1005.87
2.395,-0.10,0.76,-0.03,-3.90,-2.84,0.47,-0.42,-0.58,0.62,1005.87
2.396,-0.60,0.72,0.19,-3.90,-2.84,0.47,-0.42,-0.58,0.62,1005.87
2.398,-0.79,0.61,0.03,-3.90,-2.84,0.47,-0.42,-0.58,0.62,1005.87
2.434,-0.79,0.61,0.03,-3.90,-2.84,0.47,-0.69,-2.45,-0.91,1005.87
2.437,-0.79,0.61,0.03,-7.27,-3.63,0.26,-0.69,-2.45,-0.91,1005.87
2.454,-0.79,0.61,0.03,-7.27,-3.63,0.26,-0.69,-2.45,-0.91,1005.88
2.459,-0.63,0.60,-0.13,-7.27,-3.63,0.26,-0.69,-2.45,-0.91,1005.88
2.46,-0.38,0.68,-0.16,-7.27,-3.63,0.26,-0.69,-2.45,-0.91,1005.88
2.46,-0.26,0.75,-0.18,-7.27,-3.63,0.26,-0.69,-2.45,-0.91,1005.88
2.492,-0.26,0.75,-0.18,-7.27,-3.63,0.26,-0.80,-2.70,-1.78,1005.88
2.494,-0.26,0.75,-0.18,-2.48,-1.65,-1.51,-0.80,-2.70,-1.78,1005.88
2.511,-0.23,0.86,-0.24,-2.48,-1.65,-1.51,-0.80,-2.70,-1.78,1005.88
2.513,-0.21,0.93,-0.29,-2.48,-1.65,-1.51,-0.80,-2.70,-1.78,1005.88
2.514,-0.17,0.92,-0.29,-2.48,-1.65,-1.51,-0.80,-2.70,-1.78,1005.88
2.521,-0.17,0.92,-0.29,-2.48,-1.65,-1.51,-0.80,-2.70,-1.78,1005.88
2.55,-0.17,0.92,-0.29,-2.48,-1.65,-1.51,-0.91,-2.24,-2.26,1005.88
2.552,-0.17,0.92,-0.29,-0.10,-1.41,-2.70,-0.91,-2.24,-2.26,1005.88
2.561,-0.17,0.92,-0.29,-0.10,-1.41,-2.70,-0.91,-2.24,-2.26,1005.87
2.571,-0.13,0.85,-0.31,-0.10,-1.41,-2.70,-0.91,-2.24,-2.26,1005.87
2.572,-0.09,0.81,-0.31,-0.10,-1.41,-2.70,-0.91,-2.24,-2.26,1005.87
2.572,-0.06,0.86,-0.26,-0.10,-1.41,-2.70,-0.91,-2.24,-2.26,1005.87
2.608,-0.06,0.86,-0.26,-0.10,-1.41,-2.70,-0.19,-2.20,-1.83,1005.87
2.611,-0.06,0.86,-0.26,1.54,-1.33,-2.90,-0.19,-2.20,-1.83,1005.87
2.628,-0.08,0.88,-0.24,1.54,-1.33,-2.90,-0.19,-2.20,-1.83,1005.87
2.629,-0.07,0.81,-0.38,1.54,-1.33,-2.90,-0.19,-2.20,-1.83,1005.87
2.629,0.16,0.72,-0.63,1.54,-1.33,-2.90,-0.19,-2.20,-1.83,1005.87
2.64,0.16,0.72,-0.63,1.54,-1.33,-2.90,-0.19,-2.20,-1.83,1005.87
2.666,0.16,0.72,-0.63,1.54,-1.33,-2.90,0.94,-2.57,0.21,1005.87
2.667,0.16,0.72,-0.63,7.25,-2.11,-5.77,0.94,-2.57,0.21,1005.87
2.686,0.52,0.79,-0.61,7.25,-2.11,-5.77,0.94,-2.57,0.21,1005.87
2.688,0.93,0.80,-0.61,7.25,-2.11,-5.77,0.94,-2.57,0.21,1005.87
2.689,1.26,0.83,-0.49,7.25,-2.11,-5.77,0.94,-2.57,0.21,1005.87
2.721,1.26,0.83,-0.49,7.25,-2.11,-5.77,0.94,-2.57,0.21,1005.86
2.734,1.26,0.83,-0.49,10.90,8.67,2.85,0.94,-2.57,0.21,1005.86
2.743,1.26,0.83,-0.49,10.90,8.67,2.85,-0.41,0.72,1.99,1005.86
2.746,1.54,1.84,-0.08,10.90,8.67,2.85,-0.41,0.72,1.99,1005.86
2.747,0.34,3.04,1.43,10.90,8.67,2.85,-0.41,0.72,1.99,1005.86
2.748,-1.34,1.71,-0.24,10.90,8.67,2.85,-0.41,0.72,1.99,1005.86
2.763,-1.34,1.71,-0.24,10.90,8.67,2.85,-0.41,0.72,1.99,1005.87
2.783,-1.34,1.71,-0.24,10.90,8.67,2.85,1.26,0.50,1.35,1005.87
2.785,-1.34,1.71,-0.24,-7.73,-3.16,-3.66,1.26,0.50,1.35,1005.87
2.802,-1.34,0.03,-0.60,-7.73,-3.16,-3.66,1.26,0.50,1.35,1005.87
2.803,0.32,0.32,-0.54,-7.73,-3.16,-3.66,1.26,0.50,1.35,1005.87
2.804,0.63,1.21,-0.35,-7.73,-3.16,-3.66,1.26,0.50,1.35,1005.87
2.843,0.63,1.21,-0.35,-7.73,-3.16,-3.66,1.26,0.50,1.35,1005.88
2.845,0.63,1.21,-0.35,7.61,1.43,-0.38,1.26,0.50,1.35,1005.88
2.847,0.63,1.21,-0.35,7.61,1.43,-0.38,0.04,-1.39,2.19,1005.88
2.863,1.00,1.39,-0.01,7.61,1.43,-0.38,0.04,-1.39,2.19,1005.88
2.864,1.10,0.86,-0.04,7.61,1.43,-0.38,0.04,-1.39,2.19,1005.88
2.865,0.47,0.80,-0.18,7.61,1.43,-0.38,0.04,-1.39,2.19,1005.88
2.9,0.47,0.80,-0.18,7.61,1.43,-0.38,0.25,0.65,0.36,1005.88
2.902,0.47,0.80,-0.18,-0.25,-0.22,-0.68,0.25,0.65,0.36,1005.88
2.92,-0.01,1.09,-0.19,-0.25,-0.22,-0.68,0.25,0.65,0.36,1005.88
2.922,-0.06,1.04,-0.16,-0.25,-0.22,-0.68,0.25,0.65,0.36,1005.88
2.923,0.03,0.94,-0.05,-0.25,-0.22,-0.68,0.25,0.65,0.36,1005.88
2.923,0.03,0.94,-0.05,-0.25,-0.22,-0.68,0.25,0.65,0.36,1005.87
2.958,0.03,0.94,-0.05,-0.25,-0.22,-0.68,0.16,-0.16,0.61,1005.87
2.96,0.03,0.94,-0.05,-1.08,-0.04,0.63,0.16,-0.16,0.61,1005.87
2.961,0.03,0.94,-0.05,-1.08,-0.04,0.63,0.16,-0.16,0.61,1005.89
2.978,0.07,1.01,-0.02,-1.08,-0.04,0.63,0.16,-0.16,0.61,1005.89
2.981,0.15,1.01,-0.09,-1.08,-0.04,0.63,0.16,-0.16,0.61,1005.89
2.983,0.20,1.00,-0.09,-1.08,-0.04,0.63,0.16,-0.16,0.61,1005.89
3.017,0.20,1.00,-0.09,-1.08,-0.04,0.63,0.33,-0.15,0.73,1005.89
3.018,0.20,1.00,-0.09,-0.36,0.06,0.76,0.33,-0.15,0.73,1005.89
3.037,0.20,0.97,-0.05,-0.36,0.06,0.76,0.33,-0.15,0.73,1005.89
3.04,0.19,0.99,-0.03,-0.36,0.06,0.76,0.33,-0.15,0.73,1005.89
3.041,0.20,1.00,-0.10,-0.36,0.06,0.76,0.33,-0.15,0.73,1005.89
3.042,0.20,1.00,-0.10,-0.36,0.06,0.76,0.33,-0.15,0.73,1005.90
3.076,0.20,1.00,-0.10,-0.36,0.06,0.76,0.44,-0.22,0.79,1005.90
3.08,0.20,1.00,-0.10,-1.10,0.50,0.54,0.44,-0.22,0.79,1005.90
3.098,0.16,1.01,-0.13,-1.10,0.50,0.54,0.44,-0.22,0.79,1005.90
3.1,0.12,1.04,-0.10,-1.10,0.50,0.54,0.44,-0.22,0.79,1005.90
3.101,0.20,1.04,-0.07,-1.10,0.50,0.54,0.44,-0.22,0.79,1005.90
3.123,0.20,1.04,-0.07,-1.10,0.50,0.54,0.44,-0.22,0.79,1005.90
3.134,0.20,1.04,-0.07,-1.10,0.50,0.54,0.60,-0.54,1.05,1005.90
3.135,0.20,1.04,-0.07,-1.16,0.85,1.10,0.60,-0.54,1.05,1005.90
3.152,0.27,1.03,-0.09,-1.16,0.85,1.10,0.60,-0.54,1.05,1005.90
3.153,0.15,1.02,-0.11,-1.16,0.85,1.10,0.60,-0.54,1.05,1005.90
3.154,0.02,1.07,-0.10,-1.16,0.85,1.10,0.60,-0.54,1.05,1005.90
3.161,0.02,1.07,-0.10,-1.16,0.85,1.10,0.60,-0.54,1.05,1005.89
3.192,0.02,1.07,-0.10,-1.16,0.85,1.10,1.04,-0.61,1.46,1005.89
3.193,0.02,1.07,-0.10,-3.79,2.13,1.15,1.04,-0.61,1.46,1005.89
3.216,-0.01,1.11,-0.19,-3.79,2.13,1.15,1.04,-0.61,1.46,1005.89
3.219,-0.01,1.18,-0.17,-3.79,2.13,1.15,1.04,-0.61,1.46,1005.89
3.221,-0.04,1.24,-0.16,-3.79,2.13,1.15,1.04,-0.61,1.46,1005.89
3.241,-0.04,1.24,-0.16,-3.79,2.13,1.15,1.04,-0.61,1.46,1005.89
3.257,-0.04,1.24,-0.16,-5.16,4.77,1.76,1.04,-0.61,1.46,1005.89
3.26,-0.04,1.24,-0.16,-5.16,4.77,1.76,1.72,-0.69,2.15,1005.89
3.269,-0.02,1.22,-0.21,-5.16,4.77,1.76,1.72,-0.69,2.15,1005.89
3.27,-0.10,1.47,-0.20,-5.16,4.77,1.76,1.72,-0.69,2.15,1005.89
3.27,-0.41,2.19,-0.15,-5.16,4.77,1.76,1.72,-0.69,2.15,1005.89
3.309,-0.41,2.19,-0.15,-5.16,4.77,1.76,1.92,-0.82,2.33,1005.89
3.311,-0.41,2.19,-0.15,-12.07,13.02,5.31,1.92,-0.82,2.33,1005.89
3.321,-0.41,2.19,-0.15,-12.07,13.02,5.31,1.92,-0.82,2.33,1005.89
3.329,-0.98,2.33,0.09,-12.07,13.02,5.31,1.92,-0.82,2.33,1005.89
3.331,-0.69,1.64,0.27,-12.07,13.02,5.31,1.92,-0.82,2.33,1005.89
3.333,0.38,1.39,-0.09,-12.07,13.02,5.31,1.92,-0.82,2.33,1005.89
3.365,0.38,1.39,-0.09,-12.07,13.02,5.31,1.92,-0.82,2.33,1005.90
3.367,0.38,1.39,-0.09,-12.07,13.02,5.31,2.07,-0.80,3.84,1005.90
3.369,0.38,1.39,-0.09,3.18,7.14,1.70,2.07,-0.80,3.84,1005.90
3.391,1.29,1.35,-0.44,3.18,7.14,1.70,2.07,-0.80,3.84,1005.90
3.395,1.28,1.07,-0.67,3.18,7.14,1.70,2.07,-0.80,3.84,1005.90
3.396,0.47,0.73,-0.63,3.18,7.14,1.70,2.07,-0.80,3.84,1005.90
3.424,0.47,0.73,-0.63,3.18,7.14,1.70,-0.20,-0.72,0.95,1005.90
3.425,0.47,0.73,-0.63,-3.98,-0.16,-0.44,-0.20,-0.72,0.95,1005.90
3.441,0.47,0.73,-0.63,-3.98,-0.16,-0.44,-0.20,-0.72,0.95,1005.88
3.444,0.21,0.47,-0.71,-3.98,-0.16,-0.44,-0.20,-0.72,0.95,1005.88
3.445,0.07,0.28,-0.58,-3.98,-0.16,-0.44,-0.20,-0.72,0.95,1005.88
3.445,0.16,0.10,-0.27,-3.98,-0.16,-0.44,-0.20,-0.72,0.95,1005.88
3.484,0.16,0.10,-0.27,-3.98,-0.16,-0.44,-2.62,-0.51,-1.33,1005.88
3.485,0.16,0.10,-0.27,-4.24,-5.45,2.27,-2.62,-0.51,-1.33,1005.88
3.503,0.18,0.03,-0.20,-4.24,-5.45,2.27,-2.62,-0.51,-1.33,1005.88
3.504,0.12,0.11,-0.41,-4.24,-5.45,2.27,-2.62,-0.51,-1.33,1005.88
3.505,0.06,0.22,-0.54,-4.24,-5.45,2.27,-2.62,-0.51,-1.33,1005.88
3.521,0.06,0.22,-0.54,-4.24,-5.45,2.27,-2.62,-0.51,-1.33,1005.87
3.541,0.06,0.22,-0.54,-4.24,-5.45,2.27,-3.50,-0.18,-3.24,1005.87
3.543,0.06,0.22,-0.54,-3.99,-5.17,-1.91,-3.50,-0.18,-3.24,1005.87
3.563,0.02,0.29,-0.58,-3.99,-5.17,-1.91,-3.50,-0.18,-3.24,1005.87
3.564,0.00,0.36,-0.61,-3.99,-5.17,-1.91,-3.50,-0.18,-3.24,1005.87
3.565,-0.05,0.43,-0.34,-3.99,-5.17,-1.91,-3.50,-0.18,-3.24,1005.87
3.565,-0.05,0.43,-0.34,-3.99,-5.17,-1.91,-3.50,-0.18,-3.24,1005.91
3.599,-0.05,0.43,-0.34,-3.99,-5.17,-1.91,-3.90,-1.38,-4.70,1005.91
3.601,-0.05,0.43,-0.34,-2.66,-3.51,-1.97,-3.90,-1.38,-4.70,1005.91
3.619,-0.16,0.52,-0.22,-2.66,-3.51,-1.97,-3.90,-1.38,-4.70,1005.91
3.62,-0.12,0.86,-0.65,-2.66,-3.51,-1.97,-3.90,-1.38,-4.70,1005.91
3.621,0.26,1.44,-0.89,-2.66,-3.51,-1.97,-3.90,-1.38,-4.70,1005.91
3.641,0.26,1.44,-0.89,-2.66,-3.51,-1.97,-3.90,-1.38,-4.70,1005.90
3.661,0.26,1.44,-0.89,-2.66,-3.51,-1.97,-3.59,-1.79,-4.70,1005.90
3.663,0.26,1.44,-0.89,7.69,4.67,-8.66,-3.59,-1.79,-4.70,1005.90
3.678,0.74,1.60,-0.83,7.69,4.67,-8.66,-3.59,-1.79,-4.70,1005.90
3.68,1.03,1.37,-0.98,7.69,4.67,-8.66,-3.59,-1.79,-4.70,1005.90
3.68,1.22,1.28,-0.96,7.69,4.67,-8.66,-3.59,-1.79,-4.70,1005.90
3.716,1.22,1.28,-0.96,7.69,4.67,-8.66,-2.43,-0.01,-2.92,1005.90
3.719,1.22,1.28,-0.96,14.12,1.14,-8.57,-2.43,-0.01,-2.92,1005.90
3.72,1.22,1.28,-0.96,14.12,1.14,-8.57,-2.43,-0.01,-2.92,1005.88
3.736,1.23,1.03,-0.67,14.12,1.14,-8.57,-2.43,-0.01,-2.92,1005.88
3.738,1.11,0.91,-0.67,14.12,1.14,-8.57,-2.43,-0.01,-2.92,1005.88
3.739,0.92,0.88,-0.58,14.12,1.14,-8.57,-2.43,-0.01,-2.92,1005.88
3.76,0.92,0.88,-0.58,14.12,1.14,-8.57,-2.43,-0.01,-2.92,1005.84
3.775,0.92,0.88,-0.58,14.12,1.14,-8.57,0.20,1.23,0.91,1005.84
3.775,0.92,0.88,-0.58,8.69,1.07,-8.24,0.20,1.23,0.91,1005.84
3.795,0.72,0.86,-0.68,8.69,1.07,-8.24,0.20,1.23,0.91,1005.84
3.798,0.44,1.51,-1.06,8.69,1.07,-8.24,0.20,1.23,0.91,1005.84
3.799,-1.16,2.09,1.14,8.69,1.07,-8.24,0.20,1.23,0.91,1005.84
3.838,-1.16,2.09,1.14,-7.28,6.30,0.92,0.20,1.23,0.91,1005.84
3.848,-1.16,2.09,1.14,-7.28,6.30,0.92,0.57,1.86,0.71,1005.84
3.85,-1.16,2.09,1.14,-7.28,6.30,0.92,0.57,1.86,0.71,1005.86
3.858,-1.53,1.76,0.57,-7.28,6.30,0.92,0.57,1.86,0.71,1005.86
3.86,-0.04,1.05,-1.39,-7.28,6.30,0.92,0.57,1.86,0.71,1005.86
3.86,0.07,0.81,-0.58,-7.28,6.30,0.92,0.57,1.86,0.71,1005.86
3.891,0.07,0.81,-0.58,-7.28,6.30,0.92,0.45,-0.20,2.15,1005.86
3.893,0.07,0.81,-0.58,3.59,-1.89,0.60,0.45,-0.20,2.15,1005.86
3.911,0.60,0.68,0.59,3.59,-1.89,0.60,0.45,-0.20,2.15,1005.86
3.913,0.31,0.94,0.15,3.59,-1.89,0.60,0.45,-0.20,2.15,1005.86
3.914,0.30,1.09,-0.07,3.59,-1.89,0.60,0.45,-0.20,2.15,1005.86
3.921,0.30,1.09,-0.07,3.59,-1.89,0.60,0.45,-0.20,2.15,1005.88
3.953,0.30,1.09,-0.07,3.59,-1.89,0.60,0.44,-0.14,0.96,1005.88
3.955,0.30,1.09,-0.07,2.16,0.52,-0.93,0.44,-0.14,0.96,1005.88
3.976,0.30,1.09,-0.07,2.16,0.52,-0.93,0.44,-0.14,0.96,1005.94
3.981,0.30,1.02,-0.21,2.16,0.52,-0.93,0.44,-0.14,0.96,1005.94
3.982,0.13,1.06,-0.12,2.16,0.52,-0.93,0.44,-0.14,0.96,1005.94
3.982,-0.06,1.08,-0.12,2.16,0.52,-0.93,0.44,-0.14,0.96,1005.94
4.008,-0.06,1.08,-0.12,2.16,0.52,-0.93,0.32,0.43,0.62,1005.94
4.01,-0.06,1.08,-0.12,-1.41,0.31,0.23,0.32,0.43,0.62,1005.94
4.036,-0.10,1.01,-0.02,-1.41,0.31,0.23,0.32,0.43,0.62,1005.94
4.037,-0.10,1.01,0.05,-1.41,0.31,0.23,0.32,0.43,0.62,1005.94
4.038,-0.05,1.00,0.01,-1.41,0.31,0.23,0.32,0.43,0.62,1005.94
4.063,-0.05,1.00,0.01,-1.41,0.31,0.23,0.32,0.43,0.62,1005.93
4.067,-0.05,1.00,0.01,-1.41,0.31,0.23,0.51,-0.08,0.94,1005.93
4.068,-0.05,1.00,0.01,-0.85,-0.20,0.98,0.51,-0.08,0.94,1005.93
4.086,0.04,0.96,0.02,-0.85,-0.20,0.98,0.51,-0.08,0.94,1005.93
4.087,0.07,0.97,0.02,-0.85,-0.20,0.98,0.51,-0.08,0.94,1005.93
4.088,0.03,0.99,-0.01,-0.85,-0.20,0.98,0.51,-0.08,0.94,1005.93
4.121,0.03,0.99,-0.01,-0.85,-0.20,0.98,0.51,-0.08,0.94,1005.92
4.124,0.03,0.99,-0.01,-1.41,0.01,1.01,0.51,-0.08,0.94,1005.92
4.125,0.03,0.99,-0.01,-1.41,0.01,1.01,0.76,-0.32,1.11,1005.92
4.146,-0.02,0.99,0.00,-1.41,0.01,1.01,0.76,-0.32,1.11,1005.92
4.15,0.06,0.97,-0.06,-1.41,0.01,1.01,0.76,-0.32,1.11,1005.92
4.152,0.21,0.98,-0.16,-1.41,0.01,1.01,0.76,-0.32,1.11,1005.92
4.168,0.21,0.98,-0.16,-1.41,0.01,1.01,0.76,-0.32,1.11,1005.92
4.184,0.21,0.98,-0.16,-1.41,0.01,1.01,0.91,-0.46,1.23,1005.92
4.186,0.21,0.98,-0.16,-0.23,0.29,-0.03,0.91,-0.46,1.23,1005.92
4.202,0.24,1.00,-0.20,-0.23,0.29,-0.03,0.91,-0.46,1.23,1005.92
4.203,0.18,0.99,-0.20,-0.23,0.29,-0.03,0.91,-0.46,1.23,1005.92
4.203,0.16,0.97,-0.19,-0.23,0.29,-0.03,0.91,-0.46,1.23,1005.92
4.24,0.16,0.97,-0.19,-0.23,0.29,-0.03,0.91,-0.46,1.23,1005.91
4.241,0.16,0.97,-0.19,-0.23,0.29,-0.03,0.97,-0.35,1.24,1005.91
4.242,0.16,0.97,-0.19,-1.28,0.81,0.19,0.97,-0.35,1.24,1005.91
4.26,0.16,1.01,-0.22,-1.28,0.81,0.19,0.97,-0.35,1.24,1005.91
4.261,0.17,1.05,-0.26,-1.28,0.81,0.19,0.97,-0.35,1.24,1005.91
4.262,0.13,1.09,-0.24,-1.28,0.81,0.19,0.97,-0.35,1.24,1005.91
4.3,0.13,1.09,-0.24,-1.28,0.81,0.19,1.28,-0.18,1.40,1005.91
4.302,0.13,1.09,-0.24,-2.66,2.38,0.92,1.28,-0.18,1.40,1005.91
4.32,0.06,1.13,-0.22,-2.66,2.38,0.92,1.28,-0.18,1.40,1005.91
4.322,0.08,1.16,-0.20,-2.66,2.38,0.92,1.28,-0.18,1.40,1005.91
4.323,0.08,1.18,-0.16,-2.66,2.38,0.92,1.28,-0.18,1.40,1005.91
4.324,0.08,1.18,-0.16,-2.66,2.38,0.92,1.28,-0.18,1.40,1005.91
4.358,0.08,1.18,-0.16,-2.66,2.38,0.92,1.71,-0.34,1.64,1005.91
4.36,0.08,1.18,-0.16,-6.00,6.29,3.64,1.71,-0.34,1.64,1005.91
4.362,0.08,1.18,-0.16,-6.00,6.29,3.64,1.71,-0.34,1.64,1005.90
4.378,-0.07,1.35,-0.07,-6.00,6.29,3.64,1.71,-0.34,1.64,1005.90
4.38,-0.58,1.86,0.15,-6.00,6.29,3.64,1.71,-0.34,1.64,1005.90
4.38,-1.24,2.08,0.07,-6.00,6.29,3.64,1.71,-0.34,1.64,1005.90
4.416,-1.24,2.08,0.07,-6.00,6.29,3.64,2.08,-1.15,2.38,1005.90
4.418,-1.24,2.08,0.07,-12.49,10.15,5.60,2.08,-1.15,2.38,1005.90
4.437,-1.01,1.77,0.12,-12.49,10.15,5.60,2.08,-1.15,2.38,1005.90
4.439,-0.14,1.41,-0.01,-12.49,10.15,5.60,2.08,-1.15,2.38,1005.90
4.44,0.85,1.36,-0.48,-12.49,10.15,5.60,2.08,-1.15,2.38,1005.90
4.443,0.85,1.36,-0.48,-12.49,10.15,5.60,2.08,-1.15,2.38,1005.90
4.474,0.85,1.36,-0.48,-12.49,10.15,5.60,2.40,-0.92,3.15,1005.90
4.476,0.85,1.36,-0.48,6.10,5.94,1.74,2.40,-0.92,3.15,1005.90
4.494,1.52,1.24,-0.31,6.10,5.94,1.74,2.40,-0.92,3.15,1005.90
4.496,1.22,0.88,-0.56,6.10,5.94,1.74,2.40,-0.92,3.15,1005.90
4.497,0.63,0.58,-0.82,6.10,5.94,1.74,2.40,-0.92,3.15,1005.90
4.521,0.63,0.58,-0.82,6.10,5.94,1.74,2.40,-0.92,3.15,1005.90
4.534,0.63,0.58,-0.82,6.10,5.94,1.74,0.15,0.88,0.00,1005.90
4.535,0.63,0.58,-0.82,-0.84,-0.71,0.07,0.15,0.88,0.00,1005.90
4.553,0.52,0.51,-0.70,-0.84,-0.71,0.07,0.15,0.88,0.00,1005.90
4.555,0.42,0.33,-0.27,-0.84,-0.71,0.07,0.15,0.88,0.00,1005.90
4.556,0.24,0.15,0.05,-0.84,-0.71,0.07,0.15,0.88,0.00,1005.90
4.561,0.24,0.15,0.05,-0.84,-0.71,0.07,0.15,0.88,0.00,1005.86
4.592,0.24,0.15,0.05,-0.84,-0.71,0.07,-1.76,0.52,-2.42,1005.86
4.594,0.24,0.15,0.05,-4.41,-5.84,5.39,-1.76,0.52,-2.42,1005.86
4.61,0.03,0.03,0.09,-4.41,-5.84,5.39,-1.76,0.52,-2.42,1005.86
4.612,-0.04,0.07,-0.01,-4.41,-5.84,5.39,-1.76,0.52,-2.42,1005.86
4.612,0.07,0.24,-0.31,-4.41,-5.84,5.39,-1.76,0.52,-2.42,1005.86
4.641,0.07,0.24,-0.31,-4.41,-5.84,5.39,-1.76,0.52,-2.42,1005.89
4.654,0.07,0.24,-0.31,-1.93,-4.29,0.36,-1.76,0.52,-2.42,1005.89
4.657,0.07,0.24,-0.31,-1.93,-4.29,0.36,-2.65,-0.62,-3.72,1005.89
4.673,0.19,0.42,-0.46,-1.93,-4.29,0.36,-2.65,-0.62,-3.72,1005.89
4.674,0.18,0.54,-0.34,-1.93,-4.29,0.36,-2.65,-0.62,-3.72,1005.89
4.674,0.16,0.57,-0.22,-1.93,-4.29,0.36,-2.65,-0.62,-3.72,1005.89
4.709,0.16,0.57,-0.22,-1.93,-4.29,0.36,-3.99,-1.19,-4.78,1005.89
4.712,0.16,0.57,-0.22,1.08,-2.01,-1.35,-3.99,-1.19,-4.78,1005.89
4.721,0.16,0.57,-0.22,1.08,-2.01,-1.35,-3.99,-1.19,-4.78,1005.94
4.728,0.16,0.68,-0.33,1.08,-2.01,-1.35,-3.99,-1.19,-4.78,1005.94
4.729,0.22,1.02,-0.49,1.08,-2.01,-1.35,-3.99,-1.19,-4.78,1005.94
4.731,0.40,1.55,-0.71,1.08,-2.01,-1.35,-3.99,-1.19,-4.78,1005.94
4.764,0.40,1.55,-0.71,1.08,-2.01,-1.35,-3.99,-1.19,-4.78,1005.92
4.768,0.40,1.55,-0.71,1.08,-2.01,-1.35,-4.27,-1.06,-4.66,1005.92
4.77,0.40,1.55,-0.71,7.56,6.18,-8.27,-4.27,-1.06,-4.66,1005.92
4.787,0.57,1.70,-0.89,7.56,6.18,-8.27,-4.27,-1.06,-4.66,1005.92
4.789,0.78,1.57,-0.86,7.56,6.18,-8.27,-4.27,-1.06,-4.66,1005.92
4.789,1.05,1.48,-0.73,7.56,6.18,-8.27,-4.27,-1.06,-4.66,1005.92
4.825,1.05,1.48,-0.73,7.56,6.18,-8.27,-2.84,0.07,-2.45,1005.92
4.826,1.05,1.48,-0.73,12.88,2.37,-7.78,-2.84,0.07,-2.45,1005.92
4.841,1.05,1.48,-0.73,12.88,2.37,-7.78,-2.84,0.07,-2.45,1005.87
4.844,1.06,1.18,-0.51,12.88,2.37,-7.78,-2.84,0.07,-2.45,1005.87
4.845,0.93,0.84,-0.64,12.88,2.37,-7.78,-2.84,0.07,-2.45,1005.87
4.846,0.72,0.71,-0.70,12.88,2.37,-7.78,-2.84,0.07,-2.45,1005.87
4.884,0.72,0.71,-0.70,12.88,2.37,-7.78,0.07,1.54,0.95,1005.87
4.886,0.72,0.71,-0.70,7.22,0.09,-8.66,0.07,1.54,0.95,1005.87
4.903,0.53,0.82,-0.63,7.22,0.09,-8.66,0.07,1.54,0.95,1005.87
4.905,0.20,1.33,-0.97,7.22,0.09,-8.66,0.07,1.54,0.95,1005.87
4.905,-1.65,1.95,1.32,7.22,0.09,-8.66,0.07,1.54,0.95,1005.87
4.921,-1.65,1.95,1.32,7.22,0.09,-8.66,0.07,1.54,0.95,1005.87
4.942,-1.65,1.95,1.32,7.22,0.09,-8.66,0.77,2.37,0.62,1005.87
4.943,-1.65,1.95,1.32,-8.86,6.83,-0.80,0.77,2.37,0.62,1005.87
4.961,-1.79,1.91,0.28,-8.86,6.83,-0.80,0.77,2.37,0.62,1005.87
4.963,-0.01,1.13,-1.73,-8.86,6.83,-0.80,0.77,2.37,0.62,1005.87
4.964,0.56,0.75,0.57,-8.86,6.83,-0.80,0.77,2.37,0.62,1005.87
4.964,0.56,0.75,0.57,-8.86,6.83,-0.80,0.77,2.37,0.62,1005.88
5.0,0.56,0.75,0.57,-8.86,6.83,-0.80,0.65,0.19,1.99,1005.88
5.001,0.56,0.75,0.57,2.14,-1.98,2.61,0.65,0.19,1.99,1005.88
5.018,-0.21,0.61,0.22,2.14,-1.98,2.61,0.65,0.19,1.99,1005.88
5.019,-0.08,1.00,0.02,2.14,-1.98,2.61,0.65,0.19,1.99,1005.88
5.02,0.44,1.12,-0.26,2.14,-1.98,2.61,0.65,0.19,1.99,1005.88
5.041,0.44,1.12,-0.26,2.14,-1.98,2.61,0.65,0.19,1.99,1005.93
5.058,0.44,1.12,-0.26,3.73,0.44,-1.92,0.65,0.19,1.99,1005.93
5.063,0.44,1.12,-0.26,3.73,0.44,-1.92,0.45,-0.04,1.19,1005.93
5.08,0.50,1.03,-0.27,3.73,0.44,-1.92,0.45,-0.04,1.19,1005.93
5.082,0.04,0.96,-0.13,3.73,0.44,-1.92,0.45,-0.04,1.19,1005.93
5.083,-0.18,1.02,-0.03,3.73,0.44,-1.92,0.45,-0.04,1.19,1005.93
5.118,-0.18,1.02,-0.03,3.73,0.44,-1.92,0.26,0.20,0.57,1005.93
5.119,-0.18,1.02,-0.03,-0.75,0.18,0.72,0.26,0.20,0.57,1005.93
5.122,-0.18,1.02,-0.03,-0.75,0.18,0.72,0.26,0.20,0.57,1005.94
5.136,-0.12,1.06,0.04,-0.75,0.18,0.72,0.26,0.20,0.57,1005.94
5.136,0.01,0.97,0.10,-0.75,0.18,0.72,0.26,0.20,0.57,1005.94
5.137,0.10,0.94,0.02,-0.75,0.18,0.72,0.26,0.20,0.57,1005.94
5.161,0.10,0.94,0.02,-0.75,0.18,0.72,0.26,0.20,0.57,1005.92
5.175,0.10,0.94,0.02,-0.75,0.18,0.72,0.36,-0.20,0.52,1005.92
5.176,0.10,0.94,0.02,0.56,-0.19,0.45,0.36,-0.20,0.52,1005.92
5.194,0.08,0.99,-0.01,0.56,-0.19,0.45,0.36,-0.20,0.52,1005.92
5.195,0.01,0.99,-0.05,0.56,-0.19,0.45,0.36,-0.20,0.52,1005.92
5.195,-0.01,0.98,-0.05,0.56,-0.19,0.45,0.36,-0.20,0.52,1005.92
5.236,-0.01,0.98,-0.05,-0.35,-0.11,0.66,0.36,-0.20,0.52,1005.92
5.239,-0.01,0.98,-0.05,-0.35,-0.11,0.66,0.44,-0.08,0.42,1005.92
5.242,-0.01,0.98,-0.05,-0.35,-0.11,0.66,0.44,-0.08,0.42,1005.91
5.262,-0.00,0.99,-0.02,-0.35,-0.11,0.66,0.44,-0.08,0.42,1005.91
5.271,0.01,0.96,0.01,-0.35,-0.11,0.66,0.44,-0.08,0.42,1005.91
5.272,0.02,0.95,0.01,-0.35,-0.11,0.66,0.44,-0.08,0.42,1005.91
5.291,0.02,0.95,0.01,-0.35,-0.11,0.66,0.59,-0.19,0.50,1005.91
5.292,0.02,0.95,0.01,-0.81,-0.23,0.69,0.59,-0.19,0.50,1005.91
5.311,-0.01,0.96,-0.04,-0.81,-0.23,0.69,0.59,-0.19,0.50,1005.91
5.312,-0.09,0.98,-0.11,-0.81,-0.23,0.69,0.59,-0.19,0.50,1005.91
5.313,-0.04,0.99,-0.17,-0.81,-0.23,0.69,0.59,-0.19,0.50,1005.91
5.321,-0.04,0.99,-0.17,-0.81,-0.23,0.69,0.59,-0.19,0.50,1005.90
5.356,-0.04,0.99,-0.17,-0.72,-0.04,-0.03,0.59,-0.19,0.50,1005.90
5.359,-0.04,0.99,-0.17,-0.72,-0.04,-0.03,0.66,-0.48,0.76,1005.90
5.363,-0.04,0.99,-0.17,-0.72,-0.04,-0.03,0.66,-0.48,0.76,1005.91
5.382,0.02,0.98,-0.19,-0.72,-0.04,-0.03,0.66,-0.48,0.76,1005.91
5.383,0.09,0.95,-0.12,-0.72,-0.04,-0.03,0.66,-0.48,0.76,1005.91
5.384,0.08,0.94,-0.04,-0.72,-0.04,-0.03,0.66,-0.48,0.76,1005.91
5.409,0.08,0.94,-0.04,-0.72,-0.04,-0.03,0.76,-0.88,0.91,1005.91
5.409,0.08,0.94,-0.04,-1.59,0.87,1.44,0.76,-0.88,0.91,1005.91
5.428,-0.01,1.01,-0.04,-1.59,0.87,1.44,0.76,-0.88,0.91,1005.91
5.43,-0.14,1.21,-0.09,-1.59,0.87,1.44,0.76,-0.88,0.91,1005.91
5.43,-0.27,1.32,-0.20,-1.59,0.87,1.44,0.76,-0.88,0.91,1005.91
5.444,-0.27,1.32,-0.20,-1.59,0.87,1.44,0.76,-0.88,0.91,1005.92
5.468,-0.27,1.32,-0.20,-1.59,0.87,1.44,0.76,-1.71,1.53,1005.92
5.471,-0.27,1.32,-0.20,-4.70,5.12,0.42,0.76,-1.71,1.53,1005.92
5.488,-0.34,1.40,-0.25,-4.70,5.12,0.42,0.76,-1.71,1.53,1005.92
5.489,-0.26,1.69,-0.20,-4.70,5.12,0.42,0.76,-1.71,1.53,1005.92
5.491,0.10,1.55,-0.41,-4.70,5.12,0.42,0.76,-1.71,1.53,1005.92
5.522,0.10,1.55,-0.41,-4.70,5.12,0.42,0.76,-1.71,1.53,1005.92
5.524,0.10,1.55,-0.41,-4.70,5.12,0.42,-0.01,-3.01,2.33,1005.92
5.525,0.10,1.55,-0.41,-0.14,2.41,-2.31,-0.01,-3.01,2.33,1005.92
5.543,0.22,1.10,-0.62,-0.14,2.41,-2.31,-0.01,-3.01,2.33,1005.92
5.544,0.44,0.85,-0.59,-0.14,2.41,-2.31,-0.01,-3.01,2.33,1005.92
5.545,0.78,0.74,-0.39,-0.14,2.41,-2.31,-0.01,-3.01,2.33,1005.92
5.561,0.78,0.74,-0.39,-0.14,2.41,-2.31,-0.01,-3.01,2.33,1005.90
5.584,0.78,0.74,-0.39,-0.14,2.41,-2.31,-2.06,-4.09,1.88,1005.90
5.585,0.78,0.74,-0.39,2.92,-2.87,-0.96,-2.06,-4.09,1.88,1005.90
5.604,0.76,0.58,-0.36,2.92,-2.87,-0.96,-2.06,-4.09,1.88,1005.90
5.605,0.26,0.56,-0.34,2.92,-2.87,-0.96,-2.06,-4.09,1.88,1005.90
5.605,-0.13,0.55,-0.42,2.92,-2.87,-0.96,-2.06,-4.09,1.88,1005.90
5.642,-0.13,0.55,-0.42,-5.86,-3.58,-5.04,-2.06,-4.09,1.88,1005.90
5.649,-0.13,0.55,-0.42,-5.86,-3.58,-5.04,-3.38,-6.19,1.39,1005.90
5.651,-0.13,0.55,-0.42,-5.86,-3.58,-5.04,-3.38,-6.19,1.39,1005.89
5.665,-0.39,0.57,-0.71,-5.86,-3.58,-5.04,-3.38,-6.19,1.39,1005.89
5.667,-0.42,0.58,-1.02,-5.86,-3.58,-5.04,-3.38,-6.19,1.39,1005.89
5.668,-0.29,0.59,-1.14,-5.86,-3.58,-5.04,-3.38,-6.19,1.39,1005.89
5.7,-0.29,0.59,-1.14,-5.86,-3.58,-5.04,-2.62,-7.58,1.13,1005.89
5.701,-0.29,0.59,-1.14,-5.96,-3.46,-8.91,-2.62,-7.58,1.13,1005.89
5.718,-0.35,0.61,-1.14,-5.96,-3.46,-8.91,-2.62,-7.58,1.13,1005.89
5.719,-0.41,0.56,-1.03,-5.96,-3.46,-8.91,-2.62,-7.58,1.13,1005.89
5.72,-0.40,0.60,-0.98,-5.96,-3.46,-8.91,-2.62,-7.58,1.13,1005.89
5.722,-0.40,0.60,-0.98,-5.96,-3.46,-8.91,-2.62,-7.58,1.13,1005.89
5.758,-0.40,0.60,-0.98,-4.69,-2.38,-7.74,-2.62,-7.58,1.13,1005.89
5.761,-0.40,0.60,-0.98,-4.69,-2.38,-7.74,-1.53,-6.82,-0.17,1005.89
5.762,-0.40,0.60,-0.98,-4.69,-2.38,-7.74,-1.53,-6.82,-0.17,1005.87
5.777,-0.37,0.73,-1.05,-4.69,-2.38,-7.74,-1.53,-6.82,-0.17,1005.87
5.778,-0.19,0.80,-0.97,-4.69,-2.38,-7.74,-1.53,-6.82,-0.17,1005.87
5.779,-0.01,0.83,-0.76,-4.69,-2.38,-7.74,-1.53,-6.82,-0.17,1005.87
5.818,-0.01,0.83,-0.76,-0.27,-0.37,-4.24,-1.53,-6.82,-0.17,1005.87
5.819,-0.01,0.83,-0.76,-0.27,-0.37,-4.24,-1.07,-4.61,-1.53,1005.87
5.836,0.01,0.92,-0.60,-0.27,-0.37,-4.24,-1.07,-4.61,-1.53,1005.87
5.838,-0.02,1.05,-0.49,-0.27,-0.37,-4.24,-1.07,-4.61,-1.53,1005.87
5.839,0.05,1.19,-0.41,-0.27,-0.37,-4.24,-1.07,-4.61,-1.53,1005.87
5.841,0.05,1.19,-0.41,-0.27,-0.37,-4.24,-1.07,-4.61,-1.53,1005.88
5.88,0.05,1.19,-0.41,2.29,2.18,-1.51,-1.07,-4.61,-1.53,1005.88
5.883,0.05,1.19,-0.41,2.29,2.18,-1.51,-0.75,-3.83,-1.56,1005.88
5.894,0.14,1.24,-0.27,2.29,2.18,-1.51,-0.75,-3.83,-1.56,1005.88
5.894,0.21,1.18,-0.18,2.29,2.18,-1.51,-0.75,-3.83,-1.56,1005.88
5.895,0.27,1.02,-0.13,2.29,2.18,-1.51,-0.75,-3.83,-1.56,1005.88
5.921,0.27,1.02,-0.13,2.29,2.18,-1.51,-0.75,-3.83,-1.56,1005.89
5.934,0.27,1.02,-0.13,2.29,2.18,-1.51,-0.22,-4.34,-0.51,1005.89
5.936,0.27,1.02,-0.13,5.05,-1.03,-0.39,-0.22,-4.34,-0.51,1005.89
5.955,0.36,0.86,-0.07,5.05,-1.03,-0.39,-0.22,-4.34,-0.51,1005.89
5.96,0.47,0.73,-0.19,5.05,-1.03,-0.39,-0.22,-4.34,-0.51,1005.89
5.961,0.59,0.62,-0.46,5.05,-1.03,-0.39,-0.22,-4.34,-0.51,1005.89
5.962,0.59,0.62,-0.46,5.05,-1.03,-0.39,-0.22,-4.34,-0.51,1005.90
5.991,0.59,0.62,-0.46,5.05,-1.03,-0.39,0.17,-3.54,1.02,1005.90
5.993,0.59,0.62,-0.46,9.01,-3.42,-4.99,0.17,-3.54,1.02,1005.90
6.011,0.80,0.48,-0.60,9.01,-3.42,-4.99,0.17,-3.54,1.02,1005.90
6.012,1.10,0.79,-0.71,9.01,-3.42,-4.99,0.17,-3.54,1.02,1005.90
6.013,1.70,2.30,0.92,9.01,-3.42,-4.99,0.17,-3.54,1.02,1005.90
6.041,1.70,2.30,0.92,9.01,-3.42,-4.99,0.17,-3.54,1.02,1005.90
6.056,1.70,2.30,0.92,9.01,-3.42,-4.99,-0.57,1.14,0.86,1005.90
6.059,1.70,2.30,0.92,2.76,9.01,6.37,-0.57,1.14,0.86,1005.90
6.082,0.46,2.74,1.22,2.76,9.01,6.37,-0.57,1.14,0.86,1005.90
6.084,-1.41,0.72,-0.30,2.76,9.01,6.37,-0.57,1.14,0.86,1005.90
6.084,-1.17,0.15,-0.09,2.76,9.01,6.37,-0.57,1.14,0.86,1005.90
6.109,-1.17,0.15,-0.09,-1.59,-2.44,0.22,-0.57,1.14,0.86,1005.90
6.11,-1.17,0.15,-0.09,-1.59,-2.44,0.22,0.47,-0.52,1.68,1005.90
6.123,-1.17,0.15,-0.09,-1.59,-2.44,0.22,0.47,-0.52,1.68,1005.89
6.128,0.25,0.83,-0.02,-1.59,-2.44,0.22,0.47,-0.52,1.68,1005.89
6.129,0.62,1.24,-0.03,-1.59,-2.44,0.22,0.47,-0.52,1.68,1005.89
6.129,0.80,1.08,-0.13,-1.59,-2.44,0.22,0.47,-0.52,1.68,1005.89
6.161,0.80,1.08,-0.13,-1.59,-2.44,0.22,0.47,-0.52,1.68,1005.90
6.169,0.80,1.08,-0.13,-1.59,-2.44,0.22,0.24,-0.14,0.95,1005.90
6.17,0.80,1.08,-0.13,2.95,0.21,-1.02,0.24,-0.14,0.95,1005.90
6.185,0.40,0.89,-0.25,2.95,0.21,-1.02,0.24,-0.14,0.95,1005.90
6.186,0.06,1.04,-0.19,2.95,0.21,-1.02,0.24,-0.14,0.95,1005.90
6.186,-0.04,1.11,-0.12,2.95,0.21,-1.02,0.24,-0.14,0.95,1005.90
6.225,-0.04,1.11,-0.12,-1.07,0.43,0.50,0.24,-0.14,0.95,1005.90
6.226,-0.04,1.11,-0.12,-1.07,0.43,0.50,0.14,0.21,0.53,1005.90
6.241,-0.04,1.11,-0.12,-1.07,0.43,0.50,0.14,0.21,0.53,1005.90
6.243,0.01,1.00,-0.04,-1.07,0.43,0.50,0.14,0.21,0.53,1005.90
6.244,0.15,0.95,0.04,-1.07,0.43,0.50,0.14,0.21,0.53,1005.90
6.244,0.15,1.01,-0.01,-1.07,0.43,0.50,0.14,0.21,0.53,1005.90
6.287,0.15,1.01,-0.01,-0.41,0.36,0.87,0.14,0.21,0.53,1005.90
6.288,0.15,1.01,-0.01,-0.41,0.36,0.87,0.27,-0.28,0.59,1005.90
6.302,0.13,1.02,-0.03,-0.41,0.36,0.87,0.27,-0.28,0.59,1005.90
6.303,0.14,0.99,-0.02,-0.41,0.36,0.87,0.27,-0.28,0.59,1005.90
6.304,0.13,1.00,-0.04,-0.41,0.36,0.87,0.27,-0.28,0.59,1005.90
6.321,0.13,1.00,-0.04,-0.41,0.36,0.87,0.27,-0.28,0.59,1005.91
6.341,0.13,1.00,-0.04,-0.41,0.36,0.87,0.43,-0.19,0.63,1005.91
6.342,0.13,1.00,-0.04,-1.03,0.45,1.17,0.43,-0.19,0.63,1005.91
6.367,0.11,1.02,0.01,-1.03,0.45,1.17,0.43,-0.19,0.63,1005.91
6.369,0.09,1.01,-0.01,-1.03,0.45,1.17,0.43,-0.19,0.63,1005.91
6.369,0.14,0.99,-0.07,-1.03,0.45,1.17,0.43,-0.19,0.63,1005.91
6.37,0.14,0.99,-0.07,-1.03,0.45,1.17,0.43,-0.19,0.63,1005.90
6.399,0.14,0.99,-0.07,-1.03,0.45,1.17,0.56,-0.33,0.80,1005.90
6.401,0.14,0.99,-0.07,-0.71,0.49,0.80,0.56,-0.33,0.80,1005.90
6.424,0.20,0.99,-0.08,-0.71,0.49,0.80,0.56,-0.33,0.80,1005.90
6.425,0.21,1.02,-0.10,-0.71,0.49,0.80,0.56,-0.33,0.80,1005.90
6.426,0.19,1.05,-0.12,-0.71,0.49,0.80,0.56,-0.33,0.80,1005.90
6.442,0.19,1.05,-0.12,-0.71,0.49,0.80,0.56,-0.33,0.80,1005.90
6.458,0.19,1.05,-0.12,-0.71,0.49,0.80,0.62,-0.48,0.86,1005.90
6.46,0.19,1.05,-0.12,-0.76,1.18,0.96,0.62,-0.48,0.86,1005.90
6.479,0.23,1.05,-0.11,-0.76,1.18,0.96,0.62,-0.48,0.86,1005.90
6.48,0.22,1.04,-0.09,-0.76,1.18,0.96,0.62,-0.48,0.86,1005.90
6.481,0.11,1.03,-0.10,-0.76,1.18,0.96,0.62,-0.48,0.86,1005.90
6.518,0.11,1.03,-0.10,-0.76,1.18,0.96,0.79,-0.72,1.07,1005.90
6.519,0.11,1.03,-0.10,-2.97,1.54,1.17,0.79,-0.72,1.07,1005.90
6.522,0.11,1.03,-0.10,-2.97,1.54,1.17,0.79,-0.72,1.07,1005.90
6.535,-0.00,1.04,-0.13,-2.97,1.54,1.17,0.79,-0.72,1.07,1005.90
6.536,-0.00,1.11,-0.19,-2.97,1.54,1.17,0.79,-0.72,1.07,1005.90
6.537,0.00,1.20,-0.29,-2.97,1.54,1.17,0.79,-0.72,1.07,1005.90
6.561,0.00,1.20,-0.29,-2.97,1.54,1.17,0.79,-0.72,1.07,1005.90
6.574,0.00,1.20,-0.29,-2.97,1.54,1.17,1.39,-0.49,1.57,1005.90
6.579,0.00,1.20,-0.29,-4.92,3.82,1.20,1.39,-0.49,1.57,1005.90
6.6,-0.09,1.25,-0.24,-4.92,3.82,1.20,1.39,-0.49,1.57,1005.90
6.603,-0.22,1.27,-0.12,-4.92,3.82,1.20,1.39,-0.49,1.57,1005.90
6.605,-0.28,1.43,-0.04,-4.92,3.82,1.20,1.39,-0.49,1.57,1005.90
6.633,-0.28,1.43,-0.04,-4.92,3.82,1.20,1.98,-0.79,1.95,1005.90
6.635,-0.28,1.43,-0.04,-11.36,9.52,5.92,1.98,-0.79,1.95,1005.90
6.641,-0.28,1.43,-0.04,-11.36,9.52,5.92,1.98,-0.79,1.95,1005.90
6.653,-0.60,1.86,0.25,-11.36,9.52,5.92,1.98,-0.79,1.95,1005.90
6.654,-1.24,1.94,0.29,-11.36,9.52,5.92,1.98,-0.79,1.95,1005.90
6.656,-0.83,1.54,0.26,-11.36,9.52,5.92,1.98,-0.79,1.95,1005.90
6.69,-0.83,1.54,0.26,-11.36,9.52,5.92,2.17,-1.88,3.47,1005.90
6.692,-0.83,1.54,0.26,-4.09,8.54,4.31,2.17,-1.88,3.47,1005.90
6.711,0.10,1.40,-0.18,-4.09,8.54,4.31,2.17,-1.88,3.47,1005.90
6.712,1.07,1.53,-0.48,-4.09,8.54,4.31,2.17,-1.88,3.47,1005.90
6.713,1.42,1.15,-0.43,-4.09,8.54,4.31,2.17,-1.88,3.47,1005.90
6.722,1.42,1.15,-0.43,-4.09,8.54,4.31,2.17,-1.88,3.47,1005.91
6.761,1.42,1.15,-0.43,-4.09,8.54,4.31,1.71,-0.46,1.93,1005.91
6.762,1.42,1.15,-0.43,3.09,3.68,0.15,1.71,-0.46,1.93,1005.91
6.792,1.42,1.15,-0.43,3.09,3.68,0.15,1.71,-0.46,1.93,1005.91
6.793,0.77,0.84,-0.62,3.09,3.68,0.15,1.71,-0.46,1.93,1005.91
6.794,0.50,0.65,-0.84,3.09,3.68,0.15,1.71,-0.46,1.93,1005.91
6.794,0.46,0.46,-0.69,3.09,3.68,0.15,1.71,-0.46,1.93,1005.91
6.808,0.46,0.46,-0.69,3.09,3.68,0.15,-1.66,0.61,-0.66,1005.91
6.809,0.46,0.46,-0.69,-2.09,-2.80,1.85,-1.66,0.61,-0.66,1005.91
6.828,0.39,0.29,-0.44,-2.09,-2.80,1.85,-1.66,0.61,-0.66,1005.91
6.829,0.25,0.13,-0.01,-2.09,-2.80,1.85,-1.66,0.61,-0.66,1005.91
6.829,0.06,0.03,0.02,-2.09,-2.80,1.85,-1.66,0.61,-0.66,1005.91
6.841,0.06,0.03,0.02,-2.09,-2.80,1.85,-1.66,0.61,-0.66,1005.86
6.865,0.06,0.03,0.02,-2.09,-2.80,1.85,-2.75,0.38,-3.03,1005.86
6.866,0.06,0.03,0.02,-4.86,-5.96,2.31,-2.75,0.38,-3.03,1005.86
6.886,-0.11,0.11,-0.18,-4.86,-5.96,2.31,-2.75,0.38,-3.03,1005.86
6.886,-0.05,0.27,-0.48,-4.86,-5.96,2.31,-2.75,0.38,-3.03,1005.86
6.887,-0.04,0.43,-0.56,-4.86,-5.96,2.31,-2.75,0.38,-3.03,1005.86
6.922,-0.04,0.43,-0.56,-4.86,-5.96,2.31,-2.75,0.38,-3.03,1005.89
6.925,-0.04,0.43,-0.56,-4.86,-5.96,2.31,-3.51,-0.96,-4.24,1005.89
6.925,-0.04,0.43,-0.56,-2.40,-3.76,-1.64,-3.51,-0.96,-4.24,1005.89
6.943,-0.02,0.52,-0.43,-2.40,-3.76,-1.64,-3.51,-0.96,-4.24,1005.89
6.944,0.02,0.60,-0.41,-2.40,-3.76,-1.64,-3.51,-0.96,-4.24,1005.89
6.945,0.05,0.82,-0.46,-2.40,-3.76,-1.64,-3.51,-0.96,-4.24,1005.89
6.962,0.05,0.82,-0.46,-2.40,-3.76,-1.64,-3.51,-0.96,-4.24,1005.92
6.985,0.05,0.82,-0.46,-2.40,-3.76,-1.64,-3.76,-1.19,-4.92,1005.92
6.987,0.05,0.82,-0.46,3.25,2.18,-5.08,-3.76,-1.19,-4.92,1005.92
7.002,0.22,1.18,-0.62,3.25,2.18,-5.08,-3.76,-1.19,-4.92,1005.92
7.003,0.59,1.59,-0.79,3.25,2.18,-5.08,-3.76,-1.19,-4.92,1005.92
7.004,0.72,1.61,-0.77,3.25,2.18,-5.08,-3.76,-1.19,-4.92,1005.92
7.043,0.72,1.61,-0.77,3.25,2.18,-5.08,-3.60,-0.10,-4.74,1005.92
7.044,0.72,1.61,-0.77,10.66,5.41,-7.08,-3.60,-0.10,-4.74,1005.92
7.044,0.72,1.61,-0.77,10.66,5.41,-7.08,-3.60,-0.10,-4.74,1005.90
7.062,0.77,1.50,-0.62,10.66,5.41,-7.08,-3.60,-0.10,-4.74,1005.90
7.063,0.89,1.36,-0.53,10.66,5.41,-7.08,-3.60,-0.10,-4.74,1005.90
7.063,1.04,1.07,-0.40,10.66,5.41,-7.08,-3.60,-0.10,-4.74,1005.90
7.1,1.04,1.07,-0.40,10.66,5.41,-7.08,-1.17,1.19,-0.75,1005.90
7.102,1.04,1.07,-0.40,13.72,0.54,-5.77,-1.17,1.19,-0.75,1005.90
7.12,1.13,1.01,-0.48,13.72,0.54,-5.77,-1.17,1.19,-0.75,1005.90
7.124,1.07,0.83,-0.54,13.72,0.54,-5.77,-1.17,1.19,-0.75,1005.90
7.125,0.92,1.06,-0.99,13.72,0.54,-5.77,-1.17,1.19,-0.75,1005.90
7.126,0.92,1.06,-0.99,13.72,0.54,-5.77,-1.17,1.19,-0.75,1005.88
7.158,0.92,1.06,-0.99,13.72,0.54,-5.77,0.02,3.06,0.54,1005.88
7.159,0.92,1.06,-0.99,-2.13,6.34,-1.75,0.02,3.06,0.54,1005.88
7.162,0.92,1.06,-0.99,-2.13,6.34,-1.75,0.02,3.06,0.54,1005.88
7.177,-0.27,1.76,-0.30,-2.13,6.34,-1.75,0.02,3.06,0.54,1005.88
7.178,-2.24,1.93,0.91,-2.13,6.34,-1.75,0.02,3.06,0.54,1005.88
7.178,-1.61,1.72,-0.63,-2.13,6.34,-1.75,0.02,3.06,0.54,1005.88
7.217,-1.61,1.72,-0.63,-2.13,6.34,-1.75,1.14,1.21,2.45,1005.88
7.218,-1.61,1.72,-0.63,-1.11,1.29,-4.86,1.14,1.21,2.45,1005.88
7.235,0.03,0.98,-1.31,-1.11,1.29,-4.86,1.14,1.21,2.45,1005.88
7.236,0.71,0.61,0.34,-1.11,1.29,-4.86,1.14,1.21,2.45,1005.88
7.236,0.62,0.59,0.34,-1.11,1.29,-4.86,1.14,1.21,2.45,1005.88
7.243,0.62,0.59,0.34,-1.11,1.29,-4.86,1.14,1.21,2.45,1005.88
7.274,0.62,0.59,0.34,2.73,-0.49,1.26,1.14,1.21,2.45,1005.88
7.276,0.62,0.59,0.34,2.73,-0.49,1.26,0.36,-0.44,1.62,1005.88
7.294,-0.01,1.03,0.11,2.73,-0.49,1.26,0.36,-0.44,1.62,1005.88
7.295,-0.03,1.18,-0.23,2.73,-0.49,1.26,0.36,-0.44,1.62,1005.88
7.295,0.16,1.08,-0.15,2.73,-0.49,1.26,0.36,-0.44,1.62,1005.88
7.323,0.16,1.08,-0.15,2.73,-0.49,1.26,0.36,-0.44,1.62,1005.92
7.333,0.16,1.08,-0.15,2.73,-0.49,1.26,0.24,-0.20,0.98,1005.92
7.333,0.16,1.08,-0.15,0.08,0.44,-0.09,0.24,-0.20,0.98,1005.92
7.354,-0.07,1.04,-0.07,0.08,0.44,-0.09,0.24,-0.20,0.98,1005.92
7.354,-0.15,0.97,-0.02,0.08,0.44,-0.09,0.24,-0.20,0.98,1005.92
7.355,-0.01,0.96,0.08,0.08,0.44,-0.09,0.24,-0.20,0.98,1005.92
7.362,-0.01,0.96,0.08,0.08,0.44,-0.09,0.24,-0.20,0.98,1005.95
7.391,-0.01,0.96,0.08,0.08,0.44,-0.09,0.34,-0.17,0.89,1005.95
7.392,-0.01,0.96,0.08,-0.44,0.00,1.31,0.34,-0.17,0.89,1005.95
7.412,0.00,1.00,0.06,-0.44,0.00,1.31,0.34,-0.17,0.89,1005.95
7.413,-0.06,0.99,0.01,-0.44,0.00,1.31,0.34,-0.17,0.89,1005.95
7.414,-0.01,0.98,-0.00,-0.44,0.00,1.31,0.34,-0.17,0.89,1005.95
7.443,-0.01,0.98,-0.00,-0.44,0.00,1.31,0.34,-0.17,0.89,1005.94
7.45,-0.01,0.98,-0.00,-0.44,0.00,1.31,0.49,-0.48,1.00,1005.94
7.451,-0.01,0.98,-0.00,-0.83,0.16,1.01,0.49,-0.48,1.00,1005.94
7.48,0.01,0.99,-0.01,-0.83,0.16,1.01,0.49,-0.48,1.00,1005.94
7.483,-0.02,1.02,-0.02,-0.83,0.16,1.01,0.49,-0.48,1.00,1005.94
7.484,0.08,1.02,-0.03,-0.83,0.16,1.01,0.49,-0.48,1.00,1005.94
7.507,0.08,1.02,-0.03,-0.83,0.16,1.01,0.64,-0.36,1.10,1005.94
7.508,0.08,1.02,-0.03,-0.37,0.27,0.82,0.64,-0.36,1.10,1005.94
7.521,0.08,1.02,-0.03,-0.37,0.27,0.82,0.64,-0.36,1.10,1005.94
7.527,0.13,1.00,-0.07,-0.37,0.27,0.82,0.64,-0.36,1.10,1005.94
7.528,0.09,0.98,-0.10,-0.37,0.27,0.82,0.64,-0.36,1.10,1005.94
7.528,0.05,0.99,-0.15,-0.37,0.27,0.82,0.64,-0.36,1.10,1005.94
7.562,0.05,0.99,-0.15,-0.37,0.27,0.82,0.64,-0.36,1.10,1005.92
7.566,0.05,0.99,-0.15,-0.37,0.27,0.82,0.73,-0.44,1.14,1005.92
7.567,0.05,0.99,-0.15,-1.07,0.43,0.24,0.73,-0.44,1.14,1005.92
7.586,0.08,1.01,-0.18,-1.07,0.43,0.24,0.73,-0.44,1.14,1005.92
7.588,0.12,0.99,-0.18,-1.07,0.43,0.24,0.73,-0.44,1.14,1005.92
7.589,0.10,0.95,-0.17,-1.07,0.43,0.24,0.73,-0.44,1.14,1005.92
7.624,0.10,0.95,-0.17,-1.07,0.43,0.24,0.87,-0.36,1.28,1005.92
7.625,0.10,0.95,-0.17,-1.58,0.73,0.67,0.87,-0.36,1.28,1005.92
7.649,0.10,0.95,-0.17,-1.58,0.73,0.67,0.87,-0.36,1.28,1005.92
7.651,0.08,0.98,-0.19,-1.58,0.73,0.67,0.87,-0.36,1.28,1005.92
7.652,0.09,1.07,-0.17,-1.58,0.73,0.67,0.87,-0.36,1.28,1005.92
7.653,0.05,1.16,-0.15,-1.58,0.73,0.67,0.87,-0.36,1.28,1005.92
7.684,0.05,1.16,-0.15,-1.58,0.73,0.67,1.27,0.12,1.52,1005.92
7.687,0.05,1.16,-0.15,-3.20,2.67,1.82,1.27,0.12,1.52,1005.92
7.703,-0.00,1.15,-0.11,-3.20,2.67,1.82,1.27,0.12,1.52,1005.92
7.704,-0.04,1.16,-0.11,-3.20,2.67,1.82,1.27,0.12,1.52,1005.92
7.705,-0.12,1.28,-0.11,-3.20,2.67,1.82,1.27,0.12,1.52,1005.92
7.722,-0.12,1.28,-0.11,-3.20,2.67,1.82,1.27,0.12,1.52,1005.91
7.742,-0.12,1.28,-0.11,-9.59,7.94,3.74,1.27,0.12,1.52,1005.91
7.743,-0.12,1.28,-0.11,-9.59,7.94,3.74,1.71,-0.53,1.89,1005.91
7.76,-0.46,1.66,0.06,-9.59,7.94,3.74,1.71,-0.53,1.89,1005.91
7.761,-1.16,1.94,-0.00,-9.59,7.94,3.74,1.71,-0.53,1.89,1005.91
7.761,-1.37,1.77,-0.07,-9.59,7.94,3.74,1.71,-0.53,1.89,1005.91
7.762,-1.37,1.77,-0.07,-9.59,7.94,3.74,1.71,-0.53,1.89,1005.92
7.799,-1.37,1.77,-0.07,-9.59,7.94,3.74,2.13,-1.76,3.08,1005.92
7.8,-1.37,1.77,-0.07,-9.40,8.21,3.61,2.13,-1.76,3.08,1005.92
7.82,-0.52,1.42,0.02,-9.40,8.21,3.61,2.13,-1.76,3.08,1005.92
7.821,0.41,1.41,-0.43,-9.40,8.21,3.61,2.13,-1.76,3.08,1005.92
7.822,1.28,1.43,-0.40,-9.40,8.21,3.61,2.13,-1.76,3.08,1005.92
7.843,1.28,1.43,-0.40,-9.40,8.21,3.61,2.13,-1.76,3.08,1005.91
7.857,1.28,1.43,-0.40,-9.40,8.21,3.61,2.24,-0.37,2.85,1005.91
7.858,1.28,1.43,-0.40,6.58,4.97,1.81,2.24,-0.37,2.85,1005.91
7.877,1.48,1.00,-0.30,6.58,4.97,1.81,2.24,-0.37,2.85,1005.91
7.878,0.96,0.72,-0.61,6.58,4.97,1.81,2.24,-0.37,2.85,1005.91
7.878,0.70,0.56,-0.76,6.58,4.97,1.81,2.24,-0.37,2.85,1005.91
7.917,0.70,0.56,-0.76,6.58,4.97,1.81,-0.65,0.54,-0.69,1005.91
7.917,0.70,0.56,-0.76,-0.97,-2.04,3.14,-0.65,0.54,-0.69,1005.91
7.922,0.70,0.56,-0.76,-0.97,-2.04,3.14,-0.65,0.54,-0.69,1005.86
7.935,0.43,0.43,-0.23,-0.97,-2.04,3.14,-0.65,0.54,-0.69,1005.86
7.936,0.27,0.14,0.23,-0.97,-2.04,3.14,-0.65,0.54,-0.69,1005.86
7.936,0.14,-0.03,0.33,-0.97,-2.04,3.14,-0.65,0.54,-0.69,1005.86
7.962,0.14,-0.03,0.33,-0.97,-2.04,3.14,-0.65,0.54,-0.69,1005.87
7.975,0.14,-0.03,0.33,-0.97,-2.04,3.14,-1.58,0.06,-2.99,1005.87
7.977,0.14,-0.03,0.33,-3.02,-6.29,5.98,-1.58,0.06,-2.99,1005.87
7.999,0.09,0.02,0.11,-3.02,-6.29,5.98,-1.58,0.06,-2.99,1005.87
8.0,0.19,0.23,-0.11,-3.02,-6.29,5.98,-1.58,0.06,-2.99,1005.87
8.001,0.29,0.41,-0.22,-3.02,-6.29,5.98,-1.58,0.06,-2.99,1005.87
8.034,0.29,0.41,-0.22,-3.02,-6.29,5.98,-2.58,-0.50,-4.31,1005.87
8.035,0.29,0.41,-0.22,0.83,-3.33,1.46,-2.58,-0.50,-4.31,1005.87
8.042,0.29,0.41,-0.22,0.83,-3.33,1.46,-2.58,-0.50,-4.31,1005.95
8.053,0.34,0.53,-0.24,0.83,-3.33,1.46,-2.58,-0.50,-4.31,1005.95
8.054,0.33,0.62,-0.26,0.83,-3.33,1.46,-2.58,-0.50,-4.31,1005.95
8.054,0.42,0.74,-0.17,0.83,-3.33,1.46,-2.58,-0.50,-4.31,1005.95
8.091,0.42,0.74,-0.17,0.83,-3.33,1.46,-4.13,-0.32,-5.20,1005.95
8.092,0.42,0.74,-0.17,5.01,1.30,-0.50,-4.13,-0.32,-5.20,1005.95
8.11,0.48,0.98,-0.16,5.01,1.30,-0.50,-4.13,-0.32,-5.20,1005.95
8.111,0.50,1.55,-0.33,5.01,1.30,-0.50,-4.13,-0.32,-5.20,1005.95
8.111,0.61,1.98,-0.65,5.01,1.30,-0.50,-4.13,-0.32,-5.20,1005.95
8.122,0.61,1.98,-0.65,5.01,1.30,-0.50,-4.13,-0.32,-5.20,1005.91
8.148,0.61,1.98,-0.65,5.01,1.30,-0.50,-4.49,0.34,-4.65,1005.91
8.149,0.61,1.98,-0.65,9.89,8.29,-5.69,-4.49,0.34,-4.65,1005.91
8.161,0.61,1.98,-0.65,9.89,8.29,-5.69,-4.49,0.34,-4.65,1005.88
8.177,0.72,1.84,-0.55,9.89,8.29,-5.69,-4.49,0.34,-4.65,1005.88
8.178,0.85,1.54,-0.34,9.89,8.29,-5.69,-4.49,0.34,-4.65,1005.88
8.179,0.64,1.30,-0.06,9.89,8.29,-5.69,-4.49,0.34,-4.65,1005.88
8.209,0.64,1.30,-0.06,9.89,8.29,-5.69,-2.47,-0.09,-1.50,1005.88
8.21,0.64,1.30,-0.06,8.93,1.28,-6.72,-2.47,-0.09,-1.50,1005.88
8.229,0.42,1.05,-0.57,8.93,1.28,-6.72,-2.47,-0.09,-1.50,1005.88
8.23,0.63,0.73,-0.86,8.93,1.28,-6.72,-2.47,-0.09,-1.50,1005.88
8.23,0.91,0.65,-0.46,8.93,1.28,-6.72,-2.47,-0.09,-1.50,1005.88
8.242,0.91,0.65,-0.46,8.93,1.28,-6.72,-2.47,-0.09,-1.50,1005.88
8.266,0.91,0.65,-0.46,8.93,1.28,-6.72,0.46,1.94,1.81,1005.88
8.267,0.91,0.65,-0.46,8.93,-1.08,-8.72,0.46,1.94,1.81,1005.88
8.285,0.76,0.77,-0.66,8.93,-1.08,-8.72,0.46,1.94,1.81,1005.88
8.286,0.30,1.03,-1.21,8.93,-1.08,-8.72,0.46,1.94,1.81,1005.88
8.286,-1.16,1.24,0.13,8.93,-1.08,-8.72,0.46,1.94,1.81,1005.88
8.322,-1.16,1.24,0.13,8.93,-1.08,-8.72,0.46,1.94,1.81,1005.86
8.325,-1.16,1.24,0.13,8.93,-1.08,-8.72,0.18,3.97,-0.51,1005.86
8.326,-1.16,1.24,0.13,-12.21,8.01,-0.88,0.18,3.97,-0.51,1005.86
8.344,-2.51,1.61,0.77,-12.21,8.01,-0.88,0.18,3.97,-0.51,1005.86
8.345,-1.03,2.41,-1.06,-12.21,8.01,-0.88,0.18,3.97,-0.51,1005.86
8.346,0.23,1.27,-0.67,-12.21,8.01,-0.88,0.18,3.97,-0.51,1005.86
8.362,0.23,1.27,-0.67,-12.21,8.01,-0.88,0.18,3.97,-0.51,1005.87
8.383,0.23,1.27,-0.67,-12.21,8.01,-0.88,0.81,0.42,2.58,1005.87
8.384,0.23,1.27,-0.67,2.09,-2.45,-0.05,0.81,0.42,2.58,1005.87
8.404,-0.03,0.29,0.60,2.09,-2.45,-0.05,0.81,0.42,2.58,1005.87
8.405,-0.08,0.60,0.00,2.09,-2.45,-0.05,0.81,0.42,2.58,1005.87
8.405,0.38,1.12,-0.08,2.09,-2.45,-0.05,0.81,0.42,2.58,1005.87
8.441,0.38,1.12,-0.08,2.09,-2.45,-0.05,0.38,-0.07,1.40,1005.87
8.442,0.38,1.12,-0.08,4.57,1.18,-1.58,0.38,-0.07,1.40,1005.87
8.442,0.38,1.12,-0.08,4.57,1.18,-1.58,0.38,-0.07,1.40,1005.94
8.46,0.58,1.20,-0.37,4.57,1.18,-1.58,0.38,-0.07,1.40,1005.94
8.46,0.18,0.99,-0.15,4.57,1.18,-1.58,0.38,-0.07,1.40,1005.94
8.46,-0.37,0.99,-0.07,4.57,1.18,-1.58,0.38,-0.07,1.40,1005.94
8.499,-0.37,0.99,-0.07,4.57,1.18,-1.58,0.09,0.19,0.60,1005.94
8.5,-0.37,0.99,-0.07,-1.59,0.34,0.50,0.09,0.19,0.60,1005.94
8.519,-0.29,1.08,0.02,-1.59,0.34,0.50,0.09,0.19,0.60,1005.94
8.52,0.02,0.98,0.08,-1.59,0.34,0.50,0.09,0.19,0.60,1005.94
8.521,0.07,0.90,0.11,-1.59,0.34,0.50,0.09,0.19,0.60,1005.94
8.523,0.07,0.90,0.11,-1.59,0.34,0.50,0.09,0.19,0.60,1005.95
8.559,0.07,0.90,0.11,-1.59,0.34,0.50,0.24,-0.18,0.63,1005.95
8.56,0.07,0.90,0.11,0.18,-0.19,1.43,0.24,-0.18,0.63,1005.95
8.561,0.07,0.90,0.11,0.18,-0.19,1.43,0.24,-0.18,0.63,1005.94
8.576,-0.02,0.99,0.11,0.18,-0.19,1.43,0.24,-0.18,0.63,1005.94
8.577,-0.05,1.00,0.05,0.18,-0.19,1.43,0.24,-0.18,0.63,1005.94
8.578,-0.08,0.98,0.00,0.18,-0.19,1.43,0.24,-0.18,0.63,1005.94
8.616,-0.08,0.98,0.00,0.18,-0.19,1.43,0.44,-0.28,0.64,1005.94
8.618,-0.08,0.98,0.00,-0.78,0.06,0.80,0.44,-0.28,0.64,1005.94
8.636,-0.10,1.00,0.02,-0.78,0.06,0.80,0.44,-0.28,0.64,1005.94
8.636,-0.01,0.99,-0.01,-0.78,0.06,0.80,0.44,-0.28,0.64,1005.94
8.637,0.05,0.98,-0.02,-0.78,0.06,0.80,0.44,-0.28,0.64,1005.94
8.641,0.05,0.98,-0.02,-0.78,0.06,0.80,0.44,-0.28,0.64,1005.92
8.674,0.05,0.98,-0.02,-0.78,0.06,0.80,0.56,-0.31,0.69,1005.92
8.675,0.05,0.98,-0.02,-0.46,-0.07,0.53,0.56,-0.31,0.69,1005.92
8.693,0.00,0.96,-0.07,-0.46,-0.07,0.53,0.56,-0.31,0.69,1005.92
8.694,-0.03,0.97,-0.08,-0.46,-0.07,0.53,0.56,-0.31,0.69,1005.92
8.694,-0.02,0.97,-0.10,-0.46,-0.07,0.53,0.56,-0.31,0.69,1005.92
8.721,-0.02,0.97,-0.10,-0.46,-0.07,0.53,0.56,-0.31,0.69,1005.92
8.731,-0.02,0.97,-0.10,-0.46,-0.07,0.53,0.60,-0.61,0.86,1005.92
8.732,-0.02,0.97,-0.10,-1.15,0.07,0.77,0.60,-0.61,0.86,1005.92
8.751,-0.03,0.98,-0.06,-1.15,0.07,0.77,0.60,-0.61,0.86,1005.92
8.751,-0.02,0.98,-0.05,-1.15,0.07,0.77,0.60,-0.61,0.86,1005.92
8.752,0.10,0.96,-0.05,-1.15,0.07,0.77,0.60,-0.61,0.86,1005.92
8.761,0.10,0.96,-0.05,-1.15,0.07,0.77,0.60,-0.61,0.86,1005.92
8.79,0.10,0.96,-0.05,-1.15,0.07,0.77,0.78,-0.78,1.07,1005.92
8.791,0.10,0.96,-0.05,0.10,0.06,1.45,0.78,-0.78,1.07,1005.92
8.81,0.20,0.95,-0.07,0.10,0.06,1.45,0.78,-0.78,1.07,1005.92
8.811,0.18,0.97,-0.01,0.10,0.06,1.45,0.78,-0.78,1.07,1005.92
8.811,0.01,1.06,0.01,0.10,0.06,1.45,0.78,-0.78,1.07,1005.92
8.842,0.01,1.06,0.01,0.10,0.06,1.45,0.78,-0.78,1.07,1005.91
8.849,0.01,1.06,0.01,0.10,0.06,1.45,1.01,-0.98,1.29,1005.91
8.85,0.01,1.06,0.01,-3.50,3.30,2.42,1.01,-0.98,1.29,1005.91
8.868,-0.16,1.26,-0.00,-3.50,3.30,2.42,1.01,-0.98,1.29,1005.91
8.869,-0.31,1.49,-0.02,-3.50,3.30,2.42,1.01,-0.98,1.29,1005.91
8.869,-0.22,1.72,-0.08,-3.50,3.30,2.42,1.01,-0.98,1.29,1005.91
8.908,-0.22,1.72,-0.08,-3.50,3.30,2.42,0.61,-2.20,2.35,1005.91
8.909,-0.22,1.72,-0.08,-2.90,6.73,0.92,0.61,-2.20,2.35,1005.91
8.923,-0.22,1.72,-0.08,-2.90,6.73,0.92,0.61,-2.20,2.35,1005.90
8.928,0.12,1.70,-0.14,-2.90,6.73,0.92,0.61,-2.20,2.35,1005.90
8.929,0.06,1.35,-0.45,-2.90,6.73,0.92,0.61,-2.20,2.35,1005.90
8.93,0.07,1.01,-0.62,-2.90,6.73,0.92,0.61,-2.20,2.35,1005.90
8.962,0.07,1.01,-0.62,-2.90,6.73,0.92,0.61,-2.20,2.35,1005.89
8.967,0.07,1.01,-0.62,-2.90,6.73,0.92,-0.75,-4.04,2.94,1005.89
8.967,0.07,1.01,-0.62,0.39,-0.78,-1.96,-0.75,-4.04,2.94,1005.89
8.986,0.43,0.78,-0.51,0.39,-0.78,-1.96,-0.75,-4.04,2.94,1005.89
8.987,0.69,0.56,-0.54,0.39,-0.78,-1.96,-0.75,-4.04,2.94,1005.89
8.987,0.53,0.49,-0.66,0.39,-0.78,-1.96,-0.75,-4.04,2.94,1005.89
9.024,0.53,0.49,-0.66,0.39,-0.78,-1.96,-2.39,-4.35,2.21,1005.89
9.025,0.53,0.49,-0.66,-1.76,-3.83,-2.77,-2.39,-4.35,2.21,1005.89
9.041,0.53,0.49,-0.66,-1.76,-3.83,-2.77,-2.39,-4.35,2.21,1005.86
9.044,0.16,0.48,-0.60,-1.76,-3.83,-2.77,-2.39,-4.35,2.21,1005.86
9.045,-0.11,0.43,-0.60,-1.76,-3.83,-2.77,-2.39,-4.35,2.21,1005.86
9.045,-0.29,0.35,-0.71,-1.76,-3.83,-2.77,-2.39,-4.35,2.21,1005.86
9.083,-0.29,0.35,-0.71,-1.76,-3.83,-2.77,-2.55,-5.64,1.59,1005.86
9.086,-0.29,0.35,-0.71,-6.51,-4.60,-4.52,-2.55,-5.64,1.59,1005.86
9.104,-0.41,0.38,-0.79,-6.51,-4.60,-4.52,-2.55,-5.64,1.59,1005.86
9.105,-0.30,0.45,-0.89,-6.51,-4.60,-4.52,-2.55,-5.64,1.59,1005.86
9.105,-0.20,0.52,-1.02,-6.51,-4.60,-4.52,-2.55,-5.64,1.59,1005.86
9.122,-0.20,0.52,-1.02,-6.51,-4.60,-4.52,-2.55,-5.64,1.59,1005.87
9.14,-0.20,0.52,-1.02,-6.51,-4.60,-4.52,-2.05,-5.84,0.80,1005.87
9.141,-0.20,0.52,-1.02,-3.75,-2.84,-6.28,-2.05,-5.84,0.80,1005.87
9.161,-0.12,0.60,-1.02,-3.75,-2.84,-6.28,-2.05,-5.84,0.80,1005.87
9.162,-0.07,0.66,-0.92,-3.75,-2.84,-6.28,-2.05,-5.84,0.80,1005.87
9.162,-0.05,0.70,-0.84,-3.75,-2.84,-6.28,-2.05,-5.84,0.80,1005.87
9.162,-0.05,0.70,-0.84,-3.75,-2.84,-6.28,-2.05,-5.84,0.80,1005.87
9.202,-0.05,0.70,-0.84,-1.35,-1.33,-4.14,-2.05,-5.84,0.80,1005.87
9.208,-0.05,0.70,-0.84,-1.35,-1.33,-4.14,-1.76,-4.61,-0.53,1005.87
9.219,0.01,0.78,-0.75,-1.35,-1.33,-4.14,-1.76,-4.61,-0.53,1005.87
9.219,0.03,0.88,-0.61,-1.35,-1.33,-4.14,-1.76,-4.61,-0.53,1005.87
9.22,-0.04,0.97,-0.52,-1.35,-1.33,-4.14,-1.76,-4.61,-0.53,1005.87
9.241,-0.04,0.97,-0.52,-1.35,-1.33,-4.14,-1.76,-4.61,-0.53,1005.86
9.257,-0.04,0.97,-0.52,-1.35,-1.33,-4.14,-1.42,-4.20,-1.19,1005.86
9.258,-0.04,0.97,-0.52,-0.36,1.12,-2.08,-1.42,-4.20,-1.19,1005.86
9.277,-0.07,1.07,-0.48,-0.36,1.12,-2.08,-1.42,-4.20,-1.19,1005.86
9.279,-0.01,1.15,-0.41,-0.36,1.12,-2.08,-1.42,-4.20,-1.19,1005.86
9.28,0.06,1.12,-0.40,-0.36,1.12,-2.08,-1.42,-4.20,-1.19,1005.86
9.316,0.06,1.12,-0.40,-0.36,1.12,-2.08,-1.17,-4.44,-0.54,1005.86
9.317,0.06,1.12,-0.40,2.61,0.90,-1.62,-1.17,-4.44,-0.54,1005.86
9.323,0.06,1.12,-0.40,2.61,0.90,-1.62,-1.17,-4.44,-0.54,1005.88
9.336,0.19,1.06,-0.35,2.61,0.90,-1.62,-1.17,-4.44,-0.54,1005.88
9.336,0.30,0.99,-0.29,2.61,0.90,-1.62,-1.17,-4.44,-0.54,1005.88
9.337,0.32,0.92,-0.24,2.61,0.90,-1.62,-1.17,-4.44,-0.54,1005.88
9.362,0.32,0.92,-0.24,2.61,0.90,-1.62,-1.17,-4.44,-0.54,1005.87
9.374,0.32,0.92,-0.24,2.61,0.90,-1.62,-0.70,-4.82,0.35,1005.87
9.375,0.32,0.92,-0.24,4.29,-2.19,-2.12,-0.70,-4.82,0.35,1005.87
9.399,0.33,0.74,-0.31,4.29,-2.19,-2.12,-0.70,-4.82,0.35,1005.87
9.401,0.37,0.58,-0.45,4.29,-2.19,-2.12,-0.70,-4.82,0.35,1005.87
9.402,0.46,0.51,-0.69,4.29,-2.19,-2.12,-0.70,-4.82,0.35,1005.87
9.433,0.46,0.51,-0.69,4.29,-2.19,-2.12,-0.52,-2.55,1.49,1005.87
9.434,0.46,0.51,-0.69,7.68,0.64,-3.89,-0.52,-2.55,1.49,1005.87
9.443,0.46,0.51,-0.69,7.68,0.64,-3.89,-0.52,-2.55,1.49,1005.89
9.453,0.71,0.85,-0.89,7.68,0.64,-3.89,-0.52,-2.55,1.49,1005.89
9.453,1.13,1.78,0.14,7.68,0.64,-3.89,-0.52,-2.55,1.49,1005.89
9.454,0.72,1.75,0.64,7.68,0.64,-3.89,-0.52,-2.55,1.49,1005.89
9.491,0.72,1.75,0.64,7.68,0.64,-3.89,-0.53,2.05,0.12,1005.89
9.493,0.72,1.75,0.64,-3.37,2.86,2.47,-0.53,2.05,0.12,1005.89
9.51,-0.88,1.17,0.02,-3.37,2.86,2.47,-0.53,2.05,0.12,1005.89
9.511,-0.89,0.91,-0.05,-3.37,2.86,2.47,-0.53,2.05,0.12,1005.89
9.511,0.05,0.81,-0.07,-3.37,2.86,2.47,-0.53,2.05,0.12,1005.89
9.522,0.05,0.81,-0.07,-3.37,2.86,2.47,-0.53,2.05,0.12,1005.89
9.551,0.05,0.81,-0.07,-3.37,2.86,2.47,-0.32,-0.82,1.05,1005.89
9.552,0.05,0.81,-0.07,0.91,-0.11,0.06,-0.32,-0.82,1.05,1005.89
9.563,0.05,0.81,-0.07,0.91,-0.11,0.06,-0.32,-0.82,1.05,1005.90
9.569,0.20,0.96,0.00,0.91,-0.11,0.06,-0.32,-0.82,1.05,1005.90
9.57,0.20,1.15,-0.01,0.91,-0.11,0.06,-0.32,-0.82,1.05,1005.90
9.57,0.27,1.11,-0.14,0.91,-0.11,0.06,-0.32,-0.82,1.05,1005.90
9.608,0.27,1.11,-0.14,0.91,-0.11,0.06,-0.20,-0.41,0.50,1005.90
9.61,0.27,1.11,-0.14,1.36,0.60,-0.36,-0.20,-0.41,0.50,1005.90
9.632,0.28,0.98,-0.07,1.36,0.60,-0.36,-0.20,-0.41,0.50,1005.90
9.633,0.12,1.04,0.03,1.36,0.60,-0.36,-0.20,-0.41,0.50,1005.90
9.633,-0.12,1.05,0.13,1.36,0.60,-0.36,-0.20,-0.41,0.50,1005.90
9.643,-0.12,1.05,0.13,1.36,0.60,-0.36,-0.20,-0.41,0.50,1005.89
9.667,-0.12,1.05,0.13,1.36,0.60,-0.36,-0.01,-0.29,0.35,1005.89
9.668,-0.12,1.05,0.13,-1.50,0.13,1.74,-0.01,-0.29,0.35,1005.89
9.686,-0.10,0.98,0.19,-1.50,0.13,1.74,-0.01,-0.29,0.35,1005.89
9.687,0.06,0.96,0.16,-1.50,0.13,1.74,-0.01,-0.29,0.35,1005.89
9.688,0.12,0.96,0.11,-1.50,0.13,1.74,-0.01,-0.29,0.35,1005.89
9.722,0.12,0.96,0.11,-1.50,0.13,1.74,-0.01,-0.29,0.35,1005.90
9.728,0.12,0.96,0.11,-1.50,0.13,1.74,0.24,-0.40,0.59,1005.90
9.729,0.12,0.96,0.11,0.22,-0.05,0.90,0.24,-0.40,0.59,1005.90
9.748,0.18,0.96,0.06,0.22,-0.05,0.90,0.24,-0.40,0.59,1005.90
9.749,0.18,0.99,0.01,0.22,-0.05,0.90,0.24,-0.40,0.59,1005.90
9.75,0.03,1.03,-0.06,0.22,-0.05,0.90,0.24,-0.40,0.59,1005.90
9.762,0.03,1.03,-0.06,0.22,-0.05,0.90,0.24,-0.40,0.59,1005.91
9.782,0.03,1.03,-0.06,0.22,-0.05,0.90,0.30,-0.33,0.57,1005.91
9.783,0.03,1.03,-0.06,-1.12,0.52,0.35,0.30,-0.33,0.57,1005.91
9.804,0.10,1.02,-0.00,-1.12,0.52,0.35,0.30,-0.33,0.57,1005.91
9.805,0.03,1.03,0.01,-1.12,0.52,0.35,0.30,-0.33,0.57,1005.91
9.805,0.06,1.01,-0.00,-1.12,0.52,0.35,0.30,-0.33,0.57,1005.91
9.841,0.06,1.01,-0.00,-0.66,0.19,0.54,0.30,-0.33,0.57,1005.91
9.842,0.06,1.01,-0.00,-0.66,0.19,0.54,0.41,-0.49,0.83,1005.91
9.842,0.06,1.01,-0.00,-0.66,0.19,0.54,0.41,-0.49,0.83,1005.91
9.859,0.18,0.97,-0.04,-0.66,0.19,0.54,0.41,-0.49,0.83,1005.91
9.86,0.19,0.97,-0.04,-0.66,0.19,0.54,0.41,-0.49,0.83,1005.91
9.861,0.16,1.00,-0.06,-0.66,0.19,0.54,0.41,-0.49,0.83,1005.91
9.906,0.16,1.00,-0.06,-0.66,0.19,0.54,0.43,-0.46,0.89,1005.91
9.906,0.16,1.00,-0.06,-0.41,0.74,0.18,0.43,-0.46,0.89,1005.91
9.92,0.25,1.02,-0.11,-0.41,0.74,0.18,0.43,-0.46,0.89,1005.91
9.92,0.24,1.06,-0.12,-0.41,0.74,0.18,0.43,-0.46,0.89,1005.91
9.921,0.14,1.03,-0.10,-0.41,0.74,0.18,0.43,-0.46,0.89,1005.91
9.921,0.14,1.03,-0.10,-0.41,0.74,0.18,0.43,-0.46,0.89,1005.90
9.958,0.14,1.03,-0.10,-0.41,0.74,0.18,0.44,-0.59,1.04,1005.90
9.959,0.14,1.03,-0.10,-1.97,0.74,0.82,0.44,-0.59,1.04,1005.90
9.963,0.14,1.03,-0.10,-1.97,0.74,0.82,0.44,-0.59,1.04,1005.90
9.976,0.09,0.99,-0.04,-1.97,0.74,0.82,0.44,-0.59,1.04,1005.90
9.977,0.09,1.00,-0.04,-1.97,0.74,0.82,0.44,-0.59,1.04,1005.90
9.977,0.13,1.06,-0.13,-1.97,0.74,0.82,0.44,-0.59,1.04,1005.90
10.015,0.13,1.06,-0.13,-1.97,0.74,0.82,0.65,-0.62,1.50,1005.90
10.016,0.13,1.06,-0.13,-2.29,1.94,-0.20,0.65,-0.62,1.50,1005.90
10.036,0.14,1.10,-0.24,-2.29,1.94,-0.20,0.65,-0.62,1.50,1005.90
10.037,0.16,1.12,-0.26,-2.29,1.94,-0.20,0.65,-0.62,1.50,1005.90
10.037,0.15,1.10,-0.25,-2.29,1.94,-0.20,0.65,-0.62,1.50,1005.90
10.042,0.15,1.10,-0.25,-2.29,1.94,-0.20,0.65,-0.62,1.50,1005.89
10.074,0.15,1.10,-0.25,-2.29,1.94,-0.20,0.84,-0.74,1.71,1005.89
10.075,0.15,1.10,-0.25,-3.64,3.45,0.45,0.84,-0.74,1.71,1005.89
10.095,0.11,1.13,-0.21,-3.64,3.45,0.45,0.84,-0.74,1.71,1005.89
10.096,-0.04,1.38,-0.15,-3.64,3.45,0.45,0.84,-0.74,1.71,1005.89
10.097,-0.51,1.93,0.10,-3.64,3.45,0.45,0.84,-0.74,1.71,1005.89
10.122,-0.51,1.93,0.10,-3.64,3.45,0.45,0.84,-0.74,1.71,1005.89
10.132,-0.51,1.93,0.10,-3.64,3.45,0.45,1.16,-1.18,2.15,1005.89
10.133,-0.51,1.93,0.10,-15.17,10.91,3.84,1.16,-1.18,2.15,1005.89
10.151,-1.25,2.04,0.07,-15.17,10.91,3.84,1.16,-1.18,2.15,1005.89
10.152,-1.37,1.74,0.00,-15.17,10.91,3.84,1.16,-1.18,2.15,1005.89
10.153,-0.49,1.20,-0.13,-15.17,10.91,3.84,1.16,-1.18,2.15,1005.89
10.162,-0.49,1.20,-0.13,-15.17,10.91,3.84,1.16,-1.18,2.15,1005.90
10.194,-0.49,1.20,-0.13,-15.17,10.91,3.84,1.76,-2.58,4.24,1005.90
10.195,-0.49,1.20,-0.13,-1.02,6.32,0.81,1.76,-2.58,4.24,1005.90
10.215,0.61,1.23,-0.60,-1.02,6.32,0.81,1.76,-2.58,4.24,1005.90
10.216,1.40,1.35,-0.49,-1.02,6.32,0.81,1.76,-2.58,4.24,1005.90
10.216,1.27,0.95,-0.61,-1.02,6.32,0.81,1.76,-2.58,4.24,1005.90
10.243,1.27,0.95,-0.61,-1.02,6.32,0.81,1.76,-2.58,4.24,1005.89
10.249,1.27,0.95,-0.61,-1.02,6.32,0.81,0.71,-0.93,1.90,1005.89
10.25,1.27,0.95,-0.61,1.23,2.17,-1.26,0.71,-0.93,1.90,1005.89
10.268,0.66,0.72,-0.68,1.23,2.17,-1.26,0.71,-0.93,1.90,1005.89
10.27,0.40,0.58,-0.75,1.23,2.17,-1.26,0.71,-0.93,1.90,1005.89
10.271,0.14,0.26,-0.31,1.23,2.17,-1.26,0.71,-0.93,1.90,1005.89
10.31,0.14,0.26,-0.31,-5.85,-5.28,4.33,0.71,-0.93,1.90,1005.89
10.312,0.14,0.26,-0.31,-5.85,-5.28,4.33,-2.26,-0.89,-1.09,1005.89
10.322,0.14,0.26,-0.31,-5.85,-5.28,4.33,-2.26,-0.89,-1.09,1005.84
10.326,-0.04,0.02,0.13,-5.85,-5.28,4.33,-2.26,-0.89,-1.09,1005.84
10.327,-0.17,-0.01,0.01,-5.85,-5.28,4.33,-2.26,-0.89,-1.09,1005.84
10.328,-0.09,0.23,-0.35,-5.85,-5.28,4.33,-2.26,-0.89,-1.09,1005.84
10.363,-0.09,0.23,-0.35,-5.85,-5.28,4.33,-2.26,-0.89,-1.09,1005.84
10.366,-0.09,0.23,-0.35,-5.85,-5.28,4.33,-2.38,-1.17,-2.76,1005.84
10.367,-0.09,0.23,-0.35,-3.70,-3.40,-0.19,-2.38,-1.17,-2.76,1005.84
10.385,0.07,0.47,-0.48,-3.70,-3.40,-0.19,-2.38,-1.17,-2.76,1005.84
10.386,0.15,0.56,-0.53,-3.70,-3.40,-0.19,-2.38,-1.17,-2.76,1005.84
10.386,0.13,0.57,-0.42,-3.70,-3.40,-0.19,-2.38,-1.17,-2.76,1005.84
10.425,0.13,0.57,-0.42,-0.99,-2.57,-0.67,-2.38,-1.17,-2.76,1005.84
10.427,0.13,0.57,-0.42,-0.99,-2.57,-0.67,-3.81,-1.87,-4.25,1005.84
10.442,0.13,0.57,-0.42,-0.99,-2.57,-0.67,-3.81,-1.87,-4.25,1005.91
10.444,0.05,0.61,-0.32,-0.99,-2.57,-0.67,-3.81,-1.87,-4.25,1005.91
10.445,0.02,0.80,-0.29,-0.99,-2.57,-0.67,-3.81,-1.87,-4.25,1005.91
10.445,0.09,1.08,-0.51,-0.99,-2.57,-0.67,-3.81,-1.87,-4.25,1005.91
10.483,0.09,1.08,-0.51,-0.99,-2.57,-0.67,-4.13,-1.26,-4.74,1005.91
10.484,0.09,1.08,-0.51,5.01,4.19,-6.55,-4.13,-1.26,-4.74,1005.91
10.502,0.42,1.45,-0.81,5.01,4.19,-6.55,-4.13,-1.26,-4.74,1005.91
10.504,0.73,1.68,-0.87,5.01,4.19,-6.55,-4.13,-1.26,-4.74,1005.91
10.504,0.87,1.57,-0.82,5.01,4.19,-6.55,-4.13,-1.26,-4.74,1005.91
10.522,0.87,1.57,-0.82,5.01,4.19,-6.55,-4.13,-1.26,-4.74,1005.89
10.541,0.87,1.57,-0.82,5.01,4.19,-6.55,-3.54,0.80,-4.02,1005.89
10.543,0.87,1.57,-0.82,13.46,4.35,-7.48,-3.54,0.80,-4.02,1005.89
10.56,1.07,1.36,-0.67,13.46,4.35,-7.48,-3.54,0.80,-4.02,1005.89
10.561,1.27,1.18,-0.48,13.46,4.35,-7.48,-3.54,0.80,-4.02,1005.89
10.561,1.18,1.02,-0.38,13.46,4.35,-7.48,-3.54,0.80,-4.02,1005.89
10.561,1.18,1.02,-0.38,13.46,4.35,-7.48,-3.54,0.80,-4.02,1005.88
10.602,1.18,1.02,-0.38,13.46,4.35,-7.48,-0.93,1.94,-0.26,1005.88
10.603,1.18,1.02,-0.38,11.69,-0.46,-6.33,-0.93,1.94,-0.26,1005.88
10.63,0.78,0.80,-0.63,11.69,-0.46,-6.33,-0.93,1.94,-0.26,1005.88
10.632,0.68,0.78,-0.60,11.69,-0.46,-6.33,-0.93,1.94,-0.26,1005.88
10.632,0.50,1.26,-0.94,11.69,-0.46,-6.33,-0.93,1.94,-0.26,1005.88
10.643,0.50,1.26,-0.94,11.69,-0.46,-6.33,-0.93,1.94,-0.26,1005.85
10.66,0.50,1.26,-0.94,11.69,-0.46,-6.33,0.16,3.02,0.07,1005.85
10.662,0.50,1.26,-0.94,-5.14,5.69,-1.76,0.16,3.02,0.07,1005.85
10.677,-0.76,1.72,0.15,-5.14,5.69,-1.76,0.16,3.02,0.07,1005.85
10.679,-2.30,1.55,0.37,-5.14,5.69,-1.76,0.16,3.02,0.07,1005.85
10.68,-1.34,1.64,-1.03,-5.14,5.69,-1.76,0.16,3.02,0.07,1005.85
10.72,-1.34,1.64,-1.03,-5.14,5.69,-1.76,0.78,1.43,2.44,1005.85
10.722,-1.34,1.64,-1.03,0.50,1.41,-3.01,0.78,1.43,2.44,1005.85
10.728,-1.34,1.64,-1.03,0.50,1.41,-3.01,0.78,1.43,2.44,1005.90
10.745,0.25,1.11,-0.57,0.50,1.41,-3.01,0.78,1.43,2.44,1005.90
10.746,0.65,0.58,0.58,0.50,1.41,-3.01,0.78,1.43,2.44,1005.90
10.746,0.28,0.61,0.43,0.50,1.41,-3.01,0.78,1.43,2.44,1005.90
10.763,0.28,0.61,0.43,0.50,1.41,-3.01,0.78,1.43,2.44,1005.91
10.775,0.28,0.61,0.43,0.50,1.41,-3.01,0.51,-0.65,1.51,1005.91
10.775,0.28,0.61,0.43,2.19,-0.21,0.66,0.51,-0.65,1.51,1005.91
10.795,-0.10,1.06,-0.11,2.19,-0.21,0.66,0.51,-0.65,1.51,1005.91
10.796,0.16,1.20,-0.28,2.19,-0.21,0.66,0.51,-0.65,1.51,1005.91
10.797,0.27,1.06,-0.25,2.19,-0.21,0.66,0.51,-0.65,1.51,1005.91
10.832,0.27,1.06,-0.25,2.19,-0.21,0.66,0.27,0.19,0.80,1005.91
10.833,0.27,1.06,-0.25,0.22,0.27,-0.37,0.27,0.19,0.80,1005.91
10.842,0.27,1.06,-0.25,0.22,0.27,-0.37,0.27,0.19,0.80,1005.93
10.852,-0.14,1.00,-0.13,0.22,0.27,-0.37,0.27,0.19,0.80,1005.93
10.853,-0.25,0.97,0.06,0.22,0.27,-0.37,0.27,0.19,0.80,1005.93
10.853,-0.17,1.00,0.19,0.22,0.27,-0.37,0.27,0.19,0.80,1005.93
10.891,-0.17,1.00,0.19,0.22,0.27,-0.37,0.46,0.26,0.94,1005.93
10.892,-0.17,1.00,0.19,-1.02,0.04,1.73,0.46,0.26,0.94,1005.93
10.91,-0.12,1.00,0.10,-1.02,0.04,1.73,0.46,0.26,0.94,1005.93
10.911,-0.05,0.95,-0.03,-1.02,0.04,1.73,0.46,0.26,0.94,1005.93
10.911,0.01,0.95,-0.09,-1.02,0.04,1.73,0.46,0.26,0.94,1005.93
10.923,0.01,0.95,-0.09,-1.02,0.04,1.73,0.46,0.26,0.94,1005.91
10.95,0.01,0.95,-0.09,-1.02,0.04,1.73,0.61,-0.07,1.13,1005.91
10.951,0.01,0.95,-0.09,-0.39,0.02,0.73,0.61,-0.07,1.13,1005.91
10.962,0.01,0.95,-0.09,-0.39,0.02,0.73,0.61,-0.07,1.13,1005.91
10.969,0.01,0.98,-0.05,-0.39,0.02,0.73,0.61,-0.07,1.13,1005.91
10.97,0.02,1.01,-0.03,-0.39,0.02,0.73,0.61,-0.07,1.13,1005.91
10.971,0.06,1.00,-0.07,-0.39,0.02,0.73,0.61,-0.07,1.13,1005.91
11.008,0.06,1.00,-0.07,-0.39,0.02,0.73,0.75,0.13,1.18,1005.91
11.009,0.06,1.00,-0.07,-0.04,0.17,0.35,0.75,0.13,1.18,1005.91
11.028,0.12,0.98,-0.13,-0.04,0.17,0.35,0.75,0.13,1.18,1005.91
11.031,0.17,0.96,-0.19,-0.04,0.17,0.35,0.75,0.13,1.18,1005.91
11.032,0.12,0.99,-0.21,-0.04,0.17,0.35,0.75,0.13,1.18,1005.91
11.045,0.12,0.99,-0.21,-0.04,0.17,0.35,0.75,0.13,1.18,1005.90
11.065,0.12,0.99,-0.21,-0.04,0.17,0.35,0.70,-0.13,1.11,1005.90
11.066,0.12,0.99,-0.21,-0.69,0.62,-0.12,0.70,-0.13,1.11,1005.90
11.085,0.10,1.02,-0.21,-0.69,0.62,-0.12,0.70,-0.13,1.11,1005.90
11.085,0.11,1.02,-0.25,-0.69,0.62,-0.12,0.70,-0.13,1.11,1005.90
11.086,0.07,1.01,-0.23,-0.69,0.62,-0.12,0.70,-0.13,1.11,1005.90
11.123,0.07,1.01,-0.23,-0.69,0.62,-0.12,0.70,-0.13,1.11,1005.89
11.124,0.07,1.01,-0.23,-2.09,0.97,0.62,0.70,-0.13,1.11,1005.89
11.124,0.07,1.01,-0.23,-2.09,0.97,0.62,0.81,-0.26,1.25,1005.89
11.144,0.00,1.00,-0.19,-2.09,0.97,0.62,0.81,-0.26,1.25,1005.89
11.144,0.01,1.05,-0.16,-2.09,0.97,0.62,0.81,-0.26,1.25,1005.89
11.145,0.05,1.14,-0.15,-2.09,0.97,0.62,0.81,-0.26,1.25,1005.89
11.162,0.05,1.14,-0.15,-2.09,0.97,0.62,0.81,-0.26,1.25,1005.90
11.182,0.05,1.14,-0.15,-2.09,0.97,0.62,1.42,-0.05,1.62,1005.90
11.182,0.05,1.14,-0.15,-3.28,3.45,2.48,1.42,-0.05,1.62,1005.90
11.202,0.01,1.21,-0.05,-3.28,3.45,2.48,1.42,-0.05,1.62,1005.90
11.203,-0.10,1.33,-0.02,-3.28,3.45,2.48,1.42,-0.05,1.62,1005.90
11.203,-0.28,1.68,0.11,-3.28,3.45,2.48,1.42,-0.05,1.62,1005.90
11.24,-0.28,1.68,0.11,-3.28,3.45,2.48,2.14,-0.65,2.08,1005.90
11.241,-0.28,1.68,0.11,-10.75,10.54,4.68,2.14,-0.65,2.08,1005.90
11.242,-0.28,1.68,0.11,-10.75,10.54,4.68,2.14,-0.65,2.08,1005.91
11.263,-0.75,1.99,0.04,-10.75,10.54,4.68,2.14,-0.65,2.08,1005.91
11.263,-1.09,1.97,-0.03,-10.75,10.54,4.68,2.14,-0.65,2.08,1005.91
11.264,-0.97,1.67,-0.00,-10.75,10.54,4.68,2.14,-0.65,2.08,1005.91
11.299,-0.97,1.67,-0.00,-10.75,10.54,4.68,2.29,-1.77,3.25,1005.91
11.301,-0.97,1.67,-0.00,-5.98,6.52,3.16,2.29,-1.77,3.25,1005.91
11.319,-0.15,1.19,-0.14,-5.98,6.52,3.16,2.29,-1.77,3.25,1005.91
11.32,0.68,1.13,-0.61,-5.98,6.52,3.16,2.29,-1.77,3.25,1005.91
11.321,1.19,1.07,-0.49,-5.98,6.52,3.16,2.29,-1.77,3.25,1005.91
11.322,1.19,1.07,-0.49,-5.98,6.52,3.16,2.29,-1.77,3.25,1005.92
11.358,1.19,1.07,-0.49,-5.98,6.52,3.16,1.66,-0.66,2.22,1005.92
11.359,1.19,1.07,-0.49,4.26,2.09,-0.09,1.66,-0.66,2.22,1005.92
11.363,1.19,1.07,-0.49,4.26,2.09,-0.09,1.66,-0.66,2.22,1005.91
11.377,1.06,0.74,-0.63,4.26,2.09,-0.09,1.66,-0.66,2.22,1005.91
11.378,0.63,0.46,-0.86,4.26,2.09,-0.09,1.66,-0.66,2.22,1005.91
11.379,0.45,0.43,-0.64,4.26,2.09,-0.09,1.66,-0.66,2.22,1005.91
11.42,0.45,0.43,-0.64,4.26,2.09,-0.09,-1.61,0.29,-0.52,1005.91
11.422,0.45,0.43,-0.64,-2.31,-3.36,2.75,-1.61,0.29,-0.52,1005.91
11.441,0.28,0.28,-0.28,-2.31,-3.36,2.75,-1.61,0.29,-0.52,1005.91
11.442,0.11,0.10,0.01,-2.31,-3.36,2.75,-1.61,0.29,-0.52,1005.91
11.443,-0.06,0.06,-0.02,-2.31,-3.36,2.75,-1.61,0.29,-0.52,1005.91
11.443,-0.06,0.06,-0.02,-2.31,-3.36,2.75,-1.61,0.29,-0.52,1005.87
11.475,-0.06,0.06,-0.02,-2.31,-3.36,2.75,-2.74,-0.21,-2.51,1005.87
11.476,-0.06,0.06,-0.02,-4.81,-5.52,2.70,-2.74,-0.21,-2.51,1005.87
11.497,-0.17,0.18,-0.20,-4.81,-5.52,2.70,-2.74,-0.21,-2.51,1005.87
11.499,-0.05,0.34,-0.37,-4.81,-5.52,2.70,-2.74,-0.21,-2.51,1005.87
11.5,0.08,0.49,-0.42,-4.81,-5.52,2.70,-2.74,-0.21,-2.51,1005.87
11.522,0.08,0.49,-0.42,-4.81,-5.52,2.70,-2.74,-0.21,-2.51,1005.90
11.535,0.08,0.49,-0.42,-4.81,-5.52,2.70,-3.81,-1.15,-3.69,1005.90
11.536,0.08,0.49,-0.42,-1.14,-3.29,-0.28,-3.81,-1.15,-3.69,1005.90
11.557,0.07,0.58,-0.36,-1.14,-3.29,-0.28,-3.81,-1.15,-3.69,1005.90
11.558,0.07,0.63,-0.23,-1.14,-3.29,-0.28,-3.81,-1.15,-3.69,1005.90
11.558,0.09,0.81,-0.37,-1.14,-3.29,-0.28,-3.81,-1.15,-3.69,1005.90
11.565,0.09,0.81,-0.37,-1.14,-3.29,-0.28,-3.81,-1.15,-3.69,1005.91
11.592,0.09,0.81,-0.37,-1.14,-3.29,-0.28,-4.48,-1.59,-4.57,1005.91
11.593,0.09,0.81,-0.37,2.67,2.86,-4.22,-4.48,-1.59,-4.57,1005.91
11.611,0.15,1.20,-0.53,2.67,2.86,-4.22,-4.48,-1.59,-4.57,1005.91
11.612,0.36,1.77,-0.62,2.67,2.86,-4.22,-4.48,-1.59,-4.57,1005.91
11.612,0.48,1.96,-0.85,2.67,2.86,-4.22,-4.48,-1.59,-4.57,1005.91
11.643,0.48,1.96,-0.85,2.67,2.86,-4.22,-4.48,-1.59,-4.57,1005.89
11.648,0.48,1.96,-0.85,2.67,2.86,-4.22,-4.54,-0.40,-4.24,1005.89
11.649,0.48,1.96,-0.85,8.53,7.23,-7.35,-4.54,-0.40,-4.24,1005.89
11.67,0.60,1.64,-0.75,8.53,7.23,-7.35,-4.54,-0.40,-4.24,1005.89
11.67,0.65,1.38,-0.14,8.53,7.23,-7.35,-4.54,-0.40,-4.24,1005.89
11.67,0.56,1.16,-0.19,8.53,7.23,-7.35,-4.54,-0.40,-4.24,1005.89
11.707,0.56,1.16,-0.19,8.53,7.23,-7.35,-1.90,0.40,-1.38,1005.89
11.708,0.56,1.16,-0.19,9.20,0.75,-6.34,-1.90,0.40,-1.38,1005.89
11.723,0.56,1.16,-0.19,9.20,0.75,-6.34,-1.90,0.40,-1.38,1005.86
11.726,0.60,0.89,-0.49,9.20,0.75,-6.34,-1.90,0.40,-1.38,1005.86
11.727,0.58,0.79,-0.52,9.20,0.75,-6.34,-1.90,0.40,-1.38,1005.86
11.727,0.55,0.74,-0.41,9.20,0.75,-6.34,-1.90,0.40,-1.38,1005.86
11.762,0.55,0.74,-0.41,9.20,0.75,-6.34,-1.90,0.40,-1.38,1005.88
11.764,0.55,0.74,-0.41,9.20,0.75,-6.34,0.66,1.76,1.70,1005.88
11.765,0.55,0.74,-0.41,5.13,0.96,-7.34,0.66,1.76,1.70,1005.88
11.784,0.46,0.90,-0.92,5.13,0.96,-7.34,0.66,1.76,1.70,1005.88
11.785,-0.29,1.39,-0.42,5.13,0.96,-7.34,0.66,1.76,1.70,1005.88
11.786,-2.13,1.35,1.07,5.13,0.96,-7.34,0.66,1.76,1.70,1005.88
11.824,-2.13,1.35,1.07,5.13,0.96,-7.34,0.54,2.34,0.12,1005.88
11.826,-2.13,1.35,1.07,-10.59,6.86,-1.61,0.54,2.34,0.12,1005.88
11.842,-2.13,1.35,1.07,-10.59,6.86,-1.61,0.54,2.34,0.12,1005.87
11.844,-1.87,1.78,-0.32,-10.59,6.86,-1.61,0.54,2.34,0.12,1005.87
11.844,-0.18,1.77,-0.94,-10.59,6.86,-1.61,0.54,2.34,0.12,1005.87
11.844,0.51,1.09,-0.15,-10.59,6.86,-1.61,0.54,2.34,0.12,1005.87
11.883,0.51,1.09,-0.15,-10.59,6.86,-1.61,0.67,0.29,2.44,1005.87
11.883,0.51,1.09,-0.15,5.20,-1.92,1.36,0.67,0.29,2.44,1005.87
11.902,0.45,0.52,0.43,5.20,-1.92,1.36,0.67,0.29,2.44,1005.87
11.903,0.12,0.70,0.31,5.20,-1.92,1.36,0.67,0.29,2.44,1005.87
11.904,0.13,1.02,-0.08,5.20,-1.92,1.36,0.67,0.29,2.44,1005.87
11.926,0.13,1.02,-0.08,5.20,-1.92,1.36,0.67,0.29,2.44,1005.92
11.94,0.13,1.02,-0.08,5.20,-1.92,1.36,0.43,-0.18,1.07,1005.92
11.941,0.13,1.02,-0.08,1.78,0.87,-1.06,0.43,-0.18,1.07,1005.92
11.96,0.16,1.14,-0.17,1.78,0.87,-1.06,0.43,-0.18,1.07,1005.92
11.96,-0.06,1.03,0.02,1.78,0.87,-1.06,0.43,-0.18,1.07,1005.92
11.961,-0.16,1.01,-0.04,1.78,0.87,-1.06,0.43,-0.18,1.07,1005.92
11.962,-0.16,1.01,-0.04,1.78,0.87,-1.06,0.43,-0.18,1.07,1005.94
11.999,-0.16,1.01,-0.04,1.78,0.87,-1.06,0.26,0.04,0.69,1005.94
11.999,-0.16,1.01,-0.04,-0.32,0.28,0.41,0.26,0.04,0.69,1005.94
12.023,-0.03,1.02,0.06,-0.32,0.28,0.41,0.26,0.04,0.69,1005.94
12.024,-0.11,1.00,0.16,-0.32,0.28,0.41,0.26,0.04,0.69,1005.94
12.025,-0.19,0.99,0.20,-0.32,0.28,0.41,0.26,0.04,0.69,1005.94
12.043,-0.19,0.99,0.20,-0.32,0.28,0.41,0.26,0.04,0.69,1005.92
12.058,-0.19,0.99,0.20,-0.32,0.28,0.41,0.49,-0.15,0.79,1005.92
12.058,-0.19,0.99,0.20,-0.98,0.04,1.24,0.49,-0.15,0.79,1005.92
12.077,-0.14,0.98,0.11,-0.98,0.04,1.24,0.49,-0.15,0.79,1005.92
12.078,-0.04,0.99,0.04,-0.98,0.04,1.24,0.49,-0.15,0.79,1005.92
12.078,-0.01,1.00,-0.02,-0.98,0.04,1.24,0.49,-0.15,0.79,1005.92
12.116,-0.01,1.00,-0.02,-0.98,0.04,1.24,0.60,-0.35,0.89,1005.92
12.118,-0.01,1.00,-0.02,-0.35,0.10,0.23,0.60,-0.35,0.89,1005.92
12.123,-0.01,1.00,-0.02,-0.35,0.10,0.23,0.60,-0.35,0.89,1005.92
12.142,-0.02,1.00,-0.04,-0.35,0.10,0.23,0.60,-0.35,0.89,1005.92
12.143,0.00,0.97,0.00,-0.35,0.10,0.23,0.60,-0.35,0.89,1005.92
12.144,0.08,0.96,0.01,-0.35,0.10,0.23,0.60,-0.35,0.89,1005.92
12.164,0.08,0.96,0.01,-0.35,0.10,0.23,0.60,-0.35,0.89,1005.91
12.175,0.08,0.96,0.01,-0.35,0.10,0.23,0.63,-0.28,0.89,1005.91
12.175,0.08,0.96,0.01,-0.03,-0.13,0.38,0.63,-0.28,0.89,1005.91
12.192,0.12,0.96,-0.05,-0.03,-0.13,0.38,0.63,-0.28,0.89,1005.91
12.193,0.02,0.97,-0.08,-0.03,-0.13,0.38,0.63,-0.28,0.89,1005.91
12.193,-0.08,0.96,-0.05,-0.03,-0.13,0.38,0.63,-0.28,0.89,1005.91
12.233,-0.08,0.96,-0.05,-0.03,-0.13,0.38,0.65,-0.60,1.07,1005.91
12.234,-0.08,0.96,-0.05,-1.35,0.00,0.54,0.65,-0.60,1.07,1005.91
12.243,-0.08,0.96,-0.05,-1.35,0.00,0.54,0.65,-0.60,1.07,1005.92
12.252,-0.02,0.96,-0.05,-1.35,0.00,0.54,0.65,-0.60,1.07,1005.92
12.252,0.08,0.98,-0.09,-1.35,0.00,0.54,0.65,-0.60,1.07,1005.92
12.253,0.14,1.00,-0.14,-1.35,0.00,0.54,0.65,-0.60,1.07,1005.92
12.292,0.14,1.00,-0.14,-1.35,0.00,0.54,0.73,-0.68,1.24,1005.92
12.293,0.14,1.00,-0.14,-0.03,0.24,0.40,0.73,-0.68,1.24,1005.92
12.311,0.20,0.97,-0.15,-0.03,0.24,0.40,0.73,-0.68,1.24,1005.92
12.312,0.24,0.95,-0.09,-0.03,0.24,0.40,0.73,-0.68,1.24,1005.92
12.313,0.24,0.93,-0.10,-0.03,0.24,0.40,0.73,-0.68,1.24,1005.92
12.322,0.24,0.93,-0.10,-0.03,0.24,0.40,0.73,-0.68,1.24,1005.92
12.349,0.24,0.93,-0.10,-0.03,0.24,0.40,0.87,-0.75,1.18,1005.92
12.35,0.24,0.93,-0.10,0.05,0.13,1.39,0.87,-0.75,1.18,1005.92
12.362,0.24,0.93,-0.10,0.05,0.13,1.39,0.87,-0.75,1.18,1005.92
12.368,0.26,0.93,-0.11,0.05,0.13,1.39,0.87,-0.75,1.18,1005.92
12.368,0.27,0.95,-0.03,0.05,0.13,1.39,0.87,-0.75,1.18,1005.92
12.368,0.23,1.00,0.03,0.05,0.13,1.39,0.87,-0.75,1.18,1005.92
12.408,0.23,1.00,0.03,0.05,0.13,1.39,1.19,-0.83,1.33,1005.92
12.408,0.23,1.00,0.03,-1.45,3.33,3.46,1.19,-0.83,1.33,1005.92
12.426,0.18,1.19,0.08,-1.45,3.33,3.46,1.19,-0.83,1.33,1005.92
12.427,0.06,1.51,0.07,-1.45,3.33,3.46,1.19,-0.83,1.33,1005.92
12.428,-0.14,1.81,0.08,-1.45,3.33,3.46,1.19,-0.83,1.33,1005.92
12.443,-0.14,1.81,0.08,-1.45,3.33,3.46,1.19,-0.83,1.33,1005.92
12.466,-0.14,1.81,0.08,-1.45,3.33,3.46,1.20,-2.22,2.35,1005.92
12.467,-0.14,1.81,0.08,-6.16,7.50,1.95,1.20,-2.22,2.35,1005.92
12.484,-0.40,1.65,-0.18,-6.16,7.50,1.95,1.20,-2.22,2.35,1005.92
12.485,-0.24,1.33,-0.48,-6.16,7.50,1.95,1.20,-2.22,2.35,1005.92
12.486,0.18,1.11,-0.30,-6.16,7.50,1.95,1.20,-2.22,2.35,1005.92
12.522,0.18,1.11,-0.30,-6.16,7.50,1.95,1.20,-2.22,2.35,1005.91
12.523,0.18,1.11,-0.30,-6.16,7.50,1.95,0.55,-4.17,3.51,1005.91
12.524,0.18,1.11,-0.30,0.02,2.35,0.39,0.55,-4.17,3.51,1005.91
12.543,0.44,0.97,-0.43,0.02,2.35,0.39,0.55,-4.17,3.51,1005.91
12.544,0.64,0.86,-0.69,0.02,2.35,0.39,0.55,-4.17,3.51,1005.91
12.544,0.68,0.62,-0.75,0.02,2.35,0.39,0.55,-4.17,3.51,1005.91
12.562,0.68,0.62,-0.75,0.02,2.35,0.39,0.55,-4.17,3.51,1005.89
12.582,0.68,0.62,-0.75,0.02,2.35,0.39,-1.28,-3.75,3.01,1005.89
12.583,0.68,0.62,-0.75,-0.20,-2.29,-1.43,-1.28,-3.75,3.01,1005.89
12.601,0.38,0.46,-0.67,-0.20,-2.29,-1.43,-1.28,-3.75,3.01,1005.89
12.602,0.16,0.32,-0.69,-0.20,-2.29,-1.43,-1.28,-3.75,3.01,1005.89
12.602,-0.00,0.27,-0.79,-0.20,-2.29,-1.43,-1.28,-3.75,3.01,1005.89
12.64,-0.00,0.27,-0.79,-0.20,-2.29,-1.43,-2.53,-2.51,2.06,1005.89
12.644,-0.00,0.27,-0.79,-5.05,-4.40,-3.53,-2.53,-2.51,2.06,1005.89
12.644,-0.00,0.27,-0.79,-5.05,-4.40,-3.53,-2.53,-2.51,2.06,1005.87
12.661,-0.10,0.25,-1.06,-5.05,-4.40,-3.53,-2.53,-2.51,2.06,1005.87
12.662,-0.17,0.31,-0.79,-5.05,-4.40,-3.53,-2.53,-2.51,2.06,1005.87
12.662,-0.04,0.32,-0.67,-5.05,-4.40,-3.53,-2.53,-2.51,2.06,1005.87
12.701,-0.04,0.32,-0.67,-5.05,-4.40,-3.53,-3.31,-2.47,0.95,1005.87
12.701,-0.04,0.32,-0.67,-6.01,-3.45,-2.87,-3.31,-2.47,0.95,1005.87
12.718,-0.22,0.43,-0.75,-6.01,-3.45,-2.87,-3.31,-2.47,0.95,1005.87
12.719,-0.42,0.55,-0.77,-6.01,-3.45,-2.87,-3.31,-2.47,0.95,1005.87
12.72,-0.58,0.62,-0.80,-6.01,-3.45,-2.87,-3.31,-2.47,0.95,1005.87
12.723,-0.58,0.62,-0.80,-6.01,-3.45,-2.87,-3.31,-2.47,0.95,1005.87
12.758,-0.58,0.62,-0.80,-6.01,-3.45,-2.87,-2.89,-5.15,0.27,1005.87
12.759,-0.58,0.62,-0.80,-7.24,-1.75,-4.73,-2.89,-5.15,0.27,1005.87
12.763,-0.58,0.62,-0.80,-7.24,-1.75,-4.73,-2.89,-5.15,0.27,1005.88
12.776,-0.52,0.66,-0.90,-7.24,-1.75,-4.73,-2.89,-5.15,0.27,1005.88
12.777,-0.34,0.74,-0.97,-7.24,-1.75,-4.73,-2.89,-5.15,0.27,1005.88
12.778,-0.21,0.84,-0.96,-7.24,-1.75,-4.73,-2.89,-5.15,0.27,1005.88
12.821,-0.21,0.84,-0.96,-2.57,-0.33,-5.57,-2.89,-5.15,0.27,1005.88
12.823,-0.21,0.84,-0.96,-2.57,-0.33,-5.57,-2.35,-5.19,-0.02,1005.88
12.855,-0.11,0.87,-0.92,-2.57,-0.33,-5.57,-2.35,-5.19,-0.02,1005.88
12.856,-0.04,0.88,-0.89,-2.57,-0.33,-5.57,-2.35,-5.19,-0.02,1005.88
12.856,0.01,0.90,-0.82,-2.57,-0.33,-5.57,-2.35,-5.19,-0.02,1005.88
12.856,0.01,0.90,-0.82,-2.57,-0.33,-5.57,-2.35,-5.19,-0.02,1005.88
12.873,0.01,0.90,-0.82,-2.57,-0.33,-5.57,-2.13,-3.28,-0.87,1005.88
12.874,0.01,0.90,-0.82,-0.19,-0.28,-3.62,-2.13,-3.28,-0.87,1005.88
12.893,0.03,0.91,-0.63,-0.19,-0.28,-3.62,-2.13,-3.28,-0.87,1005.88
12.894,0.00,0.93,-0.46,-0.19,-0.28,-3.62,-2.13,-3.28,-0.87,1005.88
12.895,-0.05,0.96,-0.41,-0.19,-0.28,-3.62,-2.13,-3.28,-0.87,1005.88
12.925,-0.05,0.96,-0.41,-0.19,-0.28,-3.62,-2.13,-3.28,-0.87,1005.88
12.939,-0.05,0.96,-0.41,-0.19,-0.28,-3.62,-1.34,-2.94,-1.09,1005.88
12.94,-0.05,0.96,-0.41,0.23,0.27,-1.79,-1.34,-2.94,-1.09,1005.88
12.952,-0.06,1.01,-0.38,0.23,0.27,-1.79,-1.34,-2.94,-1.09,1005.88
12.954,-0.01,1.00,-0.34,0.23,0.27,-1.79,-1.34,-2.94,-1.09,1005.88
12.955,0.13,0.93,-0.35,0.23,0.27,-1.79,-1.34,-2.94,-1.09,1005.88
12.964,0.13,0.93,-0.35,0.23,0.27,-1.79,-1.34,-2.94,-1.09,1005.91
12.991,0.13,0.93,-0.35,0.23,0.27,-1.79,-0.49,-3.73,-0.09,1005.91
12.992,0.13,0.93,-0.35,3.97,-0.63,-2.65,-0.49,-3.73,-0.09,1005.91
13.011,0.30,0.91,-0.44,3.97,-0.63,-2.65,-0.49,-3.73,-0.09,1005.91
13.011,0.48,0.86,-0.48,3.97,-0.63,-2.65,-0.49,-3.73,-0.09,1005.91
13.012,0.66,0.75,-0.59,3.97,-0.63,-2.65,-0.49,-3.73,-0.09,1005.91
13.042,0.66,0.75,-0.59,3.97,-0.63,-2.65,-0.49,-3.73,-0.09,1005.91
13.049,0.66,0.75,-0.59,3.97,-0.63,-2.65,-0.39,-1.50,0.93,1005.91
13.051,0.66,0.75,-0.59,7.62,-2.06,-3.69,-0.39,-1.50,0.93,1005.91
13.07,0.86,0.66,-0.57,7.62,-2.06,-3.69,-0.39,-1.50,0.93,1005.91
13.071,0.67,0.86,-0.35,7.62,-2.06,-3.69,-0.39,-1.50,0.93,1005.91
13.071,0.10,1.44,0.23,7.62,-2.06,-3.69,-0.39,-1.50,0.93,1005.91
13.107,0.10,1.44,0.23,-3.04,5.81,4.25,-0.39,-1.50,0.93,1005.91
13.11,0.10,1.44,0.23,-3.04,5.81,4.25,-1.02,1.74,-0.01,1005.91
13.123,0.10,1.44,0.23,-3.04,5.81,4.25,-1.02,1.74,-0.01,1005.91
13.127,-0.43,1.94,0.69,-3.04,5.81,4.25,-1.02,1.74,-0.01,1005.91
13.128,-0.73,1.35,0.18,-3.04,5.81,4.25,-1.02,1.74,-0.01,1005.91
13.129,-0.33,0.72,-0.16,-3.04,5.81,4.25,-1.02,1.74,-0.01,1005.91
13.164,-0.33,0.72,-0.16,-3.04,5.81,4.25,-1.02,1.74,-0.01,1005.91
13.166,-0.33,0.72,-0.16,-3.04,5.81,4.25,-0.04,-0.43,0.94,1005.91
13.166,-0.33,0.72,-0.16,0.07,-1.53,-1.48,-0.04,-0.43,0.94,1005.91
13.185,0.14,0.75,-0.31,0.07,-1.53,-1.48,-0.04,-0.43,0.94,1005.91
13.186,0.25,1.00,-0.19,0.07,-1.53,-1.48,-0.04,-0.43,0.94,1005.91
13.187,0.32,1.12,-0.01,0.07,-1.53,-1.48,-0.04,-0.43,0.94,1005.91
13.229,0.32,1.12,-0.01,0.07,-1.53,-1.48,-0.45,-0.43,0.46,1005.91
13.231,0.32,1.12,-0.01,1.67,0.59,0.29,-0.45,-0.43,0.46,1005.91
13.243,0.32,1.12,-0.01,1.67,0.59,0.29,-0.45,-0.43,0.46,1005.91
13.244,0.24,1.03,-0.01,1.67,0.59,0.29,-0.45,-0.43,0.46,1005.91
13.245,0.06,0.98,-0.01,1.67,0.59,0.29,-0.45,-0.43,0.46,1005.91
13.245,-0.01,1.06,0.02,1.67,0.59,0.29,-0.45,-0.43,0.46,1005.91
13.285,-0.01,1.06,0.02,-1.22,0.61,1.11,-0.45,-0.43,0.46,1005.91
13.288,-0.01,1.06,0.02,-1.22,0.61,1.11,-0.29,-0.11,0.21,1005.91
13.302,-0.13,1.07,0.09,-1.22,0.61,1.11,-0.29,-0.11,0.21,1005.91
13.304,-0.09,1.01,0.16,-1.22,0.61,1.11,-0.29,-0.11,0.21,1005.91
13.305,0.03,0.99,0.13,-1.22,0.61,1.11,-0.29,-0.11,0.21,1005.91
13.322,0.03,0.99,0.13,-1.22,0.61,1.11,-0.29,-0.11,0.21,1005.90
13.34,0.03,0.99,0.13,-1.22,0.61,1.11,0.02,-0.46,0.40,1005.90
13.349,0.03,0.99,0.13,0.03,-0.01,1.07,0.02,-0.46,0.40,1005.90
13.367,0.09,0.98,0.06,0.03,-0.01,1.07,0.02,-0.46,0.40,1005.90
13.368,0.10,0.98,0.07,0.03,-0.01,1.07,0.02,-0.46,0.40,1005.90
13.369,-0.00,1.01,0.07,0.03,-0.01,1.07,0.02,-0.46,0.40,1005.90
13.37,-0.00,1.01,0.07,0.03,-0.01,1.07,0.02,-0.46,0.40,1005.90
13.401,-0.00,1.01,0.07,-1.39,0.33,0.83,0.02,-0.46,0.40,1005.90
13.402,-0.00,1.01,0.07,-1.39,0.33,0.83,0.18,-0.35,0.39,1005.90
13.418,-0.08,1.03,0.02,-1.39,0.33,0.83,0.18,-0.35,0.39,1005.90
13.419,-0.08,1.01,0.07,-1.39,0.33,0.83,0.18,-0.35,0.39,1005.90
13.419,-0.00,1.00,0.10,-1.39,0.33,0.83,0.18,-0.35,0.39,1005.90
13.442,-0.00,1.00,0.10,-1.39,0.33,0.83,0.18,-0.35,0.39,1005.90
13.457,-0.00,1.00,0.10,-1.39,0.33,0.83,0.37,-0.50,0.67,1005.90
13.457,-0.00,1.00,0.10,-0.53,0.07,1.13,0.37,-0.50,0.67,1005.90
13.477,0.09,0.98,0.07,-0.53,0.07,1.13,0.37,-0.50,0.67,1005.90
13.477,0.12,0.97,0.00,-0.53,0.07,1.13,0.37,-0.50,0.67,1005.90
13.478,0.14,1.00,-0.07,-0.53,0.07,1.13,0.37,-0.50,0.67,1005.90
13.516,0.14,1.00,-0.07,-0.53,0.07,1.13,0.40,-0.30,0.67,1005.90
13.518,0.14,1.00,-0.07,-0.41,0.32,-0.19,0.40,-0.30,0.67,1005.90
13.524,0.14,1.00,-0.07,-0.41,0.32,-0.19,0.40,-0.30,0.67,1005.89
13.539,0.12,1.01,-0.11,-0.41,0.32,-0.19,0.40,-0.30,0.67,1005.89
13.539,0.10,1.00,-0.12,-0.41,0.32,-0.19,0.40,-0.30,0.67,1005.89
13.539,0.08,1.02,-0.04,-0.41,0.32,-0.19,0.40,-0.30,0.67,1005.89
13.57,0.08,1.02,-0.04,-0.41,0.32,-0.19,0.40,-0.30,0.67,1005.89
13.575,0.08,1.02,-0.04,-0.41,0.32,-0.19,0.45,-0.36,0.77,1005.89
13.575,0.08,1.02,-0.04,-1.36,0.65,0.96,0.45,-0.36,0.77,1005.89
13.594,0.03,1.04,0.01,-1.36,0.65,0.96,0.45,-0.36,0.77,1005.89
13.595,0.07,1.01,-0.00,-1.36,0.65,0.96,0.45,-0.36,0.77,1005.89
13.595,0.08,1.03,-0.06,-1.36,0.65,0.96,0.45,-0.36,0.77,1005.89
13.632,0.08,1.03,-0.06,-1.36,0.65,0.96,0.59,-0.55,1.06,1005.89
13.632,0.08,1.03,-0.06,-1.59,1.18,0.66,0.59,-0.55,1.06,1005.89
13.642,0.08,1.03,-0.06,-1.59,1.18,0.66,0.59,-0.55,1.06,1005.90
13.651,0.08,1.07,-0.08,-1.59,1.18,0.66,0.59,-0.55,1.06,1005.90
13.652,0.11,1.09,-0.10,-1.59,1.18,0.66,0.59,-0.55,1.06,1005.90
13.652,0.06,1.09,-0.04,-1.59,1.18,0.66,0.59,-0.55,1.06,1005.90
13.691,0.06,1.09,-0.04,-1.59,1.18,0.66,0.90,-0.79,1.48,1005.90
13.692,0.06,1.09,-0.04,-2.88,1.79,1.66,0.90,-0.79,1.48,1005.90
13.711,0.02,1.08,0.00,-2.88,1.79,1.66,0.90,-0.79,1.48,1005.90
13.711,-0.02,1.11,-0.07,-2.88,1.79,1.66,0.90,-0.79,1.48,1005.90
13.712,0.01,1.24,-0.09,-2.88,1.79,1.66,0.90,-0.79,1.48,1005.90
13.724,0.01,1.24,-0.09,-2.88,1.79,1.66,0.90,-0.79,1.48,1005.90
13.75,0.01,1.24,-0.09,-2.88,1.79,1.66,1.40,-0.87,1.99,1005.90
13.755,0.01,1.24,-0.09,-4.23,5.59,2.01,1.40,-0.87,1.99,1005.90
13.763,0.01,1.24,-0.09,-4.23,5.59,2.01,1.40,-0.87,1.99,1005.91
13.777,0.05,1.45,-0.11,-4.23,5.59,2.01,1.40,-0.87,1.99,1005.91
13.777,-0.15,1.59,-0.06,-4.23,5.59,2.01,1.40,-0.87,1.99,1005.91
13.778,-0.63,1.68,0.00,-4.23,5.59,2.01,1.40,-0.87,1.99,1005.91
13.807,-0.63,1.68,0.00,-4.23,5.59,2.01,1.61,-1.41,2.45,1005.91
13.809,-0.63,1.68,0.00,-13.07,7.90,3.38,1.61,-1.41,2.45,1005.91
13.828,-1.07,1.69,-0.06,-13.07,7.90,3.38,1.61,-1.41,2.45,1005.91
13.828,-0.91,1.38,-0.11,-13.07,7.90,3.38,1.61,-1.41,2.45,1005.91
13.829,-0.16,1.03,-0.28,-13.07,7.90,3.38,1.61,-1.41,2.45,1005.91
13.844,-0.16,1.03,-0.28,-13.07,7.90,3.38,1.61,-1.41,2.45,1005.90
13.865,-0.16,1.03,-0.28,0.58,5.15,1.00,1.61,-1.41,2.45,1005.90
13.867,-0.16,1.03,-0.28,0.58,5.15,1.00,1.96,-2.32,3.81,1005.90
13.884,0.76,1.21,-0.61,0.58,5.15,1.00,1.96,-2.32,3.81,1005.90
13.885,1.25,1.19,-0.45,0.58,5.15,1.00,1.96,-2.32,3.81,1005.90
13.886,0.95,0.87,-0.53,0.58,5.15,1.00,1.96,-2.32,3.81,1005.90
13.924,0.95,0.87,-0.53,0.58,5.15,1.00,1.96,-2.32,3.81,1005.89
13.924,0.95,0.87,-0.53,0.58,5.15,1.00,0.76,-0.65,1.48,1005.89
13.925,0.95,0.87,-0.53,0.60,1.17,-0.35,0.76,-0.65,1.48,1005.89
13.95,0.59,0.59,-0.64,0.60,1.17,-0.35,0.76,-0.65,1.48,1005.89
13.953,0.41,0.53,-0.73,0.60,1.17,-0.35,0.76,-0.65,1.48,1005.89
13.954,0.27,0.39,-0.35,0.60,1.17,-0.35,0.76,-0.65,1.48,1005.89
13.963,0.27,0.39,-0.35,0.60,1.17,-0.35,0.76,-0.65,1.48,1005.84
13.982,0.27,0.39,-0.35,-4.56,-3.69,4.01,0.76,-0.65,1.48,1005.84
13.983,0.27,0.39,-0.35,-4.56,-3.69,4.01,-2.05,-0.11,-0.96,1005.84
14.002,0.05,0.23,0.02,-4.56,-3.69,4.01,-2.05,-0.11,-0.96,1005.84
14.003,-0.10,0.16,-0.01,-4.56,-3.69,4.01,-2.05,-0.11,-0.96,1005.84
14.003,-0.11,0.27,-0.22,-4.56,-3.69,4.01,-2.05,-0.11,-0.96,1005.84
14.04,-0.11,0.27,-0.22,-4.56,-3.69,4.01,-2.39,-0.38,-2.56,1005.84
14.043,-0.11,0.27,-0.22,-3.56,-3.71,1.08,-2.39,-0.38,-2.56,1005.84
14.044,-0.11,0.27,-0.22,-3.56,-3.71,1.08,-2.39,-0.38,-2.56,1005.89
14.059,0.08,0.41,-0.39,-3.56,-3.71,1.08,-2.39,-0.38,-2.56,1005.89
14.06,0.20,0.49,-0.35,-3.56,-3.71,1.08,-2.39,-0.38,-2.56,1005.89
14.061,0.19,0.54,-0.25,-3.56,-3.71,1.08,-2.39,-0.38,-2.56,1005.89
14.1,0.19,0.54,-0.25,-0.04,-2.93,0.34,-2.39,-0.38,-2.56,1005.89
14.101,0.19,0.54,-0.25,-0.04,-2.93,0.34,-3.64,-1.19,-4.14,1005.89
14.118,0.19,0.59,-0.25,-0.04,-2.93,0.34,-3.64,-1.19,-4.14,1005.89
14.119,0.16,0.72,-0.21,-0.04,-2.93,0.34,-3.64,-1.19,-4.14,1005.89
14.119,0.07,0.94,-0.20,-0.04,-2.93,0.34,-3.64,-1.19,-4.14,1005.89
14.123,0.07,0.94,-0.20,-0.04,-2.93,0.34,-3.64,-1.19,-4.14,1005.92
14.157,0.07,0.94,-0.20,-0.04,-2.93,0.34,-4.18,-1.45,-4.85,1005.92
14.159,0.07,0.94,-0.20,2.40,4.51,-4.59,-4.18,-1.45,-4.85,1005.92
14.163,0.07,0.94,-0.20,2.40,4.51,-4.59,-4.18,-1.45,-4.85,1005.91
14.184,0.04,1.38,-0.49,2.40,4.51,-4.59,-4.18,-1.45,-4.85,1005.91
14.185,0.35,1.98,-0.87,2.40,4.51,-4.59,-4.18,-1.45,-4.85,1005.91
14.186,0.78,1.90,-0.90,2.40,4.51,-4.59,-4.18,-1.45,-4.85,1005.91
14.216,0.78,1.90,-0.90,2.40,4.51,-4.59,-3.72,0.30,-3.29,1005.91
14.217,0.78,1.90,-0.90,12.87,5.18,-9.20,-3.72,0.30,-3.29,1005.91
14.235,1.06,1.45,-0.82,12.87,5.18,-9.20,-3.72,0.30,-3.29,1005.91
14.235,1.33,1.04,-0.70,12.87,5.18,-9.20,-3.72,0.30,-3.29,1005.91
14.235,1.41,0.83,-0.58,12.87,5.18,-9.20,-3.72,0.30,-3.29,1005.91
14.242,1.41,0.83,-0.58,12.87,5.18,-9.20,-3.72,0.30,-3.29,1005.86
14.274,1.41,0.83,-0.58,12.87,5.18,-9.20,-0.52,2.56,0.39,1005.86
14.274,1.41,0.83,-0.58,12.27,-1.43,-9.70,-0.52,2.56,0.39,1005.86
14.293,0.94,0.66,-0.87,12.27,-1.43,-9.70,-0.52,2.56,0.39,1005.86
14.293,0.70,0.88,-1.20,12.27,-1.43,-9.70,-0.52,2.56,0.39,1005.86
14.294,-0.08,1.60,-0.22,12.27,-1.43,-9.70,-0.52,2.56,0.39,1005.86
14.324,-0.08,1.60,-0.22,12.27,-1.43,-9.70,-0.52,2.56,0.39,1005.84
14.332,-0.08,1.60,-0.22,-9.33,7.92,0.80,-0.52,2.56,0.39,1005.84
14.333,-0.08,1.60,-0.22,-9.33,7.92,0.80,0.16,2.75,-0.47,1005.84
14.351,-2.06,1.85,1.17,-9.33,7.92,0.80,0.16,2.75,-0.47,1005.84
14.352,-1.59,1.80,-0.53,-9.33,7.92,0.80,0.16,2.75,-0.47,1005.84
14.352,-0.11,1.03,-1.40,-9.33,7.92,0.80,0.16,2.75,-0.47,1005.84
14.363,-0.11,1.03,-1.40,-9.33,7.92,0.80,0.16,2.75,-0.47,1005.84
14.39,-0.11,1.03,-1.40,-9.33,7.92,0.80,0.56,0.44,2.62,1005.84
14.391,-0.11,1.03,-1.40,4.14,-2.03,-1.45,0.56,0.44,2.62,1005.84
14.41,0.38,0.66,0.32,4.14,-2.03,-1.45,0.56,0.44,2.62,1005.84
14.411,0.58,0.60,0.69,4.14,-2.03,-1.45,0.56,0.44,2.62,1005.84
14.411,0.12,1.03,0.11,4.14,-2.03,-1.45,0.56,0.44,2.62,1005.84
14.443,0.12,1.03,0.11,4.14,-2.03,-1.45,0.56,0.44,2.62,1005.92
14.474,0.12,1.03,0.11,4.14,-2.03,-1.45,0.50,-0.28,1.04,1005.92
14.475,0.12,1.03,0.11,1.43,0.93,-0.89,0.50,-0.28,1.04,1005.92
14.476,0.03,1.14,-0.18,1.43,0.93,-0.89,0.50,-0.28,1.04,1005.92
14.476,0.06,1.06,-0.23,1.43,0.93,-0.89,0.50,-0.28,1.04,1005.92
14.476,-0.05,1.03,-0.05,1.43,0.93,-0.89,0.50,-0.28,1.04,1005.92
14.507,-0.05,1.03,-0.05,1.43,0.93,-0.89,0.22,0.58,0.66,1005.92
14.508,-0.05,1.03,-0.05,-0.77,0.25,0.38,0.22,0.58,0.66,1005.92
14.523,-0.05,1.03,-0.05,-0.77,0.25,0.38,0.22,0.58,0.66,1005.93
14.526,-0.13,0.99,0.02,-0.77,0.25,0.38,0.22,0.58,0.66,1005.93
14.527,-0.17,1.01,0.07,-0.77,0.25,0.38,0.22,0.58,0.66,1005.93
14.527,-0.28,0.99,0.22,-0.77,0.25,0.38,0.22,0.58,0.66,1005.93
14.564,-0.28,0.99,0.22,-0.77,0.25,0.38,0.22,0.58,0.66,1005.92
14.567,-0.28,0.99,0.22,-0.77,0.25,0.38,0.58,0.19,0.98,1005.92
14.568,-0.28,0.99,0.22,-2.14,-0.08,1.95,0.58,0.19,0.98,1005.92
14.586,-0.26,0.97,0.18,-2.14,-0.08,1.95,0.58,0.19,0.98,1005.92
14.588,-0.07,0.96,0.03,-2.14,-0.08,1.95,0.58,0.19,0.98,1005.92
14.588,0.07,0.98,-0.09,-2.14,-0.08,1.95,0.58,0.19,0.98,1005.92
14.624,0.07,0.98,-0.09,-2.14,-0.08,1.95,0.75,-0.36,1.20,1005.92
14.625,0.07,0.98,-0.09,-0.15,0.12,0.20,0.75,-0.36,1.20,1005.92
14.642,0.10,0.99,-0.09,-0.15,0.12,0.20,0.75,-0.36,1.20,1005.92
14.643,0.02,0.99,-0.06,-0.15,0.12,0.20,0.75,-0.36,1.20,1005.92
14.643,0.07,0.99,-0.05,-0.15,0.12,0.20,0.75,-0.36,1.20,1005.92
14.644,0.07,0.99,-0.05,-0.15,0.12,0.20,0.75,-0.36,1.20,1005.91
14.681,0.07,0.99,-0.05,-0.15,0.12,0.20,0.80,-0.26,1.17,1005.91
14.682,0.07,0.99,-0.05,-0.29,0.37,0.49,0.80,-0.26,1.17,1005.91
14.701,0.14,1.01,-0.07,-0.29,0.37,0.49,0.80,-0.26,1.17,1005.91
14.701,0.14,1.00,-0.16,-0.29,0.37,0.49,0.80,-0.26,1.17,1005.91
14.701,0.08,1.02,-0.22,-0.29,0.37,0.49,0.80,-0.26,1.17,1005.91
14.722,0.08,1.02,-0.22,-0.29,0.37,0.49,0.80,-0.26,1.17,1005.91
14.74,0.08,1.02,-0.22,-0.29,0.37,0.49,0.72,-0.49,1.18,1005.91
14.741,0.08,1.02,-0.22,-1.33,0.87,-0.24,0.72,-0.49,1.18,1005.91
14.759,0.06,1.03,-0.23,-1.33,0.87,-0.24,0.72,-0.49,1.18,1005.91
14.76,0.07,1.05,-0.20,-1.33,0.87,-0.24,0.72,-0.49,1.18,1005.91
14.76,0.08,1.10,-0.13,-1.33,0.87,-0.24,0.72,-0.49,1.18,1005.91
14.763,0.08,1.10,-0.13,-1.33,0.87,-0.24,0.72,-0.49,1.18,1005.90
14.8,0.08,1.10,-0.13,-1.33,0.87,-0.24,1.00,-0.34,1.41,1005.90
14.8,0.08,1.10,-0.13,-2.46,2.08,1.77,1.00,-0.34,1.41,1005.90
14.818,0.04,1.11,-0.06,-2.46,2.08,1.77,1.00,-0.34,1.41,1005.90
14.819,-0.06,1.17,-0.01,-2.46,2.08,1.77,1.00,-0.34,1.41,1005.90
14.819,-0.09,1.19,-0.03,-2.46,2.08,1.77,1.00,-0.34,1.41,1005.90
14.844,-0.09,1.19,-0.03,-2.46,2.08,1.77,1.00,-0.34,1.41,1005.91
14.857,-0.09,1.19,-0.03,-2.46,2.08,1.77,1.60,-0.79,1.90,1005.91
14.858,-0.09,1.19,-0.03,-4.01,3.61,1.73,1.60,-0.79,1.90,1005.91
14.877,-0.03,1.18,-0.20,-4.01,3.61,1.73,1.60,-0.79,1.90,1005.91
14.878,-0.06,1.31,-0.26,-4.01,3.61,1.73,1.60,-0.79,1.90,1005.91
14.879,-0.38,1.65,-0.13,-4.01,3.61,1.73,1.60,-0.79,1.90,1005.91
14.916,-0.38,1.65,-0.13,-4.01,3.61,1.73,2.09,-0.88,2.04,1005.91
14.917,-0.38,1.65,-0.13,-12.53,9.43,4.02,2.09,-0.88,2.04,1005.91
14.924,-0.38,1.65,-0.13,-12.53,9.43,4.02,2.09,-0.88,2.04,1005.91
14.935,-1.00,1.85,-0.03,-12.53,9.43,4.02,2.09,-0.88,2.04,1005.91
14.936,-1.24,1.73,0.03,-12.53,9.43,4.02,2.09,-0.88,2.04,1005.91
14.936,-0.46,1.30,0.03,-12.53,9.43,4.02,2.09,-0.88,2.04,1005.91
14.965,-0.46,1.30,0.03,-12.53,9.43,4.02,2.09,-0.88,2.04,1005.91
14.974,-0.46,1.30,0.03,-12.53,9.43,4.02,2.42,-1.61,3.64,1005.91
14.975,-0.46,1.30,0.03,-1.00,6.46,2.81,2.42,-1.61,3.64,1005.91
15.002,0.39,1.26,-0.50,-1.00,6.46,2.81,2.42,-1.61,3.64,1005.91
15.003,1.26,1.29,-0.45,-1.00,6.46,2.81,2.42,-1.61,3.64,1005.91
15.004,1.36,1.00,-0.40,-1.00,6.46,2.81,2.42,-1.61,3.64,1005.91
15.032,1.36,1.00,-0.40,-1.00,6.46,2.81,1.40,-0.08,1.55,1005.91
15.033,1.36,1.00,-0.40,2.84,2.26,1.34,1.40,-0.08,1.55,1005.91
15.043,1.36,1.00,-0.40,2.84,2.26,1.34,1.40,-0.08,1.55,1005.90
15.052,0.69,0.72,-0.48,2.84,2.26,1.34,1.40,-0.08,1.55,1005.90
15.052,0.49,0.55,-0.62,2.84,2.26,1.34,1.40,-0.08,1.55,1005.90
15.053,0.31,0.44,-0.37,2.84,2.26,1.34,1.40,-0.08,1.55,1005.90
15.09,0.31,0.44,-0.37,2.84,2.26,1.34,-1.50,0.10,-1.02,1005.90
15.092,0.31,0.44,-0.37,-2.66,-3.27,5.24,-1.50,0.10,-1.02,1005.90
15.111,0.23,0.26,0.04,-2.66,-3.27,5.24,-1.50,0.10,-1.02,1005.90
15.112,0.20,0.12,0.20,-2.66,-3.27,5.24,-1.50,0.10,-1.02,1005.90
15.112,0.16,0.15,-0.03,-2.66,-3.27,5.24,-1.50,0.10,-1.02,1005.90
15.123,0.16,0.15,-0.03,-2.66,-3.27,5.24,-1.50,0.10,-1.02,1005.85
15.149,0.16,0.15,-0.03,-2.66,-3.27,5.24,-2.17,-0.10,-2.81,1005.85
15.15,0.16,0.15,-0.03,-1.63,-4.52,2.85,-2.17,-0.10,-2.81,1005.85
15.163,0.16,0.15,-0.03,-1.63,-4.52,2.85,-2.17,-0.10,-2.81,1005.90
15.167,0.23,0.29,-0.26,-1.63,-4.52,2.85,-2.17,-0.10,-2.81,1005.90
15.17,0.31,0.42,-0.30,-1.63,-4.52,2.85,-2.17,-0.10,-2.81,1005.90
15.17,0.33,0.50,-0.26,-1.63,-4.52,2.85,-2.17,-0.10,-2.81,1005.90
15.206,0.33,0.50,-0.26,-1.63,-4.52,2.85,-3.50,-0.21,-4.18,1005.90
15.208,0.33,0.50,-0.26,1.48,-3.32,1.10,-3.50,-0.21,-4.18,1005.90
15.227,0.35,0.55,-0.21,1.48,-3.32,1.10,-3.50,-0.21,-4.18,1005.90
15.229,0.37,0.61,-0.15,1.48,-3.32,1.10,-3.50,-0.21,-4.18,1005.90
15.229,0.28,0.82,-0.19,1.48,-3.32,1.10,-3.50,-0.21,-4.18,1005.90
15.248,0.28,0.82,-0.19,1.48,-3.32,1.10,-3.50,-0.21,-4.18,1005.93
15.267,0.28,0.82,-0.19,1.48,-3.32,1.10,-4.29,-0.47,-5.04,1005.93
15.268,0.28,0.82,-0.19,3.57,3.02,-2.51,-4.29,-0.47,-5.04,1005.93
15.284,0.19,1.22,-0.33,3.57,3.02,-2.51,-4.29,-0.47,-5.04,1005.93
15.286,0.39,1.79,-0.52,3.57,3.02,-2.51,-4.29,-0.47,-5.04,1005.93
15.286,0.56,2.03,-0.64,3.57,3.02,-2.51,-4.29,-0.47,-5.04,1005.93
15.323,0.56,2.03,-0.64,3.57,3.02,-2.51,-4.29,-0.47,-5.04,1005.90
15.324,0.56,2.03,-0.64,3.57,3.02,-2.51,-4.52,0.13,-4.19,1005.90
15.325,0.56,2.03,-0.64,9.64,7.51,-6.24,-4.52,0.13,-4.19,1005.90
15.343,0.62,1.78,-0.54,9.64,7.51,-6.24,-4.52,0.13,-4.19,1005.90
15.343,0.89,1.26,-0.28,9.64,7.51,-6.24,-4.52,0.13,-4.19,1005.90
15.344,0.65,1.12,-0.33,9.64,7.51,-6.24,-4.52,0.13,-4.19,1005.90
15.363,0.65,1.12,-0.33,9.64,7.51,-6.24,-4.52,0.13,-4.19,1005.87
15.383,0.65,1.12,-0.33,9.64,7.51,-6.24,-2.13,0.74,-1.21,1005.87
15.384,0.65,1.12,-0.33,9.39,0.83,-7.31,-2.13,0.74,-1.21,1005.87
15.402,0.53,1.01,-0.65,9.39,0.83,-7.31,-2.13,0.74,-1.21,1005.87
15.403,0.64,0.75,-0.57,9.39,0.83,-7.31,-2.13,0.74,-1.21,1005.87
15.403,0.49,0.70,-0.42,9.39,0.83,-7.31,-2.13,0.74,-1.21,1005.87
15.44,0.49,0.70,-0.42,9.39,0.83,-7.31,0.45,2.20,1.56,1005.87
15.441,0.49,0.70,-0.42,3.49,1.33,-6.78,0.45,2.20,1.56,1005.87
15.444,0.49,0.70,-0.42,3.49,1.33,-6.78,0.45,2.20,1.56,1005.87
15.459,0.29,0.96,-1.02,3.49,1.33,-6.78,0.45,2.20,1.56,1005.87
15.46,-0.58,1.49,-0.18,3.49,1.33,-6.78,0.45,2.20,1.56,1005.87
15.46,-2.16,1.33,0.96,3.49,1.33,-6.78,0.45,2.20,1.56,1005.87
15.499,-2.16,1.33,0.96,3.49,1.33,-6.78,0.71,2.49,0.64,1005.87
15.499,-2.16,1.33,0.96,-9.37,5.81,-1.49,0.71,2.49,0.64,1005.87
15.518,-1.61,1.64,-0.50,-9.37,5.81,-1.49,0.71,2.49,0.64,1005.87
15.52,0.03,1.62,-0.70,-9.37,5.81,-1.49,0.71,2.49,0.64,1005.87
15.522,0.78,1.00,-0.29,-9.37,5.81,-1.49,0.71,2.49,0.64,1005.87
15.524,0.78,1.00,-0.29,-9.37,5.81,-1.49,0.71,2.49,0.64,1005.87
15.557,0.78,1.00,-0.29,-9.37,5.81,-1.49,0.65,0.37,2.40,1005.87
15.558,0.78,1.00,-0.29,4.70,-1.74,0.79,0.65,0.37,2.40,1005.87
15.586,0.78,1.00,-0.29,4.70,-1.74,0.79,0.65,0.37,2.40,1005.93
15.587,0.37,0.55,0.57,4.70,-1.74,0.79,0.65,0.37,2.40,1005.93
15.587,-0.16,0.82,0.06,4.70,-1.74,0.79,0.65,0.37,2.40,1005.93
15.588,0.10,1.20,-0.32,4.70,-1.74,0.79,0.65,0.37,2.40,1005.93
15.615,0.10,1.20,-0.32,2.20,1.16,-1.94,0.65,0.37,2.40,1005.93
15.616,0.10,1.20,-0.32,2.20,1.16,-1.94,0.32,-0.02,1.12,1005.93
15.636,0.41,1.14,-0.19,2.20,1.16,-1.94,0.32,-0.02,1.12,1005.93
15.636,-0.08,0.95,-0.05,2.20,1.16,-1.94,0.32,-0.02,1.12,1005.93
15.636,-0.35,1.05,0.05,2.20,1.16,-1.94,0.32,-0.02,1.12,1005.93
15.643,-0.35,1.05,0.05,2.20,1.16,-1.94,0.32,-0.02,1.12,1005.93
15.674,-0.35,1.05,0.05,2.20,1.16,-1.94,0.23,0.27,0.77,1005.93
15.674,-0.35,1.05,0.05,-1.38,0.28,1.33,0.23,0.27,0.77,1005.93
15.692,-0.15,1.04,0.16,-1.38,0.28,1.33,0.23,0.27,0.77,1005.93
15.693,-0.05,0.94,0.19,-1.38,0.28,1.33,0.23,0.27,0.77,1005.93
15.693,-0.04,0.94,0.13,-1.38,0.28,1.33,0.23,0.27,0.77,1005.93
15.724,-0.04,0.94,0.13,-1.38,0.28,1.33,0.23,0.27,0.77,1005.92
15.732,-0.04,0.94,0.13,-1.38,0.28,1.33,0.47,-0.22,0.94,1005.92
15.733,-0.04,0.94,0.13,-0.38,-0.22,1.29,0.47,-0.22,0.94,1005.92
15.764,-0.01,0.97,0.10,-0.38,-0.22,1.29,0.47,-0.22,0.94,1005.92
15.766,-0.03,0.96,0.09,-0.38,-0.22,1.29,0.47,-0.22,0.94,1005.92
15.767,-0.01,0.96,0.03,-0.38,-0.22,1.29,0.47,-0.22,0.94,1005.92
15.769,-0.01,0.96,0.03,-0.38,-0.22,1.29,0.47,-0.22,0.94,1005.91
15.79,-0.01,0.96,0.03,-0.38,-0.22,1.29,0.65,-0.29,1.03,1005.91
15.791,-0.01,0.96,0.03,-0.26,-0.32,0.91,0.65,-0.29,1.03,1005.91
15.81,0.06,0.94,0.01,-0.26,-0.32,0.91,0.65,-0.29,1.03,1005.91
15.811,0.08,0.94,0.04,-0.26,-0.32,0.91,0.65,-0.29,1.03,1005.91
15.811,0.07,0.98,0.02,-0.26,-0.32,0.91,0.65,-0.29,1.03,1005.91
15.843,0.07,0.98,0.02,-0.26,-0.32,0.91,0.65,-0.29,1.03,1005.90
15.848,0.07,0.98,0.02,-0.26,-0.32,0.91,0.77,-0.32,1.05,1005.90
15.849,0.07,0.98,0.02,-0.39,0.18,0.46,0.77,-0.32,1.05,1005.90
15.868,0.05,0.99,-0.07,-0.39,0.18,0.46,0.77,-0.32,1.05,1005.90
15.869,0.14,0.98,-0.14,-0.39,0.18,0.46,0.77,-0.32,1.05,1005.90
15.87,0.23,0.97,-0.21,-0.39,0.18,0.46,0.77,-0.32,1.05,1005.90
15.908,0.23,0.97,-0.21,-0.39,0.18,0.46,0.69,-0.28,0.94,1005.90
15.909,0.23,0.97,-0.21,0.44,0.08,-0.53,0.69,-0.28,0.94,1005.90
15.923,0.23,0.97,-0.21,0.44,0.08,-0.53,0.69,-0.28,0.94,1005.90
15.926,0.24,0.95,-0.21,0.44,0.08,-0.53,0.69,-0.28,0.94,1005.90
15.927,0.21,0.96,-0.19,0.44,0.08,-0.53,0.69,-0.28,0.94,1005.90
15.927,0.19,0.98,-0.14,0.44,0.08,-0.53,0.69,-0.28,0.94,1005.90
15.964,0.19,0.98,-0.14,0.44,0.08,-0.53,0.69,-0.28,0.94,1005.91
15.965,0.19,0.98,-0.14,0.44,0.08,-0.53,0.63,-0.27,0.84,1005.91
15.965,0.19,0.98,-0.14,-0.66,0.56,0.99,0.63,-0.27,0.84,1005.91
15.985,0.16,1.01,-0.08,-0.66,0.56,0.99,0.63,-0.27,0.84,1005.91
15.986,0.12,1.00,-0.04,-0.66,0.56,0.99,0.63,-0.27,0.84,1005.91
15.986,0.14,0.99,-0.09,-0.66,0.56,0.99,0.63,-0.27,0.84,1005.91
16.023,0.14,0.99,-0.09,-0.66,0.56,0.99,0.83,-0.63,1.10,1005.91
16.024,0.14,0.99,-0.09,-1.10,0.63,1.62,0.83,-0.63,1.10,1005.91
16.044,0.19,0.99,-0.09,-1.10,0.63,1.62,0.83,-0.63,1.10,1005.91
16.046,0.15,0.95,-0.04,-1.10,0.63,1.62,0.83,-0.63,1.10,1005.91
16.047,0.04,0.99,0.04,-1.10,0.63,1.62,0.83,-0.63,1.10,1005.91
16.047,0.04,0.99,0.04,-1.10,0.63,1.62,0.83,-0.63,1.10,1005.91
16.081,0.04,0.99,0.04,-1.10,0.63,1.62,1.22,-1.06,1.69,1005.91
16.088,0.04,0.99,0.04,-3.37,3.85,3.96,1.22,-1.06,1.69,1005.91
16.102,0.00,1.21,0.14,-3.37,3.85,3.96,1.22,-1.06,1.69,1005.91
16.102,-0.07,1.60,0.09,-3.37,3.85,3.96,1.22,-1.06,1.69,1005.91
16.103,-0.19,1.88,-0.16,-3.37,3.85,3.96,1.22,-1.06,1.69,1005.91
16.123,-0.19,1.88,-0.16,-3.37,3.85,3.96,1.22,-1.06,1.69,1005.92
16.14,-0.19,1.88,-0.16,-3.37,3.85,3.96,1.62,-2.03,2.73,1005.92
16.142,-0.19,1.88,-0.16,-4.66,8.65,1.82,1.62,-2.03,2.73,1005.92
16.165,-0.09,1.73,-0.29,-4.66,8.65,1.82,1.62,-2.03,2.73,1005.92
16.167,0.10,1.41,-0.29,-4.66,8.65,1.82,1.62,-2.03,2.73,1005.92
16.168,0.33,1.09,-0.42,-4.66,8.65,1.82,1.62,-2.03,2.73,1005.92
16.169,0.33,1.09,-0.42,-4.66,8.65,1.82,1.62,-2.03,2.73,1005.92
16.198,0.33,1.09,-0.42,-4.66,8.65,1.82,0.84,-2.63,2.98,1005.92
16.201,0.33,1.09,-0.42,1.11,1.79,-0.92,0.84,-2.63,2.98,1005.92
16.218,0.63,0.87,-0.67,1.11,1.79,-0.92,0.84,-2.63,2.98,1005.92
16.218,0.79,0.66,-0.81,1.11,1.79,-0.92,0.84,-2.63,2.98,1005.92
16.219,0.65,0.49,-0.69,1.11,1.79,-0.92,0.84,-2.63,2.98,1005.92
16.243,0.65,0.49,-0.69,1.11,1.79,-0.92,0.84,-2.63,2.98,1005.90
16.258,0.65,0.49,-0.69,-0.61,-3.36,-1.14,0.84,-2.63,2.98,1005.90
16.26,0.65,0.49,-0.69,-0.61,-3.36,-1.14,-1.30,-2.36,1.94,1005.90
16.276,0.39,0.34,-0.59,-0.61,-3.36,-1.14,-1.30,-2.36,1.94,1005.90
16.277,0.18,0.16,-0.73,-0.61,-3.36,-1.14,-1.30,-2.36,1.94,1005.90
16.277,-0.13,0.23,-0.78,-0.61,-3.36,-1.14,-1.30,-2.36,1.94,1005.90
16.316,-0.13,0.23,-0.78,-0.61,-3.36,-1.14,-2.90,-1.77,1.15,1005.90
16.317,-0.13,0.23,-0.78,-5.31,-4.79,-1.47,-2.90,-1.77,1.15,1005.90
16.325,-0.13,0.23,-0.78,-5.31,-4.79,-1.47,-2.90,-1.77,1.15,1005.88
16.335,-0.04,0.24,-0.54,-5.31,-4.79,-1.47,-2.90,-1.77,1.15,1005.88
16.336,-0.10,0.24,-0.59,-5.31,-4.79,-1.47,-2.90,-1.77,1.15,1005.88
16.336,-0.27,0.29,-0.65,-5.31,-4.79,-1.47,-2.90,-1.77,1.15,1005.88
16.363,-0.27,0.29,-0.65,-5.31,-4.79,-1.47,-2.90,-1.77,1.15,1005.88
16.377,-0.27,0.29,-0.65,-5.31,-4.79,-1.47,-3.68,-3.72,0.39,1005.88
16.379,-0.27,0.29,-0.65,-7.23,-3.68,-3.52,-3.68,-3.72,0.39,1005.88
16.393,-0.45,0.43,-0.77,-7.23,-3.68,-3.52,-3.68,-3.72,0.39,1005.88
16.393,-0.43,0.57,-0.91,-7.23,-3.68,-3.52,-3.68,-3.72,0.39,1005.88
16.393,-0.31,0.63,-0.90,-7.23,-3.68,-3.52,-3.68,-3.72,0.39,1005.88
16.433,-0.31,0.63,-0.90,-7.23,-3.68,-3.52,-3.51,-4.94,-0.14,1005.88
16.434,-0.31,0.63,-0.90,-4.16,-1.51,-5.22,-3.51,-4.94,-0.14,1005.88
16.445,-0.31,0.63,-0.90,-4.16,-1.51,-5.22,-3.51,-4.94,-0.14,1005.89
16.452,-0.18,0.71,-0.86,-4.16,-1.51,-5.22,-3.51,-4.94,-0.14,1005.89
16.453,-0.07,0.84,-0.86,-4.16,-1.51,-5.22,-3.51,-4.94,-0.14,1005.89
16.453,-0.05,0.97,-0.80,-4.16,-1.51,-5.22,-3.51,-4.94,-0.14,1005.89
16.49,-0.05,0.97,-0.80,-4.16,-1.51,-5.22,-3.33,-4.40,-0.98,1005.89
16.491,-0.05,0.97,-0.80,-1.62,1.08,-4.75,-3.33,-4.40,-0.98,1005.89
16.509,-0.05,1.06,-0.69,-1.62,1.08,-4.75,-3.33,-4.40,-0.98,1005.89
16.51,-0.07,1.14,-0.61,-1.62,1.08,-4.75,-3.33,-4.40,-0.98,1005.89
16.51,-0.15,1.20,-0.52,-1.62,1.08,-4.75,-3.33,-4.40,-0.98,1005.89
16.524,-0.15,1.20,-0.52,-1.62,1.08,-4.75,-3.33,-4.40,-0.98,1005.88
16.548,-0.15,1.20,-0.52,-1.62,1.08,-4.75,-2.84,-4.32,-1.22,1005.88
16.549,-0.15,1.20,-0.52,-1.59,1.83,-3.73,-2.84,-4.32,-1.22,1005.88
16.563,-0.15,1.20,-0.52,-1.59,1.83,-3.73,-2.84,-4.32,-1.22,1005.88
16.568,-0.19,1.18,-0.47,-1.59,1.83,-3.73,-2.84,-4.32,-1.22,1005.88
16.569,-0.15,1.11,-0.39,-1.59,1.83,-3.73,-2.84,-4.32,-1.22,1005.88
16.57,-0.10,1.08,-0.35,-1.59,1.83,-3.73,-2.84,-4.32,-1.22,1005.88
16.608,-0.10,1.08,-0.35,0.57,0.84,-3.95,-2.84,-4.32,-1.22,1005.88
16.609,-0.10,1.08,-0.35,0.57,0.84,-3.95,-1.70,-5.08,-0.95,1005.88
16.626,-0.00,1.08,-0.41,0.57,0.84,-3.95,-1.70,-5.08,-0.95,1005.88
16.627,0.11,1.04,-0.39,0.57,0.84,-3.95,-1.70,-5.08,-0.95,1005.88
16.627,0.21,0.91,-0.36,0.57,0.84,-3.95,-1.70,-5.08,-0.95,1005.88
16.643,0.21,0.91,-0.36,0.57,0.84,-3.95,-1.70,-5.08,-0.95,1005.89
16.67,0.21,0.91,-0.36,0.57,0.84,-3.95,-0.70,-3.84,-0.64,1005.89
16.671,0.21,0.91,-0.36,3.18,-1.14,-3.77,-0.70,-3.84,-0.64,1005.89
16.685,0.25,0.84,-0.33,3.18,-1.14,-3.77,-0.70,-3.84,-0.64,1005.89
16.685,0.28,0.83,-0.25,3.18,-1.14,-3.77,-0.70,-3.84,-0.64,1005.89
16.686,0.39,0.82,-0.26,3.18,-1.14,-3.77,-0.70,-3.84,-0.64,1005.89
16.724,0.39,0.82,-0.26,4.70,-1.31,-3.10,-0.70,-3.84,-0.64,1005.89
16.726,0.39,0.82,-0.26,4.70,-1.31,-3.10,0.03,-1.24,-0.04,1005.89
16.728,0.39,0.82,-0.26,4.70,-1.31,-3.10,0.03,-1.24,-0.04,1005.89
16.743,0.45,0.84,-0.24,4.70,-1.31,-3.10,0.03,-1.24,-0.04,1005.89
16.743,0.41,0.85,-0.23,4.70,-1.31,-3.10,0.03,-1.24,-0.04,1005.89
16.744,0.33,0.90,-0.18,4.70,-1.31,-3.10,0.03,-1.24,-0.04,1005.89
16.77,0.33,0.90,-0.18,4.70,-1.31,-3.10,0.03,-1.24,-0.04,1005.90
16.781,0.33,0.90,-0.18,4.70,-1.31,-3.10,-0.31,0.66,0.07,1005.90
16.782,0.33,0.90,-0.18,0.98,1.04,2.59,-0.31,0.66,0.07,1005.90
16.801,0.05,1.03,0.21,0.98,1.04,2.59,-0.31,0.66,0.07,1005.90
16.803,-0.27,1.30,1.04,0.98,1.04,2.59,-0.31,0.66,0.07,1005.90
16.803,-0.33,1.54,0.23,0.98,1.04,2.59,-0.31,0.66,0.07,1005.90
16.84,-0.33,1.54,0.23,0.98,1.04,2.59,0.08,0.52,0.24,1005.90
16.84,-0.33,1.54,0.23,-3.50,2.74,-1.08,0.08,0.52,0.24,1005.90
16.843,-0.33,1.54,0.23,-3.50,2.74,-1.08,0.08,0.52,0.24,1005.91
16.859,-0.39,1.32,-0.16,-3.50,2.74,-1.08,0.08,0.52,0.24,1005.91
16.86,-0.52,0.91,-0.16,-3.50,2.74,-1.08,0.08,0.52,0.24,1005.91
16.861,-0.28,1.01,-0.06,-3.50,2.74,-1.08,0.08,0.52,0.24,1005.91
16.898,-0.28,1.01,-0.06,-3.50,2.74,-1.08,0.00,-0.20,0.87,1005.91
16.899,-0.28,1.01,-0.06,0.51,0.10,0.13,0.00,-0.20,0.87,1005.91
16.918,0.18,1.05,0.10,0.51,0.10,0.13,0.00,-0.20,0.87,1005.91
16.919,0.24,0.91,0.25,0.51,0.10,0.13,0.00,-0.20,0.87,1005.91
16.919,0.03,0.96,0.30,0.51,0.10,0.13,0.00,-0.20,0.87,1005.91
16.923,0.03,0.96,0.30,0.51,0.10,0.13,0.00,-0.20,0.87,1005.90
16.958,0.03,0.96,0.30,-0.25,0.40,0.68,0.00,-0.20,0.87,1005.90
16.959,0.03,0.96,0.30,-0.25,0.40,0.68,0.07,-0.31,0.61,1005.90
16.966,0.03,0.96,0.30,-0.25,0.40,0.68,0.07,-0.31,0.61,1005.91
16.979,-0.01,1.04,0.16,-0.25,0.40,0.68,0.07,-0.31,0.61,1005.91
16.979,-0.00,1.07,-0.01,-0.25,0.40,0.68,0.07,-0.31,0.61,1005.91
16.979,0.03,1.04,0.03,-0.25,0.40,0.68,0.07,-0.31,0.61,1005.91
17.016,0.03,1.04,0.03,-0.25,0.40,0.68,0.14,-0.42,0.53,1005.91
17.016,0.03,1.04,0.03,0.24,0.57,-0.20,0.14,-0.42,0.53,1005.91
17.035,0.14,1.04,0.02,0.24,0.57,-0.20,0.14,-0.42,0.53,1005.91
17.036,0.09,1.04,0.10,0.24,0.57,-0.20,0.14,-0.42,0.53,1005.91
17.036,-0.05,1.02,0.15,0.24,0.57,-0.20,0.14,-0.42,0.53,1005.91
17.044,-0.05,1.02,0.15,0.24,0.57,-0.20,0.14,-0.42,0.53,1005.91
17.075,-0.05,1.02,0.15,0.24,0.57,-0.20,0.26,-0.52,0.48,1005.91
17.076,-0.05,1.02,0.15,-1.28,0.28,1.07,0.26,-0.52,0.48,1005.91
17.094,-0.07,1.01,0.17,-1.28,0.28,1.07,0.26,-0.52,0.48,1005.91
17.095,0.00,0.99,0.18,-1.28,0.28,1.07,0.26,-0.52,0.48,1005.91
17.095,0.05,0.98,0.18,-1.28,0.28,1.07,0.26,-0.52,0.48,1005.91
17.124,0.05,0.98,0.18,-1.28,0.28,1.07,0.26,-0.52,0.48,1005.91
17.132,0.05,0.98,0.18,-1.28,0.28,1.07,0.46,-0.67,0.72,1005.91
17.133,0.05,0.98,0.18,-1.02,0.13,1.40,0.46,-0.67,0.72,1005.91
17.152,0.03,1.00,0.15,-1.02,0.13,1.40,0.46,-0.67,0.72,1005.91
17.153,0.00,0.99,0.18,-1.02,0.13,1.40,0.46,-0.67,0.72,1005.91
17.153,0.02,0.97,0.15,-1.02,0.13,1.40,0.46,-0.67,0.72,1005.91
17.164,0.02,0.97,0.15,-1.02,0.13,1.40,0.46,-0.67,0.72,1005.90
17.198,0.02,0.97,0.15,-1.02,0.13,1.40,0.62,-0.59,1.01,1005.90
17.199,0.02,0.97,0.15,-0.65,0.23,0.81,0.62,-0.59,1.01,1005.90
17.209,0.11,0.99,0.09,-0.65,0.23,0.81,0.62,-0.59,1.01,1005.90
17.21,0.24,1.02,-0.03,-0.65,0.23,0.81,0.62,-0.59,1.01,1005.90
17.21,0.35,1.02,-0.17,-0.65,0.23,0.81,0.62,-0.59,1.01,1005.90
17.243,0.35,1.02,-0.17,-0.65,0.23,0.81,0.62,-0.59,1.01,1005.89
17.248,0.35,1.02,-0.17,-0.65,0.23,0.81,0.47,-0.40,0.90,1005.89
17.248,0.35,1.02,-0.17,-0.28,0.78,-0.78,0.47,-0.40,0.90,1005.89
17.271,0.21,1.05,-0.14,-0.28,0.78,-0.78,0.47,-0.40,0.90,1005.89
17.272,0.06,1.04,-0.07,-0.28,0.78,-0.78,0.47,-0.40,0.90,1005.89
17.274,0.16,1.01,-0.07,-0.28,0.78,-0.78,0.47,-0.40,0.90,1005.89
17.307,0.16,1.01,-0.07,-0.28,0.78,-0.78,0.35,-0.74,1.01,1005.89
17.308,0.16,1.01,-0.07,-1.29,1.07,0.14,0.35,-0.74,1.01,1005.89
17.325,0.16,1.01,-0.07,-1.29,1.07,0.14,0.35,-0.74,1.01,1005.90
17.328,0.21,1.06,-0.05,-1.29,1.07,0.14,0.35,-0.74,1.01,1005.90
17.329,0.10,1.08,-0.06,-1.29,1.07,0.14,0.35,-0.74,1.01,1005.90
17.329,-0.00,1.11,-0.05,-1.29,1.07,0.14,0.35,-0.74,1.01,1005.90
17.364,-0.00,1.11,-0.05,-1.29,1.07,0.14,0.35,-0.74,1.01,1005.90
17.365,-0.00,1.11,-0.05,-1.29,1.07,0.14,0.39,-1.11,1.35,1005.90
17.365,-0.00,1.11,-0.05,-2.64,1.71,0.43,0.39,-1.11,1.35,1005.90
17.395,0.08,1.10,-0.08,-2.64,1.71,0.43,0.39,-1.11,1.35,1005.90
17.396,0.17,1.07,-0.08,-2.64,1.71,0.43,0.39,-1.11,1.35,1005.90
17.397,0.10,1.03,-0.09,-2.64,1.71,0.43,0.39,-1.11,1.35,1005.90
17.423,0.10,1.03,-0.09,-2.64,1.71,0.43,0.59,-1.13,1.74,1005.90
17.424,0.10,1.03,-0.09,-4.22,2.21,0.87,0.59,-1.13,1.74,1005.90
17.444,-0.01,1.05,-0.09,-4.22,2.21,0.87,0.59,-1.13,1.74,1005.90
17.445,-0.11,1.22,-0.07,-4.22,2.21,0.87,0.59,-1.13,1.74,1005.90
17.445,-0.27,1.57,0.08,-4.22,2.21,0.87,0.59,-1.13,1.74,1005.90
17.445,-0.27,1.57,0.08,-4.22,2.21,0.87,0.59,-1.13,1.74,1005.90
17.481,-0.27,1.57,0.08,-4.22,2.21,0.87,0.92,-1.61,2.18,1005.90
17.483,-0.27,1.57,0.08,-11.66,8.13,3.30,0.92,-1.61,2.18,1005.90
17.501,-0.78,1.75,0.15,-11.66,8.13,3.30,0.92,-1.61,2.18,1005.90
17.501,-1.04,1.63,0.02,-11.66,8.13,3.30,0.92,-1.61,2.18,1005.90
17.502,-0.63,1.28,-0.17,-11.66,8.13,3.30,0.92,-1.61,2.18,1005.90
17.525,-0.63,1.28,-0.17,-11.66,8.13,3.30,0.92,-1.61,2.18,1005.90
17.54,-0.63,1.28,-0.17,-11.66,8.13,3.30,1.18,-3.55,3.78,1005.90
17.541,-0.63,1.28,-0.17,-4.30,6.09,-0.32,1.18,-3.55,3.78,1005.90
17.559,0.19,1.18,-0.58,-4.30,6.09,-0.32,1.18,-3.55,3.78,1005.90
17.56,0.86,1.46,-0.61,-4.30,6.09,-0.32,1.18,-3.55,3.78,1005.90
17.561,0.75,1.21,-0.51,-4.30,6.09,-0.32,1.18,-3.55,3.78,1005.90
17.563,0.75,1.21,-0.51,-4.30,6.09,-0.32,1.18,-3.55,3.78,1005.89
17.599,0.75,1.21,-0.51,-4.30,6.09,-0.32,0.89,-2.75,2.63,1005.89
17.6,0.75,1.21,-0.51,0.69,3.04,-0.79,0.89,-2.75,2.63,1005.89
17.622,0.54,0.77,-0.55,0.69,3.04,-0.79,0.89,-2.75,2.63,1005.89
17.623,0.71,0.67,-0.83,0.69,3.04,-0.79,0.89,-2.75,2.63,1005.89
17.623,0.54,0.52,-0.64,0.69,3.04,-0.79,0.89,-2.75,2.63,1005.89
17.645,0.54,0.52,-0.64,0.69,3.04,-0.79,0.89,-2.75,2.63,1005.86
17.659,0.54,0.52,-0.64,0.69,3.04,-0.79,-1.75,-1.23,0.15,1005.86
17.659,0.54,0.52,-0.64,-3.15,-3.44,2.06,-1.75,-1.23,0.15,1005.86
17.693,0.20,0.22,-0.26,-3.15,-3.44,2.06,-1.75,-1.23,0.15,1005.86
17.694,-0.03,0.06,-0.05,-3.15,-3.44,2.06,-1.75,-1.23,0.15,1005.86
17.695,-0.04,0.16,-0.27,-3.15,-3.44,2.06,-1.75,-1.23,0.15,1005.86
17.716,-0.04,0.16,-0.27,-3.15,-3.44,2.06,-2.45,-0.70,-2.14,1005.86
17.716,-0.04,0.16,-0.27,-4.42,-4.01,1.03,-2.45,-0.70,-2.14,1005.86
17.723,-0.04,0.16,-0.27,-4.42,-4.01,1.03,-2.45,-0.70,-2.14,1005.85
17.735,-0.04,0.37,-0.40,-4.42,-4.01,1.03,-2.45,-0.70,-2.14,1005.85
17.736,0.05,0.49,-0.36,-4.42,-4.01,1.03,-2.45,-0.70,-2.14,1005.85
17.736,0.09,0.55,-0.35,-4.42,-4.01,1.03,-2.45,-0.70,-2.14,1005.85
17.765,0.09,0.55,-0.35,-4.42,-4.01,1.03,-2.45,-0.70,-2.14,1005.90
17.79,0.09,0.55,-0.35,-4.42,-4.01,1.03,-3.60,-1.42,-3.56,1005.90
17.791,0.09,0.55,-0.35,-1.49,-2.99,-0.07,-3.60,-1.42,-3.56,1005.90
17.794,0.08,0.58,-0.32,-1.49,-2.99,-0.07,-3.60,-1.42,-3.56,1005.90
17.794,0.09,0.63,-0.26,-1.49,-2.99,-0.07,-3.60,-1.42,-3.56,1005.90
17.795,0.13,0.77,-0.29,-1.49,-2.99,-0.07,-3.60,-1.42,-3.56,1005.90
17.833,0.13,0.77,-0.29,-1.49,-2.99,-0.07,-4.17,-1.53,-4.45,1005.90
17.834,0.13,0.77,-0.29,1.46,1.02,-3.43,-4.17,-1.53,-4.45,1005.90
17.845,0.13,0.77,-0.29,1.46,1.02,-3.43,-4.17,-1.53,-4.45,1005.90
17.852,0.09,1.03,-0.42,1.46,1.02,-3.43,-4.17,-1.53,-4.45,1005.90
17.853,0.16,1.43,-0.62,1.46,1.02,-3.43,-4.17,-1.53,-4.45,1005.90
17.853,0.51,1.85,-0.74,1.46,1.02,-3.43,-4.17,-1.53,-4.45,1005.90
17.89,0.51,1.85,-0.74,1.46,1.02,-3.43,-4.33,0.42,-4.54,1005.90
17.891,0.51,1.85,-0.74,8.81,6.79,-8.08,-4.33,0.42,-4.54,1005.90
17.911,0.70,1.75,-0.83,8.81,6.79,-8.08,-4.33,0.42,-4.54,1005.90
17.912,0.70,1.28,-0.51,8.81,6.79,-8.08,-4.33,0.42,-4.54,1005.90
17.912,0.86,1.17,-0.33,8.81,6.79,-8.08,-4.33,0.42,-4.54,1005.90
17.924,0.86,1.17,-0.33,8.81,6.79,-8.08,-4.33,0.42,-4.54,1005.89
17.949,0.86,1.17,-0.33,8.81,6.79,-8.08,-1.95,2.04,-1.61,1005.89
17.951,0.86,1.17,-0.33,11.69,1.22,-6.42,-1.95,2.04,-1.61,1005.89
17.963,0.86,1.17,-0.33,11.69,1.22,-6.42,-1.95,2.04,-1.61,1005.86
17.969,0.84,1.05,-0.37,11.69,1.22,-6.42,-1.95,2.04,-1.61,1005.86
17.97,0.83,0.81,-0.71,11.69,1.22,-6.42,-1.95,2.04,-1.61,1005.86
17.971,0.87,0.76,-0.85,11.69,1.22,-6.42,-1.95,2.04,-1.61,1005.86
18.006,0.87,0.76,-0.85,11.69,1.22,-6.42,0.10,3.71,1.16,1005.86
18.007,0.87,0.76,-0.85,2.81,3.53,-4.56,0.10,3.71,1.16,1005.86
18.026,0.40,1.31,-1.04,2.81,3.53,-4.56,0.10,3.71,1.16,1005.86
18.026,-1.37,1.76,0.79,2.81,3.53,-4.56,0.10,3.71,1.16,1005.86
18.027,-2.67,1.56,0.59,2.81,3.53,-4.56,0.10,3.71,1.16,1005.86
18.044,-2.67,1.56,0.59,2.81,3.53,-4.56,0.10,3.71,1.16,1005.86
18.065,-2.67,1.56,0.59,2.81,3.53,-4.56,1.14,1.13,1.47,1005.86
18.066,-2.67,1.56,0.59,-8.16,4.23,-3.63,1.14,1.13,1.47,1005.86
18.085,-1.00,1.69,-0.86,-8.16,4.23,-3.63,1.14,1.13,1.47,1005.86
18.087,0.39,0.90,-0.82,-8.16,4.23,-3.63,1.14,1.13,1.47,1005.86
18.088,0.97,0.44,0.65,-8.16,4.23,-3.63,1.14,1.13,1.47,1005.86
18.124,0.97,0.44,0.65,-8.16,4.23,-3.63,0.50,-0.56,2.21,1005.86
18.125,0.97,0.44,0.65,-8.16,4.23,-3.63,0.50,-0.56,2.21,1005.87
18.125,0.97,0.44,0.65,6.28,-2.17,1.51,0.50,-0.56,2.21,1005.87
18.142,0.50,0.63,0.11,6.28,-2.17,1.51,0.50,-0.56,2.21,1005.87
18.143,0.08,1.18,-0.33,6.28,-2.17,1.51,0.50,-0.56,2.21,1005.87
18.143,0.25,1.21,-0.25,6.28,-2.17,1.51,0.50,-0.56,2.21,1005.87
18.164,0.25,1.21,-0.25,6.28,-2.17,1.51,0.50,-0.56,2.21,1005.91
18.184,0.25,1.21,-0.25,0.44,0.97,-0.87,0.50,-0.56,2.21,1005.91
18.185,0.25,1.21,-0.25,0.44,0.97,-0.87,0.21,0.23,0.71,1005.91
18.208,-0.02,1.04,-0.11,0.44,0.97,-0.87,0.21,0.23,0.71,1005.91
18.209,-0.35,0.97,0.01,0.44,0.97,-0.87,0.21,0.23,0.71,1005.91
18.209,-0.22,1.00,0.13,0.44,0.97,-0.87,0.21,0.23,0.71,1005.91
18.24,-0.22,1.00,0.13,0.44,0.97,-0.87,0.33,0.09,0.79,1005.91
18.241,-0.22,1.00,0.13,-0.92,0.07,1.69,0.33,0.09,0.79,1005.91
18.245,-0.22,1.00,0.13,-0.92,0.07,1.69,0.33,0.09,0.79,1005.91
18.259,-0.09,1.00,0.15,-0.92,0.07,1.69,0.33,0.09,0.79,1005.91
18.26,-0.08,0.96,0.11,-0.92,0.07,1.69,0.33,0.09,0.79,1005.91
18.26,-0.08,0.98,0.08,-0.92,0.07,1.69,0.33,0.09,0.79,1005.91
18.303,-0.08,0.98,0.08,-0.92,0.07,1.69,0.62,-0.18,1.03,1005.91
18.303,-0.08,0.98,0.08,-1.17,0.03,1.44,0.62,-0.18,1.03,1005.91
18.32,-0.10,0.99,0.04,-1.17,0.03,1.44,0.62,-0.18,1.03,1005.91
18.321,-0.13,0.97,0.09,-1.17,0.03,1.44,0.62,-0.18,1.03,1005.91
18.321,-0.06,0.96,0.10,-1.17,0.03,1.44,0.62,-0.18,1.03,1005.91
18.332,-0.06,0.96,0.10,-1.17,0.03,1.44,0.62,-0.18,1.03,1005.90
18.357,-0.06,0.96,0.10,-1.17,0.03,1.44,0.92,-0.19,1.34,1005.90
18.357,-0.06,0.96,0.10,-0.42,0.11,1.00,0.92,-0.19,1.34,1005.90
18.363,-0.06,0.96,0.10,-0.42,0.11,1.00,0.92,-0.19,1.34,1005.90
18.385,0.05,0.98,-0.03,-0.42,0.11,1.00,0.92,-0.19,1.34,1005.90
18.386,0.16,1.00,-0.14,-0.42,0.11,1.00,0.92,-0.19,1.34,1005.90
18.386,0.14,0.98,-0.19,-0.42,0.11,1.00,0.92,-0.19,1.34,1005.90
18.416,0.14,0.98,-0.19,-0.42,0.11,1.00,0.91,-0.29,1.27,1005.90
18.416,0.14,0.98,-0.19,-0.12,0.48,-0.30,0.91,-0.29,1.27,1005.90
18.434,0.13,1.00,-0.21,-0.12,0.48,-0.30,0.91,-0.29,1.27,1005.90
18.435,0.17,1.03,-0.24,-0.12,0.48,-0.30,0.91,-0.29,1.27,1005.90
18.436,0.15,1.05,-0.21,-0.12,0.48,-0.30,0.91,-0.29,1.27,1005.90
18.445,0.15,1.05,-0.21,-0.12,0.48,-0.30,0.91,-0.29,1.27,1005.90
18.474,0.15,1.05,-0.21,-0.12,0.48,-0.30,0.87,-0.35,1.24,1005.90
18.475,0.15,1.05,-0.21,-1.44,0.93,0.19,0.87,-0.35,1.24,1005.90
18.493,0.06,1.01,-0.19,-1.44,0.93,0.19,0.87,-0.35,1.24,1005.90
18.493,0.02,1.01,-0.24,-1.44,0.93,0.19,0.87,-0.35,1.24,1005.90
18.494,0.04,1.09,-0.27,-1.44,0.93,0.19,0.87,-0.35,1.24,1005.90
18.523,0.04,1.09,-0.27,-1.44,0.93,0.19,0.87,-0.35,1.24,1005.90
18.531,0.04,1.09,-0.27,-1.44,0.93,0.19,1.22,-0.03,1.46,1005.90
18.531,0.04,1.09,-0.27,-2.80,2.40,1.09,1.22,-0.03,1.46,1005.90
18.551,0.03,1.15,-0.19,-2.80,2.40,1.09,1.22,-0.03,1.46,1005.90
18.552,-0.04,1.17,-0.09,-2.80,2.40,1.09,1.22,-0.03,1.46,1005.90
18.552,-0.08,1.25,-0.06,-2.80,2.40,1.09,1.22,-0.03,1.46,1005.90
18.565,-0.08,1.25,-0.06,-2.80,2.40,1.09,1.22,-0.03,1.46,1005.91
18.59,-0.08,1.25,-0.06,-2.80,2.40,1.09,1.76,-0.30,1.79,1005.91
18.59,-0.08,1.25,-0.06,-6.82,6.68,4.36,1.76,-0.30,1.79,1005.91
18.611,-0.23,1.49,0.10,-6.82,6.68,4.36,1.76,-0.30,1.79,1005.91
18.612,-0.67,1.81,0.15,-6.82,6.68,4.36,1.76,-0.30,1.79,1005.91
18.612,-1.09,1.90,0.15,-6.82,6.68,4.36,1.76,-0.30,1.79,1005.91
18.643,-1.09,1.90,0.15,-6.82,6.68,4.36,1.76,-0.30,1.79,1005.91
18.649,-1.09,1.90,0.15,-10.51,8.56,5.61,1.76,-0.30,1.79,1005.91
18.649,-1.09,1.90,0.15,-10.51,8.56,5.61,2.14,-1.49,2.53,1005.91
18.667,-0.84,1.64,0.16,-10.51,8.56,5.61,2.14,-1.49,2.53,1005.91
18.667,-0.02,1.28,-0.11,-10.51,8.56,5.61,2.14,-1.49,2.53,1005.91
18.667,0.75,1.33,-0.60,-10.51,8.56,5.61,2.14,-1.49,2.53,1005.91
18.707,0.75,1.33,-0.60,-10.51,8.56,5.61,2.36,-1.38,3.07,1005.91
18.708,0.75,1.33,-0.60,4.34,5.43,0.95,2.36,-1.38,3.07,1005.91
18.724,0.75,1.33,-0.60,4.34,5.43,0.95,2.36,-1.38,3.07,1005.90
18.725,1.20,1.19,-0.49,4.34,5.43,0.95,2.36,-1.38,3.07,1005.90
18.726,0.88,0.88,-0.51,4.34,5.43,0.95,2.36,-1.38,3.07,1005.90
18.727,0.58,0.60,-0.62,4.34,5.43,0.95,2.36,-1.38,3.07,1005.90
18.764,0.58,0.60,-0.62,4.34,5.43,0.95,2.36,-1.38,3.07,1005.87
18.765,0.58,0.60,-0.62,4.34,5.43,0.95,-0.01,-0.03,0.29,1005.87
18.765,0.58,0.60,-0.62,-0.32,-1.00,1.55,-0.01,-0.03,0.29,1005.87
