
time,gFx,gFy,gFz,ax,ay,az,wx,wy,wz,
0.057326,0.1978,0.8082,0.5970,0.0000,0.0000,0.0000,0.0000,0.0000,0.0000,
0.058068,0.1978,0.8082,0.5970,0.0000,0.0000,0.0000,0.0000,0.0000,0.0000,
0.058310,0.1978,0.8082,0.5970,0.0000,0.0000,0.0000,0.0000,0.0000,0.0000,
0.058582,0.1978,0.8082,0.5970,0.0000,0.0000,0.0000,0.0941,-0.0055,0.0369,
0.058946,0.1978,0.8082,0.5970,0.0111,-0.0384,0.0058,0.0941,-0.0055,0.0369,
0.117256,0.3313,0.7359,0.5555,0.0111,-0.0384,0.0058,0.0941,-0.0055,0.0369,
0.118242,0.3096,0.7469,0.5340,0.0111,-0.0384,0.0058,0.0941,-0.0055,0.0369,
0.118774,0.2686,0.7625,0.5269,0.0111,-0.0384,0.0058,0.0941,-0.0055,0.0369,
0.119280,0.2686,0.7625,0.5269,0.0111,-0.0384,0.0058,0.1849,0.4967,0.7958,
0.119832,0.2686,0.7625,0.5269,0.5624,-0.3950,-0.3583,0.1849,0.4967,0.7958,
0.174016,0.2586,0.7979,0.5169,0.5624,-0.3950,-0.3583,0.1849,0.4967,0.7958,
0.174954,0.2371,0.8568,0.5013,0.5624,-0.3950,-0.3583,0.1849,0.4967,0.7958,
0.175494,0.2193,0.8851,0.5123,0.5624,-0.3950,-0.3583,0.1849,0.4967,0.7958,
0.175995,0.2193,0.8851,0.5123,0.5624,-0.3950,-0.3583,0.2726,0.5714,0.9186,
0.176501,0.2193,0.8851,0.5123,-0.2241,0.4595,-0.4505,0.2726,0.5714,0.9186,
0.233236,0.2193,0.8851,0.5123,-0.8511,1.0438,-0.2008,0.2726,0.5714,0.9186,
0.234160,0.2056,0.8914,0.5347,-0.8511,1.0438,-0.2008,0.2726,0.5714,0.9186,
0.234728,0.1692,0.9432,0.5245,-0.8511,1.0438,-0.2008,0.2726,0.5714,0.9186,
0.235151,0.1494,0.9393,0.5350,-0.8511,1.0438,-0.2008,0.2726,0.5714,0.9186,
0.235698,0.1494,0.9393,0.5350,-0.8511,1.0438,-0.2008,0.1511,0.4985,0.8249,
0.290682,0.1575,0.8675,0.5232,-0.8511,1.0438,-0.2008,0.1511,0.4985,0.8249,
0.291593,0.1619,0.8035,0.4964,-0.8511,1.0438,-0.2008,0.1511,0.4985,0.8249,
0.292184,0.1763,0.7664,0.4725,-0.8511,1.0438,-0.2008,0.1511,0.4985,0.8249,
0.292786,0.1763,0.7664,0.4725,-0.8511,1.0438,-0.2008,-0.0208,0.1798,0.7182,
0.293652,0.1763,0.7664,0.4725,-1.0177,0.0535,-0.4764,-0.0208,0.1798,0.7182,
0.351090,0.1763,0.7664,0.4725,-1.6144,-0.9891,-2.4477,-0.0208,0.1798,0.7182,
0.352200,0.1836,0.7352,0.4053,-1.6144,-0.9891,-2.4477,-0.0208,0.1798,0.7182,
0.352813,0.1426,0.6771,0.2840,-1.6144,-0.9891,-2.4477,-0.0208,0.1798,0.7182,
0.353514,0.0146,0.6068,0.0879,-1.6144,-0.9891,-2.4477,-0.0208,0.1798,0.7182,
0.354102,0.0146,0.6068,0.0879,-1.6144,-0.9891,-2.4477,-0.1824,-0.2356,0.6260,
0.407107,-0.0437,0.5596,0.0144,-1.6144,-0.9891,-2.4477,-0.1824,-0.2356,0.6260,
0.408085,-0.0728,0.4979,0.0315,-1.6144,-0.9891,-2.4477,-0.1824,-0.2356,0.6260,
0.408418,-0.4163,0.4810,0.0664,-1.6144,-0.9891,-2.4477,-0.1824,-0.2356,0.6260,
0.408853,-0.4163,0.4810,0.0664,-1.6144,-0.9891,-2.4477,-0.7740,-1.7974,0.6254,
0.409277,-0.4163,0.4810,0.0664,-4.6058,-1.9427,-4.0463,-0.7740,-1.7974,0.6254,
0.465707,-0.4793,0.5337,0.0527,-4.6058,-1.9427,-4.0463,-0.7740,-1.7974,0.6254,
0.467080,-0.2298,0.5909,0.2671,-4.6058,-1.9427,-4.0463,-0.7740,-1.7974,0.6254,
0.468272,0.6734,0.4234,0.7325,-4.6058,-1.9427,-4.0463,-0.7740,-1.7974,0.6254,
0.469224,0.6734,0.4234,0.7325,-4.6058,-1.9427,-4.0463,-1.2279,-5.9887,1.4061,
0.470274,0.6734,0.4234,0.7325,-4.3931,-1.1587,-0.0870,-1.2279,-5.9887,1.4061,
0.524492,1.7934,0.3462,0.7415,-4.3931,-1.1587,-0.0870,-1.2279,-5.9887,1.4061,
0.526404,1.5107,0.7130,0.3206,-4.3931,-1.1587,-0.0870,-1.2279,-5.9887,1.4061,
0.527408,0.5523,0.8360,0.3094,-4.3931,-1.1587,-0.0870,-1.2279,-5.9887,1.4061,
0.528755,0.5523,0.8360,0.3094,7.1972,-0.4708,2.4471,-1.2279,-5.9887,1.4061,
0.529763,0.5523,0.8360,0.3094,7.1972,-0.4708,2.4471,1.4907,-4.5102,-1.0592,
0.582750,0.4375,0.9237,0.5750,7.1972,-0.4708,2.4471,1.4907,-4.5102,-1.0592,
0.583950,0.4568,0.9269,0.7428,7.1972,-0.4708,2.4471,1.4907,-4.5102,-1.0592,
0.584730,0.4834,0.9134,0.5557,7.1972,-0.4708,2.4471,1.4907,-4.5102,-1.0592,
0.585592,0.4834,0.9134,0.5557,7.1972,-0.4708,2.4471,1.2417,-0.2205,-1.6383,
0.586622,0.4834,0.9134,0.5557,-0.2411,1.5987,4.2454,1.2417,-0.2205,-1.6383,
0.641111,0.4986,1.0218,0.3435,-0.2411,1.5987,4.2454,1.2417,-0.2205,-1.6383,
0.641733,0.5108,1.0826,0.2432,-0.2411,1.5987,4.2454,1.2417,-0.2205,-1.6383,
0.642251,0.5030,1.0990,0.0840,-0.2411,1.5987,4.2454,1.2417,-0.2205,-1.6383,
0.642657,0.5030,1.0990,0.0840,-0.2411,1.5987,4.2454,1.7801,0.2706,-1.9973,
0.643103,0.5030,1.0990,0.0840,1.0325,2.1806,0.9704,1.7801,0.2706,-1.9973,
0.699311,0.4725,1.0687,-0.0327,1.0325,2.1806,0.9704,1.7801,0.2706,-1.9973,
0.700061,0.5113,1.0751,-0.0544,1.0325,2.1806,0.9704,1.7801,0.2706,-1.9973,
0.700479,0.5911,1.1070,0.0132,1.0325,2.1806,0.9704,1.7801,0.2706,-1.9973,
0.700932,0.5911,1.1070,0.0132,1.0325,2.1806,0.9704,1.1674,-0.7434,-1.8442,
0.701347,0.5911,1.1070,0.0132,1.9566,1.7558,-0.6808,1.1674,-0.7434,-1.8442,
0.757263,0.6619,1.1549,0.0584,1.9566,1.7558,-0.6808,1.1674,-0.7434,-1.8442,
0.758045,0.8116,0.9772,-0.0293,1.9566,1.7558,-0.6808,1.1674,-0.7434,-1.8442,
0.758421,1.1949,0.8209,-0.1482,1.9566,1.7558,-0.6808,1.1674,-0.7434,-1.8442,
0.758776,1.1949,0.8209,-0.1482,1.9566,1.7558,-0.6808,0.3728,-0.8082,-1.9674,
0.759120,1.1949,0.8209,-0.1482,6.0860,0.4353,-0.4708,0.3728,-0.8082,-1.9674,
0.816644,0.3506,1.5627,0.0950,6.0860,0.4353,-0.4708,0.3728,-0.8082,-1.9674,
0.817735,0.3645,1.4074,-0.0645,6.0860,0.4353,-0.4708,0.3728,-0.8082,-1.9674,
0.818534,0.4058,1.0567,-0.1253,6.0860,0.4353,-0.4708,0.3728,-0.8082,-1.9674,
0.819162,0.4058,1.0567,-0.1253,6.0860,0.4353,-0.4708,-0.0731,-0.6752,-2.4302,
0.820300,0.4058,1.0567,-0.1253,2.1997,3.4196,-0.3288,-0.0731,-0.6752,-2.4302,
0.874156,0.5086,1.1981,-0.0518,2.1997,3.4196,-0.3288,-0.0731,-0.6752,-2.4302,
0.875735,0.6756,1.3226,0.0732,2.1997,3.4196,-0.3288,-0.0731,-0.6752,-2.4302,
0.877053,0.5154,1.0611,0.2429,2.1997,3.4196,-0.3288,-0.0731,-0.6752,-2.4302,
0.878423,0.5154,1.0611,0.2429,2.1997,3.4196,-0.3288,0.3176,0.1668,-0.7440,
0.880340,0.5154,1.0611,0.2429,4.2306,1.7938,0.9526,0.3176,0.1668,-0.7440,
0.933008,0.2100,0.9947,0.3045,4.2306,1.7938,0.9526,0.3176,0.1668,-0.7440,
0.934370,0.0642,1.0785,0.1751,4.2306,1.7938,0.9526,0.3176,0.1668,-0.7440,
0.935103,0.1878,1.1486,0.1343,4.2306,1.7938,0.9526,0.3176,0.1668,-0.7440,
0.936062,0.1878,1.1486,0.1343,4.2306,1.7938,0.9526,1.0767,0.1741,-0.5383,
0.936968,0.1878,1.1486,0.1343,0.4662,0.5697,2.5461,1.0767,0.1741,-0.5383,
0.991834,0.2718,1.1461,0.1045,0.4662,0.5697,2.5461,1.0767,0.1741,-0.5383,
0.993702,0.3177,1.1634,0.0286,0.4662,0.5697,2.5461,1.0767,0.1741,-0.5383,
0.994946,0.2552,1.1634,0.0772,0.4662,0.5697,2.5461,1.0767,0.1741,-0.5383,
0.995879,0.2552,1.1634,0.0772,0.4662,0.5697,2.5461,0.6371,-0.6174,0.1521,
0.997112,0.2552,1.1634,0.0772,1.5649,1.3481,1.5442,0.6371,-0.6174,0.1521,
1.049898,0.1040,1.1307,0.1323,1.5649,1.3481,1.5442,0.6371,-0.6174,0.1521,
1.051346,0.0493,1.0734,0.0752,1.5649,1.3481,1.5442,0.6371,-0.6174,0.1521,
1.052187,0.1380,0.9229,0.0315,1.5649,1.3481,1.5442,0.6371,-0.6174,0.1521,
1.053030,0.1380,0.9229,0.0315,1.5649,1.3481,1.5442,0.3280,-1.3003,0.0959,
1.054064,0.1380,0.9229,0.0315,-0.2093,0.2306,1.8185,0.3280,-1.3003,0.0959,
1.107844,0.2178,0.7972,0.0530,-0.2093,0.2306,1.8185,0.3280,-1.3003,0.0959,
1.108904,0.2005,0.8639,0.0847,-0.2093,0.2306,1.8185,0.3280,-1.3003,0.0959,
1.109461,0.1690,0.9444,0.1004,-0.2093,0.2306,1.8185,0.3280,-1.3003,0.0959,
1.110304,0.1690,0.9444,0.1004,-0.2093,0.2306,1.8185,-0.0135,-1.4048,0.5372,
1.111130,0.1690,0.9444,0.1004,0.5086,-1.3627,1.8147,-0.0135,-1.4048,0.5372,
1.166032,0.1455,0.9005,0.0571,0.5086,-1.3627,1.8147,-0.0135,-1.4048,0.5372,
1.167438,0.1226,0.6973,0.0020,0.5086,-1.3627,1.8147,-0.0135,-1.4048,0.5372,
1.168335,0.1067,0.4930,-0.0535,0.5086,-1.3627,1.8147,-0.0135,-1.4048,0.5372,
1.168972,0.1067,0.4930,-0.0535,0.5086,-1.3627,1.8147,-0.1024,-1.0197,0.7037,
1.169656,0.1067,0.4930,-0.0535,-0.5015,-2.8434,1.0375,-0.1024,-1.0197,0.7037,
1.225461,0.1067,0.4930,-0.0535,-2.0366,-1.1462,0.5169,-0.1024,-1.0197,0.7037,
1.228535,0.0679,0.6365,-0.0222,-2.0366,-1.1462,0.5169,-0.1024,-1.0197,0.7037,
1.229816,-0.0230,0.9422,-0.0266,-2.0366,-1.1462,0.5169,-0.1024,-1.0197,0.7037,
1.230958,0.0098,0.9774,-0.0952,-2.0366,-1.1462,0.5169,-0.1024,-1.0197,0.7037,
1.231828,0.0098,0.9774,-0.0952,-2.0366,-1.1462,0.5169,-0.2814,-1.2861,1.1812,
1.283769,0.1306,0.6932,-0.0952,-2.0366,-1.1462,0.5169,-0.2814,-1.2861,1.1812,
1.286076,0.0884,0.5599,-0.1187,-2.0366,-1.1462,0.5169,-0.2814,-1.2861,1.1812,
1.288201,-0.0967,0.9366,-0.1853,-2.0366,-1.1462,0.5169,-0.2814,-1.2861,1.1812,
1.290429,-0.0967,0.9366,-0.1853,-2.0366,-1.1462,0.5169,-0.2104,-1.2468,1.5260,
1.293598,-0.0967,0.9366,-0.1853,-2.4656,-2.0324,-0.2337,-0.2104,-1.2468,1.5260,
1.345867,-0.0967,0.9366,-0.1853,-3.9669,1.4778,-0.4231,-0.2104,-1.2468,1.5260,
1.350210,-0.1541,1.2841,-0.2229,-3.9669,1.4778,-0.4231,-0.2104,-1.2468,1.5260,
1.352785,-0.0300,1.1278,-0.1204,-3.9669,1.4778,-0.4231,-0.2104,-1.2468,1.5260,
1.355022,-0.0149,0.8065,-0.1082,-3.9669,1.4778,-0.4231,-0.2104,-1.2468,1.5260,
1.357723,-0.0149,0.8065,-0.1082,-3.9669,1.4778,-0.4231,-0.6469,-1.6345,1.3692,
1.399401,-0.2071,0.6448,-0.2473,-3.9669,1.4778,-0.4231,-0.6469,-1.6345,1.3692,
1.401073,-0.6226,0.6509,-0.3277,-3.9669,1.4778,-0.4231,-0.6469,-1.6345,1.3692,
1.402067,-0.8817,0.6043,-0.2364,-3.9669,1.4778,-0.4231,-0.6469,-1.6345,1.3692,
1.405780,-0.8817,0.6043,-0.2364,-3.9669,1.4778,-0.4231,-0.3783,-1.7155,-0.0193,
1.407352,-0.8817,0.6043,-0.2364,-8.4348,-2.7414,-1.4073,-0.3783,-1.7155,-0.0193,
1.463106,-0.6644,0.6607,-0.6922,-8.4348,-2.7414,-1.4073,-0.3783,-1.7155,-0.0193,
1.465916,-0.0330,2.2038,-1.3471,-8.4348,-2.7414,-1.4073,-0.3783,-1.7155,-0.0193,
1.468174,1.6125,3.1766,0.5889,-8.4348,-2.7414,-1.4073,-0.3783,-1.7155,-0.0193,
1.470134,1.6125,3.1766,0.5889,-8.4348,-2.7414,-1.4073,-0.6707,-2.7603,0.2979,
1.472628,1.6125,3.1766,0.5889,0.1907,10.3693,-3.2619,-0.6707,-2.7603,0.2979,
1.516623,1.1144,0.9735,-0.7435,0.1907,10.3693,-3.2619,-0.6707,-2.7603,0.2979,
1.519096,0.0862,0.0562,-1.2846,0.1907,10.3693,-3.2619,-0.6707,-2.7603,0.2979,
1.520645,-0.1099,0.8468,0.1729,0.1907,10.3693,-3.2619,-0.6707,-2.7603,0.2979,
1.522590,-0.1099,0.8468,0.1729,0.1907,10.3693,-3.2619,-0.3042,-1.8462,-1.7786,
1.524635,-0.1099,0.8468,0.1729,1.8438,-3.3618,-4.3310,-0.3042,-1.8462,-1.7786,
1.575362,-0.4905,1.2758,0.3787,1.8438,-3.3618,-4.3310,-0.3042,-1.8462,-1.7786,
1.578431,-0.1126,1.0550,0.0335,1.8438,-3.3618,-4.3310,-0.3042,-1.8462,-1.7786,
1.580436,0.3274,0.8746,-0.1270,1.8438,-3.3618,-4.3310,-0.3042,-1.8462,-1.7786,
1.582097,0.3274,0.8746,-0.1270,-1.6847,0.8175,2.4857,-0.3042,-1.8462,-1.7786,
1.584139,0.3274,0.8746,-0.1270,-1.6847,0.8175,2.4857,-0.1464,0.1344,-1.5864,
1.632986,0.0227,0.9835,-0.4478,-1.6847,0.8175,2.4857,-0.1464,0.1344,-1.5864,
1.635053,-0.4476,1.0924,-0.1506,-1.6847,0.8175,2.4857,-0.1464,0.1344,-1.5864,
1.636408,-0.3047,1.0235,-0.2268,-1.6847,0.8175,2.4857,-0.1464,0.1344,-1.5864,
1.638429,-0.3047,1.0235,-0.2268,-1.6847,0.8175,2.4857,0.0120,-0.2227,-1.2618,
1.640951,-0.3047,1.0235,-0.2268,-2.3514,0.4262,-1.0920,0.0120,-0.2227,-1.2618,
1.692035,-0.3047,1.0235,-0.2268,0.7509,-0.1621,0.5215,0.0120,-0.2227,-1.2618,
1.694123,-0.0110,0.9427,-0.1062,0.7509,-0.1621,0.5215,0.0120,-0.2227,-1.2618,
1.694733,0.0618,0.9796,-0.1214,0.7509,-0.1621,0.5215,0.0120,-0.2227,-1.2618,
1.695593,0.0293,0.9916,-0.0957,0.7509,-0.1621,0.5215,0.0120,-0.2227,-1.2618,
1.696641,0.0293,0.9916,-0.0957,0.7509,-0.1621,0.5215,-0.0033,-0.3600,-0.7953,
1.749662,-0.1548,0.9867,-0.1270,0.7509,-0.1621,0.5215,-0.0033,-0.3600,-0.7953,
1.752002,-0.2024,1.0094,-0.2197,0.7509,-0.1621,0.5215,-0.0033,-0.3600,-0.7953,
1.753694,-0.0942,1.0226,-0.2071,0.7509,-0.1621,0.5215,-0.0033,-0.3600,-0.7953,
1.754952,-0.0942,1.0226,-0.2071,0.7509,-0.1621,0.5215,0.0401,-0.1120,-0.9273,
1.756569,-0.0942,1.0226,-0.2071,-0.4379,0.2175,-0.2062,0.0401,-0.1120,-0.9273,
1.807685,-0.0652,1.0660,-0.1677,-0.4379,0.2175,-0.2062,0.0401,-0.1120,-0.9273,
1.810185,-0.0889,1.0831,-0.1509,-0.4379,0.2175,-0.2062,0.0401,-0.1120,-0.9273,
1.811027,-0.0532,1.0113,-0.1607,-0.4379,0.2175,-0.2062,0.0401,-0.1120,-0.9273,
1.811810,-0.0532,1.0113,-0.1607,-0.4379,0.2175,-0.2062,0.1849,0.0988,-0.9928,
1.812667,-0.0532,1.0113,-0.1607,0.8779,0.7506,0.1440,0.1849,0.0988,-0.9928,
1.865526,-0.0271,0.9752,-0.1536,0.8779,0.7506,0.1440,0.1849,0.0988,-0.9928,
1.867190,0.0168,0.9693,-0.1743,0.8779,0.7506,0.1440,0.1849,0.0988,-0.9928,
1.867932,0.1165,0.9686,-0.1360,0.8779,0.7506,0.1440,0.1849,0.0988,-0.9928,
1.868559,0.1165,0.9686,-0.1360,0.8779,0.7506,0.1440,0.3981,0.5129,-1.3813,
1.869293,0.1165,0.9686,-0.1360,2.5313,0.1354,0.4581,0.3981,0.5129,-1.3813,
1.926546,0.0798,1.1092,-0.0960,2.5313,0.1354,0.4581,0.3981,0.5129,-1.3813,
1.929155,-0.0750,1.3014,-0.1331,2.5313,0.1354,0.4581,0.3981,0.5129,-1.3813,
1.930815,-0.0708,1.3331,-0.2105,2.5313,0.1354,0.4581,0.3981,0.5129,-1.3813,
1.932410,-0.0708,1.3331,-0.2105,2.9878,3.2068,1.0133,0.3981,0.5129,-1.3813,
1.934230,-0.0708,1.3331,-0.2105,2.9878,3.2068,1.0133,0.8988,0.1761,-2.1154,
1.983736,-0.0708,1.3331,-0.2105,8.2136,7.5799,0.9018,0.8988,0.1761,-2.1154,
1.986300,0.0532,1.3580,-0.2798,8.2136,7.5799,0.9018,0.8988,0.1761,-2.1154,
1.987966,0.2886,1.6349,-0.3089,8.2136,7.5799,0.9018,0.8988,0.1761,-2.1154,
1.989914,0.9168,1.9316,-0.1038,8.2136,7.5799,0.9018,0.8988,0.1761,-2.1154,
1.991471,0.9168,1.9316,-0.1038,8.2136,7.5799,0.9018,1.5147,-0.0993,-2.2191,
2.041875,1.3930,1.7809,0.0396,8.2136,7.5799,0.9018,1.5147,-0.0993,-2.2191,
2.043867,0.5235,1.3644,0.3880,8.2136,7.5799,0.9018,1.5147,-0.0993,-2.2191,
2.044614,-0.6016,1.2467,0.0745,8.2136,7.5799,0.9018,1.5147,-0.0993,-2.2191,
2.045506,-0.6016,1.2467,0.0745,8.2136,7.5799,0.9018,1.2844,0.5936,-3.0507,
2.047137,-0.6016,1.2467,0.0745,9.4201,6.7621,5.4177,1.2844,0.5936,-3.0507,
2.099602,-1.2387,1.5563,-0.1636,9.4201,6.7621,5.4177,1.2844,0.5936,-3.0507,
2.101007,-1.2308,1.2670,-0.1839,9.4201,6.7621,5.4177,1.2844,0.5936,-3.0507,
2.101822,-0.6917,0.7113,-0.2964,9.4201,6.7621,5.4177,1.2844,0.5936,-3.0507,
2.102716,-0.6917,0.7113,-0.2964,9.4201,6.7621,5.4177,1.6035,-0.0985,-2.9747,
2.103480,-0.6917,0.7113,-0.2964,-3.8667,5.1983,2.2211,1.6035,-0.0985,-2.9747,
2.159834,-0.6185,0.5152,-0.2891,-3.8667,5.1983,2.2211,1.6035,-0.0985,-2.9747,
2.161394,-0.5457,0.4549,-0.3636,-3.8667,5.1983,2.2211,1.6035,-0.0985,-2.9747,
2.162310,-0.4036,0.4095,-0.2527,-3.8667,5.1983,2.2211,1.6035,-0.0985,-2.9747,
2.163095,-0.4036,0.4095,-0.2527,-3.8667,5.1983,2.2211,0.1568,-1.1987,0.2344,
2.164004,-0.4036,0.4095,-0.2527,1.5032,-1.8442,0.9329,0.1568,-1.1987,0.2344,
2.215917,-0.3172,0.2427,-0.0967,1.5032,-1.8442,0.9329,0.1568,-1.1987,0.2344,
2.217279,-0.3362,0.1966,-0.0469,1.5032,-1.8442,0.9329,0.1568,-1.1987,0.2344,
2.218590,-0.2442,0.1826,-0.0559,1.5032,-1.8442,0.9329,0.1568,-1.1987,0.2344,
2.220370,-0.2442,0.1826,-0.0559,1.5032,-1.8442,0.9329,-1.0725,-0.8218,3.0816,
2.223063,-0.2442,0.1826,-0.0559,2.5349,-5.4926,2.4343,-1.0725,-0.8218,3.0816,
2.275778,-0.1560,0.2649,-0.2259,2.5349,-5.4926,2.4343,-1.0725,-0.8218,3.0816,
2.278975,-0.1521,0.4178,-0.2918,2.5349,-5.4926,2.4343,-1.0725,-0.8218,3.0816,
2.281333,-0.2561,0.5731,-0.2288,2.5349,-5.4926,2.4343,-1.0725,-0.8218,3.0816,
2.283256,-0.2561,0.5731,-0.2288,1.2205,-4.7888,-0.1548,-1.0725,-0.8218,3.0816,
2.284790,-0.2561,0.5731,-0.2288,1.2205,-4.7888,-0.1548,-1.3855,-0.5101,5.0468,
2.333161,-0.2796,0.6475,-0.1699,1.2205,-4.7888,-0.1548,-1.3855,-0.5101,5.0468,
2.334570,-0.1528,0.7865,-0.3348,1.2205,-4.7888,-0.1548,-1.3855,-0.5101,5.0468,
2.335487,-0.1306,1.1481,-0.3973,1.2205,-4.7888,-0.1548,-1.3855,-0.5101,5.0468,
2.336483,-0.1306,1.1481,-0.3973,-2.1539,-1.0776,-1.3278,-1.3855,-0.5101,5.0468,
2.337343,-0.1306,1.1481,-0.3973,-2.1539,-1.0776,-1.3278,-1.2892,0.1627,6.2773,
2.391325,-0.4080,1.6620,-0.3692,-2.1539,-1.0776,-1.3278,-1.2892,0.1627,6.2773,
2.393221,-0.7088,1.8869,-0.5626,-2.1539,-1.0776,-1.3278,-1.2892,0.1627,6.2773,
2.395159,-0.7594,1.6271,-0.4825,-2.1539,-1.0776,-1.3278,-1.2892,0.1627,6.2773,
2.396008,-0.7594,1.6271,-0.4825,-9.5998,7.8272,-3.8684,-1.2892,0.1627,6.2773,
2.396902,-0.7594,1.6271,-0.4825,-9.5998,7.8272,-3.8684,-1.6410,0.5492,6.1779,
2.449041,-0.7301,1.2277,-0.0776,-9.5998,7.8272,-3.8684,-1.6410,0.5492,6.1779,
2.450481,-0.5284,1.0943,-0.2193,-9.5998,7.8272,-3.8684,-1.6410,0.5492,6.1779,
2.451271,-0.8062,1.1007,-0.3106,-9.5998,7.8272,-3.8684,-1.6410,0.5492,6.1779,
2.451960,-0.8062,1.1007,-0.3106,-9.5998,7.8272,-3.8684,-1.2128,0.1939,3.5543,
2.452676,-0.8062,1.1007,-0.3106,-11.7398,2.9109,-1.8484,-1.2128,0.1939,3.5543,
2.509052,-1.0033,0.8529,-0.2561,-11.7398,2.9109,-1.8484,-1.2128,0.1939,3.5543,
2.513028,-0.9476,0.7989,-0.3614,-11.7398,2.9109,-1.8484,-1.2128,0.1939,3.5543,
2.515236,-0.7086,1.6117,-0.8075,-11.7398,2.9109,-1.8484,-1.2128,0.1939,3.5543,
2.517261,-0.7086,1.6117,-0.8075,-11.7398,2.9109,-1.8484,0.0112,0.2075,-1.5821,
2.520072,-0.7086,1.6117,-0.8075,-12.6070,1.9208,-4.4653,0.0112,0.2075,-1.5821,
2.567098,1.3519,2.3191,0.6761,-12.6070,1.9208,-4.4653,0.0112,0.2075,-1.5821,
2.568653,1.9934,1.8972,0.5311,-12.6070,1.9208,-4.4653,0.0112,0.2075,-1.5821,
2.569693,-0.3697,1.0406,-1.3544,-12.6070,1.9208,-4.4653,0.0112,0.2075,-1.5821,
2.570618,-0.3697,1.0406,-1.3544,-12.6070,1.9208,-4.4653,-0.3757,-1.4483,-1.7678,
2.571840,-0.3697,1.0406,-1.3544,6.5919,7.8917,-0.1982,-0.3757,-1.4483,-1.7678,
2.624358,-0.8438,0.6644,-0.7730,6.5919,7.8917,-0.1982,-0.3757,-1.4483,-1.7678,
2.626590,-0.7310,0.5374,0.5440,6.5919,7.8917,-0.1982,-0.3757,-1.4483,-1.7678,
2.628877,-0.5804,1.0077,0.2068,6.5919,7.8917,-0.1982,-0.3757,-1.4483,-1.7678,
2.630265,-0.5804,1.0077,0.2068,6.5919,7.8917,-0.1982,-0.1022,0.6646,-3.0325,
2.631259,-0.5804,1.0077,0.2068,-8.3089,-2.4172,0.0783,-0.1022,0.6646,-3.0325,
2.683392,-0.3450,1.2247,0.0122,-8.3089,-2.4172,0.0783,-0.1022,0.6646,-3.0325,
2.685959,-0.1509,1.1427,-0.2176,-8.3089,-2.4172,0.0783,-0.1022,0.6646,-3.0325,
2.687887,0.0701,1.0577,-0.1934,-8.3089,-2.4172,0.0783,-0.1022,0.6646,-3.0325,
2.689383,0.0701,1.0577,-0.1934,-8.3089,-2.4172,0.0783,-0.0236,-0.4146,-0.7955,
2.691328,0.0701,1.0577,-0.1934,-2.1604,1.4734,-1.1203,-0.0236,-0.4146,-0.7955,
2.742330,0.3050,1.0565,-0.0916,-2.1604,1.4734,-1.1203,-0.0236,-0.4146,-0.7955,
2.745309,0.2820,1.0272,0.0562,-2.1604,1.4734,-1.1203,-0.0236,-0.4146,-0.7955,
2.748722,-0.0098,1.0045,0.1653,-2.1604,1.4734,-1.1203,-0.0236,-0.4146,-0.7955,
2.750843,-0.0098,1.0045,0.1653,-2.1604,1.4734,-1.1203,-0.0460,0.1024,-0.7859,
2.752996,-0.0098,1.0045,0.1653,1.5287,0.3400,0.5662,-0.0460,0.1024,-0.7859,
2.800112,-0.0098,1.0045,0.1653,0.7320,-0.5378,1.0216,-0.0460,0.1024,-0.7859,
2.802062,-0.0791,0.9425,0.1091,0.7320,-0.5378,1.0216,-0.0460,0.1024,-0.7859,
2.803223,0.0728,0.9171,0.0901,0.7320,-0.5378,1.0216,-0.0460,0.1024,-0.7859,
2.804568,0.1682,0.9571,0.0449,0.7320,-0.5378,1.0216,-0.0460,0.1024,-0.7859,
2.805674,0.1682,0.9571,0.0449,0.7320,-0.5378,1.0216,0.1824,0.0432,-1.0124,
2.857413,0.0457,0.9855,0.0620,0.7320,-0.5378,1.0216,0.1824,0.0432,-1.0124,
2.859354,-0.0903,0.9430,0.0596,0.7320,-0.5378,1.0216,0.1824,0.0432,-1.0124,
2.860285,-0.1699,0.9388,0.0293,0.7320,-0.5378,1.0216,0.1824,0.0432,-1.0124,
2.861609,-0.1699,0.9388,0.0293,0.7320,-0.5378,1.0216,0.2920,0.2083,-1.3842,
2.862559,-0.1699,0.9388,0.0293,0.2771,-0.3131,0.8722,0.2920,0.2083,-1.3842,
2.916366,-0.1399,0.9852,0.0020,0.2771,-0.3131,0.8722,0.2920,0.2083,-1.3842,
2.917924,-0.1089,0.9806,-0.0818,0.2771,-0.3131,0.8722,0.2920,0.2083,-1.3842,
2.919894,-0.1436,0.9786,-0.1714,0.2771,-0.3131,0.8722,0.2920,0.2083,-1.3842,
2.921673,-0.1436,0.9786,-0.1714,0.2771,-0.3131,0.8722,0.4011,-0.0014,-1.4469,
2.923793,-0.1436,0.9786,-0.1714,0.4991,0.0661,-0.2130,0.4011,-0.0014,-1.4469,
2.973828,-0.1355,1.0196,-0.1758,0.4991,0.0661,-0.2130,0.4011,-0.0014,-1.4469,
2.975375,-0.1089,1.0604,-0.1321,0.4991,0.0661,-0.2130,0.4011,-0.0014,-1.4469,
2.976333,-0.1614,1.0973,-0.1360,0.4991,0.0661,-0.2130,0.4011,-0.0014,-1.4469,
2.976918,-0.1614,1.0973,-0.1360,0.4991,0.0661,-0.2130,0.3944,0.0925,-1.6923,
2.978495,-0.1614,1.0973,-0.1360,1.3568,1.0451,-0.6007,0.3944,0.0925,-1.6923,
3.032582,-0.1775,1.1481,-0.1367,1.3568,1.0451,-0.6007,0.3944,0.0925,-1.6923,
3.033612,-0.1966,1.2020,-0.1526,1.3568,1.0451,-0.6007,0.3944,0.0925,-1.6923,
3.034255,-0.0903,1.2135,-0.1397,1.3568,1.0451,-0.6007,0.3944,0.0925,-1.6923,
3.034863,-0.0903,1.2135,-0.1397,1.3568,1.0451,-0.6007,0.5152,-0.0491,-2.0205,
3.035441,-0.0903,1.2135,-0.1397,2.2031,2.6653,-0.2820,0.5152,-0.0491,-2.0205,
3.092548,0.0339,1.2513,-0.0828,2.2031,2.6653,-0.2820,0.5152,-0.0491,-2.0205,
3.093973,0.0295,1.2511,-0.1277,2.2031,2.6653,-0.2820,0.5152,-0.0491,-2.0205,
3.095667,0.0322,1.3319,-0.1895,2.2031,2.6653,-0.2820,0.5152,-0.0491,-2.0205,
3.096788,0.0322,1.3319,-0.1895,2.2031,2.6653,-0.2820,0.7746,0.3152,-2.4687,
3.098135,0.0322,1.3319,-0.1895,5.1555,4.1574,0.2796,0.7746,0.3152,-2.4687,
3.152884,0.2918,1.7834,-0.0750,5.1555,4.1574,0.2796,0.7746,0.3152,-2.4687,
3.154583,1.0096,2.0241,-0.0261,5.1555,4.1574,0.2796,0.7746,0.3152,-2.4687,
3.155409,1.2628,1.6059,-0.0071,5.1555,4.1574,0.2796,0.7746,0.3152,-2.4687,
3.156262,1.2628,1.6059,-0.0071,5.1555,4.1574,0.2796,0.9874,0.9139,-2.4950,
3.157109,1.2628,1.6059,-0.0071,14.0096,10.0260,1.9431,0.9874,0.9139,-2.4950,
3.208173,0.0618,1.2084,0.0291,14.0096,10.0260,1.9431,0.9874,0.9139,-2.4950,
3.210242,-0.9918,1.4257,-0.0901,14.0096,10.0260,1.9431,0.9874,0.9139,-2.4950,
3.211674,-1.3810,1.4850,-0.1321,14.0096,10.0260,1.9431,0.9874,0.9139,-2.4950,
3.213832,-1.3810,1.4850,-0.1321,14.0096,10.0260,1.9431,1.4086,1.9300,-4.2838,
3.215461,-1.3810,1.4850,-0.1321,-0.5442,7.4933,2.8899,1.4086,1.9300,-4.2838,
3.267293,-1.2631,0.9107,-0.4195,-0.5442,7.4933,2.8899,1.4086,1.9300,-4.2838,
3.270122,-0.9955,0.6248,-0.2906,-0.5442,7.4933,2.8899,1.4086,1.9300,-4.2838,
3.271513,-0.6409,0.3753,-0.4791,-0.5442,7.4933,2.8899,1.4086,1.9300,-4.2838,
3.273803,-0.6409,0.3753,-0.4791,-0.5442,7.4933,2.8899,0.9250,-0.8067,-0.9232,
3.275627,-0.6409,0.3753,-0.4791,-1.9537,0.8448,-0.4051,0.9250,-0.8067,-0.9232,
3.324635,-0.3406,0.2134,-0.1016,-1.9537,0.8448,-0.4051,0.9250,-0.8067,-0.9232,
3.326226,-0.2808,-0.0112,0.2661,-1.9537,0.8448,-0.4051,0.9250,-0.8067,-0.9232,
3.327266,-0.2281,-0.0769,0.2683,-1.9537,0.8448,-0.4051,0.9250,-0.8067,-0.9232,
3.328384,-0.2281,-0.0769,0.2683,-1.9537,0.8448,-0.4051,-0.4071,-1.2596,3.0462,
3.330177,-0.2281,-0.0769,0.2683,3.8307,-6.2185,4.1422,-0.4071,-1.2596,3.0462,
3.384945,-0.2954,0.0608,0.0361,3.8307,-6.2185,4.1422,-0.4071,-1.2596,3.0462,
3.388605,-0.2490,0.3653,-0.3694,3.8307,-6.2185,4.1422,-0.4071,-1.2596,3.0462,
3.391052,-0.2044,0.4888,0.0747,3.8307,-6.2185,4.1422,-0.4071,-1.2596,3.0462,
3.393515,-0.2044,0.4888,0.0747,3.8307,-6.2185,4.1422,0.4133,-1.1201,5.1495,
3.395863,-0.2044,0.4888,0.0747,2.0411,-5.1738,1.6678,0.4133,-1.1201,5.1495,
3.442341,-0.4319,0.5384,-0.1900,2.0411,-5.1738,1.6678,0.4133,-1.1201,5.1495,
3.445440,-0.6719,0.7901,-0.3514,2.0411,-5.1738,1.6678,0.4133,-1.1201,5.1495,
3.450028,-0.9303,0.9430,-0.2781,2.0411,-5.1738,1.6678,0.4133,-1.1201,5.1495,
3.452455,-0.9303,0.9430,-0.2781,2.0411,-5.1738,1.6678,0.8304,-1.4655,6.2889,
3.455295,-0.9303,0.9430,-0.2781,-5.0614,-1.6968,0.0036,0.8304,-1.4655,6.2889,
3.500997,-1.3615,1.1703,-0.5037,-5.0614,-1.6968,0.0036,0.8304,-1.4655,6.2889,
3.504788,-1.2509,1.0682,-0.6285,-5.0614,-1.6968,0.0036,0.8304,-1.4655,6.2889,
3.506848,-0.8353,1.0272,-0.5965,-5.0614,-1.6968,0.0036,0.8304,-1.4655,6.2889,
3.508990,-0.8353,1.0272,-0.5965,-12.0728,1.7523,-2.0385,0.8304,-1.4655,6.2889,
3.512426,-0.8353,1.0272,-0.5965,-12.0728,1.7523,-2.0385,1.7145,-6.4434,7.0621,
3.557405,-0.4236,1.1969,-0.3882,-12.0728,1.7523,-2.0385,1.7145,-6.4434,7.0621,
3.559361,-0.1135,1.2911,-0.1770,-12.0728,1.7523,-2.0385,1.7145,-6.4434,7.0621,
3.560335,-0.0159,1.3502,-0.0049,-12.0728,1.7523,-2.0385,1.7145,-6.4434,7.0621,
3.561239,-0.0159,1.3502,-0.0049,-12.0728,1.7523,-2.0385,2.1372,-9.6039,5.2566,
3.563126,-0.0159,1.3502,-0.0049,-2.6814,4.4447,3.3650,2.1372,-9.6039,5.2566,
3.615811,-0.0354,1.2079,0.3235,-2.6814,4.4447,3.3650,2.1372,-9.6039,5.2566,
3.617206,-0.1780,1.1195,0.4410,-2.6814,4.4447,3.3650,2.1372,-9.6039,5.2566,
3.618200,-0.6282,1.3165,0.3711,-2.6814,4.4447,3.3650,2.1372,-9.6039,5.2566,
3.619148,-0.6282,1.3165,0.3711,-2.6814,4.4447,3.3650,0.3052,-5.9517,1.5612,
3.619930,-0.6282,1.3165,0.3711,-2.4125,3.8915,9.0668,0.3052,-5.9517,1.5612,
3.674006,-0.2056,1.4721,1.2775,-2.4125,3.8915,9.0668,0.3052,-5.9517,1.5612,
3.675640,0.6771,1.1390,0.7618,-2.4125,3.8915,9.0668,0.3052,-5.9517,1.5612,
3.676218,0.1214,1.1202,0.3260,-2.4125,3.8915,9.0668,0.3052,-5.9517,1.5612,
3.676832,0.1214,1.1202,0.3260,-2.4125,3.8915,9.0668,-1.2851,-0.6835,-0.5436,
3.678101,0.1214,1.1202,0.3260,2.7094,3.7608,12.2485,-1.2851,-0.6835,-0.5436,
3.733840,-0.0090,1.0145,-1.3537,2.7094,3.7608,12.2485,-1.2851,-0.6835,-0.5436,
3.735915,-0.0447,1.9150,-1.4218,2.7094,3.7608,12.2485,-1.2851,-0.6835,-0.5436,
3.736721,-0.3672,1.8205,-0.1560,2.7094,3.7608,12.2485,-1.2851,-0.6835,-0.5436,
3.737312,-0.3672,1.8205,-0.1560,2.7094,3.7608,12.2485,-0.9269,0.6404,-1.2557,
3.738329,-0.3672,1.8205,-0.1560,-0.1326,6.8152,-5.3830,-0.9269,0.6404,-1.2557,
3.790903,-0.2737,0.7520,-0.4637,-0.1326,6.8152,-5.3830,-0.9269,0.6404,-1.2557,
3.792839,-0.1978,0.5540,-0.1192,-0.1326,6.8152,-5.3830,-0.9269,0.6404,-1.2557,
3.793821,-0.2659,0.8184,0.1431,-0.1326,6.8152,-5.3830,-0.9269,0.6404,-1.2557,
3.794551,-0.2659,0.8184,0.1431,-0.1326,6.8152,-5.3830,-0.8194,-1.4025,-0.3638,
3.795299,-0.2659,0.8184,0.1431,-0.6530,-1.8882,2.1726,-0.8194,-1.4025,-0.3638,
3.849102,-0.3152,1.0043,-0.0225,-0.6530,-1.8882,2.1726,-0.8194,-1.4025,-0.3638,
3.850714,-0.3406,1.0477,-0.1887,-0.6530,-1.8882,2.1726,-0.8194,-1.4025,-0.3638,
3.851575,-0.3619,1.0023,-0.3860,-0.6530,-1.8882,2.1726,-0.8194,-1.4025,-0.3638,
3.852317,-0.3619,1.0023,-0.3860,-0.6530,-1.8882,2.1726,-0.2816,-0.2303,-0.0570,
3.853089,-0.3619,1.0023,-0.3860,-1.4665,1.0790,1.4639,-0.2816,-0.2303,-0.0570,
3.908398,-0.4505,0.9623,-0.3694,-1.4665,1.0790,1.4639,-0.2816,-0.2303,-0.0570,
3.911414,-0.4358,0.9181,-0.3540,-1.4665,1.0790,1.4639,-0.2816,-0.2303,-0.0570,
3.914077,-0.2818,0.9049,-0.2114,-1.4665,1.0790,1.4639,-0.2816,-0.2303,-0.0570,
3.916289,-0.2818,0.9049,-0.2114,-1.4665,1.0790,1.4639,-0.1181,-0.7574,0.5158,
3.918788,-0.2818,0.9049,-0.2114,-2.0450,0.1206,0.2158,-0.1181,-0.7574,0.5158,
3.965804,-0.0935,0.9012,-0.1653,-2.0450,0.1206,0.2158,-0.1181,-0.7574,0.5158,
3.967515,0.0544,0.8834,-0.1839,-2.0450,0.1206,0.2158,-0.1181,-0.7574,0.5158,
3.968506,-0.0024,0.8949,-0.2049,-2.0450,0.1206,0.2158,-0.1181,-0.7574,0.5158,
3.969360,-0.0024,0.8949,-0.2049,-2.0450,0.1206,0.2158,0.0362,-0.8308,0.6887,
3.970031,-0.0024,0.8949,-0.2049,1.4060,-0.2803,1.3748,0.0362,-0.8308,0.6887,
4.024056,-0.1443,0.9154,-0.2378,1.4060,-0.2803,1.3748,0.0362,-0.8308,0.6887,
4.025636,-0.2273,0.9278,-0.2801,1.4060,-0.2803,1.3748,0.0362,-0.8308,0.6887,
4.026533,-0.1275,0.9415,-0.2688,1.4060,-0.2803,1.3748,0.0362,-0.8308,0.6887,
4.027433,-0.1275,0.9415,-0.2688,1.4060,-0.2803,1.3748,0.1490,-0.6096,0.2511,
4.029200,-0.1275,0.9415,-0.2688,-0.1058,0.0678,0.6286,0.1490,-0.6096,0.2511,
4.082225,-0.0532,0.9439,-0.2801,-0.1058,0.0678,0.6286,0.1490,-0.6096,0.2511,
4.083343,-0.0852,0.9383,-0.2676,-0.1058,0.0678,0.6286,0.1490,-0.6096,0.2511,
4.083914,-0.0984,0.9444,-0.2490,-0.1058,0.0678,0.6286,0.1490,-0.6096,0.2511,
4.084334,-0.0984,0.9444,-0.2490,-0.1058,0.0678,0.6286,0.2985,-0.6227,0.0988,
4.085663,-0.0984,0.9444,-0.2490,0.8030,0.2484,0.6849,0.2985,-0.6227,0.0988,
4.140678,-0.1218,0.9505,-0.2290,0.8030,0.2484,0.6849,0.2985,-0.6227,0.0988,
4.141820,-0.1741,0.9447,-0.3118,0.8030,0.2484,0.6849,0.2985,-0.6227,0.0988,
4.142365,-0.2395,0.9444,-0.2920,0.8030,0.2484,0.6849,0.2985,-0.6227,0.0988,
4.142909,-0.2395,0.9444,-0.2920,0.8030,0.2484,0.6849,0.5284,-0.2341,-0.1297,
4.143426,-0.2395,0.9444,-0.2920,-0.0581,0.4014,0.8062,0.5284,-0.2341,-0.1297,
4.199117,-0.2766,0.9991,-0.2517,-0.0581,0.4014,0.8062,0.5284,-0.2341,-0.1297,
4.200286,-0.2351,1.0089,-0.3150,-0.0581,0.4014,0.8062,0.5284,-0.2341,-0.1297,
4.200837,-0.1372,1.0162,-0.3606,-0.0581,0.4014,0.8062,0.5284,-0.2341,-0.1297,
4.201297,-0.1372,1.0162,-0.3606,-0.0581,0.4014,0.8062,0.8055,0.1022,0.0051,
4.201875,-0.1372,1.0162,-0.3606,-0.4468,1.1598,0.9051,0.8055,0.1022,0.0051,
4.261442,0.0122,1.0480,-0.4073,-0.4468,1.1598,0.9051,0.8055,0.1022,0.0051,
4.262737,0.1148,1.1202,-0.4349,-0.4468,1.1598,0.9051,0.8055,0.1022,0.0051,
4.263387,0.0276,1.3024,-0.3472,-0.4468,1.1598,0.9051,0.8055,0.1022,0.0051,
4.264062,0.0276,1.3024,-0.3472,-0.4468,1.1598,0.9051,1.2433,0.2407,-0.0755,
4.264715,0.0276,1.3024,-0.3472,2.1199,2.8850,0.6821,1.2433,0.2407,-0.0755,
4.315736,0.1170,1.6144,-0.1641,2.1199,2.8850,0.6821,1.2433,0.2407,-0.0755,
4.316755,0.6732,1.8029,0.0574,2.1199,2.8850,0.6821,1.2433,0.2407,-0.0755,
4.317338,0.8976,1.6789,-0.0151,2.1199,2.8850,0.6821,1.2433,0.2407,-0.0755,
4.317943,0.8976,1.6789,-0.0151,2.1199,2.8850,0.6821,2.0755,-1.5400,-0.6084,
4.318580,0.8976,1.6789,-0.0151,7.7378,8.7224,4.8920,2.0755,-1.5400,-0.6084,
4.374004,0.2881,1.5568,0.0613,7.7378,8.7224,4.8920,2.0755,-1.5400,-0.6084,
4.375408,-0.4358,1.5363,0.3641,7.7378,8.7224,4.8920,2.0755,-1.5400,-0.6084,
4.375971,-0.7366,1.4479,0.3194,7.7378,8.7224,4.8920,2.0755,-1.5400,-0.6084,
4.376512,-0.7366,1.4479,0.3194,7.7378,8.7224,4.8920,2.0293,-1.7383,-1.9710,
4.377080,-0.7366,1.4479,0.3194,0.7442,7.7822,8.1737,2.0293,-1.7383,-1.9710,
4.432272,-0.6585,1.4135,0.0840,0.7442,7.7822,8.1737,2.0293,-1.7383,-1.9710,
4.433617,-0.3826,1.0948,-0.0154,0.7442,7.7822,8.1737,2.0293,-1.7383,-1.9710,
4.434116,-0.6539,0.7623,-0.2088,0.7442,7.7822,8.1737,2.0293,-1.7383,-1.9710,
4.434597,-0.6539,0.7623,-0.2088,0.7442,7.7822,8.1737,1.5076,-2.7892,-0.8929,
4.435186,-0.6539,0.7623,-0.2088,-0.6091,4.2815,5.0807,1.5076,-2.7892,-0.8929,
4.490569,-0.9051,0.8751,-0.4087,-0.6091,4.2815,5.0807,1.5076,-2.7892,-0.8929,
4.491976,-0.5301,0.7723,-0.1653,-0.6091,4.2815,5.0807,1.5076,-2.7892,-0.8929,
4.492489,-0.1524,0.4671,0.0364,-0.6091,4.2815,5.0807,1.5076,-2.7892,-0.8929,
4.493027,-0.1524,0.4671,0.0364,-0.6091,4.2815,5.0807,0.7053,-3.4681,0.6797,
4.493589,-0.1524,0.4671,0.0364,0.5267,0.4939,2.9048,0.7053,-3.4681,0.6797,
4.548760,-0.1489,0.3680,0.2017,0.5267,0.4939,2.9048,0.7053,-3.4681,0.6797,
4.550082,-0.2791,0.4468,0.2259,0.5267,0.4939,2.9048,0.7053,-3.4681,0.6797,
4.550716,-0.3133,0.5096,0.1311,0.5267,0.4939,2.9048,0.7053,-3.4681,0.6797,
4.551297,-0.3133,0.5096,0.1311,0.5267,0.4939,2.9048,-0.3179,-2.9700,3.2682,
4.552164,-0.3133,0.5096,0.1311,2.6360,-3.1528,5.3019,-0.3179,-2.9700,3.2682,
4.607126,-0.2832,0.5533,0.0269,2.6360,-3.1528,5.3019,-0.3179,-2.9700,3.2682,
4.608637,-0.2376,0.5967,-0.0591,2.6360,-3.1528,5.3019,-0.3179,-2.9700,3.2682,
4.609218,-0.2000,0.6509,-0.0237,2.6360,-3.1528,5.3019,-0.3179,-2.9700,3.2682,
4.610003,-0.2000,0.6509,-0.0237,2.6360,-3.1528,5.3019,-0.5085,-1.5359,4.8980,
4.610741,-0.2000,0.6509,-0.0237,0.6445,-2.8117,2.6211,-0.5085,-1.5359,4.8980,
4.665565,-0.2627,0.8311,-0.0432,0.6445,-2.8117,2.6211,-0.5085,-1.5359,4.8980,
4.667039,-0.3262,1.0963,-0.1397,0.6445,-2.8117,2.6211,-0.5085,-1.5359,4.8980,
4.667943,-0.4761,1.3952,-0.1753,0.6445,-2.8117,2.6211,-0.5085,-1.5359,4.8980,
4.668691,-0.4761,1.3952,-0.1753,-3.3759,1.4608,0.9780,-0.5085,-1.5359,4.8980,
4.669441,-0.4761,1.3952,-0.1753,-3.3759,1.4608,0.9780,-1.0391,-0.8057,5.7784,
4.723834,-0.6878,1.5697,-0.1883,-3.3759,1.4608,0.9780,-1.0391,-0.8057,5.7784,
4.725340,-0.6715,1.5031,-0.0361,-3.3759,1.4608,0.9780,-1.0391,-0.8057,5.7784,
4.726228,-0.6439,1.4264,-0.0466,-3.3759,1.4608,0.9780,-1.0391,-0.8057,5.7784,
4.727112,-0.6439,1.4264,-0.0466,-3.3759,1.4608,0.9780,-1.7495,-0.9621,5.9648,
4.728170,-0.6439,1.4264,-0.0466,-9.4245,5.5503,0.3914,-1.7495,-0.9621,5.9648,
4.783841,-0.8328,1.2902,-0.1040,-9.4245,5.5503,0.3914,-1.7495,-0.9621,5.9648,
4.785832,-1.0431,1.0995,-0.2725,-9.4245,5.5503,0.3914,-1.7495,-0.9621,5.9648,
4.786946,-1.2850,0.8258,-0.4183,-9.4245,5.5503,0.3914,-1.7495,-0.9621,5.9648,
4.788312,-1.2850,0.8258,-0.4183,-9.4245,5.5503,0.3914,-1.2458,0.2397,1.9436,
4.789610,-1.2850,0.8258,-0.4183,-13.9977,1.6444,-1.9919,-1.2458,0.2397,1.9436,
4.841363,-1.4091,0.6251,-0.6612,-13.9977,1.6444,-1.9919,-1.2458,0.2397,1.9436,
4.843153,-1.2250,1.6974,-1.5470,-13.9977,1.6444,-1.9919,-1.2458,0.2397,1.9436,
4.844056,0.9444,2.4080,0.0083,-13.9977,1.6444,-1.9919,-1.2458,0.2397,1.9436,
4.844836,0.9444,2.4080,0.0083,-8.0415,6.1393,-6.4041,-1.2458,0.2397,1.9436,
4.845660,0.9444,2.4080,0.0083,-8.0415,6.1393,-6.4041,-0.4533,-1.6167,-1.8153,
4.899148,2.2407,1.5048,0.0640,-8.0415,6.1393,-6.4041,-0.4533,-1.6167,-1.8153,
4.900684,-0.0210,0.7347,-1.0895,-8.0415,6.1393,-6.4041,-0.4533,-1.6167,-1.8153,
4.901464,-0.5941,0.6402,-0.0535,-8.0415,6.1393,-6.4041,-0.4533,-1.6167,-1.8153,
4.902173,-0.5941,0.6402,-0.0535,-8.0415,6.1393,-6.4041,-0.1075,-2.5888,-2.2329,
4.902989,-0.5941,0.6402,-0.0535,4.0853,-0.1497,-2.4833,-0.1075,-2.5888,-2.2329,
4.957385,-0.6268,0.7005,0.6033,4.0853,-0.1497,-2.4833,-0.1075,-2.5888,-2.2329,
4.958942,-0.2715,1.0804,-0.0364,4.0853,-0.1497,-2.4833,-0.1075,-2.5888,-2.2329,
4.959693,-0.2725,1.2506,-0.1338,4.0853,-0.1497,-2.4833,-0.1075,-2.5888,-2.2329,
4.960258,-0.2725,1.2506,-0.1338,4.0853,-0.1497,-2.4833,-0.1947,0.5636,-1.8841,
4.960962,-0.2725,1.2506,-0.1338,-3.9569,0.2541,2.3013,-0.1947,0.5636,-1.8841,
5.015590,-0.2520,1.0890,-0.1785,-3.9569,0.2541,2.3013,-0.1947,0.5636,-1.8841,
5.017012,0.0479,1.0660,-0.1575,-3.9569,0.2541,2.3013,-0.1947,0.5636,-1.8841,
5.017541,0.1897,1.0267,-0.0410,-3.9569,0.2541,2.3013,-0.1947,0.5636,-1.8841,
5.018450,0.1897,1.0267,-0.0410,0.3845,0.7393,-0.3595,-0.1947,0.5636,-1.8841,
5.019987,0.1897,1.0267,-0.0410,0.3845,0.7393,-0.3595,-0.0263,-0.2928,-0.9875,
5.073751,0.0313,0.9967,0.1470,0.3845,0.7393,-0.3595,-0.0263,-0.2928,-0.9875,
5.075210,-0.0413,0.9417,0.0952,0.3845,0.7393,-0.3595,-0.0263,-0.2928,-0.9875,
5.075845,-0.0608,0.9500,-0.0107,0.3845,0.7393,-0.3595,-0.0263,-0.2928,-0.9875,
5.076425,-0.0608,0.9500,-0.0107,0.3845,0.7393,-0.3595,0.1378,-0.1875,-1.1425,
5.077836,-0.0608,0.9500,-0.0107,0.8375,-0.1582,1.6693,0.1378,-0.1875,-1.1425,
5.132441,-0.1145,1.0108,-0.0881,0.8375,-0.1582,1.6693,0.1378,-0.1875,-1.1425,
5.133403,-0.1660,1.0394,-0.0962,0.8375,-0.1582,1.6693,0.1378,-0.1875,-1.1425,
5.133998,-0.1509,1.0184,-0.0947,0.8375,-0.1582,1.6693,0.1378,-0.1875,-1.1425,
5.134541,-0.1509,1.0184,-0.0947,0.8375,-0.1582,1.6693,0.2175,-0.0287,-1.2453,
5.135074,-0.1509,1.0184,-0.0947,0.3480,0.5366,0.1186,0.2175,-0.0287,-1.2453,
5.190297,-0.1062,1.0260,-0.0720,0.3480,0.5366,0.1186,0.2175,-0.0287,-1.2453,
5.191505,-0.1533,1.0289,-0.0608,0.3480,0.5366,0.1186,0.2175,-0.0287,-1.2453,
5.192080,-0.2503,0.9979,-0.0776,0.3480,0.5366,0.1186,0.2175,-0.0287,-1.2453,
5.196987,-0.2503,0.9979,-0.0776,0.3480,0.5366,0.1186,0.2879,0.0713,-1.3172,
5.197973,-0.2503,0.9979,-0.0776,0.7964,0.6552,0.5013,0.2879,0.0713,-1.3172,
5.249049,-0.2547,0.9676,-0.0996,0.7964,0.6552,0.5013,0.2879,0.0713,-1.3172,
5.249974,-0.1978,0.9625,-0.1367,0.7964,0.6552,0.5013,0.2879,0.0713,-1.3172,
5.250566,-0.1299,0.9439,-0.1631,0.7964,0.6552,0.5013,0.2879,0.0713,-1.3172,
5.250954,-0.1299,0.9439,-0.1631,0.7964,0.6552,0.5013,0.2791,0.2873,-1.3754,
5.251515,-0.1299,0.9439,-0.1631,1.2547,0.3135,0.0805,0.2791,0.2873,-1.3754,
5.307167,-0.0967,1.0040,-0.1570,1.2547,0.3135,0.0805,0.2791,0.2873,-1.3754,
5.308468,-0.0889,1.2081,-0.1580,1.2547,0.3135,0.0805,0.2791,0.2873,-1.3754,
5.309053,-0.0420,1.3573,-0.1553,1.2547,0.3135,0.0805,0.2791,0.2873,-1.3754,
5.309564,-0.0420,1.3573,-0.1553,1.2547,0.3135,0.0805,0.4139,0.0265,-1.7770,
5.310108,-0.0420,1.3573,-0.1553,3.2762,2.9463,0.0667,0.4139,0.0265,-1.7770,
5.366111,0.1177,1.3324,-0.1331,3.2762,2.9463,0.0667,0.4139,0.0265,-1.7770,
5.367334,0.1948,1.3707,-0.1135,3.2762,2.9463,0.0667,0.4139,0.0265,-1.7770,
5.368039,0.3201,1.7490,-0.1094,3.2762,2.9463,0.0667,0.4139,0.0265,-1.7770,
5.369741,0.3201,1.7490,-0.1094,3.2762,2.9463,0.0667,0.8644,-0.0356,-2.3309,
5.370562,0.3201,1.7490,-0.1094,7.1076,6.4369,0.8371,0.8644,-0.0356,-2.3309,
5.423918,0.8324,2.0730,-0.0449,7.1076,6.4369,0.8371,0.8644,-0.0356,-2.3309,
5.425230,1.1727,1.6252,0.0596,7.1076,6.4369,0.8371,0.8644,-0.0356,-2.3309,
5.425793,0.2156,1.0436,0.0422,7.1076,6.4369,0.8371,0.8644,-0.0356,-2.3309,
5.426322,0.2156,1.0436,0.0422,7.1076,6.4369,0.8371,0.7361,1.2102,-2.6239,
5.426954,0.2156,1.0436,0.0422,13.0743,8.1961,2.8650,0.7361,1.2102,-2.6239,
5.482153,-0.7652,1.1444,-0.2657,13.0743,8.1961,2.8650,0.7361,1.2102,-2.6239,
5.483445,-1.0716,1.4040,-0.3553,13.0743,8.1961,2.8650,0.7361,1.2102,-2.6239,
5.484129,-0.8346,1.0919,-0.3970,13.0743,8.1961,2.8650,0.7361,1.2102,-2.6239,
5.484670,-0.8346,1.0919,-0.3970,13.0743,8.1961,2.8650,1.0623,2.5174,-3.8939,
5.485244,-0.8346,1.0919,-0.3970,-1.8920,6.1468,0.6824,1.0623,2.5174,-3.8939,
5.541002,-0.7254,0.7113,-0.3601,-1.8920,6.1468,0.6824,1.0623,2.5174,-3.8939,
5.542221,-0.6424,0.5377,-0.4236,-1.8920,6.1468,0.6824,1.0623,2.5174,-3.8939,
5.542721,-0.4446,0.3897,-0.4615,-1.8920,6.1468,0.6824,1.0623,2.5174,-3.8939,
5.543309,-0.4446,0.3897,-0.4615,-1.8920,6.1468,0.6824,-0.4348,0.8699,-0.8265,
5.544136,-0.4446,0.3897,-0.4615,0.9545,-0.1649,0.1500,-0.4348,0.8699,-0.8265,
5.599446,-0.2407,0.2659,-0.1778,0.9545,-0.1649,0.1500,-0.4348,0.8699,-0.8265,
5.601152,-0.1563,0.1743,-0.0899,0.9545,-0.1649,0.1500,-0.4348,0.8699,-0.8265,
5.601742,-0.1702,0.2315,-0.1641,0.9545,-0.1649,0.1500,-0.4348,0.8699,-0.8265,
5.602368,-0.1702,0.2315,-0.1641,0.9545,-0.1649,0.1500,-1.9350,0.2499,2.4152,
5.603055,-0.1702,0.2315,-0.1641,4.0167,-4.5941,2.1726,-1.9350,0.2499,2.4152,
5.657438,-0.2586,0.3579,-0.3836,4.0167,-4.5941,2.1726,-1.9350,0.2499,2.4152,
5.658833,-0.2254,0.4610,-0.4676,4.0167,-4.5941,2.1726,-1.9350,0.2499,2.4152,
5.659616,-0.1870,0.5254,-0.2923,4.0167,-4.5941,2.1726,-1.9350,0.2499,2.4152,
5.660325,-0.1870,0.5254,-0.2923,1.7254,-3.9799,-1.1512,-1.9350,0.2499,2.4152,
5.660991,-0.1870,0.5254,-0.2923,1.7254,-3.9799,-1.1512,-2.1833,-0.1737,4.3614,
5.715528,-0.1712,0.5716,-0.1873,1.7254,-3.9799,-1.1512,-2.1833,-0.1737,4.3614,
5.717185,-0.1289,0.7208,-0.1257,1.7254,-3.9799,-1.1512,-2.1833,-0.1737,4.3614,
5.718326,-0.1323,1.0445,-0.2923,1.7254,-3.9799,-1.1512,-2.1833,-0.1737,4.3614,
5.719719,-0.1323,1.0445,-0.2923,1.7254,-3.9799,-1.1512,-2.2600,0.8601,6.0108,
5.720539,-0.1323,1.0445,-0.2923,-0.7444,-1.7918,-0.4683,-2.2600,0.8601,6.0108,
5.774353,-0.2571,1.6120,-0.5101,-0.7444,-1.7918,-0.4683,-2.2600,0.8601,6.0108,
5.775168,-0.5391,2.0888,-0.6026,-0.7444,-1.7918,-0.4683,-2.2600,0.8601,6.0108,
5.775632,-0.9715,1.9585,-0.4244,-0.7444,-1.7918,-0.4683,-2.2600,0.8601,6.0108,
5.776088,-0.9715,1.9585,-0.4244,-0.7444,-1.7918,-0.4683,-2.1753,0.9691,6.1796,
5.776530,-0.9715,1.9585,-0.4244,-8.4054,9.1767,-4.6883,-2.1753,0.9691,6.1796,
5.832640,-1.2277,1.4027,0.0381,-8.4054,9.1767,-4.6883,-2.1753,0.9691,6.1796,
5.834133,-0.9005,1.0282,-0.2105,-8.4054,9.1767,-4.6883,-2.1753,0.9691,6.1796,
5.834862,-0.8031,0.8619,-0.3658,-8.4054,9.1767,-4.6883,-2.1753,0.9691,6.1796,
5.835586,-0.8031,0.8619,-0.3658,-8.4054,9.1767,-4.6883,-1.7359,-0.2570,3.4014,
5.836252,-0.8031,0.8619,-0.3658,-13.7642,2.1242,-2.2292,-1.7359,-0.2570,3.4014,
5.890418,-1.0748,0.6802,-0.2818,-13.7642,2.1242,-2.2292,-1.7359,-0.2570,3.4014,
5.891963,-1.0453,0.7271,-0.5394,-13.7642,2.1242,-2.2292,-1.7359,-0.2570,3.4014,
5.892782,-0.4969,1.3346,-0.8751,-13.7642,2.1242,-2.2292,-1.7359,-0.2570,3.4014,
5.894562,-0.4969,1.3346,-0.8751,-11.6756,-0.0541,-5.5637,-1.7359,-0.2570,3.4014,
5.895881,-0.4969,1.3346,-0.8751,-11.6756,-0.0541,-5.5637,-0.2957,-2.1975,-1.7678,
5.949129,1.4721,1.8127,0.4268,-11.6756,-0.0541,-5.5637,-0.2957,-2.1975,-1.7678,
5.950593,2.5838,1.9807,-0.1834,-11.6756,-0.0541,-5.5637,-0.2957,-2.1975,-1.7678,
5.951379,0.0125,1.8137,-1.2692,-11.6756,-0.0541,-5.5637,-0.2957,-2.1975,-1.7678,
5.952253,0.0125,1.8137,-1.2692,-11.6756,-0.0541,-5.5637,-0.7536,-2.8267,-0.8894,
5.953037,0.0125,1.8137,-1.2692,10.4621,9.0010,-3.2501,-0.7536,-2.8267,-0.8894,
6.007102,-0.6583,0.7972,-0.1433,10.4621,9.0010,-3.2501,-0.7536,-2.8267,-0.8894,
6.009044,-0.2845,0.4129,0.3936,10.4621,9.0010,-3.2501,-0.7536,-2.8267,-0.8894,
6.009827,-0.6641,0.8724,0.2974,10.4621,9.0010,-3.2501,-0.7536,-2.8267,-0.8894,
6.010546,-0.6641,0.8724,0.2974,-6.1618,-2.8311,1.8347,-0.7536,-2.8267,-0.8894,
6.011345,-0.6641,0.8724,0.2974,-6.1618,-2.8311,1.8347,0.1285,1.1053,-3.2651,
6.065937,-0.5484,1.1117,0.1516,-6.1618,-2.8311,1.8347,0.1285,1.1053,-3.2651,
6.067277,-0.2217,1.1100,-0.1035,-6.1618,-2.8311,1.8347,0.1285,1.1053,-3.2651,
6.067915,0.1897,1.0953,-0.1233,-6.1618,-2.8311,1.8347,0.1285,1.1053,-3.2651,
6.068428,0.1897,1.0953,-0.1233,-6.1618,-2.8311,1.8347,0.1242,-0.3549,-1.0623,
6.069001,0.1897,1.0953,-0.1233,-2.1711,1.1448,-0.1217,0.1242,-0.3549,-1.0623,
6.124178,0.3125,1.0343,-0.0847,-2.1711,1.1448,-0.1217,0.1242,-0.3549,-1.0623,
6.125381,0.0347,1.0582,0.0596,-2.1711,1.1448,-0.1217,0.1242,-0.3549,-1.0623,
6.125899,-0.1177,1.0206,0.0584,-2.1711,1.1448,-0.1217,0.1242,-0.3549,-1.0623,
6.126436,-0.1177,1.0206,0.0584,-2.1711,1.1448,-0.1217,0.1281,0.0965,-0.9195,
6.126948,-0.1177,1.0206,0.0584,0.9770,0.4712,0.3009,0.1281,0.0965,-0.9195,
6.182367,0.0369,0.9654,0.0598,0.9770,0.4712,0.3009,0.1281,0.0965,-0.9195,
6.183540,0.1045,0.9510,0.0774,0.9770,0.4712,0.3009,0.1281,0.0965,-0.9195,
6.184021,0.0454,0.9493,0.0637,0.9770,0.4712,0.3009,0.1281,0.0965,-0.9195,
6.184655,0.0454,0.9493,0.0637,0.9770,0.4712,0.3009,0.2280,0.0660,-1.0028,
6.185238,0.0454,0.9493,0.0637,1.3795,-0.2985,0.9632,0.2280,0.0660,-1.0028,
6.240750,-0.0225,0.9544,0.0269,1.3795,-0.2985,0.9632,0.2280,0.0660,-1.0028,
6.241865,-0.0982,0.9884,-0.0032,1.3795,-0.2985,0.9632,0.2280,0.0660,-1.0028,
6.242442,-0.1821,1.0292,-0.0146,1.3795,-0.2985,0.9632,0.2280,0.0660,-1.0028,
6.242921,-0.1821,1.0292,-0.0146,1.3795,-0.2985,0.9632,0.2714,0.2621,-1.2769,
6.243564,-0.1821,1.0292,-0.0146,0.4823,0.1362,0.4978,0.2714,0.2621,-1.2769,
6.299025,-0.2136,0.9999,0.0049,0.4823,0.1362,0.4978,0.2714,0.2621,-1.2769,
6.300272,-0.2024,0.9076,0.0283,0.4823,0.1362,0.4978,0.2714,0.2621,-1.2769,
6.300760,-0.1304,0.8809,-0.0137,0.4823,0.1362,0.4978,0.2714,0.2621,-1.2769,
6.301347,-0.1304,0.8809,-0.0137,0.4823,0.1362,0.4978,0.2679,-0.0008,-1.2417,
6.302102,-0.1304,0.8809,-0.0137,0.3687,-0.3183,0.6684,0.2679,-0.0008,-1.2417,
6.357268,0.0723,0.9620,-0.0315,0.3687,-0.3183,0.6684,0.2679,-0.0008,-1.2417,
6.358419,0.0903,1.1056,-0.0581,0.3687,-0.3183,0.6684,0.2679,-0.0008,-1.2417,
6.359037,-0.0464,1.1779,-0.1040,0.3687,-0.3183,0.6684,0.2679,-0.0008,-1.2417,
6.359568,-0.0464,1.1779,-0.1040,0.3687,-0.3183,0.6684,0.2818,-0.0132,-1.6412,
6.360156,-0.0464,1.1779,-0.1040,3.3683,1.4114,0.1211,0.2818,-0.0132,-1.6412,
6.415457,-0.1331,1.1847,-0.1126,3.3683,1.4114,0.1211,0.2818,-0.0132,-1.6412,
6.416955,-0.1133,1.2316,-0.1165,3.3683,1.4114,0.1211,0.2818,-0.0132,-1.6412,
6.417764,0.0325,1.3607,-0.1279,3.3683,1.4114,0.1211,0.2818,-0.0132,-1.6412,
6.418266,0.0325,1.3607,-0.1279,3.3683,1.4114,0.1211,0.5838,-0.0454,-2.2877,
6.420263,0.0325,1.3607,-0.1279,3.4283,3.5969,-0.1158,0.5838,-0.0454,-2.2877,
6.474576,0.2569,1.6056,-0.0776,3.4283,3.5969,-0.1158,0.5838,-0.0454,-2.2877,
6.475706,0.6019,1.7219,-0.2657,3.4283,3.5969,-0.1158,0.5838,-0.0454,-2.2877,
6.476204,0.7283,1.6784,-0.4336,3.4283,3.5969,-0.1158,0.5838,-0.0454,-2.2877,
6.478051,0.7283,1.6784,-0.4336,10.4379,8.3318,-0.8009,0.5838,-0.0454,-2.2877,
6.478978,0.7283,1.6784,-0.4336,10.4379,8.3318,-0.8009,0.9603,0.7270,-2.8053,
6.532183,0.6302,1.3793,-0.2937,10.4379,8.3318,-0.8009,0.9603,0.7270,-2.8053,
6.533321,-0.2332,0.9117,-0.2061,10.4379,8.3318,-0.8009,0.9603,0.7270,-2.8053,
6.533751,-1.2369,0.9962,-0.3433,10.4379,8.3318,-0.8009,0.9603,0.7270,-2.8053,
6.534396,-1.2369,0.9962,-0.3433,10.4379,8.3318,-0.8009,1.1313,2.2171,-3.7796,
6.535589,-1.2369,0.9962,-0.3433,3.7509,4.1143,0.2385,1.1313,2.2171,-3.7796,
6.590403,-1.6923,1.0878,-0.3660,3.7509,4.1143,0.2385,1.1313,2.2171,-3.7796,
6.591635,-1.2516,0.7491,-0.2671,3.7509,4.1143,0.2385,1.1313,2.2171,-3.7796,
6.592371,-0.8380,0.4148,-0.1301,3.7509,4.1143,0.2385,1.1313,2.2171,-3.7796,
6.593722,-0.8380,0.4148,-0.1301,-5.0349,1.7969,0.9720,1.1313,2.2171,-3.7796,
6.594623,-0.8380,0.4148,-0.1301,-5.0349,1.7969,0.9720,1.0004,0.3560,-2.2602,
6.648800,-0.4434,0.2324,-0.2044,-5.0349,1.7969,0.9720,1.0004,0.3560,-2.2602,
6.649990,-0.0178,0.0132,0.0044,-5.0349,1.7969,0.9720,1.0004,0.3560,-2.2602,
6.650612,0.2561,-0.2830,0.0649,-5.0349,1.7969,0.9720,1.0004,0.3560,-2.2602,
6.651792,0.2561,-0.2830,0.0649,-5.0349,1.7969,0.9720,-0.1810,-0.8778,1.8229,
6.653367,0.2561,-0.2830,0.0649,6.0813,-6.3618,2.5494,-0.1810,-0.8778,1.8229,
6.707014,-0.0264,-0.1431,-0.1226,6.0813,-6.3618,2.5494,-0.1810,-0.8778,1.8229,
6.708546,-0.4644,0.1616,-0.2957,6.0813,-6.3618,2.5494,-0.1810,-0.8778,1.8229,
6.709221,-0.7535,0.3623,-0.3570,6.0813,-6.3618,2.5494,-0.1810,-0.8778,1.8229,
6.709923,-0.7535,0.3623,-0.3570,6.0813,-6.3618,2.5494,0.7900,-0.9539,3.4406,
6.711512,-0.7535,0.3623,-0.3570,1.4569,-5.9973,0.4227,0.7900,-0.9539,3.4406,
6.765527,-0.6778,0.3257,-0.0806,1.4569,-5.9973,0.4227,0.7900,-0.9539,3.4406,
6.766818,-0.5201,0.2622,-0.0239,1.4569,-5.9973,0.4227,0.7900,-0.9539,3.4406,
6.767383,-0.5001,0.4686,-0.3274,1.4569,-5.9973,0.4227,0.7900,-0.9539,3.4406,
6.768099,-0.5001,0.4686,-0.3274,1.4569,-5.9973,0.4227,1.0898,-3.0751,5.9249,
6.769615,-0.5001,0.4686,-0.3274,-2.2428,-5.0552,1.2445,1.0898,-3.0751,5.9249,
6.823571,-0.6114,0.9102,-0.4124,-2.2428,-5.0552,1.2445,1.0898,-3.0751,5.9249,
6.824791,-0.8121,1.4398,-0.5718,-2.2428,-5.0552,1.2445,1.0898,-3.0751,5.9249,
6.825385,-0.8136,1.6948,-0.4930,-2.2428,-5.0552,1.2445,1.0898,-3.0751,5.9249,
6.826596,-0.8136,1.6948,-0.4930,-6.3339,4.1769,-1.7693,1.0898,-3.0751,5.9249,
6.827339,-0.8136,1.6948,-0.4930,-6.3339,4.1769,-1.7693,2.1551,-6.4326,6.7471,
6.882135,-0.5496,1.5727,-0.3086,-6.3339,4.1769,-1.7693,2.1551,-6.4326,6.7471,
6.883786,-0.2984,1.4315,0.0088,-6.3339,4.1769,-1.7693,2.1551,-6.4326,6.7471,
6.884308,0.1585,1.1324,0.2876,-6.3339,4.1769,-1.7693,2.1551,-6.4326,6.7471,
6.884910,0.1585,1.1324,0.2876,-6.3339,4.1769,-1.7693,1.2800,-9.6303,4.9177,
6.885572,0.1585,1.1324,0.2876,-1.9757,4.5107,3.3847,1.2800,-9.6303,4.9177,
6.940609,0.0032,0.8526,0.3897,-1.9757,4.5107,3.3847,1.2800,-9.6303,4.9177,
6.941588,-0.6983,1.4406,0.8443,-1.9757,4.5107,3.3847,1.2800,-9.6303,4.9177,
6.942297,0.4292,1.0353,1.7099,-1.9757,4.5107,3.3847,1.2800,-9.6303,4.9177,
6.942827,0.4292,1.0353,1.7099,-1.9757,4.5107,3.3847,-0.4042,-3.5593,0.5616,
6.943632,0.4292,1.0353,1.7099,-0.1777,1.7597,12.5449,-0.4042,-3.5593,0.5616,
6.999307,0.9354,1.1075,0.2676,-0.1777,1.7597,12.5449,-0.4042,-3.5593,0.5616,
7.000671,0.3348,1.5285,-0.9605,-0.1777,1.7597,12.5449,-0.4042,-3.5593,0.5616,
7.001414,-0.3391,1.5487,-1.1515,-0.1777,1.7597,12.5449,-0.4042,-3.5593,0.5616,
7.001985,-0.3391,1.5487,-1.1515,-0.1777,1.7597,12.5449,-0.4350,1.3160,-0.8027,
7.002600,-0.3391,1.5487,-1.1515,3.8813,4.4489,-3.2077,-0.4350,1.3160,-0.8027,
7.057204,-0.7933,1.1498,-0.4256,3.8813,4.4489,-3.2077,-0.4350,1.3160,-0.8027,
7.058927,-0.4915,0.9772,-0.2425,3.8813,4.4489,-3.2077,-0.4350,1.3160,-0.8027,
7.059661,-0.1587,0.8800,0.0288,3.8813,4.4489,-3.2077,-0.4350,1.3160,-0.8027,
7.060369,-0.1587,0.8800,0.0288,3.8813,4.4489,-3.2077,-0.5537,-0.6770,-0.3673,
7.061998,-0.1587,0.8800,0.0288,-3.5159,0.5270,0.3822,-0.5537,-0.6770,-0.3673,
7.115790,-0.0483,0.8651,0.1211,-3.5159,0.5270,0.3822,-0.5537,-0.6770,-0.3673,
7.117167,-0.1397,0.9215,0.0105,-3.5159,0.5270,0.3822,-0.5537,-0.6770,-0.3673,
7.118018,-0.2478,0.9986,-0.2725,-3.5159,0.5270,0.3822,-0.5537,-0.6770,-0.3673,
7.118770,-0.2478,0.9986,-0.2725,-3.5159,0.5270,0.3822,-0.1228,-0.4604,0.2328,
7.119517,-0.2478,0.9986,-0.2725,-0.2814,-0.2269,1.8794,-0.1228,-0.4604,0.2328,
7.174112,-0.1988,1.0245,-0.3760,-0.2814,-0.2269,1.8794,-0.1228,-0.4604,0.2328,
7.175587,-0.1988,1.0006,-0.3091,-0.2814,-0.2269,1.8794,-0.1228,-0.4604,0.2328,
7.176341,-0.2456,0.9554,-0.2364,-0.2814,-0.2269,1.8794,-0.1228,-0.4604,0.2328,
7.176982,-0.2456,0.9554,-0.2364,-0.2814,-0.2269,1.8794,0.0144,-0.1541,0.4541,
7.177479,-0.2456,0.9554,-0.2364,-1.1653,0.3793,-0.6612,0.0144,-0.1541,0.4541,
7.232080,-0.1724,0.9288,-0.2073,-1.1653,0.3793,-0.6612,0.0144,-0.1541,0.4541,
7.233536,0.0564,0.8956,-0.2425,-1.1653,0.3793,-0.6612,0.0144,-0.1541,0.4541,
7.234022,0.1494,0.8827,-0.2410,-1.1653,0.3793,-0.6612,0.0144,-0.1541,0.4541,
7.234585,0.1494,0.8827,-0.2410,-1.1653,0.3793,-0.6612,0.0094,-0.5915,0.7052,
7.235185,0.1494,0.8827,-0.2410,0.7276,-0.5357,0.0699,0.0094,-0.5915,0.7052,
7.290793,0.0398,0.9872,-0.2119,0.7276,-0.5357,0.0699,0.0094,-0.5915,0.7052,
7.292122,-0.0964,1.0121,-0.2281,0.7276,-0.5357,0.0699,0.0094,-0.5915,0.7052,
7.292671,-0.0327,0.9781,-0.2124,0.7276,-0.5357,0.0699,0.0094,-0.5915,0.7052,
7.293134,-0.0327,0.9781,-0.2124,0.7276,-0.5357,0.0699,0.0436,-0.3050,0.2863,
7.293701,-0.0327,0.9781,-0.2124,0.2076,0.3381,0.2056,0.0436,-0.3050,0.2863,
7.349300,0.0823,0.9569,-0.1626,0.2076,0.3381,0.2056,0.0436,-0.3050,0.2863,
7.350677,0.0740,0.9920,-0.1043,0.2076,0.3381,0.2056,0.0436,-0.3050,0.2863,
7.351265,0.0295,0.9886,-0.0991,0.2076,0.3381,0.2056,0.0436,-0.3050,0.2863,
7.351760,0.0295,0.9886,-0.0991,0.2076,0.3381,0.2056,0.2791,-0.4826,0.1132,
7.352277,0.0295,0.9886,-0.0991,1.0936,0.2399,1.2586,0.2791,-0.4826,0.1132,
7.407511,0.0762,0.9505,-0.1355,1.0936,0.2399,1.2586,0.2791,-0.4826,0.1132,
7.409190,-0.0095,0.9759,-0.1487,1.0936,0.2399,1.2586,0.2791,-0.4826,0.1132,
7.409863,-0.0796,1.0585,-0.1577,1.0936,0.2399,1.2586,0.2791,-0.4826,0.1132,
7.410345,-0.0796,1.0585,-0.1577,1.0936,0.2399,1.2586,0.6956,0.0112,-0.2011,
7.410816,-0.0796,1.0585,-0.1577,0.5416,0.4998,1.3653,0.6956,0.0112,-0.2011,
7.465850,0.0142,1.0541,-0.2283,0.5416,0.4998,1.3653,0.6956,0.0112,-0.2011,
7.467168,0.0711,1.0382,-0.2666,0.5416,0.4998,1.3653,0.6956,0.0112,-0.2011,
7.467947,0.0696,1.0262,-0.2644,0.5416,0.4998,1.3653,0.6956,0.0112,-0.2011,
7.468732,0.0696,1.0262,-0.2644,0.5416,0.4998,1.3653,1.2028,0.0130,-0.2258,
7.469276,0.0696,1.0262,-0.2644,1.1875,1.1449,0.9542,1.2028,0.0130,-0.2258,
7.523615,0.0571,1.1229,-0.2923,1.1875,1.1449,0.9542,1.2028,0.0130,-0.2258,
7.524648,0.1890,1.3544,-0.2617,1.1875,1.1449,0.9542,1.2028,0.0130,-0.2258,
7.525275,0.3916,1.5832,-0.1404,1.1875,1.1449,0.9542,1.2028,0.0130,-0.2258,
7.525851,0.3916,1.5832,-0.1404,1.1875,1.1449,0.9542,2.0018,-1.0230,-0.3535,
7.526944,0.3916,1.5832,-0.1404,3.1316,4.6211,2.1066,2.0018,-1.0230,-0.3535,
7.582401,0.5518,1.6740,-0.0906,3.1316,4.6211,2.1066,2.0018,-1.0230,-0.3535,
7.583939,0.4852,1.5089,0.1653,3.1316,4.6211,2.1066,2.0018,-1.0230,-0.3535,
7.584619,0.0535,1.4611,0.3582,3.1316,4.6211,2.1066,2.0018,-1.0230,-0.3535,
7.585838,0.0535,1.4611,0.3582,3.1316,4.6211,2.1066,2.5960,-1.8356,-0.7912,
7.586730,0.0535,1.4611,0.3582,5.4292,7.2223,6.7641,2.5960,-1.8356,-0.7912,
7.640358,-0.6216,1.4823,0.3421,5.4292,7.2223,6.7641,2.5960,-1.8356,-0.7912,
7.642395,-1.1061,1.4564,0.0586,5.4292,7.2223,6.7641,2.5960,-1.8356,-0.7912,
7.643192,-1.2443,1.2492,-0.0816,5.4292,7.2223,6.7641,2.5960,-1.8356,-0.7912,
7.643880,-1.2443,1.2492,-0.0816,5.4292,7.2223,6.7641,2.3901,-3.0234,-1.6269,
7.644534,-1.2443,1.2492,-0.0816,-6.0302,6.6711,6.8371,2.3901,-3.0234,-1.6269,
7.699006,-0.9772,0.9972,-0.3318,-6.0302,6.6711,6.8371,2.3901,-3.0234,-1.6269,
7.700323,-0.5257,0.9779,-0.4849,-6.0302,6.6711,6.8371,2.3901,-3.0234,-1.6269,
7.700928,-0.0303,0.7723,-0.2600,-6.0302,6.6711,6.8371,2.3901,-3.0234,-1.6269,
7.701412,-0.0303,0.7723,-0.2600,-6.0302,6.6711,6.8371,1.5705,-4.3809,0.0695,
7.701978,-0.0303,0.7723,-0.2600,0.0791,2.4121,1.7270,1.5705,-4.3809,0.0695,
7.757888,0.1043,0.4954,0.0530,0.0791,2.4121,1.7270,1.5705,-4.3809,0.0695,
7.758938,-0.1797,0.4107,0.1651,0.0791,2.4121,1.7270,1.5705,-4.3809,0.0695,
7.759437,-0.4168,0.4241,0.1008,0.0791,2.4121,1.7270,1.5705,-4.3809,0.0695,
7.759933,-0.4168,0.4241,0.1008,0.0791,2.4121,1.7270,0.1242,-4.1117,1.8503,
7.760437,-0.4168,0.4241,0.1008,3.8035,-2.7125,4.9578,0.1242,-4.1117,1.8503,
7.815847,-0.3670,0.4556,0.0203,3.8035,-2.7125,4.9578,0.1242,-4.1117,1.8503,
7.817060,-0.1709,0.4371,0.0320,3.8035,-2.7125,4.9578,0.1242,-4.1117,1.8503,
7.817634,-0.0762,0.4571,0.0899,3.8035,-2.7125,4.9578,0.1242,-4.1117,1.8503,
7.818341,-0.0762,0.4571,0.0899,3.8035,-2.7125,4.9578,-0.4009,-2.7965,4.0798,
7.819509,-0.0762,0.4571,0.0899,2.0977,-3.8179,3.3312,-0.4009,-2.7965,4.0798,
7.874127,-0.1485,0.6050,0.0669,2.0977,-3.8179,3.3312,-0.4009,-2.7965,4.0798,
7.875478,-0.2591,0.7972,0.0393,2.0977,-3.8179,3.3312,-0.4009,-2.7965,4.0798,
7.876022,-0.2925,1.0353,0.0205,2.0977,-3.8179,3.3312,-0.4009,-2.7965,4.0798,
7.877195,-0.2925,1.0353,0.0205,-0.7847,-1.2405,2.7012,-0.4009,-2.7965,4.0798,
7.878299,-0.2925,1.0353,0.0205,-0.7847,-1.2405,2.7012,-0.6115,-1.1775,5.4506,
7.932258,-0.2915,1.2931,-0.0186,-0.7847,-1.2405,2.7012,-0.6115,-1.1775,5.4506,
7.933807,-0.4026,1.5443,-0.0996,-0.7847,-1.2405,2.7012,-0.6115,-1.1775,5.4506,
7.934511,-0.6116,1.6755,-0.1069,-0.7847,-1.2405,2.7012,-0.6115,-1.1775,5.4506,
7.935211,-0.6116,1.6755,-0.1069,-0.7847,-1.2405,2.7012,-1.3777,-0.8403,6.2115,
7.936692,-0.6116,1.6755,-0.1069,-5.9547,5.3446,0.7862,-1.3777,-0.8403,6.2115,
7.990162,-0.7108,1.6948,-0.0962,-5.9547,5.3446,0.7862,-1.3777,-0.8403,6.2115,
7.991867,-0.6990,1.5461,-0.0801,-5.9547,5.3446,0.7862,-1.3777,-0.8403,6.2115,
7.992686,-0.7210,1.2101,-0.1455,-5.9547,5.3446,0.7862,-1.3777,-0.8403,6.2115,
7.993405,-0.7210,1.2101,-0.1455,-11.0160,5.7694,-0.5171,-1.3777,-0.8403,6.2115,
7.994272,-0.7210,1.2101,-0.1455,-11.0160,5.7694,-0.5171,-1.9800,-0.3207,4.8528,
8.048795,-0.8499,0.9481,-0.2346,-11.0160,5.7694,-0.5171,-1.9800,-0.3207,4.8528,
8.050398,-1.1293,0.7899,-0.3094,-11.0160,5.7694,-0.5171,-1.9800,-0.3207,4.8528,
8.051224,-1.3297,0.7003,-0.4793,-11.0160,5.7694,-0.5171,-1.9800,-0.3207,4.8528,
8.051905,-1.3297,0.7003,-0.4793,-11.0160,5.7694,-0.5171,-0.7966,-0.0100,0.2405,
8.053808,-1.3297,0.7003,-0.4793,-14.7364,-0.7506,-3.1556,-0.7966,-0.0100,0.2405,
8.106969,-1.2289,1.1766,-1.0934,-14.7364,-0.7506,-3.1556,-0.7966,-0.0100,0.2405,
8.108687,0.3899,1.7963,-0.5999,-14.7364,-0.7506,-3.1556,-0.7966,-0.0100,0.2405,
8.109496,2.5051,1.7277,-0.0256,-14.7364,-0.7506,-3.1556,-0.7966,-0.0100,0.2405,
8.110287,2.5051,1.7277,-0.0256,-14.7364,-0.7506,-3.1556,-0.6477,-3.3225,-0.7613,
8.112311,2.5051,1.7277,-0.0256,1.9428,6.3559,-4.9558,-0.6477,-3.3225,-0.7613,
8.165668,1.3786,1.5302,-0.5716,1.9428,6.3559,-4.9558,-0.6477,-3.3225,-0.7613,
8.167338,-0.6842,1.1393,-0.7638,1.9428,6.3559,-4.9558,-0.6477,-3.3225,-0.7613,
8.168609,-0.3614,0.4568,0.5347,1.9428,6.3559,-4.9558,-0.6477,-3.3225,-0.7613,
8.169220,-0.3614,0.4568,0.5347,1.9428,6.3559,-4.9558,-0.2737,-0.9279,-2.5644,
8.170094,-0.3614,0.4568,0.5347,-0.9772,0.7721,-1.8983,-0.2737,-0.9279,-2.5644,
8.224042,-0.1443,0.7117,0.4165,-0.9772,0.7721,-1.8983,-0.2737,-0.9279,-2.5644,
8.225606,-0.0300,1.1105,0.0940,-0.9772,0.7721,-1.8983,-0.2737,-0.9279,-2.5644,
8.226147,-0.1028,1.1310,-0.0117,-0.9772,0.7721,-1.8983,-0.2737,-0.9279,-2.5644,
8.226829,-0.1028,1.1310,-0.0117,-0.9772,0.7721,-1.8983,0.0161,-0.0529,-1.7444,
8.228379,-0.1028,1.1310,-0.0117,-1.9655,0.0460,2.3252,0.0161,-0.0529,-1.7444,
8.283006,0.0151,1.0392,-0.1655,-1.9655,0.0460,2.3252,0.0161,-0.0529,-1.7444,
8.284280,0.1575,1.0272,-0.1233,-1.9655,0.0460,2.3252,0.0161,-0.0529,-1.7444,
8.284778,0.1587,1.0086,-0.0295,-1.9655,0.0460,2.3252,0.0161,-0.0529,-1.7444,
8.285453,0.1587,1.0086,-0.0295,-1.9655,0.0460,2.3252,0.1623,-0.2447,-1.2863,
8.286191,0.1587,1.0086,-0.0295,0.7425,0.3923,-0.2402,0.1623,-0.2447,-1.2863,
8.340551,-0.1089,1.0023,0.0520,0.7425,0.3923,-0.2402,0.1623,-0.2447,-1.2863,
8.341849,-0.2244,0.9781,-0.0295,0.7425,0.3923,-0.2402,0.1623,-0.2447,-1.2863,
8.342340,-0.0850,0.9752,-0.0718,0.7425,0.3923,-0.2402,0.1623,-0.2447,-1.2863,
8.343556,-0.0850,0.9752,-0.0718,0.7425,0.3923,-0.2402,0.2303,-0.2918,-1.3315,
8.344247,-0.0850,0.9752,-0.0718,-0.9259,0.0169,0.7548,0.2303,-0.2918,-1.3315,
8.399034,-0.0149,1.0011,-0.0916,-0.9259,0.0169,0.7548,0.2303,-0.2918,-1.3315,
8.400314,-0.0662,1.0299,-0.0608,-0.9259,0.0169,0.7548,0.2303,-0.2918,-1.3315,
8.400901,-0.0942,1.0448,-0.0669,-0.9259,0.0169,0.7548,0.2303,-0.2918,-1.3315,
8.401467,-0.0942,1.0448,-0.0669,-0.9259,0.0169,0.7548,0.2504,-0.1258,-1.1838,
8.402040,-0.0942,1.0448,-0.0669,0.5295,0.4694,0.3293,0.2504,-0.1258,-1.1838,
8.457104,-0.0974,1.0489,-0.0847,0.5295,0.4694,0.3293,0.2504,-0.1258,-1.1838,
8.458545,-0.1467,1.0445,-0.0891,0.5295,0.4694,0.3293,0.2504,-0.1258,-1.1838,
8.459035,-0.1521,0.9967,-0.1045,0.5295,0.4694,0.3293,0.2504,-0.1258,-1.1838,
8.459520,-0.1521,0.9967,-0.1045,0.5295,0.4694,0.3293,0.3298,-0.0774,-1.2883,
8.460890,-0.1521,0.9967,-0.1045,0.5190,0.6374,0.3077,0.3298,-0.0774,-1.2883,
8.515484,-0.1277,0.9732,-0.1170,0.5190,0.6374,0.3077,0.3298,-0.0774,-1.2883,
8.516676,-0.1516,0.9894,-0.1226,0.5190,0.6374,0.3077,0.3298,-0.0774,-1.2883,
8.517182,-0.1580,0.9869,-0.1084,0.5190,0.6374,0.3077,0.3298,-0.0774,-1.2883,
8.517875,-0.1580,0.9869,-0.1084,0.5190,0.6374,0.3077,0.3327,0.1825,-1.4078,
8.519312,-0.1580,0.9869,-0.1084,1.1202,0.3772,0.2814,0.3327,0.1825,-1.4078,
8.573742,-0.1746,1.0299,-0.1038,1.1202,0.3772,0.2814,0.3327,0.1825,-1.4078,
8.574669,-0.1406,1.1385,-0.1126,1.1202,0.3772,0.2814,0.3327,0.1825,-1.4078,
8.575275,-0.0242,1.2235,-0.1267,1.1202,0.3772,0.2814,0.3327,0.1825,-1.4078,
8.575880,-0.0242,1.2235,-0.1267,1.1202,0.3772,0.2814,0.4919,0.0593,-1.6505,
8.577248,-0.0242,1.2235,-0.1267,2.2723,2.1186,0.5586,0.4919,0.0593,-1.6505,
8.631908,0.1052,1.2775,-0.1404,2.2723,2.1186,0.5586,0.4919,0.0593,-1.6505,
8.632754,0.1550,1.3268,-0.1389,2.2723,2.1186,0.5586,0.4919,0.0593,-1.6505,
8.633383,0.2825,1.5932,-0.1079,2.2723,2.1186,0.5586,0.4919,0.0593,-1.6505,
8.633963,0.2825,1.5932,-0.1079,2.2723,2.1186,0.5586,0.8713,-0.0515,-2.1205,
8.635332,0.2825,1.5932,-0.1079,6.1307,5.2433,0.8289,0.8713,-0.0515,-2.1205,
8.690617,0.8348,1.9699,0.0645,6.1307,5.2433,0.8289,0.8713,-0.0515,-2.1205,
8.692028,1.3012,1.7790,0.0576,6.1307,5.2433,0.8289,0.8713,-0.0515,-2.1205,
8.692632,0.5562,1.2675,0.1143,6.1307,5.2433,0.8289,0.8713,-0.0515,-2.1205,
8.693189,0.5562,1.2675,0.1143,6.1307,5.2433,0.8289,0.9016,1.0747,-2.5888,
8.693700,0.5562,1.2675,0.1143,13.9743,8.6423,3.5428,0.9016,1.0747,-2.5888,
8.749140,-0.5105,1.1341,-0.1558,13.9743,8.6423,3.5428,0.9016,1.0747,-2.5888,
8.750501,-1.0585,1.3485,-0.3496,13.9743,8.6423,3.5428,0.9016,1.0747,-2.5888,
8.751177,-1.0045,1.1925,-0.4319,13.9743,8.6423,3.5428,0.9016,1.0747,-2.5888,
8.751750,-1.0045,1.1925,-0.4319,13.9743,8.6423,3.5428,1.2814,2.4537,-4.2032,
8.752346,-1.0045,1.1925,-0.4319,-1.9887,5.8495,1.0481,1.2814,2.4537,-4.2032,
8.806946,-0.6812,0.7496,-0.3684,-1.9887,5.8495,1.0481,1.2814,2.4537,-4.2032,
8.808354,-0.6668,0.5772,-0.3015,-1.9887,5.8495,1.0481,1.2814,2.4537,-4.2032,
8.808916,-0.5093,0.3516,-0.5953,-1.9887,5.8495,1.0481,1.2814,2.4537,-4.2032,
8.809515,-0.5093,0.3516,-0.5953,-1.9887,5.8495,1.0481,-0.0519,0.6608,-1.1236,
8.810330,-0.5093,0.3516,-0.5953,0.5644,-0.2555,0.2102,-0.0519,0.6608,-1.1236,
8.866147,-0.3338,0.2808,-0.3125,0.5644,-0.2555,0.2102,-0.0519,0.6608,-1.1236,
8.867920,-0.1580,0.1196,-0.1316,0.5644,-0.2555,0.2102,-0.0519,0.6608,-1.1236,
8.868782,-0.0852,0.1177,-0.1348,0.5644,-0.2555,0.2102,-0.0519,0.6608,-1.1236,
8.869503,-0.0852,0.1177,-0.1348,0.5644,-0.2555,0.2102,-1.7945,0.0910,2.1381,
8.870422,-0.0852,0.1177,-0.1348,3.8635,-5.1591,1.7965,-1.7945,0.0910,2.1381,
8.923799,-0.1546,0.2554,-0.2725,3.8635,-5.1591,1.7965,-1.7945,0.0910,2.1381,
8.925276,-0.1568,0.4107,-0.4268,3.8635,-5.1591,1.7965,-1.7945,0.0910,2.1381,
8.925934,-0.0886,0.5130,-0.3770,3.8635,-5.1591,1.7965,-1.7945,0.0910,2.1381,
8.926584,-0.0886,0.5130,-0.3770,3.8635,-5.1591,1.7965,-2.0403,-0.5642,4.1336,
8.927253,-0.0886,0.5130,-0.3770,2.6430,-4.4848,-0.8817,-2.0403,-0.5642,4.1336,
8.982214,-0.0537,0.6168,-0.2576,2.6430,-4.4848,-0.8817,-2.0403,-0.5642,4.1336,
8.983770,-0.0471,0.6881,-0.1883,2.6430,-4.4848,-0.8817,-2.0403,-0.5642,4.1336,
8.984438,-0.0554,0.9173,-0.2493,2.6430,-4.4848,-0.8817,-2.0403,-0.5642,4.1336,
8.985185,-0.0554,0.9173,-0.2493,2.6430,-4.4848,-0.8817,-2.1886,0.6369,5.8485,
8.985861,-0.0554,0.9173,-0.2493,0.2961,-2.1349,-0.6951,-2.1886,0.6369,5.8485,
9.040162,-0.1272,1.3285,-0.4207,0.2961,-2.1349,-0.6951,-2.1886,0.6369,5.8485,
9.041639,-0.3011,1.9077,-0.4473,0.2961,-2.1349,-0.6951,-2.1886,0.6369,5.8485,
9.042355,-0.6751,2.2561,-0.5384,0.2961,-2.1349,-0.6951,-2.1886,0.6369,5.8485,
9.043063,-0.6751,2.2561,-0.5384,0.2961,-2.1349,-0.6951,-2.1291,1.1002,6.2661,
9.043732,-0.6751,2.2561,-0.5384,-6.1874,8.6281,-4.1827,-2.1291,1.1002,6.2661,
9.099032,-0.9693,1.8298,-0.2947,-6.1874,8.6281,-4.1827,-2.1291,1.1002,6.2661,
9.100395,-1.0433,1.2150,0.0159,-6.1874,8.6281,-4.1827,-2.1291,1.1002,6.2661,
9.101204,-0.8929,1.0343,-0.3843,-6.1874,8.6281,-4.1827,-2.1291,1.1002,6.2661,
9.101778,-0.8929,1.0343,-0.3843,-6.1874,8.6281,-4.1827,-1.8336,0.1476,4.3960,
9.102457,-0.8929,1.0343,-0.3843,-14.1168,4.8990,-2.6796,-1.8336,0.1476,4.3960,
9.157078,-1.0392,0.8392,-0.3987,-14.1168,4.8990,-2.6796,-1.8336,0.1476,4.3960,
9.158865,-1.2428,0.6976,-0.2654,-14.1168,4.8990,-2.6796,-1.8336,0.1476,4.3960,
9.159816,-1.0218,1.1280,-0.6238,-14.1168,4.8990,-2.6796,-1.8336,0.1476,4.3960,
9.160716,-1.0218,1.1280,-0.6238,-14.1168,4.8990,-2.6796,-0.3124,-1.5406,-1.1386,
9.162883,-1.0218,1.1280,-0.6238,-14.6421,-0.0008,-4.3899,-0.3124,-1.5406,-1.1386,
9.215914,0.4229,1.7907,-0.1814,-14.6421,-0.0008,-4.3899,-0.3124,-1.5406,-1.1386,
9.217505,2.7835,1.5495,0.4646,-14.6421,-0.0008,-4.3899,-0.3124,-1.5406,-1.1386,
9.218542,2.1137,1.3576,-0.6458,-14.6421,-0.0008,-4.3899,-0.3124,-1.5406,-1.1386,
9.219438,2.1137,1.3576,-0.6458,-14.6421,-0.0008,-4.3899,-0.6308,-2.9405,-0.1710,
9.220360,2.1137,1.3576,-0.6458,13.3865,6.4926,-1.0247,-0.6308,-2.9405,-0.1710,
9.274102,-0.4371,1.3561,-0.9691,13.3865,6.4926,-1.0247,-0.6308,-2.9405,-0.1710,
9.275702,-1.0694,0.9720,0.0518,13.3865,6.4926,-1.0247,-0.6308,-2.9405,-0.1710,
9.276380,0.0144,0.5645,0.5215,13.3865,6.4926,-1.0247,-0.6308,-2.9405,-0.1710,
9.276968,0.0144,0.5645,0.5215,13.3865,6.4926,-1.0247,-0.2330,0.4333,-3.8507,
9.277864,0.0144,0.5645,0.5215,-6.6808,-0.0711,-1.2800,-0.2330,0.4333,-3.8507,
9.332481,0.0242,0.8949,0.1502,-6.6808,-0.0711,-1.2800,-0.2330,0.4333,-3.8507,
9.334009,-0.2019,1.0309,0.1292,-6.6808,-0.0711,-1.2800,-0.2330,0.4333,-3.8507,
9.334779,-0.3118,1.0646,-0.0288,-6.6808,-0.0711,-1.2800,-0.2330,0.4333,-3.8507,
9.335433,-0.3118,1.0646,-0.0288,-6.6808,-0.0711,-1.2800,0.1975,-0.0692,-2.0745,
9.336055,-0.3118,1.0646,-0.0288,-2.2058,0.0986,0.9284,0.1975,-0.0692,-2.0745,
9.390785,-0.0930,1.0382,-0.0706,-2.2058,0.0986,0.9284,0.1975,-0.0692,-2.0745,
9.391748,0.0747,1.0406,-0.1343,-2.2058,0.0986,0.9284,0.1975,-0.0692,-2.0745,
9.392217,-0.1138,1.0594,-0.0432,-2.2058,0.0986,0.9284,0.1975,-0.0692,-2.0745,
9.392792,-0.1138,1.0594,-0.0432,-2.2058,0.0986,0.9284,0.1936,-0.1185,-1.3402,
9.393404,-0.1138,1.0594,-0.0432,-0.2754,0.5565,-0.5800,0.1936,-0.1185,-1.3402,
9.449152,-0.2693,1.0238,0.0139,-0.2754,0.5565,-0.5800,0.1936,-0.1185,-1.3402,
9.450216,-0.1314,0.9786,0.0200,-0.2754,0.5565,-0.5800,0.1936,-0.1185,-1.3402,
9.450640,0.0283,0.9701,0.0002,-0.2754,0.5565,-0.5800,0.1936,-0.1185,-1.3402,
9.451188,0.0283,0.9701,0.0002,-0.2754,0.5565,-0.5800,0.1557,-0.2985,-1.0195,
9.451676,0.0283,0.9701,0.0002,-0.4717,0.0432,0.4144,0.1557,-0.2985,-1.0195,
9.507474,0.0501,1.0030,-0.0066,-0.4717,0.0432,0.4144,0.1557,-0.2985,-1.0195,
9.509040,-0.0422,1.0067,-0.0276,-0.4717,0.0432,0.4144,0.1557,-0.2985,-1.0195,
9.509599,-0.0872,1.0358,-0.0347,-0.4717,0.0432,0.4144,0.1557,-0.2985,-1.0195,
9.510218,-0.0872,1.0358,-0.0347,-0.4717,0.0432,0.4144,0.1867,0.1316,-1.0804,
9.510770,-0.0872,1.0358,-0.0347,1.0720,0.3459,0.1889,0.1867,0.1316,-1.0804,
9.566058,-0.0945,1.0370,-0.0134,1.0720,0.3459,0.1889,0.1867,0.1316,-1.0804,
9.567230,-0.0916,1.0069,-0.0083,1.0720,0.3459,0.1889,0.1867,0.1316,-1.0804,
9.568155,-0.0696,1.0091,-0.0195,1.0720,0.3459,0.1889,0.1867,0.1316,-1.0804,
9.568770,-0.0696,1.0091,-0.0195,1.1869,0.4970,0.4449,0.1867,0.1316,-1.0804,
9.569385,-0.0696,1.0091,-0.0195,1.1869,0.4970,0.4449,0.2769,0.1951,-1.2879,
9.624129,-0.0469,0.9837,-0.0740,1.1869,0.4970,0.4449,0.2769,0.1951,-1.2879,
9.625293,-0.0640,0.9203,-0.1062,1.1869,0.4970,0.4449,0.2769,0.1951,-1.2879,
9.625703,-0.1868,0.9496,-0.0955,1.1869,0.4970,0.4449,0.2769,0.1951,-1.2879,
9.626287,-0.1868,0.9496,-0.0955,1.1869,0.4970,0.4449,0.3176,0.4669,-1.6790,
9.626820,-0.1868,0.9496,-0.0955,1.9142,0.0988,-0.0781,0.3176,0.4669,-1.6790,
9.682647,-0.3067,1.0726,-0.1172,1.9142,0.0988,-0.0781,0.3176,0.4669,-1.6790,
9.683961,-0.2671,1.1569,-0.1382,1.9142,0.0988,-0.0781,0.3176,0.4669,-1.6790,
9.684496,-0.1140,1.2118,-0.1314,1.9142,0.0988,-0.0781,0.3176,0.4669,-1.6790,
9.685036,-0.1140,1.2118,-0.1314,1.9142,0.0988,-0.0781,0.3907,0.0177,-1.9411,
9.685592,-0.1140,1.2118,-0.1314,1.6337,2.3843,-0.2301,0.3907,0.0177,-1.9411,
9.740616,0.0085,1.2179,-0.1475,1.6337,2.3843,-0.2301,0.3907,0.0177,-1.9411,
9.741763,0.0515,1.2467,-0.2041,1.6337,2.3843,-0.2301,0.3907,0.0177,-1.9411,
9.742245,0.1487,1.4691,-0.2500,1.6337,2.3843,-0.2301,0.3907,0.0177,-1.9411,
9.742735,0.1487,1.4691,-0.2500,1.6337,2.3843,-0.2301,0.4587,0.4443,-2.2510,
9.743276,0.1487,1.4691,-0.2500,5.5612,4.5311,-0.5761,0.4587,0.4443,-2.2510,
9.799419,0.5018,1.9187,-0.2300,5.5612,4.5311,-0.5761,0.4587,0.4443,-2.2510,
9.801029,1.2181,1.9716,-0.2385,5.5612,4.5311,-0.5761,0.4587,0.4443,-2.2510,
9.801672,0.9483,1.1825,-0.0964,5.5612,4.5311,-0.5761,0.4587,0.4443,-2.2510,
9.802166,0.9483,1.1825,-0.0964,5.5612,4.5311,-0.5761,0.6279,1.7455,-2.3818,
9.803271,0.9483,1.1825,-0.0964,14.2705,8.9118,0.3789,0.6279,1.7455,-2.3818,
9.857034,-0.5467,0.8158,-0.0151,14.2705,8.9118,0.3789,0.6279,1.7455,-2.3818,
9.858315,-1.4062,1.2597,-0.2530,14.2705,8.9118,0.3789,0.6279,1.7455,-2.3818,
9.859119,-1.5168,1.3749,-0.2930,14.2705,8.9118,0.3789,0.6279,1.7455,-2.3818,
9.861226,-1.5168,1.3749,-0.2930,-4.4709,5.1879,1.6677,0.6279,1.7455,-2.3818,
9.862054,-1.5168,1.3749,-0.2930,-4.4709,5.1879,1.6677,1.2498,2.2299,-4.0122,
9.915433,-1.0961,0.8768,-0.1155,-4.4709,5.1879,1.6677,1.2498,2.2299,-4.0122,
9.916658,-0.8885,0.5989,-0.1695,-4.4709,5.1879,1.6677,1.2498,2.2299,-4.0122,
9.917230,-0.5804,0.3616,-0.3262,-4.4709,5.1879,1.6677,1.2498,2.2299,-4.0122,
9.917771,-0.5804,0.3616,-0.3262,-4.4709,5.1879,1.6677,0.2824,-0.7554,-0.1521,
9.918340,-0.5804,0.3616,-0.3262,-1.2874,0.0359,1.2674,0.2824,-0.7554,-0.1521,
9.973867,-0.2090,0.1980,0.1555,-1.2874,0.0359,1.2674,0.2824,-0.7554,-0.1521,
9.975262,0.0271,-0.0669,0.3455,-1.2874,0.0359,1.2674,0.2824,-0.7554,-0.1521,
9.975717,-0.0354,-0.0415,0.1526,-1.2874,0.0359,1.2674,0.2824,-0.7554,-0.1521,
9.976315,-0.0354,-0.0415,0.1526,-1.2874,0.0359,1.2674,-0.5247,-0.9827,3.1352,
9.977917,-0.0354,-0.0415,0.1526,5.2520,-6.8545,4.7317,-0.5247,-0.9827,3.1352,
10.032197,-0.2066,0.1297,-0.0618,5.2520,-6.8545,4.7317,-0.5247,-0.9827,3.1352,
10.033444,-0.2769,0.3179,-0.3406,5.2520,-6.8545,4.7317,-0.5247,-0.9827,3.1352,
10.034239,-0.2610,0.5071,-0.3850,5.2520,-6.8545,4.7317,-0.5247,-0.9827,3.1352,
10.035108,-0.2610,0.5071,-0.3850,5.2520,-6.8545,4.7317,0.5872,-0.8603,4.7683,
10.037023,-0.2610,0.5071,-0.3850,1.4483,-5.2347,0.0447,0.5872,-0.8603,4.7683,
10.090428,-0.3714,0.5909,-0.0496,1.4483,-5.2347,0.0447,0.5872,-0.8603,4.7683,
10.091610,-0.5306,0.7330,-0.2971,1.4483,-5.2347,0.0447,0.5872,-0.8603,4.7683,
10.092197,-0.7992,0.9872,-0.5323,1.4483,-5.2347,0.0447,0.5872,-0.8603,4.7683,
10.092705,-0.7992,0.9872,-0.5323,1.4483,-5.2347,0.0447,0.8554,-3.1922,6.6276,
10.094221,-0.7992,0.9872,-0.5323,-4.5398,-1.5824,-0.2384,0.8554,-3.1922,6.6276,
10.148918,-0.9688,1.3458,-0.4625,-4.5398,-1.5824,-0.2384,0.8554,-3.1922,6.6276,
10.150086,-0.7662,1.5087,-0.5198,-4.5398,-1.5824,-0.2384,0.8554,-3.1922,6.6276,
10.150646,-0.5171,1.6213,-0.1758,-4.5398,-1.5824,-0.2384,0.8554,-3.1922,6.6276,
10.151125,-0.5171,1.6213,-0.1758,-4.5398,-1.5824,-0.2384,1.5638,-8.5939,7.4416,
10.151681,-0.5171,1.6213,-0.1758,-8.5766,5.8030,-0.1280,1.5638,-8.5939,7.4416,
10.206902,-0.2071,1.6188,0.1646,-8.5766,5.8030,-0.1280,1.5638,-8.5939,7.4416,
10.208157,0.1836,1.3629,0.6761,-8.5766,5.8030,-0.1280,1.5638,-8.5939,7.4416,
10.208731,0.2156,0.8482,0.8512,-8.5766,5.8030,-0.1280,1.5638,-8.5939,7.4416,
10.209822,0.2156,0.8482,0.8512,-0.5250,3.9490,9.7260,1.5638,-8.5939,7.4416,
10.210544,0.2156,0.8482,0.8512,-0.5250,3.9490,9.7260,0.0452,-8.5589,3.9291,
10.265206,-0.8924,1.2535,-0.1253,-0.5250,3.9490,9.7260,0.0452,-8.5589,3.9291,
10.266427,-0.9049,1.6579,1.6867,-0.5250,3.9490,9.7260,0.0452,-8.5589,3.9291,
10.267046,0.4852,1.1615,0.6597,-0.5250,3.9490,9.7260,0.0452,-8.5589,3.9291,
10.267707,0.4852,1.1615,0.6597,-0.5250,3.9490,9.7260,-0.8434,-0.8839,-0.8815,
10.269553,0.4852,1.1615,0.6597,-4.6843,4.4384,10.9130,-0.8434,-0.8839,-0.8815,
10.323777,0.5098,1.6364,-0.5027,-4.6843,4.4384,10.9130,-0.8434,-0.8839,-0.8815,
10.325319,0.2608,1.4992,-1.2902,-4.6843,4.4384,10.9130,-0.8434,-0.8839,-0.8815,
10.326172,-0.1614,1.1166,-0.8321,-4.6843,4.4384,10.9130,-0.8434,-0.8839,-0.8815,
10.326836,-0.1614,1.1166,-0.8321,-4.6843,4.4384,10.9130,-0.5661,-0.2219,-1.0429,
10.328368,-0.1614,1.1166,-0.8321,2.1458,4.8206,-5.1229,-0.5661,-0.2219,-1.0429,
10.381982,-0.2903,0.9371,-0.3003,2.1458,4.8206,-5.1229,-0.5661,-0.2219,-1.0429,
10.383592,-0.2449,0.8136,-0.2298,2.1458,4.8206,-5.1229,-0.5661,-0.2219,-1.0429,
10.384310,-0.2852,0.9102,-0.0415,2.1458,4.8206,-5.1229,-0.5661,-0.2219,-1.0429,
10.384870,-0.2852,0.9102,-0.0415,2.1458,4.8206,-5.1229,-0.8520,-1.0558,-0.3983,
10.385557,-0.2852,0.9102,-0.0415,-2.0799,-0.5210,1.0869,-0.8520,-1.0558,-0.3983,
10.440358,-0.1001,0.9879,-0.1192,-2.0799,-0.5210,1.0869,-0.8520,-1.0558,-0.3983,
10.441539,-0.0054,0.9845,-0.2661,-2.0799,-0.5210,1.0869,-0.8520,-1.0558,-0.3983,
10.442410,-0.0764,0.9591,-0.3350,-2.0799,-0.5210,1.0869,-0.8520,-1.0558,-0.3983,
10.443194,-0.0764,0.9591,-0.3350,-2.0799,-0.5210,1.0869,-0.4696,-0.2138,0.1617,
10.443909,-0.0764,0.9591,-0.3350,-0.0449,0.2752,0.3343,-0.4696,-0.2138,0.1617,
10.499548,-0.1697,0.9620,-0.2710,-0.0449,0.2752,0.3343,-0.4696,-0.2138,0.1617,
10.501064,-0.1770,0.9762,-0.2647,-0.0449,0.2752,0.3343,-0.4696,-0.2138,0.1617,
10.501775,-0.0425,0.9845,-0.2708,-0.0449,0.2752,0.3343,-0.4696,-0.2138,0.1617,
10.502487,-0.0425,0.9845,-0.2708,-0.0449,0.2752,0.3343,-0.3466,-0.0761,0.1896,
10.503151,-0.0425,0.9845,-0.2708,-0.8001,0.1854,-0.1359,-0.3466,-0.0761,0.1896,
10.557148,0.0659,0.9713,-0.1824,-0.8001,0.1854,-0.1359,-0.3466,-0.0761,0.1896,
10.558492,0.0606,0.8949,-0.0606,-0.8001,0.1854,-0.1359,-0.3466,-0.0761,0.1896,
10.559286,0.0039,0.9207,-0.0855,-0.8001,0.1854,-0.1359,-0.3466,-0.0761,0.1896,
10.559985,0.0039,0.9207,-0.0855,-0.8001,0.1854,-0.1359,-0.1584,-0.2136,0.1941,
10.560577,0.0039,0.9207,-0.0855,0.8077,-0.2809,1.3116,-0.1584,-0.2136,0.1941,
10.615415,-0.0200,1.0016,-0.1289,0.8077,-0.2809,1.3116,-0.1584,-0.2136,0.1941,
10.616594,0.0496,0.9913,-0.1345,0.8077,-0.2809,1.3116,-0.1584,-0.2136,0.1941,
10.617153,0.0503,0.9393,-0.1299,0.8077,-0.2809,1.3116,-0.1584,-0.2136,0.1941,
10.617959,0.0503,0.9393,-0.1299,0.8077,-0.2809,1.3116,0.0383,-0.2221,-0.0490,
10.618541,0.0503,0.9393,-0.1299,0.6887,0.1969,1.0967,0.0383,-0.2221,-0.0490,
10.673924,-0.0891,0.9586,-0.1460,0.6887,0.1969,1.0967,0.0383,-0.2221,-0.0490,
10.675149,-0.1294,1.0045,-0.1211,0.6887,0.1969,1.0967,0.0383,-0.2221,-0.0490,
10.675704,-0.0559,0.9842,-0.2154,0.6887,0.1969,1.0967,0.0383,-0.2221,-0.0490,
10.676300,-0.0559,0.9842,-0.2154,0.6887,0.1969,1.0967,0.2343,-0.5479,-0.2022,
10.676854,-0.0559,0.9842,-0.2154,-0.2757,0.2811,0.9016,0.2343,-0.5479,-0.2022,
10.732125,-0.0015,0.9798,-0.2251,-0.2757,0.2811,0.9016,0.2343,-0.5479,-0.2022,
10.733701,-0.0291,0.9708,-0.2493,-0.2757,0.2811,0.9016,0.2343,-0.5479,-0.2022,
10.734292,-0.1057,0.9793,-0.2129,-0.2757,0.2811,0.9016,0.2343,-0.5479,-0.2022,
10.734849,-0.1057,0.9793,-0.2129,0.3153,0.2983,0.4682,0.2343,-0.5479,-0.2022,
10.735427,-0.1057,0.9793,-0.2129,0.3153,0.2983,0.4682,0.4720,-0.3127,-0.1804,
10.790492,-0.1294,1.0060,-0.2500,0.3153,0.2983,0.4682,0.4720,-0.3127,-0.1804,
10.791607,-0.1135,1.0387,-0.2410,0.3153,0.2983,0.4682,0.4720,-0.3127,-0.1804,
10.792066,-0.0381,1.0433,-0.2825,0.3153,0.2983,0.4682,0.4720,-0.3127,-0.1804,
10.792984,-0.0381,1.0433,-0.2825,0.3153,0.2983,0.4682,0.8481,-0.3565,-0.1403,
10.793620,-0.0381,1.0433,-0.2825,-0.0212,0.9500,0.6139,0.8481,-0.3565,-0.1403,
10.849171,0.0427,1.0204,-0.3863,-0.0212,0.9500,0.6139,0.8481,-0.3565,-0.1403,
10.850369,0.0884,1.0270,-0.4659,-0.0212,0.9500,0.6139,0.8481,-0.3565,-0.1403,
10.850945,0.0759,1.1573,-0.4847,-0.0212,0.9500,0.6139,0.8481,-0.3565,-0.1403,
10.851575,0.0759,1.1573,-0.4847,-0.0212,0.9500,0.6139,1.3950,-0.9890,-0.2130,
10.853531,0.0759,1.1573,-0.4847,1.8550,1.6003,-0.5460,1.3950,-0.9890,-0.2130,
10.907156,0.1360,1.3056,-0.3052,1.8550,1.6003,-0.5460,1.3950,-0.9890,-0.2130,
10.908465,0.3609,1.4335,-0.0642,1.8550,1.6003,-0.5460,1.3950,-0.9890,-0.2130,
10.908996,0.6837,1.5888,0.1438,1.8550,1.6003,-0.5460,1.3950,-0.9890,-0.2130,
10.911078,0.6837,1.5888,0.1438,5.6405,5.7243,3.8814,1.3950,-0.9890,-0.2130,
10.912000,0.6837,1.5888,0.1438,5.6405,5.7243,3.8814,2.0664,-1.9597,-0.4221,
10.965304,0.5555,1.5255,0.1577,5.6405,5.7243,3.8814,2.0664,-1.9597,-0.4221,
10.966515,0.0129,1.3024,0.1956,5.6405,5.7243,3.8814,2.0664,-1.9597,-0.4221,
10.967080,-0.5787,1.2340,0.2088,5.6405,5.7243,3.8814,2.0664,-1.9597,-0.4221,
10.968950,-0.5787,1.2340,0.2088,2.8816,5.6703,7.2113,2.0664,-1.9597,-0.4221,
10.969974,-0.5787,1.2340,0.2088,2.8816,5.6703,7.2113,2.4433,-1.9020,-1.3335,
11.026037,-1.1119,1.3776,0.1150,2.8816,5.6703,7.2113,2.4433,-1.9020,-1.3335,
11.027381,-1.4010,1.3204,0.0525,2.8816,5.6703,7.2113,2.4433,-1.9020,-1.3335,
11.028129,-1.1739,1.0401,-0.2593,2.8816,5.6703,7.2113,2.4433,-1.9020,-1.3335,
11.028704,-1.1739,1.0401,-0.2593,2.8816,5.6703,7.2113,2.0991,-4.2484,-1.2427,
11.029281,-1.1739,1.0401,-0.2593,-7.1449,5.4600,4.9048,2.0991,-4.2484,-1.2427,
11.082013,-0.4827,0.7345,-0.4278,-7.1449,5.4600,4.9048,2.0991,-4.2484,-1.2427,
11.083207,0.1069,0.8336,-0.5186,-7.1449,5.4600,4.9048,2.0991,-4.2484,-1.2427,
11.083756,0.6412,0.6292,0.1714,-7.1449,5.4600,4.9048,2.0991,-4.2484,-1.2427,
11.084298,0.6412,0.6292,0.1714,-7.1449,5.4600,4.9048,1.3453,-5.2569,1.8530,
11.085708,0.6412,0.6292,0.1714,6.3652,0.2066,1.5285,1.3453,-5.2569,1.8530,
11.140149,0.3667,0.6043,0.3975,6.3652,0.2066,1.5285,1.3453,-5.2569,1.8530,
11.141291,0.0527,0.6221,0.2281,6.3652,0.2066,1.5285,1.3453,-5.2569,1.8530,
11.141840,-0.1839,0.6851,0.1753,6.3652,0.2066,1.5285,1.3453,-5.2569,1.8530,
11.142382,-0.1839,0.6851,0.1753,6.3652,0.2066,1.5285,0.6962,-3.4536,2.8628,
11.142997,-0.1839,0.6851,0.1753,5.6862,-1.4425,5.7912,0.6962,-3.4536,2.8628,
11.198883,-0.2425,0.7244,0.0781,5.6862,-1.4425,5.7912,0.6962,-3.4536,2.8628,
11.200084,-0.1482,0.7784,0.0173,5.6862,-1.4425,5.7912,0.6962,-3.4536,2.8628,
11.200621,-0.1148,0.8551,0.0078,5.6862,-1.4425,5.7912,0.6962,-3.4536,2.8628,
11.201112,-0.1148,0.8551,0.0078,5.6862,-1.4425,5.7912,0.3197,-1.4060,4.6410,
11.201730,-0.1148,0.8551,0.0078,1.2635,-0.9914,3.2561,0.3197,-1.4060,4.6410,
11.257095,-0.1922,1.0191,-0.0774,1.2635,-0.9914,3.2561,0.3197,-1.4060,4.6410,
11.259133,-0.2451,1.2245,-0.1304,1.2635,-0.9914,3.2561,0.3197,-1.4060,4.6410,
11.259695,-0.3169,1.3949,-0.1480,1.2635,-0.9914,3.2561,0.3197,-1.4060,4.6410,
11.260325,-0.3169,1.3949,-0.1480,1.2635,-0.9914,3.2561,-0.7921,-0.5048,5.9389,
11.261161,-0.3169,1.3949,-0.1480,-2.5678,2.5359,1.2564,-0.7921,-0.5048,5.9389,
11.315297,-0.4771,1.4916,-0.1992,-2.5678,2.5359,1.2564,-0.7921,-0.5048,5.9389,
11.316914,-0.7398,1.5605,-0.1699,-2.5678,2.5359,1.2564,-0.7921,-0.5048,5.9389,
11.318663,-1.1034,1.5546,-0.0918,-2.5678,2.5359,1.2564,-0.7921,-0.5048,5.9389,
11.319630,-1.1034,1.5546,-0.0918,-2.5678,2.5359,1.2564,-1.4639,-0.6567,5.6009,
11.320348,-1.1034,1.5546,-0.0918,-10.4508,5.9409,0.1840,-1.4639,-0.6567,5.6009,
11.373801,-1.2286,1.4008,0.0215,-10.4508,5.9409,0.1840,-1.4639,-0.6567,5.6009,
11.375725,-1.1696,1.1129,-0.0764,-10.4508,5.9409,0.1840,-1.4639,-0.6567,5.6009,
11.376553,-1.1739,0.8387,-0.2249,-10.4508,5.9409,0.1840,-1.4639,-0.6567,5.6009,
11.377635,-1.1739,0.8387,-0.2249,-10.4508,5.9409,0.1840,-1.0959,-0.0438,2.5543,
11.380681,-1.1739,0.8387,-0.2249,-15.5967,2.2414,0.2107,-1.0959,-0.0438,2.5543,
11.432250,-1.2367,0.7132,-0.3499,-15.5967,2.2414,0.2107,-1.0959,-0.0438,2.5543,
11.433870,-1.1732,1.1595,-0.9732,-15.5967,2.2414,0.2107,-1.0959,-0.0438,2.5543,
11.434800,0.3543,1.8173,-0.4742,-15.5967,2.2414,0.2107,-1.0959,-0.0438,2.5543,
11.435630,0.3543,1.8173,-0.4742,-15.5967,2.2414,0.2107,-0.4038,-1.0169,-1.4048,
11.436348,0.3543,1.8173,-0.4742,-9.6864,2.9797,-4.6576,-0.4038,-1.0169,-1.4048,
11.490477,2.4251,1.8593,-0.0911,-9.6864,2.9797,-4.6576,-0.4038,-1.0169,-1.4048,
11.491914,1.0409,1.3422,-0.6895,-9.6864,2.9797,-4.6576,-0.4038,-1.0169,-1.4048,
11.492772,-0.6632,0.8695,-0.3853,-9.6864,2.9797,-4.6576,-0.4038,-1.0169,-1.4048,
11.493506,-0.6632,0.8695,-0.3853,-9.6864,2.9797,-4.6576,-0.4732,-2.3337,-1.1908,
11.495588,-0.6632,0.8695,-0.3853,6.8780,3.9431,-2.4626,-0.4732,-2.3337,-1.1908,
11.552483,-0.5667,0.5533,0.4256,6.8780,3.9431,-2.4626,-0.4732,-2.3337,-1.1908,
11.554078,-0.1821,0.8258,0.6243,6.8780,3.9431,-2.4626,-0.4732,-2.3337,-1.1908,
11.554769,0.2693,1.0765,0.2852,6.8780,3.9431,-2.4626,-0.4732,-2.3337,-1.1908,
11.555504,0.2693,1.0765,0.2852,-2.8136,-1.5266,5.3592,-0.4732,-2.3337,-1.1908,
11.556203,0.2693,1.0765,0.2852,-2.8136,-1.5266,5.3592,-0.4857,0.0018,-1.7737,
11.607368,0.1839,1.0589,-0.3052,-2.8136,-1.5266,5.3592,-0.4857,0.0018,-1.7737,
11.608949,-0.0855,1.0868,-0.2932,-2.8136,-1.5266,5.3592,-0.4857,0.0018,-1.7737,
11.609737,-0.0813,1.0958,-0.1467,-2.8136,-1.5266,5.3592,-0.4857,0.0018,-1.7737,
11.610646,-0.0813,1.0958,-0.1467,-2.8136,-1.5266,5.3592,0.0804,0.1153,-1.3537,
11.611355,-0.0813,1.0958,-0.1467,-0.4337,0.9606,-1.3733,0.0804,0.1153,-1.3537,
11.665169,0.0237,0.9632,-0.0518,-0.4337,0.9606,-1.3733,0.0804,0.1153,-1.3537,
11.667192,0.0347,0.9708,0.0020,-0.4337,0.9606,-1.3733,0.0804,0.1153,-1.3537,
11.667698,-0.0056,1.0028,-0.0569,-0.4337,0.9606,-1.3733,0.0804,0.1153,-1.3537,
11.668357,-0.0056,1.0028,-0.0569,-0.4337,0.9606,-1.3733,0.0493,-0.6453,-1.1728,
11.668886,-0.0056,1.0028,-0.0569,0.3762,-0.0409,0.7303,0.0493,-0.6453,-1.1728,
11.723588,-0.0864,0.9896,-0.1248,0.3762,-0.0409,0.7303,0.0493,-0.6453,-1.1728,
11.725021,-0.1336,0.9945,-0.1663,0.3762,-0.0409,0.7303,0.0493,-0.6453,-1.1728,
11.725619,-0.1204,1.0348,-0.1350,0.3762,-0.0409,0.7303,0.0493,-0.6453,-1.1728,
11.726146,-0.1204,1.0348,-0.1350,0.3762,-0.0409,0.7303,0.1216,-0.0183,-1.2113,
11.726678,-0.1204,1.0348,-0.1350,-0.2239,0.2691,-0.2393,0.1216,-0.0183,-1.2113,
11.782239,-0.1670,1.0306,-0.1165,-0.2239,0.2691,-0.2393,0.1216,-0.0183,-1.2113,
11.783430,-0.2019,1.0196,-0.1025,-0.2239,0.2691,-0.2393,0.1216,-0.0183,-1.2113,
11.783936,-0.1756,1.0250,-0.1340,-0.2239,0.2691,-0.2393,0.1216,-0.0183,-1.2113,
11.784463,-0.1756,1.0250,-0.1340,-0.2239,0.2691,-0.2393,0.1260,-0.0226,-1.1030,
11.784996,-0.1756,1.0250,-0.1340,-0.2694,0.5302,0.0667,0.1260,-0.0226,-1.1030,
11.842889,-0.1321,1.0089,-0.1399,-0.2694,0.5302,0.0667,0.1260,-0.0226,-1.1030,
11.844967,-0.1133,0.9911,-0.1336,-0.2694,0.5302,0.0667,0.1260,-0.0226,-1.1030,
11.845677,-0.1201,1.0118,-0.1077,-0.2694,0.5302,0.0667,0.1260,-0.0226,-1.1030,
11.846447,-0.1201,1.0118,-0.1077,-0.2694,0.5302,0.0667,0.1592,0.1739,-1.0572,
11.847189,-0.1201,1.0118,-0.1077,0.8706,0.4379,0.0802,0.1592,0.1739,-1.0572,
11.898880,-0.0520,1.0338,-0.0886,0.8706,0.4379,0.0802,0.1592,0.1739,-1.0572,
11.899987,0.0259,1.1005,-0.0591,0.8706,0.4379,0.0802,0.1592,0.1739,-1.0572,
11.900475,0.0090,1.1918,-0.0657,0.8706,0.4379,0.0802,0.1592,0.1739,-1.0572,
11.900983,0.0090,1.1918,-0.0657,0.8706,0.4379,0.0802,0.3260,0.0725,-1.4111,
11.901509,0.0090,1.1918,-0.0657,2.7215,1.6644,0.8011,0.3260,0.0725,-1.4111,
11.957535,-0.0061,1.1935,-0.1140,2.7215,1.6644,0.8011,0.3260,0.0725,-1.4111,
11.959035,-0.0293,1.1942,-0.1773,2.7215,1.6644,0.8011,0.3260,0.0725,-1.4111,
11.959696,0.0081,1.2479,-0.2009,2.7215,1.6644,0.8011,0.3260,0.0725,-1.4111,
11.960312,0.0081,1.2479,-0.2009,2.7215,1.6644,0.8011,0.7000,-0.0678,-2.0405,
11.961027,0.0081,1.2479,-0.2009,3.7010,3.0869,0.2388,0.7000,-0.0678,-2.0405,
12.015527,0.1609,1.4579,-0.1795,3.7010,3.0869,0.2388,0.7000,-0.0678,-2.0405,
12.016766,0.6453,1.9143,0.0706,3.7010,3.0869,0.2388,0.7000,-0.0678,-2.0405,
12.017430,1.4335,1.9382,-0.0447,3.7010,3.0869,0.2388,0.7000,-0.0678,-2.0405,
12.018129,1.4335,1.9382,-0.0447,3.7010,3.0869,0.2388,1.1348,0.1825,-2.1521,
12.018795,1.4335,1.9382,-0.0447,11.9434,9.0881,1.9187,1.1348,0.1825,-2.1521,
12.073618,1.3131,1.4594,0.0999,11.9434,9.0881,1.9187,1.1348,0.1825,-2.1521,
12.074918,0.1245,1.1092,0.1282,11.9434,9.0881,1.9187,1.1348,0.1825,-2.1521,
12.075474,-0.9584,1.3026,-0.2329,11.9434,9.0881,1.9187,1.1348,0.1825,-2.1521,
12.076021,-0.9584,1.3026,-0.2329,11.9434,9.0881,1.9187,0.9878,1.8630,-3.9130,
12.077685,-0.9584,1.3026,-0.2329,7.4757,5.6856,3.3794,0.9878,1.8630,-3.9130,
12.131959,-1.2792,1.4457,-0.2674,7.4757,5.6856,3.3794,0.9878,1.8630,-3.9130,
12.133516,-0.9019,1.0228,-0.3533,7.4757,5.6856,3.3794,0.9878,1.8630,-3.9130,
12.134161,-0.7100,0.6541,-0.3553,7.4757,5.6856,3.3794,0.9878,1.8630,-3.9130,
12.134695,-0.7100,0.6541,-0.3553,-2.6593,4.4282,0.9214,0.9878,1.8630,-3.9130,
12.135276,-0.7100,0.6541,-0.3553,-2.6593,4.4282,0.9214,1.0352,0.9505,-2.7990,
12.190428,-0.5425,0.4864,-0.4683,-2.6593,4.4282,0.9214,1.0352,0.9505,-2.7990,
12.191744,-0.3506,0.3628,-0.3142,-2.6593,4.4282,0.9214,1.0352,0.9505,-2.7990,
12.192451,-0.3123,0.2039,-0.0159,-2.6593,4.4282,0.9214,1.0352,0.9505,-2.7990,
12.193004,-0.3123,0.2039,-0.0159,2.5830,-2.8219,1.0269,1.0352,0.9505,-2.7990,
12.193573,-0.3123,0.2039,-0.0159,2.5830,-2.8219,1.0269,-1.0218,-0.2586,0.7823,
12.248703,-0.2129,0.1050,-0.0288,2.5830,-2.8219,1.0269,-1.0218,-0.2586,0.7823,
12.249889,-0.1438,0.1465,-0.0964,2.5830,-2.8219,1.0269,-1.0218,-0.2586,0.7823,
12.250776,-0.1856,0.2771,-0.2525,2.5830,-2.8219,1.0269,-1.0218,-0.2586,0.7823,
12.251283,-0.1856,0.2771,-0.2525,2.5830,-2.8219,1.0269,-1.5223,-0.5294,3.4262,
12.252957,-0.1856,0.2771,-0.2525,3.3863,-5.9013,1.5720,-1.5223,-0.5294,3.4262,
12.306969,-0.1558,0.4510,-0.4273,3.3863,-5.9013,1.5720,-1.5223,-0.5294,3.4262,
12.308430,-0.1294,0.5882,-0.2730,3.3863,-5.9013,1.5720,-1.5223,-0.5294,3.4262,
12.309271,-0.1724,0.6385,-0.1079,3.3863,-5.9013,1.5720,-1.5223,-0.5294,3.4262,
12.309936,-0.1724,0.6385,-0.1079,3.3863,-5.9013,1.5720,-1.8518,-0.2502,5.2698,
12.311886,-0.1724,0.6385,-0.1079,1.0882,-3.5440,-0.7910,-1.8518,-0.2502,5.2698,
12.365451,-0.1853,0.7811,-0.1152,1.0882,-3.5440,-0.7910,-1.8518,-0.2502,5.2698,
12.366939,-0.1389,1.0812,-0.3035,1.0882,-3.5440,-0.7910,-1.8518,-0.2502,5.2698,
12.368019,-0.0886,1.5487,-0.3943,1.0882,-3.5440,-0.7910,-1.8518,-0.2502,5.2698,
12.370017,-0.0886,1.5487,-0.3943,-2.3023,1.6451,-1.6971,-1.8518,-0.2502,5.2698,
12.371366,-0.0886,1.5487,-0.3943,-2.3023,1.6451,-1.6971,-1.6986,0.4091,6.4816,
12.424006,-0.3999,2.1670,-0.5225,-2.3023,1.6451,-1.6971,-1.6986,0.4091,6.4816,
12.425517,-0.9061,2.1311,-0.4720,-2.3023,1.6451,-1.6971,-1.6986,0.4091,6.4816,
12.426472,-1.2206,1.5712,0.0002,-2.3023,1.6451,-1.6971,-1.6986,0.4091,6.4816,
12.427372,-1.2206,1.5712,0.0002,-2.3023,1.6451,-1.6971,-1.7834,0.6911,5.8601,
12.428698,-1.2206,1.5712,0.0002,-12.1549,10.3290,-3.2953,-1.7834,0.6911,5.8601,
12.481842,-1.1493,1.0917,-0.1734,-12.1549,10.3290,-3.2953,-1.7834,0.6911,5.8601,
12.483472,-1.0594,0.8492,-0.4939,-12.1549,10.3290,-3.2953,-1.7834,0.6911,5.8601,
12.484312,-1.2836,0.7579,-0.3252,-12.1549,10.3290,-3.2953,-1.7834,0.6911,5.8601,
12.485028,-1.2836,0.7579,-0.3252,-12.1549,10.3290,-3.2953,-0.7870,-0.2871,1.2594,
12.486888,-1.2836,0.7579,-0.3252,-15.6879,0.2882,-3.5485,-0.7870,-0.2871,1.2594,
12.540218,-1.1937,1.2846,-0.7200,-15.6879,0.2882,-3.5485,-0.7870,-0.2871,1.2594,
12.541835,0.7391,1.8415,0.2871,-15.6879,0.2882,-3.5485,-0.7870,-0.2871,1.2594,
12.542644,2.7920,1.7397,0.3199,-15.6879,0.2882,-3.5485,-0.7870,-0.2871,1.2594,
12.544397,2.7920,1.7397,0.3199,-15.6879,0.2882,-3.5485,-0.5195,-1.5485,-1.0808,
12.545578,2.7920,1.7397,0.3199,3.8114,7.0033,-0.5577,-0.5195,-1.5485,-1.0808,
12.599193,0.9798,1.3744,-0.5008,3.8114,7.0033,-0.5577,-0.5195,-1.5485,-1.0808,
12.600635,-0.8377,1.2411,-1.2018,3.8114,7.0033,-0.5577,-0.5195,-1.5485,-1.0808,
12.601331,-0.9603,0.6238,0.2461,3.8114,7.0033,-0.5577,-0.5195,-1.5485,-1.0808,
12.601929,-0.9603,0.6238,0.2461,3.8114,7.0033,-0.5577,0.1348,-0.3366,-3.4950,
12.602556,-0.9603,0.6238,0.2461,-4.5441,1.0810,-4.7220,0.1348,-0.3366,-3.4950,
12.656988,-0.5044,0.6846,0.6248,-4.5441,1.0810,-4.7220,0.1348,-0.3366,-3.4950,
12.658219,0.0776,1.0306,0.3843,-4.5441,1.0810,-4.7220,0.1348,-0.3366,-3.4950,
12.658794,0.4060,1.0524,0.0635,-4.5441,1.0810,-4.7220,0.1348,-0.3366,-3.4950,
12.659475,0.4060,1.0524,0.0635,-4.5441,1.0810,-4.7220,0.0214,-0.2724,-1.6685,
12.660156,0.4060,1.0524,0.0635,-0.9886,-0.5869,3.5132,0.0214,-0.2724,-1.6685,
12.715258,-0.0149,1.0782,-0.1209,-0.9886,-0.5869,3.5132,0.0214,-0.2724,-1.6685,
12.716466,-0.1519,1.0484,-0.1853,-0.9886,-0.5869,3.5132,0.0214,-0.2724,-1.6685,
12.716995,-0.1550,0.9864,-0.0764,-0.9886,-0.5869,3.5132,0.0214,-0.2724,-1.6685,
12.718482,-0.1550,0.9864,-0.0764,-0.9886,-0.5869,3.5132,0.2203,-0.0004,-1.5331,
12.719417,-0.1550,0.9864,-0.0764,-1.0905,0.4906,-1.0967,0.2203,-0.0004,-1.5331,
12.773568,-0.2036,1.0292,0.0002,-1.0905,0.4906,-1.0967,0.2203,-0.0004,-1.5331,
12.774579,-0.1460,1.0240,0.0188,-1.0905,0.4906,-1.0967,0.2203,-0.0004,-1.5331,
12.775264,0.0195,1.0358,-0.0244,-1.0905,0.4906,-1.0967,0.2203,-0.0004,-1.5331,
12.775811,0.0195,1.0358,-0.0244,-1.0905,0.4906,-1.0967,0.1452,-0.1140,-0.9782,
12.776327,0.0195,1.0358,-0.0244,-0.5549,0.4197,0.2119,0.1452,-0.1140,-0.9782,
12.832231,0.0784,1.0480,-0.0442,-0.5549,0.4197,0.2119,0.1452,-0.1140,-0.9782,
12.833502,0.0737,1.0035,-0.0400,-0.5549,0.4197,0.2119,0.1452,-0.1140,-0.9782,
12.834132,0.0173,0.9674,-0.0112,-0.5549,0.4197,0.2119,0.1452,-0.1140,-0.9782,
12.834621,0.0173,0.9674,-0.0112,-0.5549,0.4197,0.2119,0.1727,0.0776,-1.0456,
12.835586,0.0173,0.9674,-0.0112,1.6362,0.2394,0.0186,0.1727,0.0776,-1.0456,
12.890248,-0.0908,1.0067,0.0125,1.6362,0.2394,0.0186,0.1727,0.0776,-1.0456,
12.891253,-0.2185,1.0450,-0.0093,1.6362,0.2394,0.0186,0.1727,0.0776,-1.0456,
12.891927,-0.2610,1.0133,-0.0454,1.6362,0.2394,0.0186,0.1727,0.0776,-1.0456,
12.892346,-0.2610,1.0133,-0.0454,1.6362,0.2394,0.0186,0.2458,0.4032,-1.3164,
12.892924,-0.2610,1.0133,-0.0454,-0.0546,0.4988,0.3585,0.2458,0.4032,-1.3164,
12.948741,-0.1782,0.9388,-0.0569,-0.0546,0.4988,0.3585,0.2458,0.4032,-1.3164,
12.949908,-0.1292,0.9105,-0.0496,-0.0546,0.4988,0.3585,0.2458,0.4032,-1.3164,
12.950537,-0.1021,0.9588,-0.0735,-0.0546,0.4988,0.3585,0.2458,0.4032,-1.3164,
12.951111,-0.1021,0.9588,-0.0735,-0.0546,0.4988,0.3585,0.1971,0.1928,-1.2673,
12.951640,-0.1021,0.9588,-0.0735,1.1431,-0.1716,0.0401,0.1971,0.1928,-1.2673,
13.006819,-0.0754,1.0111,-0.1243,1.1431,-0.1716,0.0401,0.1971,0.1928,-1.2673,
13.008120,-0.1189,1.0531,-0.0842,1.1431,-0.1716,0.0401,0.1971,0.1928,-1.2673,
13.008742,-0.2136,1.1388,0.0168,1.1431,-0.1716,0.0401,0.1971,0.1928,-1.2673,
13.010249,-0.2136,1.1388,0.0168,2.0192,1.3935,0.1332,0.1971,0.1928,-1.2673,
13.011158,-0.2136,1.1388,0.0168,2.0192,1.3935,0.1332,0.2325,0.0552,-1.6913,
13.065363,-0.1223,1.1678,0.0498,2.0192,1.3935,0.1332,0.2325,0.0552,-1.6913,
13.066498,0.0945,1.1901,0.0750,2.0192,1.3935,0.1332,0.2325,0.0552,-1.6913,
13.067082,0.1914,1.2929,-0.0044,2.0192,1.3935,0.1332,0.2325,0.0552,-1.6913,
13.067823,0.1914,1.2929,-0.0044,2.0192,1.3935,0.1332,0.4323,-0.2553,-2.1195,
13.068529,0.1914,1.2929,-0.0044,4.9074,3.3047,1.2933,0.4323,-0.2553,-2.1195,
13.123468,0.1575,1.5778,-0.1174,4.9074,3.3047,1.2933,0.4323,-0.2553,-2.1195,
13.124579,0.4827,1.9099,-0.0891,4.9074,3.3047,1.2933,0.4323,-0.2553,-2.1195,
13.125053,1.0638,1.8273,-0.1831,4.9074,3.3047,1.2933,0.4323,-0.2553,-2.1195,
13.125582,1.0638,1.8273,-0.1831,4.9074,3.3047,1.2933,0.6265,1.1733,-2.6465,
13.126946,1.0638,1.8273,-0.1831,10.9396,9.3953,0.2712,0.6265,1.1733,-2.6465,
13.181878,0.8050,1.3681,-0.1851,10.9396,9.3953,0.2712,0.6265,1.1733,-2.6465,
13.183155,-0.3540,1.1144,-0.1482,10.9396,9.3953,0.2712,0.6265,1.1733,-2.6465,
13.183583,-1.2699,1.3952,-0.2969,10.9396,9.3953,0.2712,0.6265,1.1733,-2.6465,
13.184918,-1.2699,1.3952,-0.2969,4.0626,6.2153,0.7781,0.6265,1.1733,-2.6465,
13.185707,-1.2699,1.3952,-0.2969,4.0626,6.2153,0.7781,0.8324,2.6561,-4.2278,
13.240210,-1.4884,1.3620,-0.3684,4.0626,6.2153,0.7781,0.8324,2.6561,-4.2278,
13.241431,-1.0328,0.7830,-0.1372,4.0626,6.2153,0.7781,0.8324,2.6561,-4.2278,
13.242001,-0.7589,0.3560,-0.3008,4.0626,6.2153,0.7781,0.8324,2.6561,-4.2278,
13.242613,-0.7589,0.3560,-0.3008,4.0626,6.2153,0.7781,0.6571,0.7164,-2.4410,
13.243938,-0.7589,0.3560,-0.3008,-3.2098,2.8015,0.7062,0.6571,0.7164,-2.4410,
13.298781,-0.5225,0.2088,-0.4698,-3.2098,2.8015,0.7062,0.6571,0.7164,-2.4410,
13.299900,-0.2246,0.0471,-0.0217,-3.2098,2.8015,0.7062,0.6571,0.7164,-2.4410,
13.300533,-0.0620,-0.1226,-0.0276,-3.2098,2.8015,0.7062,0.6571,0.7164,-2.4410,
13.301011,-0.0620,-0.1226,-0.0276,-3.2098,2.8015,0.7062,-0.6278,-0.7436,1.5408,
13.302617,-0.0620,-0.1226,-0.0276,4.4029,-5.6089,1.0980,-0.6278,-0.7436,1.5408,
13.356871,-0.1101,-0.0735,-0.1140,4.4029,-5.6089,1.0980,-0.6278,-0.7436,1.5408,
13.358319,-0.2617,0.0835,-0.2798,4.4029,-5.6089,1.0980,-0.6278,-0.7436,1.5408,
13.358883,-0.2556,0.1611,-0.3814,4.4029,-5.6089,1.0980,-0.6278,-0.7436,1.5408,
13.360794,-0.2556,0.1611,-0.3814,4.4029,-5.6089,1.0980,0.1411,-1.0873,3.9469,
13.361716,-0.2556,0.1611,-0.3814,3.5345,-6.8179,-0.0831,0.1411,-1.0873,3.9469,
13.415447,-0.2154,0.2146,-0.2298,3.5345,-6.8179,-0.0831,0.1411,-1.0873,3.9469,
13.416645,-0.3814,0.3472,-0.2986,3.5345,-6.8179,-0.0831,0.1411,-1.0873,3.9469,
13.417222,-0.6402,0.5555,-0.5115,3.5345,-6.8179,-0.0831,0.1411,-1.0873,3.9469,
13.418137,-0.6402,0.5555,-0.5115,3.5345,-6.8179,-0.0831,0.9222,-1.8458,6.0812,
13.418755,-0.6402,0.5555,-0.5115,-1.0739,-5.0401,-0.9519,0.9222,-1.8458,6.0812,
13.473606,-0.8658,0.8026,-0.5105,-1.0739,-5.0401,-0.9519,0.9222,-1.8458,6.0812,
13.474956,-0.9925,1.1549,-0.4363,-1.0739,-5.0401,-0.9519,0.9222,-1.8458,6.0812,
13.475555,-0.8670,1.4652,-0.5149,-1.0739,-5.0401,-0.9519,0.9222,-1.8458,6.0812,
13.477133,-0.8670,1.4652,-0.5149,-1.0739,-5.0401,-0.9519,2.0346,-6.8535,7.6084,
13.478356,-0.8670,1.4652,-0.5149,-8.7217,2.1266,-1.7619,2.0346,-6.8535,7.6084,
13.532240,-0.6009,1.7516,-0.3235,-8.7217,2.1266,-1.7619,2.0346,-6.8535,7.6084,
13.533426,-0.3606,1.7827,0.0728,-8.7217,2.1266,-1.7619,2.0346,-6.8535,7.6084,
13.533938,-0.1690,1.4369,0.6363,-8.7217,2.1266,-1.7619,2.0346,-6.8535,7.6084,
13.534524,-0.1690,1.4369,0.6363,-8.7217,2.1266,-1.7619,1.8599,-10.4479,5.6785,
13.535329,-0.1690,1.4369,0.6363,-4.1590,7.5772,5.3896,1.8599,-10.4479,5.6785,
13.590244,-0.6700,1.4992,0.4598,-4.1590,7.5772,5.3896,1.8599,-10.4479,5.6785,
13.591906,-0.2290,1.3244,1.1967,-4.1590,7.5772,5.3896,1.8599,-10.4479,5.6785,
13.592696,1.2658,0.5999,1.2604,-4.1590,7.5772,5.3896,1.8599,-10.4479,5.6785,
13.593423,1.2658,0.5999,1.2604,-4.1590,7.5772,5.3896,-0.7850,-3.3412,0.6528,
13.594163,1.2658,0.5999,1.2604,1.1955,2.3210,13.1090,-0.7850,-3.3412,0.6528,
13.648988,0.7030,1.1708,0.5850,1.1955,2.3210,13.1090,-0.7850,-3.3412,0.6528,
13.650396,-0.3858,1.7026,-0.4964,1.1955,2.3210,13.1090,-0.7850,-3.3412,0.6528,
13.651174,-0.4800,1.6554,-1.3490,1.1955,2.3210,13.1090,-0.7850,-3.3412,0.6528,
13.651796,-0.4800,1.6554,-1.3490,1.1955,2.3210,13.1090,-0.6547,1.1379,-1.1289,
13.652477,-0.4800,1.6554,-1.3490,-0.1621,5.7193,-0.8434,-0.6547,1.1379,-1.1289,
13.706827,-0.3076,1.2775,-0.8504,-0.1621,5.7193,-0.8434,-0.6547,1.1379,-1.1289,
13.708870,0.0842,1.0406,-0.4524,-0.1621,5.7193,-0.8434,-0.6547,1.1379,-1.1289,
13.709537,0.2302,0.7415,-0.1277,-0.1621,5.7193,-0.8434,-0.6547,1.1379,-1.1289,
13.710121,0.2302,0.7415,-0.1277,-0.1621,5.7193,-0.8434,-0.7618,-1.7475,0.0727,
13.710876,0.2302,0.7415,-0.1277,0.6468,0.7677,-1.8310,-0.7618,-1.7475,0.0727,
13.765421,0.0322,0.8079,0.2742,0.6468,0.7677,-1.8310,-0.7618,-1.7475,0.0727,
13.766950,-0.1240,1.0296,0.2122,0.6468,0.7677,-1.8310,-0.7618,-1.7475,0.0727,
13.767771,-0.2100,1.0050,-0.1260,0.6468,0.7677,-1.8310,-0.7618,-1.7475,0.0727,
13.768468,-0.2100,1.0050,-0.1260,0.6468,0.7677,-1.8310,-0.3851,-0.7348,-0.1313,
13.769234,-0.2100,1.0050,-0.1260,-0.1703,0.0031,3.7183,-0.3851,-0.7348,-0.1313,
13.823740,-0.1817,0.9735,-0.3829,-0.1703,0.0031,3.7183,-0.3851,-0.7348,-0.1313,
13.825543,-0.2632,0.9527,-0.3848,-0.1703,0.0031,3.7183,-0.3851,-0.7348,-0.1313,
13.826322,-0.3059,0.9901,-0.3428,-0.1703,0.0031,3.7183,-0.3851,-0.7348,-0.1313,
13.827058,-0.3059,0.9901,-0.3428,-0.1703,0.0031,3.7183,-0.0599,-0.3614,0.0904,
13.827781,-0.3059,0.9901,-0.3428,-1.6061,0.2269,-1.1175,-0.0599,-0.3614,0.0904,
13.882197,-0.1577,1.0055,-0.2857,-1.6061,0.2269,-1.1175,-0.0599,-0.3614,0.0904,
13.883634,0.0398,0.9513,-0.2178,-1.6061,0.2269,-1.1175,-0.0599,-0.3614,0.0904,
13.884323,0.1355,0.8846,-0.1287,-1.6061,0.2269,-1.1175,-0.0599,-0.3614,0.0904,
13.884959,0.1355,0.8846,-0.1287,-1.6061,0.2269,-1.1175,-0.1442,-0.7434,0.4661,
13.885645,0.1355,0.8846,-0.1287,0.7443,-0.0587,0.3272,-0.1442,-0.7434,0.4661,
13.940631,-0.0230,0.9344,-0.1504,0.7443,-0.0587,0.3272,-0.1442,-0.7434,0.4661,
13.942096,-0.1221,1.0177,-0.2205,0.7443,-0.0587,0.3272,-0.1442,-0.7434,0.4661,
13.942783,-0.0569,1.0191,-0.2071,0.7443,-0.0587,0.3272,-0.1442,-0.7434,0.4661,
13.943291,-0.0569,1.0191,-0.2071,0.7443,-0.0587,0.3272,0.0244,-0.2643,0.1026,
13.943915,-0.0569,1.0191,-0.2071,0.0080,0.3589,0.4988,0.0244,-0.2643,0.1026,
13.999041,-0.0083,0.9615,-0.2239,0.0080,0.3589,0.4988,0.0244,-0.2643,0.1026,
14.000253,-0.0938,0.9667,-0.2078,0.0080,0.3589,0.4988,0.0244,-0.2643,0.1026,
14.000781,-0.1499,0.9769,-0.1741,0.0080,0.3589,0.4988,0.0244,-0.2643,0.1026,
14.001371,-0.1499,0.9769,-0.1741,0.0080,0.3589,0.4988,0.2012,-0.3938,0.0450,
14.001877,-0.1499,0.9769,-0.1741,-0.1222,0.1667,0.4935,0.2012,-0.3938,0.0450,
14.057431,-0.1113,0.9435,-0.2068,-0.1222,0.1667,0.4935,0.2012,-0.3938,0.0450,
14.059362,-0.0657,0.9537,-0.2542,-0.1222,0.1667,0.4935,0.2012,-0.3938,0.0450,
14.059984,-0.1084,0.9537,-0.3284,-0.1222,0.1667,0.4935,0.2012,-0.3938,0.0450,
14.060518,-0.1084,0.9537,-0.3284,-0.1222,0.1667,0.4935,0.3396,-0.2443,0.1199,
14.061163,-0.1084,0.9537,-0.3284,-0.2560,0.0350,0.0670,0.3396,-0.2443,0.1199,
14.115564,-0.1953,0.9972,-0.2554,-0.2560,0.0350,0.0670,0.3396,-0.2443,0.1199,
14.116859,-0.1118,1.0040,-0.1604,-0.2560,0.0350,0.0670,0.3396,-0.2443,0.1199,
14.117371,0.0129,1.0035,-0.1826,-0.2560,0.0350,0.0670,0.3396,-0.2443,0.1199,
14.118297,0.0129,1.0035,-0.1826,-0.2560,0.0350,0.0670,0.4970,-0.1934,0.2381,
14.118773,0.0129,1.0035,-0.1826,-0.3755,0.5990,0.9356,0.4970,-0.1934,0.2381,
14.174052,0.1333,1.0467,-0.2036,-0.3755,0.5990,0.9356,0.4970,-0.1934,0.2381,
14.175306,0.2586,1.0912,-0.2241,-0.3755,0.5990,0.9356,0.4970,-0.1934,0.2381,
14.175789,0.2310,1.0741,-0.2398,-0.3755,0.5990,0.9356,0.4970,-0.1934,0.2381,
14.176385,0.2310,1.0741,-0.2398,-0.3755,0.5990,0.9356,0.9326,0.0806,0.0959,
14.176858,0.2310,1.0741,-0.2398,2.5112,1.4198,1.1891,0.9326,0.0806,0.0959,
14.232327,0.0701,1.0699,-0.2752,2.5112,1.4198,1.1891,0.9326,0.0806,0.0959,
14.233593,0.1011,1.2985,-0.1870,2.5112,1.4198,1.1891,0.9326,0.0806,0.0959,
14.234248,0.3938,1.4867,-0.0313,2.5112,1.4198,1.1891,0.9326,0.0806,0.0959,
14.234914,0.3938,1.4867,-0.0313,2.5112,1.4198,1.1891,1.6023,-0.9189,-0.4443,
14.235516,0.3938,1.4867,-0.0313,2.7107,3.8265,2.5096,1.6023,-0.9189,-0.4443,
14.290992,0.7100,1.5788,0.0591,2.7107,3.8265,2.5096,1.6023,-0.9189,-0.4443,
14.292387,0.7091,1.5671,0.0286,2.7107,3.8265,2.5096,1.6023,-0.9189,-0.4443,
14.292914,0.2718,1.4960,0.1897,2.7107,3.8265,2.5096,1.6023,-0.9189,-0.4443,
14.293413,0.2718,1.4960,0.1897,2.7107,3.8265,2.5096,2.2602,-1.9368,-1.0843,
14.294075,0.2718,1.4960,0.1897,7.3213,6.9754,5.8840,2.2602,-1.9368,-1.0843,
14.349026,-0.1113,1.4062,0.4212,7.3213,6.9754,5.8840,2.2602,-1.9368,-1.0843,
14.350207,-0.6771,1.4318,0.2344,7.3213,6.9754,5.8840,2.2602,-1.9368,-1.0843,
14.350759,-1.3224,1.4796,-0.0635,7.3213,6.9754,5.8840,2.2602,-1.9368,-1.0843,
14.351328,-1.3224,1.4796,-0.0635,7.3213,6.9754,5.8840,2.3184,-2.5744,-2.1525,
14.351901,-1.3224,1.4796,-0.0635,-3.2767,6.8614,7.4273,2.3184,-2.5744,-2.1525,
14.406978,-1.2032,1.2130,-0.2432,-3.2767,6.8614,7.4273,2.3184,-2.5744,-2.1525,
14.408388,-0.7664,1.1344,-0.4285,-3.2767,6.8614,7.4273,2.3184,-2.5744,-2.1525,
14.409038,-0.3091,0.9479,-0.3724,-3.2767,6.8614,7.4273,2.3184,-2.5744,-2.1525,
14.409532,-0.3091,0.9479,-0.3724,-3.2767,6.8614,7.4273,1.9069,-4.8778,-0.4801,
14.410097,-0.3091,0.9479,-0.3724,-2.0802,4.1578,1.5242,1.9069,-4.8778,-0.4801,
14.465222,0.1792,0.6302,-0.0347,-2.0802,4.1578,1.5242,1.9069,-4.8778,-0.4801,
14.466546,0.2581,0.4187,0.3145,-2.0802,4.1578,1.5242,1.9069,-4.8778,-0.4801,
14.467209,-0.0493,0.4466,0.3062,-2.0802,4.1578,1.5242,1.9069,-4.8778,-0.4801,
14.467760,-0.0493,0.4466,0.3062,-2.0802,4.1578,1.5242,0.6949,-5.3343,2.0963,
14.468369,-0.0493,0.4466,0.3062,6.9957,-2.2090,5.2487,0.6949,-5.3343,2.0963,
14.524040,-0.2364,0.4578,0.2061,6.9957,-2.2090,5.2487,0.6949,-5.3343,2.0963,
14.525321,-0.1502,0.4278,0.1406,6.9957,-2.2090,5.2487,0.6949,-5.3343,2.0963,
14.525955,-0.1025,0.4773,0.1526,6.9957,-2.2090,5.2487,0.6949,-5.3343,2.0963,
14.526374,-0.1025,0.4773,0.1526,6.9957,-2.2090,5.2487,0.7599,-2.8900,3.7550,
14.526963,-0.1025,0.4773,0.1526,2.9199,-3.5949,4.3262,0.7599,-2.8900,3.7550,
14.582075,-0.1621,0.6419,0.1275,2.9199,-3.5949,4.3262,0.7599,-2.8900,3.7550,
14.583240,-0.1695,0.8031,0.0652,2.9199,-3.5949,4.3262,0.7599,-2.8900,3.7550,
14.583967,-0.1582,0.9403,0.0386,2.9199,-3.5949,4.3262,0.7599,-2.8900,3.7550,
14.584558,-0.1582,0.9403,0.0386,2.9199,-3.5949,4.3262,0.2513,-0.8438,5.4913,
14.585077,-0.1582,0.9403,0.0386,0.2835,-1.2399,3.3274,0.2513,-0.8438,5.4913,
14.640358,-0.1773,1.0995,0.0251,0.2835,-1.2399,3.3274,0.2513,-0.8438,5.4913,
14.641262,-0.2381,1.3612,-0.0303,0.2835,-1.2399,3.3274,0.2513,-0.8438,5.4913,
14.641919,-0.4834,1.7328,-0.1565,0.2835,-1.2399,3.3274,0.2513,-0.8438,5.4913,
14.643194,-0.4834,1.7328,-0.1565,-4.3896,4.3965,1.5059,0.2513,-0.8438,5.4913,
14.644062,-0.4834,1.7328,-0.1565,-4.3896,4.3965,1.5059,-0.9261,-0.3156,6.4207,
14.698607,-0.8929,1.9152,-0.1929,-4.3896,4.3965,1.5059,-0.9261,-0.3156,6.4207,
14.699961,-1.1529,1.6948,0.0603,-4.3896,4.3965,1.5059,-0.9261,-0.3156,6.4207,
14.700641,-0.9737,1.3620,0.1721,-4.3896,4.3965,1.5059,-0.9261,-0.3156,6.4207,
14.701545,-0.9737,1.3620,0.1721,-4.3896,4.3965,1.5059,-1.5359,-0.3054,5.2655,
14.702234,-0.9737,1.3620,0.1721,-13.8196,7.5357,1.3874,-1.5359,-0.3054,5.2655,
14.756835,-0.9022,1.1437,-0.1140,-13.8196,7.5357,1.3874,-1.5359,-0.3054,5.2655,
14.758588,-1.2501,0.8360,-0.3072,-13.8196,7.5357,1.3874,-1.5359,-0.3054,5.2655,
14.759430,-1.5126,0.6822,-0.5499,-13.8196,7.5357,1.3874,-1.5359,-0.3054,5.2655,
14.760151,-1.5126,0.6822,-0.5499,-13.8196,7.5357,1.3874,-0.6439,0.6630,0.1134,
14.761509,-1.5126,0.6822,-0.5499,-15.7537,-0.0241,-2.3610,-0.6439,0.6630,0.1134,
14.815107,-1.2457,1.5739,-1.1732,-15.7537,-0.0241,-2.3610,-0.6439,0.6630,0.1134,
14.816838,0.8917,1.9690,-0.0481,-15.7537,-0.0241,-2.3610,-0.6439,0.6630,0.1134,
14.818182,2.4282,1.5802,-0.4710,-15.7537,-0.0241,-2.3610,-0.6439,0.6630,0.1134,
14.819425,2.4282,1.5802,-0.4710,-15.7537,-0.0241,-2.3610,-0.3926,-2.5170,-0.8711,
14.820232,2.4282,1.5802,-0.4710,3.5210,7.6876,-4.3330,-0.3926,-2.5170,-0.8711,
14.874463,0.0149,1.4252,-1.1197,3.5210,7.6876,-4.3330,-0.3926,-2.5170,-0.8711,
14.875933,-0.8165,0.8319,-0.1558,3.5210,7.6876,-4.3330,-0.3926,-2.5170,-0.8711,
14.876730,-0.3191,0.4915,0.8131,3.5210,7.6876,-4.3330,-0.3926,-2.5170,-0.8711,
14.878263,-0.3191,0.4915,0.8131,-5.1652,-0.5068,-0.4024,-0.3926,-2.5170,-0.8711,
14.879122,-0.3191,0.4915,0.8131,-5.1652,-0.5068,-0.4024,-0.5708,-1.4078,-2.8859,
14.932023,-0.0020,0.9342,0.2134,-5.1652,-0.5068,-0.4024,-0.5708,-1.4078,-2.8859,
14.933221,-0.0259,1.1869,-0.1387,-5.1652,-0.5068,-0.4024,-0.5708,-1.4078,-2.8859,
14.934030,-0.2940,1.1212,-0.2031,-5.1652,-0.5068,-0.4024,-0.5708,-1.4078,-2.8859,
14.935373,-0.2940,1.1212,-0.2031,-5.1652,-0.5068,-0.4024,-0.0727,0.1126,-1.3775,
14.936621,-0.2940,1.1212,-0.2031,-1.7654,0.9947,0.6364,-0.0727,0.1126,-1.3775,
14.990465,-0.0293,1.0912,-0.1765,-1.7654,0.9947,0.6364,-0.0727,0.1126,-1.3775,
14.991719,0.2469,1.0309,-0.1328,-1.7654,0.9947,0.6364,-0.0727,0.1126,-1.3775,
14.992326,0.2505,0.9715,0.0361,-1.7654,0.9947,0.6364,-0.0727,0.1126,-1.3775,
14.993332,0.2505,0.9715,0.0361,1.2761,0.4729,0.1214,-0.0727,0.1126,-1.3775,
14.994234,0.2505,0.9715,0.0361,1.2761,0.4729,0.1214,-0.0914,-0.4856,-0.8092,
15.048775,0.1572,0.9395,0.1262,1.2761,0.4729,0.1214,-0.0914,-0.4856,-0.8092,
15.050565,0.1074,0.9281,0.1038,1.2761,0.4729,0.1214,-0.0914,-0.4856,-0.8092,
15.051340,0.0908,0.9408,0.0164,1.2761,0.4729,0.1214,-0.0914,-0.4856,-0.8092,
15.052269,0.0908,0.9408,0.0164,1.6785,-0.4313,1.8603,-0.0914,-0.4856,-0.8092,
15.053215,0.0908,0.9408,0.0164,1.6785,-0.4313,1.8603,0.1336,-0.3522,-1.3840,
15.106716,-0.0408,0.9610,-0.0513,1.6785,-0.4313,1.8603,0.1336,-0.3522,-1.3840,
15.108208,-0.2310,1.0016,-0.0840,1.6785,-0.4313,1.8603,0.1336,-0.3522,-1.3840,
15.108813,-0.2930,1.0502,-0.0842,1.6785,-0.4313,1.8603,0.1336,-0.3522,-1.3840,
15.109285,-0.2930,1.0502,-0.0842,1.6785,-0.4313,1.8603,0.2696,0.0481,-1.6748,
15.109857,-0.2930,1.0502,-0.0842,-0.3911,0.3445,0.4849,0.2696,0.0481,-1.6748,
15.165371,-0.2132,1.0685,-0.1206,-0.3911,0.3445,0.4849,0.2696,0.0481,-1.6748,
15.166598,-0.1731,1.0372,-0.1463,-0.3911,0.3445,0.4849,0.2696,0.0481,-1.6748,
15.167318,-0.1404,1.0045,-0.1580,-0.3911,0.3445,0.4849,0.2696,0.0481,-1.6748,
15.167834,-0.1404,1.0045,-0.1580,-0.3911,0.3445,0.4849,0.3068,0.0340,-1.4380,
15.168415,-0.1404,1.0045,-0.1580,0.5120,0.8269,-0.0135,0.3068,0.0340,-1.4380,
15.223526,-0.1184,1.0086,-0.1841,0.5120,0.8269,-0.0135,0.3068,0.0340,-1.4380,
15.224776,-0.1067,1.0292,-0.2193,0.5120,0.8269,-0.0135,0.3068,0.0340,-1.4380,
15.225277,-0.0769,1.1095,-0.1714,0.5120,0.8269,-0.0135,0.3068,0.0340,-1.4380,
15.225768,-0.0769,1.1095,-0.1714,0.5120,0.8269,-0.0135,0.3339,0.1423,-1.6738,
15.227035,-0.0769,1.1095,-0.1714,2.0960,1.2178,-0.2964,0.3339,0.1423,-1.6738,
15.281952,-0.0466,1.2448,-0.1438,2.0960,1.2178,-0.2964,0.3339,0.1423,-1.6738,
15.283136,-0.0117,1.3256,-0.1856,2.0960,1.2178,-0.2964,0.3339,0.1423,-1.6738,
15.283744,0.0115,1.2855,-0.1968,2.0960,1.2178,-0.2964,0.3339,0.1423,-1.6738,
15.284432,0.0115,1.2855,-0.1968,3.9991,3.9883,0.1254,0.3339,0.1423,-1.6738,
15.285152,0.0115,1.2855,-0.1968,3.9991,3.9883,0.1254,0.6005,-0.1948,-2.1737,
15.340155,0.1128,1.2853,-0.1746,3.9991,3.9883,0.1254,0.6005,-0.1948,-2.1737,
15.341360,0.3633,1.5573,-0.1323,3.9991,3.9883,0.1254,0.6005,-0.1948,-2.1737,
15.341900,1.0338,2.0778,0.0591,3.9991,3.9883,0.1254,0.6005,-0.1948,-2.1737,
15.342360,1.0338,2.0778,0.0591,3.9991,3.9883,0.1254,0.8819,0.3397,-2.3822,
15.343383,1.0338,2.0778,0.0591,10.0174,8.0920,1.5282,0.8819,0.3397,-2.3822,
15.399161,1.5617,1.8483,0.0886,10.0174,8.0920,1.5282,0.8819,0.3397,-2.3822,
15.400749,0.2744,1.1027,0.1746,10.0174,8.0920,1.5282,0.8819,0.3397,-2.3822,
15.401398,-0.9693,1.2118,-0.1550,10.0174,8.0920,1.5282,0.8819,0.3397,-2.3822,
15.401842,-0.9693,1.2118,-0.1550,10.0174,8.0920,1.5282,0.9796,1.8377,-3.6383,
15.402366,-0.9693,1.2118,-0.1550,9.0072,6.8819,3.6700,0.9796,1.8377,-3.6383,
15.456788,-1.3158,1.4557,-0.2503,9.0072,6.8819,3.6700,0.9796,1.8377,-3.6383,
15.458168,-1.1127,1.1432,-0.3650,9.0072,6.8819,3.6700,0.9796,1.8377,-3.6383,
15.458867,-0.8626,0.7489,-0.4161,9.0072,6.8819,3.6700,0.9796,1.8377,-3.6383,
15.459559,-0.8626,0.7489,-0.4161,9.0072,6.8819,3.6700,0.8703,1.0841,-2.7503,
15.460164,-0.8626,0.7489,-0.4161,-3.7624,5.3696,0.6595,0.8703,1.0841,-2.7503,
15.515181,-0.6275,0.4952,-0.5118,-3.7624,5.3696,0.6595,0.8703,1.0841,-2.7503,
15.516444,-0.3389,0.3006,-0.4590,-3.7624,5.3696,0.6595,0.8703,1.0841,-2.7503,
15.517056,-0.2029,0.0899,-0.0618,-3.7624,5.3696,0.6595,0.8703,1.0841,-2.7503,
15.517528,-0.2029,0.0899,-0.0618,-3.7624,5.3696,0.6595,-1.1224,-0.3184,1.2189,
15.518497,-0.2029,0.0899,-0.0618,2.7660,-3.3501,0.1422,-1.1224,-0.3184,1.2189,
15.573906,-0.1038,-0.0254,-0.0847,2.7660,-3.3501,0.1422,-1.1224,-0.3184,1.2189,
15.575423,0.0396,0.0745,-0.1660,2.7660,-3.3501,0.1422,-1.1224,-0.3184,1.2189,
15.576070,0.0366,0.2947,-0.3623,2.7660,-3.3501,0.1422,-1.1224,-0.3184,1.2189,
15.576899,0.0366,0.2947,-0.3623,2.7660,-3.3501,0.1422,-1.6581,-0.1969,3.9540,
15.577926,0.0366,0.2947,-0.3623,4.8108,-6.6535,0.7481,-1.6581,-0.1969,3.9540,
15.632015,-0.0425,0.5140,-0.5142,4.8108,-6.6535,0.7481,-1.6581,-0.1969,3.9540,
15.633457,-0.1165,0.6802,-0.3775,4.8108,-6.6535,0.7481,-1.6581,-0.1969,3.9540,
15.634098,-0.0774,0.7449,-0.2940,4.8108,-6.6535,0.7481,-1.6581,-0.1969,3.9540,
15.634701,-0.0774,0.7449,-0.2940,4.8108,-6.6535,0.7481,-1.8163,0.7292,5.4239,
15.635396,-0.0774,0.7449,-0.2940,1.3055,-2.7671,-1.8532,-1.8163,0.7292,5.4239,
15.690050,-0.0647,0.9293,-0.4229,1.3055,-2.7671,-1.8532,-1.8163,0.7292,5.4239,
15.691524,-0.1748,1.3290,-0.4617,1.3055,-2.7671,-1.8532,-1.8163,0.7292,5.4239,
15.692416,-0.5311,1.8632,-0.5772,1.3055,-2.7671,-1.8532,-1.8163,0.7292,5.4239,
15.696279,-0.5311,1.8632,-0.5772,1.3055,-2.7671,-1.8532,-1.8459,1.4441,6.2733,
15.701409,-0.5311,1.8632,-0.5772,-3.9244,4.0147,-3.6832,-1.8459,1.4441,6.2733,
15.748534,-0.8954,1.9814,-0.6485,-3.9244,4.0147,-3.6832,-1.8459,1.4441,6.2733,
15.749990,-1.0729,1.6327,-0.4666,-3.9244,4.0147,-3.6832,-1.8459,1.4441,6.2733,
15.750778,-1.0389,1.3114,-0.1712,-3.9244,4.0147,-3.6832,-1.8459,1.4441,6.2733,
15.751454,-1.0389,1.3114,-0.1712,-13.9869,7.4154,-4.0955,-1.8459,1.4441,6.2733,
15.753308,-1.0389,1.3114,-0.1712,-13.9869,7.4154,-4.0955,-1.9815,0.1436,5.6229,
15.807193,-0.9872,1.1979,-0.2566,-13.9869,7.4154,-4.0955,-1.9815,0.1436,5.6229,
15.809059,-1.0345,0.9430,-0.2239,-13.9869,7.4154,-4.0955,-1.9815,0.1436,5.6229,
15.809761,-1.0843,0.8590,-0.1853,-13.9869,7.4154,-4.0955,-1.9815,0.1436,5.6229,
15.810440,-1.0843,0.8590,-0.1853,-13.9869,7.4154,-4.0955,-0.7530,-1.1859,1.3279,
15.811988,-1.0843,0.8590,-0.1853,-14.7198,1.4482,-2.0776,-0.7530,-1.1859,1.3279,
15.865269,-0.7699,1.0567,-0.1922,-14.7198,1.4482,-2.0776,-0.7530,-1.1859,1.3279,
15.866725,0.1033,1.6069,0.0378,-14.7198,1.4482,-2.0776,-0.7530,-1.1859,1.3279,
15.867771,2.2978,1.4989,0.7108,-14.7198,1.4482,-2.0776,-0.7530,-1.1859,1.3279,
15.868611,2.2978,1.4989,0.7108,-14.7198,1.4482,-2.0776,-0.4012,-1.1388,-1.7116,
15.870521,2.2978,1.4989,0.7108,1.5924,4.7493,1.9675,-0.4012,-1.1388,-1.7116,
15.923451,2.4509,1.3361,-0.0483,1.5924,4.7493,1.9675,-0.4012,-1.1388,-1.7116,
15.924875,-0.2766,1.5019,-1.4076,1.5924,4.7493,1.9675,-0.4012,-1.1388,-1.7116,
15.925662,-1.1630,1.2623,-0.7528,1.5924,4.7493,1.9675,-0.4012,-1.1388,-1.7116,
15.926480,-1.1630,1.2623,-0.7528,1.5924,4.7493,1.9675,0.2598,0.2071,-2.6509,
15.928263,-1.1630,1.2623,-0.7528,0.9550,4.0113,-6.8383,0.2598,0.2071,-2.6509,
15.982065,-0.7200,0.6241,0.4063,0.9550,4.0113,-6.8383,0.2598,0.2071,-2.6509,
15.983438,-0.3662,0.8302,0.5135,0.9550,4.0113,-6.8383,0.2598,0.2071,-2.6509,
15.984051,0.0808,0.9679,0.3987,0.9550,4.0113,-6.8383,0.2598,0.2071,-2.6509,
15.984593,0.0808,0.9679,0.3987,0.9550,4.0113,-6.8383,-0.3352,-0.3746,-1.8754,
15.986181,0.0808,0.9679,0.3987,-4.5111,-1.6487,4.4582,-0.3352,-0.3746,-1.8754,
16.040409,0.2163,1.0768,-0.0378,-4.5111,-1.6487,4.4582,-0.3352,-0.3746,-1.8754,
16.041942,0.1165,1.0257,-0.1250,-4.5111,-1.6487,4.4582,-0.3352,-0.3746,-1.8754,
16.042602,0.0632,1.0311,-0.0625,-4.5111,-1.6487,4.4582,-0.3352,-0.3746,-1.8754,
16.043186,0.0632,1.0311,-0.0625,-4.5111,-1.6487,4.4582,0.1221,-0.0226,-1.1753,
16.044484,0.0632,1.0311,-0.0625,0.7132,0.6050,-0.5057,0.1221,-0.0226,-1.1753,
16.099122,-0.0415,1.0487,-0.0200,0.7132,0.6050,-0.5057,0.1221,-0.0226,-1.1753,
16.100315,-0.1602,1.0311,0.0486,0.7132,0.6050,-0.5057,0.1221,-0.0226,-1.1753,
16.100836,-0.0413,1.0104,0.0439,0.7132,0.6050,-0.5057,0.1221,-0.0226,-1.1753,
16.101317,-0.0413,1.0104,0.0439,0.7132,0.6050,-0.5057,0.0831,-0.0926,-1.1169,
16.101881,-0.0413,1.0104,0.0439,-0.7323,0.4395,0.5067,0.0831,-0.0926,-1.1169,
16.156708,0.2005,0.9840,0.0251,-0.7323,0.4395,0.5067,0.0831,-0.0926,-1.1169,
16.157985,0.2097,0.9584,0.0076,-0.7323,0.4395,0.5067,0.0831,-0.0926,-1.1169,
16.158670,-0.0144,0.9759,-0.0112,-0.7323,0.4395,0.5067,0.0831,-0.0926,-1.1169,
16.159157,-0.0144,0.9759,-0.0112,-0.7323,0.4395,0.5067,0.1584,-0.0497,-1.1156,
16.159727,-0.0144,0.9759,-0.0112,1.9496,-0.0931,0.4210,0.1584,-0.0497,-1.1156,
16.215419,-0.1790,0.9845,-0.0322,1.9496,-0.0931,0.4210,0.1584,-0.0497,-1.1156,
16.216612,-0.1948,0.9898,-0.0098,1.9496,-0.0931,0.4210,0.1584,-0.0497,-1.1156,
16.217107,-0.2085,0.9940,-0.0332,1.9496,-0.0931,0.4210,0.1584,-0.0497,-1.1156,
16.217912,-0.2085,0.9940,-0.0332,1.9496,-0.0931,0.4210,0.1828,0.4496,-1.3321,
16.218515,-0.2085,0.9940,-0.0332,-0.5032,0.1519,0.2318,0.1828,0.4496,-1.3321,
16.273563,-0.2486,0.9579,-0.1084,-0.5032,0.1519,0.2318,0.1828,0.4496,-1.3321,
16.274704,-0.1802,0.9408,-0.0735,-0.5032,0.1519,0.2318,0.1828,0.4496,-1.3321,
16.275242,-0.0762,0.9669,-0.0244,-0.5032,0.1519,0.2318,0.1828,0.4496,-1.3321,
16.275730,-0.0762,0.9669,-0.0244,-0.5032,0.1519,0.2318,0.1517,0.1623,-1.1427,
16.276313,-0.0762,0.9669,-0.0244,0.3711,-0.0639,-0.0955,0.1517,0.1623,-1.1427,
16.331937,-0.0615,1.0135,-0.0251,0.3711,-0.0639,-0.0955,0.1517,0.1623,-1.1427,
16.333207,-0.1240,1.0541,-0.0520,0.3711,-0.0639,-0.0955,0.1517,0.1623,-1.1427,
16.333619,-0.1467,1.0602,-0.0962,0.3711,-0.0639,-0.0955,0.1517,0.1623,-1.1427,
16.334142,-0.1467,1.0602,-0.0962,0.3711,-0.0639,-0.0955,0.1729,0.2790,-1.4261,
16.334684,-0.1467,1.0602,-0.0962,1.6723,0.9827,0.1433,0.1729,0.2790,-1.4261,
16.390257,-0.2530,1.0948,-0.1140,1.6723,0.9827,0.1433,0.1729,0.2790,-1.4261,
16.391186,-0.2041,1.1139,-0.0837,1.6723,0.9827,0.1433,0.1729,0.2790,-1.4261,
16.391858,-0.0764,1.1422,-0.0410,1.6723,0.9827,0.1433,0.1729,0.2790,-1.4261,
16.392361,-0.0764,1.1422,-0.0410,1.6723,0.9827,0.1433,0.3237,-0.0647,-1.7175,
16.392885,-0.0764,1.1422,-0.0410,1.8951,2.0146,0.0856,0.3237,-0.0647,-1.7175,
16.448875,-0.0129,1.2316,-0.0293,1.8951,2.0146,0.0856,0.3237,-0.0647,-1.7175,
16.449836,0.0964,1.4264,-0.0479,1.8951,2.0146,0.0856,0.3237,-0.0647,-1.7175,
16.450460,0.3587,1.7763,-0.0264,1.8951,2.0146,0.0856,0.3237,-0.0647,-1.7175,
16.451067,0.3587,1.7763,-0.0264,1.8951,2.0146,0.0856,0.4883,0.4584,-2.1712,
16.451668,0.3587,1.7763,-0.0264,6.0486,6.0107,0.8732,0.4883,0.4584,-2.1712,
16.506990,0.8353,1.9250,-0.2613,6.0486,6.0107,0.8732,0.4883,0.4584,-2.1712,
16.512083,1.2045,1.8100,-0.4698,6.0486,6.0107,0.8732,0.4883,0.4584,-2.1712,
16.512677,0.8885,1.2064,-0.1770,6.0486,6.0107,0.8732,0.4883,0.4584,-2.1712,
16.513203,0.8885,1.2064,-0.1770,6.0486,6.0107,0.8732,0.6102,2.0336,-2.8322,
16.513781,0.8885,1.2064,-0.1770,15.0437,8.4409,-0.8321,0.6102,2.0336,-2.8322,
16.565253,-0.4869,0.7823,-0.0823,15.0437,8.4409,-0.8321,0.6102,2.0336,-2.8322,
16.566641,-1.3939,1.0970,-0.2537,15.0437,8.4409,-0.8321,0.6102,2.0336,-2.8322,
16.567346,-1.4745,1.1588,-0.2205,15.0437,8.4409,-0.8321,0.6102,2.0336,-2.8322,
16.567992,-1.4745,1.1588,-0.2205,-4.1784,3.8675,1.7478,0.6102,2.0336,-2.8322,
16.568654,-1.4745,1.1588,-0.2205,-4.1784,3.8675,1.7478,1.3968,2.5237,-4.1125,
16.623604,-1.3244,0.7428,-0.1248,-4.1784,3.8675,1.7478,1.3968,2.5237,-4.1125,
16.624833,-1.1288,0.4937,-0.4422,-4.1784,3.8675,1.7478,1.3968,2.5237,-4.1125,
16.625497,-0.5552,0.3243,-0.3523,-4.1784,3.8675,1.7478,1.3968,2.5237,-4.1125,
16.626042,-0.5552,0.3243,-0.3523,-4.1784,3.8675,1.7478,0.3455,-1.1038,0.0570,
16.626567,-0.5552,0.3243,-0.3523,-2.7932,-0.8975,0.2264,0.3455,-1.1038,0.0570,
16.681844,0.0420,-0.0171,0.4114,-2.7932,-0.8975,0.2264,0.3455,-1.1038,0.0570,
16.683247,0.4327,-0.3382,0.5191,-2.7932,-0.8975,0.2264,0.3455,-1.1038,0.0570,
16.683904,0.2180,-0.1609,0.0640,-2.7932,-0.8975,0.2264,0.3455,-1.1038,0.0570,
16.684397,0.2180,-0.1609,0.0640,7.7676,-9.0397,5.9299,0.3455,-1.1038,0.0570,
16.684964,0.2180,-0.1609,0.0640,7.7676,-9.0397,5.9299,-0.3425,-0.8124,3.9018,
16.740613,-0.2244,0.3245,-0.3716,7.7676,-9.0397,5.9299,-0.3425,-0.8124,3.9018,
16.742046,-0.4852,0.5740,-0.3262,7.7676,-9.0397,5.9299,-0.3425,-0.8124,3.9018,
16.742685,-0.7611,0.6358,-0.1321,7.7676,-9.0397,5.9299,-0.3425,-0.8124,3.9018,
16.743348,-0.7611,0.6358,-0.1321,7.7676,-9.0397,5.9299,0.9735,-1.0358,4.8155,
16.743922,-0.7611,0.6358,-0.1321,-1.3508,-3.3902,0.1551,0.9735,-1.0358,4.8155,
16.799082,-0.9005,0.6024,-0.2730,-1.3508,-3.3902,0.1551,0.9735,-1.0358,4.8155,
16.800389,-0.8663,0.8182,-0.3721,-1.3508,-3.3902,0.1551,0.9735,-1.0358,4.8155,
16.801018,-0.8612,1.1613,-0.4039,-1.3508,-3.3902,0.1551,0.9735,-1.0358,4.8155,
16.801634,-0.8612,1.1613,-0.4039,-1.3508,-3.3902,0.1551,1.1724,-5.8596,7.5029,
16.802214,-0.8612,1.1613,-0.4039,-7.9106,-0.6329,-0.5870,1.1724,-5.8596,7.5029,
16.856745,-0.6888,1.4699,-0.4588,-7.9106,-0.6329,-0.5870,1.1724,-5.8596,7.5029,
16.857977,-0.4642,1.9143,-0.2715,-7.9106,-0.6329,-0.5870,1.1724,-5.8596,7.5029,
16.858482,-0.2310,1.8920,0.3658,-7.9106,-0.6329,-0.5870,1.1724,-5.8596,7.5029,
16.860319,-0.2310,1.8920,0.3658,-5.2164,8.4600,2.6809,1.1724,-5.8596,7.5029,
16.861092,-0.2310,1.8920,0.3658,-5.2164,8.4600,2.6809,1.7316,-10.8655,6.8458,
16.918927,-0.2310,1.8920,0.3658,-1.2787,1.4899,10.4013,1.7316,-10.8655,6.8458,
16.920380,0.1690,1.2960,0.8998,-1.2787,1.4899,10.4013,1.7316,-10.8655,6.8458,
16.920982,0.4583,0.6527,1.1425,-1.2787,1.4899,10.4013,1.7316,-10.8655,6.8458,
16.921694,-0.9066,1.2081,0.0125,-1.2787,1.4899,10.4013,1.7316,-10.8655,6.8458,
16.922313,-0.9066,1.2081,0.0125,-1.2787,1.4899,10.4013,-0.4146,-5.2158,1.7801,
16.974073,-1.0553,1.7350,1.2382,-1.2787,1.4899,10.4013,-0.4146,-5.2158,1.7801,
16.976340,0.4913,0.9752,0.7506,-1.2787,1.4899,10.4013,-0.4146,-5.2158,1.7801,
16.976962,0.7161,1.1732,-1.1820,-1.2787,1.4899,10.4013,-0.4146,-5.2158,1.7801,
16.977947,0.7161,1.1732,-1.1820,-1.2787,1.4899,10.4013,-0.7327,0.6145,-1.0313,
16.978692,0.7161,1.1732,-1.1820,0.5435,3.6468,5.8504,-0.7327,0.6145,-1.0313,
17.032184,0.0266,1.4823,-1.3422,0.5435,3.6468,5.8504,-0.7327,0.6145,-1.0313,
17.033672,-0.7291,1.2618,-0.4947,0.5435,3.6468,5.8504,-0.7327,0.6145,-1.0313,
17.034418,-0.2849,0.8692,-0.2615,0.5435,3.6468,5.8504,-0.7327,0.6145,-1.0313,
17.035122,-0.2849,0.8692,-0.2615,0.5435,3.6468,5.8504,-0.6105,-0.8171,-0.8582,
17.035878,-0.2849,0.8692,-0.2615,-2.5384,2.6277,-3.9168,-0.6105,-0.8171,-0.8582,
17.090236,0.1214,0.7757,-0.0652,-2.5384,2.6277,-3.9168,-0.6105,-0.8171,-0.8582,
17.091729,0.0894,0.9112,0.0649,-2.5384,2.6277,-3.9168,-0.6105,-0.8171,-0.8582,
17.092398,-0.1025,1.0101,0.0305,-2.5384,2.6277,-3.9168,-0.6105,-0.8171,-0.8582,
17.093062,-0.1025,1.0101,0.0305,-2.5384,2.6277,-3.9168,-0.4624,-1.1944,-0.0847,
17.093726,-0.1025,1.0101,0.0305,1.2576,-0.4304,2.6841,-0.4624,-1.1944,-0.0847,
17.148712,-0.3052,0.9840,-0.1548,1.2576,-0.4304,2.6841,-0.4624,-1.1944,-0.0847,
17.149911,-0.2947,0.9862,-0.2476,1.2576,-0.4304,2.6841,-0.4624,-1.1944,-0.0847,
17.150813,-0.2432,0.9728,-0.3365,1.2576,-0.4304,2.6841,-0.4624,-1.1944,-0.0847,
17.151481,-0.2432,0.9728,-0.3365,1.2576,-0.4304,2.6841,0.0871,-0.3763,-0.1374,
17.152054,-0.2432,0.9728,-0.3365,-1.6909,0.3873,0.1943,0.0871,-0.3763,-0.1374,
17.207315,-0.1626,0.9791,-0.4002,-1.6909,0.3873,0.1943,0.0871,-0.3763,-0.1374,
17.208782,-0.1279,0.9869,-0.2786,-1.6909,0.3873,0.1943,0.0871,-0.3763,-0.1374,
17.209307,-0.1526,0.9715,-0.2476,-1.6909,0.3873,0.1943,0.0871,-0.3763,-0.1374,
17.209732,-0.1526,0.9715,-0.2476,-1.6909,0.3873,0.1943,0.0495,-0.7031,0.2686,
17.210221,-0.1526,0.9715,-0.2476,-0.4153,0.3547,-0.4277,0.0495,-0.7031,0.2686,
17.265277,-0.0083,0.9400,-0.2249,-0.4153,0.3547,-0.4277,0.0495,-0.7031,0.2686,
17.266411,0.0796,0.8890,-0.2581,-0.4153,0.3547,-0.4277,0.0495,-0.7031,0.2686,
17.267026,-0.0718,0.9383,-0.2127,-0.4153,0.3547,-0.4277,0.0495,-0.7031,0.2686,
17.267515,-0.0718,0.9383,-0.2127,-0.4153,0.3547,-0.4277,0.1331,-0.3950,0.2099,
17.268227,-0.0718,0.9383,-0.2127,0.9616,-0.1900,0.3682,0.1331,-0.3950,0.2099,
17.323478,-0.1724,0.9881,-0.2378,0.9616,-0.1900,0.3682,0.1331,-0.3950,0.2099,
17.324590,-0.1275,0.9833,-0.2288,0.9616,-0.1900,0.3682,0.1331,-0.3950,0.2099,
17.325159,-0.0916,0.9291,-0.2827,0.9616,-0.1900,0.3682,0.1331,-0.3950,0.2099,
17.325717,-0.0916,0.9291,-0.2827,0.9616,-0.1900,0.3682,0.2651,-0.1895,0.0524,
17.327405,-0.0916,0.9291,-0.2827,-0.3086,0.2789,0.3192,0.2651,-0.1895,0.0524,
17.381885,-0.1870,0.9371,-0.2547,-0.3086,0.2789,0.3192,0.2651,-0.1895,0.0524,
17.382812,-0.1919,0.9649,-0.2197,-0.3086,0.2789,0.3192,0.2651,-0.1895,0.0524,
17.383471,-0.0378,0.9896,-0.1934,-0.3086,0.2789,0.3192,0.2651,-0.1895,0.0524,
17.384494,-0.0378,0.9896,-0.1934,-0.3086,0.2789,0.3192,0.4400,-0.2753,0.1766,
17.385271,-0.0378,0.9896,-0.1934,-0.4324,0.3090,0.7921,0.4400,-0.2753,0.1766,
17.440113,0.0957,1.0167,-0.2490,-0.4324,0.3090,0.7921,0.4400,-0.2753,0.1766,
17.441317,0.1204,1.0438,-0.3377,-0.4324,0.3090,0.7921,0.4400,-0.2753,0.1766,
17.441884,0.0864,1.0851,-0.3611,-0.4324,0.3090,0.7921,0.4400,-0.2753,0.1766,
17.442466,0.0864,1.0851,-0.3611,-0.4324,0.3090,0.7921,0.8807,-0.1004,0.0760,
17.443967,0.0864,1.0851,-0.3611,1.8638,1.2774,0.3317,0.8807,-0.1004,0.0760,
17.498530,0.0291,1.0902,-0.3912,1.8638,1.2774,0.3317,0.8807,-0.1004,0.0760,
17.499647,-0.0051,1.0614,-0.4444,1.8638,1.2774,0.3317,0.8807,-0.1004,0.0760,
17.500253,-0.0505,1.1930,-0.3948,1.8638,1.2774,0.3317,0.8807,-0.1004,0.0760,
17.500802,-0.0505,1.1930,-0.3948,1.8638,1.2774,0.3317,1.4425,-0.2830,-0.2547,
17.502216,-0.0505,1.1930,-0.3948,0.9661,2.2236,0.1345,1.4425,-0.2830,-0.2547,
17.557070,0.1353,1.3695,-0.2644,0.9661,2.2236,0.1345,1.4425,-0.2830,-0.2547,
17.558330,0.5186,1.5011,-0.0349,0.9661,2.2236,0.1345,1.4425,-0.2830,-0.2547,
17.558916,0.8910,1.5766,0.1008,0.9661,2.2236,0.1345,1.4425,-0.2830,-0.2547,
17.559399,0.8910,1.5766,0.1008,0.9661,2.2236,0.1345,2.1340,-2.4066,-0.1126,
17.561659,0.8910,1.5766,0.1008,6.6933,6.3000,4.2830,2.1340,-2.4066,-0.1126,
17.615187,0.6961,1.6330,0.2222,6.6933,6.3000,4.2830,2.1340,-2.4066,-0.1126,
17.616417,0.1712,1.5478,0.6385,6.6933,6.3000,4.2830,2.1340,-2.4066,-0.1126,
17.616957,-0.3763,1.3331,0.4566,6.6933,6.3000,4.2830,2.1340,-2.4066,-0.1126,
17.617429,-0.3763,1.3331,0.4566,6.6933,6.3000,4.2830,2.2085,-2.8483,-1.2453,
17.619340,-0.3763,1.3331,0.4566,4.6139,7.2500,9.6917,2.2085,-2.8483,-1.2453,
17.673562,-0.8233,1.4430,0.0806,4.6139,7.2500,9.6917,2.2085,-2.8483,-1.2453,
17.675311,-0.9806,1.4731,-0.0183,4.6139,7.2500,9.6917,2.2085,-2.8483,-1.2453,
17.675879,-0.8719,1.0814,-0.2134,4.6139,7.2500,9.6917,2.2085,-2.8483,-1.2453,
17.676458,-0.8719,1.0814,-0.2134,4.6139,7.2500,9.6917,2.0554,-3.9892,-1.4532,
17.677521,-0.8719,1.0814,-0.2134,-3.8118,6.4371,4.7367,2.0554,-3.9892,-1.4532,
17.731802,-0.7750,0.9969,-0.5254,-3.8118,6.4371,4.7367,2.0554,-3.9892,-1.4532,
17.733084,-0.3587,0.8951,-0.3648,-3.8118,6.4371,4.7367,2.0554,-3.9892,-1.4532,
17.733692,0.1648,0.6065,0.1384,-3.8118,6.4371,4.7367,2.0554,-3.9892,-1.4532,
17.734271,0.1648,0.6065,0.1384,-3.8118,6.4371,4.7367,1.2419,-4.9910,0.5569,
17.735793,0.1648,0.6065,0.1384,2.8793,1.6672,1.5860,1.2419,-4.9910,0.5569,
17.790120,0.1260,0.4134,0.3877,2.8793,1.6672,1.5860,1.2419,-4.9910,0.5569,
17.791456,-0.2053,0.4759,0.2647,2.8793,1.6672,1.5860,1.2419,-4.9910,0.5569,
17.792098,-0.2881,0.5420,0.0996,2.8793,1.6672,1.5860,1.2419,-4.9910,0.5569,
17.793589,-0.2881,0.5420,0.0996,2.8793,1.6672,1.5860,0.5149,-2.7161,2.7386,
17.794580,-0.2881,0.5420,0.0996,4.2521,-2.6039,5.6612,0.5149,-2.7161,2.7386,
17.848521,-0.1380,0.5350,0.0916,4.2521,-2.6039,5.6612,0.5149,-2.7161,2.7386,
17.849772,-0.1326,0.5550,0.1035,4.2521,-2.6039,5.6612,0.5149,-2.7161,2.7386,
17.850335,-0.2542,0.6693,0.0366,4.2521,-2.6039,5.6612,0.5149,-2.7161,2.7386,
17.850836,-0.2542,0.6693,0.0366,4.2521,-2.6039,5.6612,-0.0829,-0.4347,4.7190,
17.852525,-0.2542,0.6693,0.0366,1.6058,-2.7299,3.7182,-0.0829,-0.4347,4.7190,
17.906817,-0.3387,0.8360,-0.0427,1.6058,-2.7299,3.7182,-0.0829,-0.4347,4.7190,
17.908298,-0.3687,1.0609,-0.1077,1.6058,-2.7299,3.7182,-0.0829,-0.4347,4.7190,
17.909184,-0.4095,1.3056,-0.1673,1.6058,-2.7299,3.7182,-0.0829,-0.4347,4.7190,
17.909944,-0.4095,1.3056,-0.1673,1.6058,-2.7299,3.7182,-0.9774,0.1861,6.0041,
17.911639,-0.4095,1.3056,-0.1673,-3.4319,1.1908,1.3975,-0.9774,0.1861,6.0041,
17.965166,-0.5794,1.5834,-0.2417,-3.4319,1.1908,1.3975,-0.9774,0.1861,6.0041,
17.966512,-0.8624,1.7060,-0.2410,-3.4319,1.1908,1.3975,-0.9774,0.1861,6.0041,
17.967177,-0.9332,1.6762,-0.1345,-3.4319,1.1908,1.3975,-0.9774,0.1861,6.0041,
17.967925,-0.9332,1.6762,-0.1345,-3.4319,1.1908,1.3975,-2.0332,-0.8953,6.4865,
17.971436,-0.9332,1.6762,-0.1345,-10.7480,7.1672,-0.5678,-2.0332,-0.8953,6.4865,
18.023668,-0.8978,1.6662,0.0454,-10.7480,7.1672,-0.5678,-2.0332,-0.8953,6.4865,
18.025230,-0.7777,1.3287,-0.0352,-10.7480,7.1672,-0.5678,-2.0332,-0.8953,6.4865,
18.026257,-0.9071,0.9430,-0.1550,-10.7480,7.1672,-0.5678,-2.0332,-0.8953,6.4865,
18.026928,-0.9071,0.9430,-0.1550,-10.7480,7.1672,-0.5678,-1.6646,-0.7509,3.7809,
