time,gFx,gFy,gFz,ax,ay,az,wx,wy,wz,P
0.008,-0.04,1.01,0.07,0.04,0.02,0.04,0.00,0.01,-0.00,1005.90
0.009,-0.04,0.99,0.08,0.04,0.02,0.04,0.00,0.01,-0.00,1005.90
0.009,-0.04,0.99,0.09,0.04,0.02,0.04,0.00,0.01,-0.00,1005.90
0.009,-0.04,0.99,0.09,0.04,0.02,0.04,-0.00,-0.00,-0.01,1005.90
0.009,-0.04,0.99,0.09,0.01,-0.03,-0.01,-0.00,-0.00,-0.01,1005.90
0.035,-0.04,0.99,0.09,0.01,-0.03,-0.01,-0.00,-0.00,-0.01,1005.91
0.067,-0.04,0.99,0.09,0.04,0.02,0.02,-0.00,-0.00,-0.01,1005.91
0.068,-0.04,1.00,0.09,0.04,0.02,0.02,-0.00,-0.00,-0.01,1005.91
0.068,-0.04,1.01,0.08,0.04,0.02,0.02,-0.00,-0.00,-0.01,1005.91
0.069,-0.05,1.01,0.08,0.04,0.02,0.02,-0.00,-0.00,-0.01,1005.91
0.069,-0.05,1.01,0.08,0.04,0.02,0.02,0.00,-0.00,-0.01,1005.91
0.072,-0.05,1.01,0.08,0.04,0.02,0.02,0.00,-0.00,-0.01,1005.91
0.126,-0.06,1.01,0.08,0.04,0.02,0.02,0.00,-0.00,-0.01,1005.91
0.126,-0.06,1.01,0.08,0.04,0.02,0.02,0.00,-0.00,-0.01,1005.91
0.126,-0.04,1.00,0.09,0.04,0.02,0.02,0.00,-0.00,-0.01,1005.91
0.126,-0.04,1.00,0.09,0.04,0.02,0.02,0.01,-0.01,-0.00,1005.91
0.127,-0.04,1.00,0.09,-0.07,0.03,0.07,0.01,-0.01,-0.00,1005.91
0.155,-0.04,1.00,0.09,-0.07,0.03,0.07,0.01,-0.01,-0.00,1005.90
0.186,-0.04,1.00,0.09,0.04,-0.06,-0.08,0.01,-0.01,-0.00,1005.90
0.186,-0.04,1.00,0.06,0.04,-0.06,-0.08,0.01,-0.01,-0.00,1005.90
0.187,-0.04,1.00,0.07,0.04,-0.06,-0.08,0.01,-0.01,-0.00,1005.90
0.187,-0.05,1.00,0.08,0.04,-0.06,-0.08,0.01,-0.01,-0.00,1005.90
0.187,-0.05,1.00,0.08,0.04,-0.06,-0.08,0.01,-0.02,0.01,1005.90
0.233,-0.05,1.00,0.08,0.04,-0.06,-0.08,0.01,-0.02,0.01,1005.89
0.242,-0.05,1.01,0.08,0.04,-0.06,-0.08,0.01,-0.02,0.01,1005.89
0.243,-0.05,1.01,0.07,0.04,-0.06,-0.08,0.01,-0.02,0.01,1005.89
0.243,-0.05,1.01,0.08,0.04,-0.06,-0.08,0.01,-0.02,0.01,1005.89
0.243,-0.05,1.01,0.08,0.04,-0.06,-0.08,-0.00,-0.00,0.01,1005.89
0.244,-0.05,1.01,0.08,-0.03,0.06,-0.00,-0.00,-0.00,0.01,1005.89
0.273,-0.05,1.01,0.08,-0.03,0.06,-0.00,-0.00,-0.00,0.01,1005.90
0.301,-0.05,1.00,0.08,-0.03,0.06,-0.00,-0.00,-0.00,0.01,1005.90
0.301,-0.04,1.00,0.08,-0.03,0.06,-0.00,-0.00,-0.00,0.01,1005.90
0.302,-0.03,1.00,0.08,-0.03,0.06,-0.00,-0.00,-0.00,0.01,1005.90
0.302,-0.03,1.00,0.08,-0.03,0.06,-0.00,0.00,-0.02,0.02,1005.90
0.302,-0.03,1.00,0.08,0.05,-0.01,0.02,0.00,-0.02,0.02,1005.90
0.353,-0.03,1.00,0.08,0.05,-0.01,0.02,0.00,-0.02,0.02,1005.89
0.359,-0.04,1.00,0.08,0.05,-0.01,0.02,0.00,-0.02,0.02,1005.89
0.359,-0.06,1.01,0.09,0.05,-0.01,0.02,0.00,-0.02,0.02,1005.89
0.359,-0.06,1.02,0.11,0.05,-0.01,0.02,0.00,-0.02,0.02,1005.89
0.36,-0.06,1.02,0.11,0.05,-0.01,0.02,0.01,-0.01,0.01,1005.89
0.36,-0.06,1.02,0.11,-0.09,0.05,0.14,0.01,-0.01,0.01,1005.89
0.417,-0.06,1.01,0.06,-0.09,0.05,0.14,0.01,-0.01,0.01,1005.89
0.418,-0.00,0.99,0.11,-0.09,0.05,0.14,0.01,-0.01,0.01,1005.89
0.418,-0.01,0.98,0.05,-0.09,0.05,0.14,0.01,-0.01,0.01,1005.89
0.418,-0.01,0.98,0.05,-0.09,0.05,0.14,0.04,-0.05,0.03,1005.89
0.419,-0.01,0.98,0.05,0.14,-0.07,-0.02,0.04,-0.05,0.03,1005.89
0.433,-0.01,0.98,0.05,0.14,-0.07,-0.02,0.04,-0.05,0.03,1005.89
0.474,-0.01,0.98,0.05,0.14,-0.07,-0.02,0.04,-0.05,0.03,1005.89
0.475,0.00,0.98,0.06,0.14,-0.07,-0.02,0.04,-0.05,0.03,1005.89
0.475,-0.03,0.99,0.08,0.14,-0.07,-0.02,0.04,-0.05,0.03,1005.89
0.476,-0.07,1.01,0.07,0.14,-0.07,-0.02,0.04,-0.05,0.03,1005.89
0.476,-0.07,1.01,0.07,0.14,-0.07,-0.02,0.02,0.03,-0.03,1005.89
0.476,-0.07,1.01,0.07,0.08,-0.07,-0.07,0.02,0.03,-0.03,1005.89
0.536,-0.03,1.00,0.05,0.08,-0.07,-0.07,0.02,0.03,-0.03,1005.89
0.538,0.02,1.00,0.03,0.08,-0.07,-0.07,0.02,0.03,-0.03,1005.89
0.539,0.01,0.96,0.06,0.08,-0.07,-0.07,0.02,0.03,-0.03,1005.89
0.54,0.01,0.96,0.06,0.08,-0.07,-0.07,0.00,0.02,-0.05,1005.89
0.541,0.01,0.96,0.06,0.41,-0.15,-0.29,0.00,0.02,-0.05,1005.89
0.554,0.01,0.96,0.06,0.41,-0.15,-0.29,0.00,0.02,-0.05,1005.89
0.593,-0.03,0.93,0.06,0.41,-0.15,-0.29,0.00,0.02,-0.05,1005.89
0.595,-0.02,0.95,0.02,0.41,-0.15,-0.29,0.00,0.02,-0.05,1005.89
0.596,-0.02,1.01,0.01,0.41,-0.15,-0.29,0.00,0.02,-0.05,1005.89
0.597,-0.02,1.01,0.01,0.41,-0.15,-0.29,-0.10,-0.05,-0.09,1005.89
0.597,-0.02,1.01,0.01,0.23,-0.37,-0.43,-0.10,-0.05,-0.09,1005.89
0.633,-0.02,1.01,0.01,0.23,-0.37,-0.43,-0.10,-0.05,-0.09,1005.89
0.653,-0.02,1.01,0.01,-0.00,0.50,-0.34,-0.10,-0.05,-0.09,1005.89
0.654,-0.03,1.08,0.02,-0.00,0.50,-0.34,-0.10,-0.05,-0.09,1005.89
0.655,-0.05,1.07,0.03,-0.00,0.50,-0.34,-0.10,-0.05,-0.09,1005.89
0.656,-0.08,1.01,0.09,-0.00,0.50,-0.34,-0.10,-0.05,-0.09,1005.89
0.656,-0.08,1.01,0.09,-0.00,0.50,-0.34,-0.17,-0.07,-0.08,1005.89
0.673,-0.08,1.01,0.09,-0.00,0.50,-0.34,-0.17,-0.07,-0.08,1005.89
0.711,-0.10,0.97,0.19,-0.00,0.50,-0.34,-0.17,-0.07,-0.08,1005.89
0.713,-0.06,0.95,0.27,-0.00,0.50,-0.34,-0.17,-0.07,-0.08,1005.89
0.714,-0.06,0.99,0.27,-0.00,0.50,-0.34,-0.17,-0.07,-0.08,1005.89
0.715,-0.06,0.99,0.27,-0.00,0.50,-0.34,-0.05,0.27,0.08,1005.89
0.716,-0.06,0.99,0.27,-0.27,-0.28,1.48,-0.05,0.27,0.08,1005.89
0.754,-0.06,0.99,0.27,-0.27,-0.28,1.48,-0.05,0.27,0.08,1005.89
0.769,-0.06,0.99,0.27,-0.63,0.13,1.19,-0.05,0.27,0.08,1005.89
0.77,-0.13,1.01,0.27,-0.63,0.13,1.19,-0.05,0.27,0.08,1005.89
0.77,-0.11,1.03,0.20,-0.63,0.13,1.19,-0.05,0.27,0.08,1005.89
0.771,-0.08,1.01,0.14,-0.63,0.13,1.19,-0.05,0.27,0.08,1005.89
0.771,-0.08,1.01,0.14,-0.63,0.13,1.19,0.28,0.03,0.17,1005.89
0.827,-0.03,0.96,0.18,-0.63,0.13,1.19,0.28,0.03,0.17,1005.89
0.831,0.03,0.98,0.11,-0.63,0.13,1.19,0.28,0.03,0.17,1005.89
0.832,0.01,1.02,0.02,-0.63,0.13,1.19,0.28,0.03,0.17,1005.89
0.833,0.01,1.02,0.02,-0.63,0.13,1.19,0.44,-0.18,0.11,1005.89
0.834,0.01,1.02,0.02,0.32,-0.16,0.43,0.44,-0.18,0.11,1005.89
0.835,0.01,1.02,0.02,0.32,-0.16,0.43,0.44,-0.18,0.11,1005.89
0.873,0.01,1.02,0.02,0.32,-0.16,0.43,0.44,-0.18,0.11,1005.90
0.884,0.01,1.04,-0.02,0.32,-0.16,0.43,0.44,-0.18,0.11,1005.90
0.885,0.02,1.04,-0.04,0.32,-0.16,0.43,0.44,-0.18,0.11,1005.90
0.885,-0.02,1.00,0.02,0.32,-0.16,0.43,0.44,-0.18,0.11,1005.90
0.885,-0.02,1.00,0.02,0.32,-0.16,0.43,0.49,0.22,-0.02,1005.90
0.886,-0.02,1.00,0.02,0.35,0.20,-0.41,0.49,0.22,-0.02,1005.90
0.949,-0.06,0.98,0.07,0.35,0.20,-0.41,0.49,0.22,-0.02,1005.90
0.95,-0.09,0.99,0.04,0.35,0.20,-0.41,0.49,0.22,-0.02,1005.90
0.95,-0.11,0.99,0.05,0.35,0.20,-0.41,0.49,0.22,-0.02,1005.90
0.951,-0.11,0.99,0.05,0.35,0.20,-0.41,0.49,0.33,-0.08,1005.90
0.951,-0.11,0.99,0.05,-0.47,-0.15,0.53,0.49,0.33,-0.08,1005.90
0.953,-0.11,0.99,0.05,-0.47,-0.15,0.53,0.49,0.33,-0.08,1005.89
1.002,-0.15,0.99,0.06,-0.47,-0.15,0.53,0.49,0.33,-0.08,1005.89
1.004,-0.02,1.00,0.03,-0.47,-0.15,0.53,0.49,0.33,-0.08,1005.89
1.005,0.05,1.03,-0.12,-0.47,-0.15,0.53,0.49,0.33,-0.08,1005.89
1.006,0.05,1.03,-0.12,-0.47,-0.15,0.53,0.56,0.24,-0.04,1005.89
1.007,0.05,1.03,-0.12,0.02,-0.00,0.23,0.56,0.24,-0.04,1005.89
1.033,0.05,1.03,-0.12,0.02,-0.00,0.23,0.56,0.24,-0.04,1005.89
1.064,-0.06,1.04,-0.15,0.02,-0.00,0.23,0.56,0.24,-0.04,1005.89
1.065,-0.19,1.04,-0.08,0.02,-0.00,0.23,0.56,0.24,-0.04,1005.89
1.066,-0.34,1.07,0.10,0.02,-0.00,0.23,0.56,0.24,-0.04,1005.89
1.067,-0.34,1.07,0.10,-1.48,0.43,0.22,0.56,0.24,-0.04,1005.89
1.067,-0.34,1.07,0.10,-1.48,0.43,0.22,0.57,0.35,-0.01,1005.89
1.085,-0.34,1.07,0.10,-1.48,0.43,0.22,0.57,0.35,-0.01,1005.89
1.118,-0.38,1.18,-0.10,-1.48,0.43,0.22,0.57,0.35,-0.01,1005.89
1.119,-0.21,1.28,-0.26,-1.48,0.43,0.22,0.57,0.35,-0.01,1005.89
1.12,-0.12,1.31,-0.30,-1.48,0.43,0.22,0.57,0.35,-0.01,1005.89
1.12,-0.12,1.31,-0.30,-1.48,0.43,0.22,0.72,0.07,0.52,1005.89
1.121,-0.12,1.31,-0.30,-2.11,2.41,-1.06,0.72,0.07,0.52,1005.89
1.156,-0.12,1.31,-0.30,-2.11,2.41,-1.06,0.72,0.07,0.52,1005.88
1.176,-0.36,1.35,-0.44,-2.11,2.41,-1.06,0.72,0.07,0.52,1005.88
1.177,-0.47,1.39,-0.41,-2.11,2.41,-1.06,0.72,0.07,0.52,1005.88
1.178,-0.24,1.17,-0.27,-2.11,2.41,-1.06,0.72,0.07,0.52,1005.88
1.179,-0.24,1.17,-0.27,-2.11,2.41,-1.06,0.31,-0.46,0.91,1005.88
1.179,-0.24,1.17,-0.27,-3.67,2.82,-2.33,0.31,-0.46,0.91,1005.88
1.234,-0.24,1.17,-0.27,-3.67,2.82,-2.33,0.31,-0.46,0.91,1005.87
1.236,-0.04,0.94,-0.39,-3.67,2.82,-2.33,0.31,-0.46,0.91,1005.87
1.237,0.01,0.88,-0.39,-3.67,2.82,-2.33,0.31,-0.46,0.91,1005.87
1.238,-0.06,0.81,-0.35,-3.67,2.82,-2.33,0.31,-0.46,0.91,1005.87
1.24,-0.06,0.81,-0.35,-3.67,2.82,-2.33,0.19,-0.34,1.15,1005.87
1.241,-0.06,0.81,-0.35,-1.07,-1.25,-2.17,0.19,-0.34,1.15,1005.87
1.274,-0.06,0.81,-0.35,-1.07,-1.25,-2.17,0.19,-0.34,1.15,1005.87
1.294,-0.30,0.62,-0.30,-1.07,-1.25,-2.17,0.19,-0.34,1.15,1005.87
1.297,-0.55,0.52,-0.21,-1.07,-1.25,-2.17,0.19,-0.34,1.15,1005.87
1.298,-0.60,0.53,-0.27,-1.07,-1.25,-2.17,0.19,-0.34,1.15,1005.87
1.299,-0.60,0.53,-0.27,-1.07,-1.25,-2.17,-0.01,-1.35,0.15,1005.87
1.3,-0.60,0.53,-0.27,-5.29,-4.29,-0.94,-0.01,-1.35,0.15,1005.87
1.353,-0.38,0.62,-0.32,-5.29,-4.29,-0.94,-0.01,-1.35,0.15,1005.87
1.355,-0.24,0.67,-0.29,-5.29,-4.29,-0.94,-0.01,-1.35,0.15,1005.87
1.357,-0.26,0.74,-0.26,-5.29,-4.29,-0.94,-0.01,-1.35,0.15,1005.87
1.358,-0.26,0.74,-0.26,-5.29,-4.29,-0.94,0.02,-2.26,-0.69,1005.87
1.36,-0.26,0.74,-0.26,-2.76,-3.01,-1.17,0.02,-2.26,-0.69,1005.87
1.361,-0.26,0.74,-0.26,-2.76,-3.01,-1.17,0.02,-2.26,-0.69,1005.88
1.41,-0.26,0.84,-0.27,-2.76,-3.01,-1.17,0.02,-2.26,-0.69,1005.88
1.413,-0.18,0.87,-0.26,-2.76,-3.01,-1.17,0.02,-2.26,-0.69,1005.88
1.414,-0.12,0.85,-0.17,-2.76,-3.01,-1.17,0.02,-2.26,-0.69,1005.88
1.415,-0.12,0.85,-0.17,-2.76,-3.01,-1.17,-0.38,-1.78,-1.34,1005.88
1.416,-0.12,0.85,-0.17,-0.79,-1.25,-0.84,-0.38,-1.78,-1.34,1005.88
1.434,-0.12,0.85,-0.17,-0.79,-1.25,-0.84,-0.38,-1.78,-1.34,1005.89
1.469,-0.12,0.89,-0.06,-0.79,-1.25,-0.84,-0.38,-1.78,-1.34,1005.89
1.47,-0.11,0.97,0.00,-0.79,-1.25,-0.84,-0.38,-1.78,-1.34,1005.89
1.471,-0.06,0.95,-0.05,-0.79,-1.25,-0.84,-0.38,-1.78,-1.34,1005.89
1.472,-0.06,0.95,-0.05,-0.79,-1.25,-0.84,-0.49,-1.50,-1.31,1005.89
1.473,-0.06,0.95,-0.05,0.94,-0.35,0.70,-0.49,-1.50,-1.31,1005.89
1.474,-0.06,0.95,-0.05,0.94,-0.35,0.70,-0.49,-1.50,-1.31,1005.88
1.527,0.03,0.98,-0.04,0.94,-0.35,0.70,-0.49,-1.50,-1.31,1005.88
1.53,0.16,0.99,-0.05,0.94,-0.35,0.70,-0.49,-1.50,-1.31,1005.88
1.531,0.33,1.00,-0.21,0.94,-0.35,0.70,-0.49,-1.50,-1.31,1005.88
1.532,0.33,1.00,-0.21,0.94,-0.35,0.70,-0.17,-3.27,-0.48,1005.88
1.533,0.33,1.00,-0.21,3.85,0.21,-0.46,-0.17,-3.27,-0.48,1005.88
1.554,0.33,1.00,-0.21,3.85,0.21,-0.46,-0.17,-3.27,-0.48,1005.89
1.584,0.54,0.92,-0.64,3.85,0.21,-0.46,-0.17,-3.27,-0.48,1005.89
1.585,1.15,1.27,-1.31,3.85,0.21,-0.46,-0.17,-3.27,-0.48,1005.89
1.586,2.09,1.73,0.75,3.85,0.21,-0.46,-0.17,-3.27,-0.48,1005.89
1.587,2.09,1.73,0.75,3.85,0.21,-0.46,0.25,-2.13,2.71,1005.89
1.587,2.09,1.73,0.75,12.73,2.99,-3.39,0.25,-2.13,2.71,1005.89
1.634,2.09,1.73,0.75,12.73,2.99,-3.39,0.25,-2.13,2.71,1005.89
1.644,-0.25,1.47,1.27,12.73,2.99,-3.39,0.25,-2.13,2.71,1005.89
1.646,-0.66,0.80,-1.59,12.73,2.99,-3.39,0.25,-2.13,2.71,1005.89
1.647,-0.99,1.14,-0.73,12.73,2.99,-3.39,0.25,-2.13,2.71,1005.89
1.648,-0.99,1.14,-0.73,12.73,2.99,-3.39,0.71,2.16,0.37,1005.89
1.649,-0.99,1.14,-0.73,-5.95,1.32,-2.39,0.71,2.16,0.37,1005.89
1.675,-0.99,1.14,-0.73,-5.95,1.32,-2.39,0.71,2.16,0.37,1005.84
1.702,-0.99,1.14,-0.73,3.67,0.15,0.46,0.71,2.16,0.37,1005.84
1.705,0.14,1.03,0.21,3.67,0.15,0.46,0.71,2.16,0.37,1005.84
1.706,0.41,0.97,-0.12,3.67,0.15,0.46,0.71,2.16,0.37,1005.84
1.707,0.85,1.04,-0.23,3.67,0.15,0.46,0.71,2.16,0.37,1005.84
1.708,0.85,1.04,-0.23,3.67,0.15,0.46,-0.24,-1.14,2.00,1005.84
1.758,0.85,1.04,-0.23,3.67,0.15,0.46,-0.24,-1.14,2.00,1005.88
1.763,0.83,0.94,-0.23,3.67,0.15,0.46,-0.24,-1.14,2.00,1005.88
1.765,0.19,1.09,-0.12,3.67,0.15,0.46,-0.24,-1.14,2.00,1005.88
1.766,-0.20,1.07,-0.02,3.67,0.15,0.46,-0.24,-1.14,2.00,1005.88
1.767,-0.20,1.07,-0.02,3.67,0.15,0.46,-0.08,0.11,0.60,1005.88
1.771,-0.20,1.07,-0.02,1.36,0.34,-0.35,-0.08,0.11,0.60,1005.88
1.818,-0.11,0.95,-0.02,1.36,0.34,-0.35,-0.08,0.11,0.60,1005.88
1.82,0.08,0.97,0.06,1.36,0.34,-0.35,-0.08,0.11,0.60,1005.88
1.823,0.20,0.97,0.06,1.36,0.34,-0.35,-0.08,0.11,0.60,1005.88
1.823,0.20,0.97,0.06,1.36,0.34,-0.35,0.06,-0.23,0.72,1005.88
1.824,0.20,0.97,0.06,-1.12,-0.24,1.19,0.06,-0.23,0.72,1005.88
1.834,0.20,0.97,0.06,-1.12,-0.24,1.19,0.06,-0.23,0.72,1005.89
1.878,0.20,0.97,0.06,-1.12,-0.24,1.19,0.06,-0.23,0.72,1005.89
1.88,0.21,0.94,-0.00,-1.12,-0.24,1.19,0.06,-0.23,0.72,1005.89
1.881,0.21,0.95,-0.06,-1.12,-0.24,1.19,0.06,-0.23,0.72,1005.89
1.882,0.16,0.99,-0.09,-1.12,-0.24,1.19,0.06,-0.23,0.72,1005.89
1.884,0.16,0.99,-0.09,-1.12,-0.24,1.19,0.27,-0.31,0.82,1005.89
1.885,0.16,0.99,-0.09,-0.23,-0.14,0.56,0.27,-0.31,0.82,1005.89
1.939,0.11,1.01,-0.13,-0.23,-0.14,0.56,0.27,-0.31,0.82,1005.89
1.94,0.10,1.04,-0.11,-0.23,-0.14,0.56,0.27,-0.31,0.82,1005.89
1.94,0.17,1.00,-0.06,-0.23,-0.14,0.56,0.27,-0.31,0.82,1005.89
1.941,0.17,1.00,-0.06,-0.23,-0.14,0.56,0.38,-0.33,0.95,1005.89
1.941,0.17,1.00,-0.06,-1.33,0.55,0.34,0.38,-0.33,0.95,1005.89
1.953,0.17,1.00,-0.06,-1.33,0.55,0.34,0.38,-0.33,0.95,1005.89
2.0,0.17,1.00,-0.06,-0.46,0.70,0.96,0.38,-0.33,0.95,1005.89
2.001,0.27,1.00,-0.04,-0.46,0.70,0.96,0.38,-0.33,0.95,1005.89
2.001,0.32,1.01,-0.07,-0.46,0.70,0.96,0.38,-0.33,0.95,1005.89
2.001,0.24,1.02,-0.12,-0.46,0.70,0.96,0.38,-0.33,0.95,1005.89
2.001,0.24,1.02,-0.12,-0.46,0.70,0.96,0.52,-0.57,1.14,1005.89
2.034,0.24,1.02,-0.12,-0.46,0.70,0.96,0.52,-0.57,1.14,1005.90
2.054,0.16,0.99,-0.23,-0.46,0.70,0.96,0.52,-0.57,1.14,1005.90
2.055,0.15,1.00,-0.28,-0.46,0.70,0.96,0.52,-0.57,1.14,1005.90
2.055,0.17,1.05,-0.27,-0.46,0.70,0.96,0.52,-0.57,1.14,1005.90
2.056,0.17,1.05,-0.27,-0.46,0.70,0.96,0.57,-0.71,1.29,1005.90
2.056,0.17,1.05,-0.27,-2.15,1.06,-0.41,0.57,-0.71,1.29,1005.90
2.073,0.17,1.05,-0.27,-2.15,1.06,-0.41,0.57,-0.71,1.29,1005.90
2.11,0.17,1.05,-0.27,-3.87,2.81,0.91,0.57,-0.71,1.29,1005.90
2.112,0.13,1.09,-0.24,-3.87,2.81,0.91,0.57,-0.71,1.29,1005.90
2.113,0.07,1.15,-0.19,-3.87,2.81,0.91,0.57,-0.71,1.29,1005.90
2.113,-0.05,1.21,-0.12,-3.87,2.81,0.91,0.57,-0.71,1.29,1005.90
2.114,-0.05,1.21,-0.12,-3.87,2.81,0.91,0.93,-0.46,1.60,1005.90
2.154,-0.05,1.21,-0.12,-3.87,2.81,0.91,0.93,-0.46,1.60,1005.90
2.168,-0.22,1.30,-0.05,-3.87,2.81,0.91,0.93,-0.46,1.60,1005.90
2.17,-0.49,1.69,0.11,-3.87,2.81,0.91,0.93,-0.46,1.60,1005.90
2.171,-0.96,2.00,0.10,-3.87,2.81,0.91,0.93,-0.46,1.60,1005.90
2.172,-0.96,2.00,0.10,-3.87,2.81,0.91,1.37,-1.40,2.15,1005.90
2.173,-0.96,2.00,0.10,-10.37,8.55,4.16,1.37,-1.40,2.15,1005.90
2.226,-1.25,2.08,-0.01,-10.37,8.55,4.16,1.37,-1.40,2.15,1005.90
2.227,-0.52,1.64,-0.18,-10.37,8.55,4.16,1.37,-1.40,2.15,1005.90
2.229,0.73,1.38,-0.55,-10.37,8.55,4.16,1.37,-1.40,2.15,1005.90
2.23,0.73,1.38,-0.55,-10.37,8.55,4.16,1.89,-2.67,3.47,1005.90
2.231,0.73,1.38,-0.55,-8.86,10.27,2.78,1.89,-2.67,3.47,1005.90
2.235,0.73,1.38,-0.55,-8.86,10.27,2.78,1.89,-2.67,3.47,1005.90
2.274,0.73,1.38,-0.55,-8.86,10.27,2.78,1.89,-2.67,3.47,1005.92
2.285,1.43,1.28,-0.55,-8.86,10.27,2.78,1.89,-2.67,3.47,1005.92
2.286,1.28,0.85,-0.67,-8.86,10.27,2.78,1.89,-2.67,3.47,1005.92
2.288,0.71,0.56,-0.96,-8.86,10.27,2.78,1.89,-2.67,3.47,1005.92
2.289,0.71,0.56,-0.96,-8.86,10.27,2.78,1.46,-1.24,2.94,1005.92
2.289,0.71,0.56,-0.96,5.02,3.79,-1.01,1.46,-1.24,2.94,1005.92
2.343,0.52,0.46,-0.91,5.02,3.79,-1.01,1.46,-1.24,2.94,1005.92
2.345,0.27,0.19,-0.58,5.02,3.79,-1.01,1.46,-1.24,2.94,1005.92
2.346,-0.08,-0.02,-0.14,5.02,3.79,-1.01,1.46,-1.24,2.94,1005.92
2.347,-0.08,-0.02,-0.14,-3.65,-3.61,0.20,1.46,-1.24,2.94,1005.92
2.349,-0.08,-0.02,-0.14,-3.65,-3.61,0.20,-1.88,-0.09,-0.19,1005.92
2.354,-0.08,-0.02,-0.14,-3.65,-3.61,0.20,-1.88,-0.09,-0.19,1005.86
2.4,-0.08,-0.11,-0.07,-3.65,-3.61,0.20,-1.88,-0.09,-0.19,1005.86
2.402,-0.04,0.06,-0.25,-3.65,-3.61,0.20,-1.88,-0.09,-0.19,1005.86
2.402,-0.01,0.26,-0.56,-3.65,-3.61,0.20,-1.88,-0.09,-0.19,1005.86
2.403,-0.01,0.26,-0.56,-5.24,-6.52,1.54,-1.88,-0.09,-0.19,1005.86
2.404,-0.01,0.26,-0.56,-5.24,-6.52,1.54,-3.19,-0.36,-2.39,1005.86
2.435,-0.01,0.26,-0.56,-5.24,-6.52,1.54,-3.19,-0.36,-2.39,1005.86
2.473,-0.03,0.40,-0.70,-5.24,-6.52,1.54,-3.19,-0.36,-2.39,1005.86
2.479,-0.01,0.50,-0.59,-5.24,-6.52,1.54,-3.19,-0.36,-2.39,1005.86
2.48,0.08,0.57,-0.35,-5.24,-6.52,1.54,-3.19,-0.36,-2.39,1005.86
2.482,0.08,0.57,-0.35,-2.58,-4.04,-2.57,-3.19,-0.36,-2.39,1005.86
2.483,0.08,0.57,-0.35,-2.58,-4.04,-2.57,-4.05,-1.00,-3.87,1005.86
2.485,0.08,0.57,-0.35,-2.58,-4.04,-2.57,-4.05,-1.00,-3.87,1005.91
2.517,0.04,0.68,-0.36,-2.58,-4.04,-2.57,-4.05,-1.00,-3.87,1005.91
2.518,-0.00,1.02,-0.69,-2.58,-4.04,-2.57,-4.05,-1.00,-3.87,1005.91
2.519,0.29,1.48,-0.80,-2.58,-4.04,-2.57,-4.05,-1.00,-3.87,1005.91
2.519,0.29,1.48,-0.80,-2.58,-4.04,-2.57,-3.84,-1.51,-4.78,1005.91
2.52,0.29,1.48,-0.80,1.07,0.70,-5.17,-3.84,-1.51,-4.78,1005.91
2.554,0.29,1.48,-0.80,1.07,0.70,-5.17,-3.84,-1.51,-4.78,1005.90
2.576,0.67,1.47,-0.99,1.07,0.70,-5.17,-3.84,-1.51,-4.78,1005.90
2.578,0.86,1.43,-0.91,1.07,0.70,-5.17,-3.84,-1.51,-4.78,1005.90
2.579,0.98,1.41,-0.71,1.07,0.70,-5.17,-3.84,-1.51,-4.78,1005.90
2.58,0.98,1.41,-0.71,1.07,0.70,-5.17,-3.41,-0.43,-4.49,1005.90
2.581,0.98,1.41,-0.71,10.52,4.70,-9.40,-3.41,-0.43,-4.49,1005.90
2.636,1.05,1.06,-0.50,10.52,4.70,-9.40,-3.41,-0.43,-4.49,1005.90
2.639,0.86,0.83,-0.32,10.52,4.70,-9.40,-3.41,-0.43,-4.49,1005.90
2.64,0.51,0.95,-0.23,10.52,4.70,-9.40,-3.41,-0.43,-4.49,1005.90
2.641,0.51,0.95,-0.23,10.52,4.70,-9.40,-1.59,2.11,-1.71,1005.90
2.643,0.51,0.95,-0.23,10.52,4.70,-9.40,-1.59,2.11,-1.71,1005.86
2.644,0.51,0.95,-0.23,11.14,0.26,-4.65,-1.59,2.11,-1.71,1005.86
2.675,0.51,0.95,-0.23,11.14,0.26,-4.65,-1.59,2.11,-1.71,1005.88
2.693,0.26,0.94,-0.11,11.14,0.26,-4.65,-1.59,2.11,-1.71,1005.88
2.694,0.30,0.80,-0.21,11.14,0.26,-4.65,-1.59,2.11,-1.71,1005.88
2.695,0.28,1.04,-1.00,11.14,0.26,-4.65,-1.59,2.11,-1.71,1005.88
2.696,0.28,1.04,-1.00,11.14,0.26,-4.65,0.53,0.97,1.49,1005.88
2.696,0.28,1.04,-1.00,5.14,-0.17,-5.03,0.53,0.97,1.49,1005.88
2.752,-0.69,1.73,0.01,5.14,-0.17,-5.03,0.53,0.97,1.49,1005.88
2.754,-1.85,2.00,0.80,5.14,-0.17,-5.03,0.53,0.97,1.49,1005.88
2.755,-0.34,1.72,-0.64,5.14,-0.17,-5.03,0.53,0.97,1.49,1005.88
2.756,-0.34,1.72,-0.64,5.14,-0.17,-5.03,0.26,1.46,0.10,1005.88
2.757,-0.34,1.72,-0.64,-6.90,8.38,0.19,0.26,1.46,0.10,1005.88
2.759,-0.34,1.72,-0.64,-6.90,8.38,0.19,0.26,1.46,0.10,1005.89
2.81,0.25,0.97,-1.03,-6.90,8.38,0.19,0.26,1.46,0.10,1005.89
2.812,0.19,0.57,0.30,-6.90,8.38,0.19,0.26,1.46,0.10,1005.89
2.813,0.29,0.58,0.91,-6.90,8.38,0.19,0.26,1.46,0.10,1005.89
2.814,0.29,0.58,0.91,3.38,-2.75,0.45,0.26,1.46,0.10,1005.89
2.814,0.29,0.58,0.91,3.38,-2.75,0.45,0.39,0.35,2.64,1005.89
2.843,0.29,0.58,0.91,3.38,-2.75,0.45,0.39,0.35,2.64,1005.91
2.868,0.03,0.97,0.26,3.38,-2.75,0.45,0.39,0.35,2.64,1005.91
2.87,0.10,1.13,-0.41,3.38,-2.75,0.45,0.39,0.35,2.64,1005.91
2.871,0.40,1.13,-0.40,3.38,-2.75,0.45,0.39,0.35,2.64,1005.91
2.871,0.40,1.13,-0.40,3.38,-2.75,0.45,0.82,-0.70,1.52,1005.91
2.872,0.40,1.13,-0.40,1.84,0.80,-1.44,0.82,-0.70,1.52,1005.91
2.875,0.40,1.13,-0.40,1.84,0.80,-1.44,0.82,-0.70,1.52,1005.94
2.925,0.28,1.06,-0.14,1.84,0.80,-1.44,0.82,-0.70,1.52,1005.94
2.927,0.05,0.93,-0.06,1.84,0.80,-1.44,0.82,-0.70,1.52,1005.94
2.927,0.05,0.96,-0.06,1.84,0.80,-1.44,0.82,-0.70,1.52,1005.94
2.928,0.05,0.96,-0.06,1.84,0.80,-1.44,0.40,0.38,0.77,1005.94
2.929,0.05,0.96,-0.06,0.88,-0.10,-0.28,0.40,0.38,0.77,1005.94
2.954,0.05,0.96,-0.06,0.88,-0.10,-0.28,0.40,0.38,0.77,1005.91
2.985,-0.07,1.07,-0.07,0.88,-0.10,-0.28,0.40,0.38,0.77,1005.91
2.986,-0.19,1.03,-0.06,0.88,-0.10,-0.28,0.40,0.38,0.77,1005.91
2.987,-0.09,0.98,-0.04,0.88,-0.10,-0.28,0.40,0.38,0.77,1005.91
2.987,-0.09,0.98,-0.04,0.88,-0.10,-0.28,0.42,0.07,0.73,1005.91
2.988,-0.09,0.98,-0.04,-1.88,0.37,0.23,0.42,0.07,0.73,1005.91
3.034,-0.09,0.98,-0.04,-1.88,0.37,0.23,0.42,0.07,0.73,1005.91
3.043,0.10,1.01,-0.05,-1.88,0.37,0.23,0.42,0.07,0.73,1005.91
3.045,0.24,0.98,-0.03,-1.88,0.37,0.23,0.42,0.07,0.73,1005.91
3.046,0.14,0.96,-0.03,-1.88,0.37,0.23,0.42,0.07,0.73,1005.91
3.047,0.14,0.96,-0.03,-1.88,0.37,0.23,0.50,-0.38,0.98,1005.91
3.048,0.14,0.96,-0.03,0.27,0.02,0.76,0.50,-0.38,0.98,1005.91
3.075,0.14,0.96,-0.03,0.27,0.02,0.76,0.50,-0.38,0.98,1005.90
3.101,0.03,0.98,-0.00,0.27,0.02,0.76,0.50,-0.38,0.98,1005.90
3.102,0.03,0.98,-0.06,0.27,0.02,0.76,0.50,-0.38,0.98,1005.90
3.103,0.10,0.98,-0.13,0.27,0.02,0.76,0.50,-0.38,0.98,1005.90
3.103,0.10,0.98,-0.13,0.27,0.02,0.76,0.66,-0.00,1.01,1005.90
3.103,0.10,0.98,-0.13,-1.31,0.18,0.80,0.66,-0.00,1.01,1005.90
3.155,0.10,0.98,-0.13,-1.31,0.18,0.80,0.66,-0.00,1.01,1005.91
3.16,0.14,1.00,-0.17,-1.31,0.18,0.80,0.66,-0.00,1.01,1005.91
3.162,0.11,1.02,-0.21,-1.31,0.18,0.80,0.66,-0.00,1.01,1005.91
3.163,0.14,1.02,-0.20,-1.31,0.18,0.80,0.66,-0.00,1.01,1005.91
3.164,0.14,1.02,-0.20,-1.31,0.18,0.80,0.74,-0.33,1.25,1005.91
3.165,0.14,1.02,-0.20,-1.18,0.69,0.01,0.74,-0.33,1.25,1005.91
3.219,0.23,1.03,-0.15,-1.18,0.69,0.01,0.74,-0.33,1.25,1005.91
3.221,0.18,1.05,-0.09,-1.18,0.69,0.01,0.74,-0.33,1.25,1005.91
3.222,0.04,1.17,-0.08,-1.18,0.69,0.01,0.74,-0.33,1.25,1005.91
3.223,0.04,1.17,-0.08,-1.18,0.69,0.01,1.02,-0.19,1.43,1005.91
3.224,0.04,1.17,-0.08,-1.67,1.70,1.41,1.02,-0.19,1.43,1005.91
3.24,0.04,1.17,-0.08,-1.67,1.70,1.41,1.02,-0.19,1.43,1005.90
3.274,0.04,1.17,-0.08,-1.67,1.70,1.41,1.02,-0.19,1.43,1005.90
3.277,0.02,1.23,-0.08,-1.67,1.70,1.41,1.02,-0.19,1.43,1005.90
3.278,0.06,1.22,-0.20,-1.67,1.70,1.41,1.02,-0.19,1.43,1005.90
3.279,-0.04,1.42,-0.20,-1.67,1.70,1.41,1.02,-0.19,1.43,1005.90
3.28,-0.04,1.42,-0.20,-1.67,1.70,1.41,1.54,-0.55,1.79,1005.90
3.281,-0.04,1.42,-0.20,-3.79,4.28,1.73,1.54,-0.55,1.79,1005.90
3.334,-0.46,1.82,-0.03,-3.79,4.28,1.73,1.54,-0.55,1.79,1005.90
3.336,-1.06,1.98,0.02,-3.79,4.28,1.73,1.54,-0.55,1.79,1005.90
3.337,-1.24,1.78,0.03,-3.79,4.28,1.73,1.54,-0.55,1.79,1005.90
3.339,-1.24,1.78,0.03,-13.47,10.66,4.43,1.54,-0.55,1.79,1005.90
3.34,-1.24,1.78,0.03,-13.47,10.66,4.43,2.04,-0.85,2.05,1005.90
3.355,-1.24,1.78,0.03,-13.47,10.66,4.43,2.04,-0.85,2.05,1005.90
3.392,-0.49,1.30,0.01,-13.47,10.66,4.43,2.04,-0.85,2.05,1005.90
3.394,0.49,1.16,-0.57,-13.47,10.66,4.43,2.04,-0.85,2.05,1005.90
3.395,1.31,1.18,-0.52,-13.47,10.66,4.43,2.04,-0.85,2.05,1005.90
3.395,1.31,1.18,-0.52,-13.47,10.66,4.43,2.45,-2.01,3.70,1005.90
3.396,1.31,1.18,-0.52,-1.00,6.02,2.34,2.45,-2.01,3.70,1005.90
3.434,1.31,1.18,-0.52,-1.00,6.02,2.34,2.45,-2.01,3.70,1005.90
3.454,1.35,0.89,-0.59,-1.00,6.02,2.34,2.45,-2.01,3.70,1005.90
3.456,0.81,0.56,-0.74,-1.00,6.02,2.34,2.45,-2.01,3.70,1005.90
3.456,0.60,0.52,-0.75,-1.00,6.02,2.34,2.45,-2.01,3.70,1005.90
3.457,0.60,0.52,-0.75,-1.00,6.02,2.34,1.12,-0.21,1.29,1005.90
3.457,0.60,0.52,-0.75,3.38,1.36,-0.48,1.12,-0.21,1.29,1005.90
3.478,0.60,0.52,-0.75,3.38,1.36,-0.48,1.12,-0.21,1.29,1005.85
3.508,0.44,0.37,-0.35,3.38,1.36,-0.48,1.12,-0.21,1.29,1005.85
3.51,0.21,0.17,0.05,3.38,1.36,-0.48,1.12,-0.21,1.29,1005.85
3.511,0.06,0.04,0.14,3.38,1.36,-0.48,1.12,-0.21,1.29,1005.85
3.515,0.06,0.04,0.14,3.38,1.36,-0.48,-1.97,0.77,-1.39,1005.85
3.524,0.06,0.04,0.14,-3.06,-4.26,4.82,-1.97,0.77,-1.39,1005.85
3.555,0.06,0.04,0.14,-3.06,-4.26,4.82,-1.97,0.77,-1.39,1005.86
3.571,-0.06,0.11,-0.03,-3.06,-4.26,4.82,-1.97,0.77,-1.39,1005.86
3.573,0.02,0.33,-0.30,-3.06,-4.26,4.82,-1.97,0.77,-1.39,1005.86
3.574,0.17,0.51,-0.42,-3.06,-4.26,4.82,-1.97,0.77,-1.39,1005.86
3.575,0.17,0.51,-0.42,-3.06,-4.26,4.82,-2.56,-0.22,-3.10,1005.86
3.576,0.17,0.51,-0.42,-3.58,-4.51,1.84,-2.56,-0.22,-3.10,1005.86
3.628,0.20,0.60,-0.27,-3.58,-4.51,1.84,-2.56,-0.22,-3.10,1005.86
3.631,0.18,0.62,-0.28,-3.58,-4.51,1.84,-2.56,-0.22,-3.10,1005.86
3.632,0.21,0.77,-0.38,-3.58,-4.51,1.84,-2.56,-0.22,-3.10,1005.86
3.633,0.21,0.77,-0.38,-3.58,-4.51,1.84,-3.80,-1.37,-4.12,1005.86
3.634,0.21,0.77,-0.38,0.21,-2.58,-0.40,-3.80,-1.37,-4.12,1005.86
3.637,0.21,0.77,-0.38,0.21,-2.58,-0.40,-3.80,-1.37,-4.12,1005.92
3.674,0.21,0.77,-0.38,0.21,-2.58,-0.40,-3.80,-1.37,-4.12,1005.91
3.684,0.29,1.08,-0.47,0.21,-2.58,-0.40,-3.80,-1.37,-4.12,1005.91
3.685,0.46,1.51,-0.56,0.21,-2.58,-0.40,-3.80,-1.37,-4.12,1005.91
3.686,0.55,1.71,-0.91,0.21,-2.58,-0.40,-3.80,-1.37,-4.12,1005.91
3.686,0.55,1.71,-0.91,0.21,-2.58,-0.40,-4.47,-1.47,-4.38,1005.91
3.687,0.55,1.71,-0.91,5.00,4.38,-6.00,-4.47,-1.47,-4.38,1005.91
3.743,0.53,1.55,-0.95,5.00,4.38,-6.00,-4.47,-1.47,-4.38,1005.91
3.745,0.73,1.29,-0.68,5.00,4.38,-6.00,-4.47,-1.47,-4.38,1005.91
3.746,0.94,1.08,-0.50,5.00,4.38,-6.00,-4.47,-1.47,-4.38,1005.91
3.747,0.94,1.08,-0.50,5.00,4.38,-6.00,-3.83,-0.14,-3.47,1005.91
3.748,0.94,1.08,-0.50,9.69,3.63,-8.57,-3.83,-0.14,-3.47,1005.91
3.754,0.94,1.08,-0.50,9.69,3.63,-8.57,-3.83,-0.14,-3.47,1005.88
3.8,0.86,1.00,-0.52,9.69,3.63,-8.57,-3.83,-0.14,-3.47,1005.88
3.802,0.46,0.81,-0.61,9.69,3.63,-8.57,-3.83,-0.14,-3.47,1005.88
3.802,0.31,0.72,-0.47,9.69,3.63,-8.57,-3.83,-0.14,-3.47,1005.88
3.803,0.31,0.72,-0.47,9.69,3.63,-8.57,-1.26,1.08,-0.73,1005.88
3.804,0.31,0.72,-0.47,8.21,-0.69,-7.21,-1.26,1.08,-0.73,1005.88
3.835,0.31,0.72,-0.47,8.21,-0.69,-7.21,-1.26,1.08,-0.73,1005.86
3.86,0.36,0.85,-0.51,8.21,-0.69,-7.21,-1.26,1.08,-0.73,1005.86
3.862,0.25,1.31,-1.10,8.21,-0.69,-7.21,-1.26,1.08,-0.73,1005.86
3.863,-1.08,1.73,0.53,8.21,-0.69,-7.21,-1.26,1.08,-0.73,1005.86
3.864,-1.08,1.73,0.53,8.21,-0.69,-7.21,0.31,2.04,0.93,1005.86
3.865,-1.08,1.73,0.53,1.06,3.55,-4.95,0.31,2.04,0.93,1005.86
3.875,-1.08,1.73,0.53,1.06,3.55,-4.95,0.31,2.04,0.93,1005.87
3.918,-1.96,1.80,0.65,1.06,3.55,-4.95,0.31,2.04,0.93,1005.87
3.919,-0.23,1.43,-0.98,1.06,3.55,-4.95,0.31,2.04,0.93,1005.87
3.92,0.20,0.96,-0.39,1.06,3.55,-4.95,0.31,2.04,0.93,1005.87
3.92,0.20,0.96,-0.39,1.06,3.55,-4.95,1.04,2.06,1.13,1005.87
3.921,0.20,0.96,-0.39,-4.35,4.23,-2.89,1.04,2.06,1.13,1005.87
3.954,0.20,0.96,-0.39,-4.35,4.23,-2.89,1.04,2.06,1.13,1005.90
3.975,0.01,0.52,0.61,-4.35,4.23,-2.89,1.04,2.06,1.13,1005.90
3.977,-0.07,0.76,0.21,-4.35,4.23,-2.89,1.04,2.06,1.13,1005.90
3.978,0.18,1.10,-0.15,-4.35,4.23,-2.89,1.04,2.06,1.13,1005.90
3.978,0.18,1.10,-0.15,-4.35,4.23,-2.89,0.61,-0.29,1.68,1005.90
3.978,0.18,1.10,-0.15,1.61,-1.83,1.98,0.61,-0.29,1.68,1005.90
4.035,0.43,1.15,-0.37,1.61,-1.83,1.98,0.61,-0.29,1.68,1005.90
4.036,0.19,1.00,-0.14,1.61,-1.83,1.98,0.61,-0.29,1.68,1005.90
4.036,-0.21,1.03,-0.01,1.61,-1.83,1.98,0.61,-0.29,1.68,1005.90
4.036,-0.21,1.03,-0.01,1.61,-1.83,1.98,0.28,0.01,0.95,1005.90
4.037,-0.21,1.03,-0.01,1.61,-1.83,1.98,0.28,0.01,0.95,1005.89
4.037,-0.21,1.03,-0.01,1.98,0.70,-1.72,0.28,0.01,0.95,1005.89
4.074,-0.21,1.03,-0.01,1.98,0.70,-1.72,0.28,0.01,0.95,1005.90
4.092,-0.18,1.04,0.11,1.98,0.70,-1.72,0.28,0.01,0.95,1005.90
4.093,-0.06,0.99,0.24,1.98,0.70,-1.72,0.28,0.01,0.95,1005.90
4.094,0.07,0.94,0.10,1.98,0.70,-1.72,0.28,0.01,0.95,1005.90
4.094,0.07,0.94,0.10,1.98,0.70,-1.72,0.32,0.30,0.74,1005.90
4.095,0.07,0.94,0.10,-0.37,0.02,1.61,0.32,0.30,0.74,1005.90
4.152,0.09,0.98,-0.06,-0.37,0.02,1.61,0.32,0.30,0.74,1005.90
4.153,0.08,0.99,-0.08,-0.37,0.02,1.61,0.32,0.30,0.74,1005.90
4.154,0.01,1.01,-0.08,-0.37,0.02,1.61,0.32,0.30,0.74,1005.90
4.154,0.01,1.01,-0.08,-0.37,0.02,1.61,0.47,-0.04,0.61,1005.90
4.154,0.01,1.01,-0.08,0.45,0.07,-0.35,0.47,-0.04,0.61,1005.90
4.155,0.01,1.01,-0.08,0.45,0.07,-0.35,0.47,-0.04,0.61,1005.90
4.209,-0.04,1.05,-0.07,0.45,0.07,-0.35,0.47,-0.04,0.61,1005.90
4.211,0.03,0.98,-0.07,0.45,0.07,-0.35,0.47,-0.04,0.61,1005.90
4.211,0.14,0.95,-0.06,0.45,0.07,-0.35,0.47,-0.04,0.61,1005.90
4.212,0.14,0.95,-0.06,0.45,0.07,-0.35,0.46,0.03,0.53,1005.90
4.212,0.14,0.95,-0.06,-0.00,0.07,0.01,0.46,0.03,0.53,1005.90
4.236,0.14,0.95,-0.06,-0.00,0.07,0.01,0.46,0.03,0.53,1005.90
4.271,0.18,0.97,-0.07,-0.00,0.07,0.01,0.46,0.03,0.53,1005.90
4.272,0.08,0.98,-0.11,-0.00,0.07,0.01,0.46,0.03,0.53,1005.90
4.273,-0.02,0.98,-0.13,-0.00,0.07,0.01,0.46,0.03,0.53,1005.90
4.273,-0.02,0.98,-0.13,-0.00,0.07,0.01,0.40,0.07,0.35,1005.90
4.273,-0.02,0.98,-0.13,0.15,-0.08,-0.14,0.40,0.07,0.35,1005.90
4.278,-0.02,0.98,-0.13,0.15,-0.08,-0.14,0.40,0.07,0.35,1005.90
4.327,-0.04,0.99,-0.09,0.15,-0.08,-0.14,0.40,0.07,0.35,1005.90
4.328,-0.05,0.95,0.02,0.15,-0.08,-0.14,0.40,0.07,0.35,1005.90
4.329,-0.07,0.92,0.12,0.15,-0.08,-0.14,0.40,0.07,0.35,1005.90
4.329,-0.07,0.92,0.12,0.15,-0.08,-0.14,0.41,-0.34,0.52,1005.90
4.329,-0.07,0.92,0.12,-1.40,-0.24,1.24,0.41,-0.34,0.52,1005.90
4.355,-0.07,0.92,0.12,-1.40,-0.24,1.24,0.41,-0.34,0.52,1005.90
4.387,-0.04,0.93,0.09,-1.40,-0.24,1.24,0.41,-0.34,0.52,1005.90
4.398,-0.07,0.99,0.04,-1.40,-0.24,1.24,0.41,-0.34,0.52,1005.90
4.399,-0.20,1.09,0.04,-1.40,-0.24,1.24,0.41,-0.34,0.52,1005.90
4.399,-0.20,1.09,0.04,-1.40,-0.24,1.24,0.91,-0.94,1.03,1005.90
4.4,-0.20,1.09,0.04,-2.35,0.37,2.21,0.91,-0.94,1.03,1005.90
4.435,-0.20,1.09,0.04,-2.35,0.37,2.21,0.91,-0.94,1.03,1005.90
4.442,-0.22,1.09,-0.02,-2.35,0.37,2.21,0.91,-0.94,1.03,1005.90
4.442,-0.23,1.10,-0.14,-2.35,0.37,2.21,0.91,-0.94,1.03,1005.90
4.443,0.00,1.21,-0.34,-2.35,0.37,2.21,0.91,-0.94,1.03,1005.90
4.443,0.00,1.21,-0.34,-2.35,0.37,2.21,1.57,-1.37,1.81,1005.90
4.444,0.00,1.21,-0.34,-3.56,2.01,0.98,1.57,-1.37,1.81,1005.90
4.474,0.00,1.21,-0.34,-3.56,2.01,0.98,1.57,-1.37,1.81,1005.90
4.502,0.31,1.38,-0.52,-3.56,2.01,0.98,1.57,-1.37,1.81,1005.90
4.503,0.48,1.38,-0.49,-3.56,2.01,0.98,1.57,-1.37,1.81,1005.90
4.503,0.47,1.18,-0.36,-3.56,2.01,0.98,1.57,-1.37,1.81,1005.90
4.503,0.47,1.18,-0.36,1.22,4.24,-1.02,1.57,-1.37,1.81,1005.90
4.504,0.47,1.18,-0.36,1.22,4.24,-1.02,1.12,-1.75,2.08,1005.90
4.555,0.47,1.18,-0.36,1.22,4.24,-1.02,1.12,-1.75,2.08,1005.89
4.559,0.31,1.02,-0.50,1.22,4.24,-1.02,1.12,-1.75,2.08,1005.89
4.559,0.41,0.92,-0.36,1.22,4.24,-1.02,1.12,-1.75,2.08,1005.89
4.56,0.39,0.82,-0.25,1.22,4.24,-1.02,1.12,-1.75,2.08,1005.89
4.56,0.39,0.82,-0.25,0.41,0.57,0.04,1.12,-1.75,2.08,1005.89
4.561,0.39,0.82,-0.25,0.41,0.57,0.04,-0.47,-2.47,1.81,1005.89
4.618,0.04,0.76,-0.19,0.41,0.57,0.04,-0.47,-2.47,1.81,1005.89
4.62,-0.28,0.69,-0.31,0.41,0.57,0.04,-0.47,-2.47,1.81,1005.89
4.621,-0.37,0.71,-0.61,0.41,0.57,0.04,-0.47,-2.47,1.81,1005.89
4.621,-0.37,0.71,-0.61,0.41,0.57,0.04,-2.39,-5.03,1.43,1005.89
4.622,-0.37,0.71,-0.61,-4.84,-1.61,-0.26,-2.39,-5.03,1.43,1005.89
4.635,-0.37,0.71,-0.61,-4.84,-1.61,-0.26,-2.39,-5.03,1.43,1005.88
4.674,-0.37,0.71,-0.61,-4.84,-1.61,-0.26,-2.39,-5.03,1.43,1005.89
4.676,-0.37,0.71,-0.61,-4.58,-2.37,-6.05,-2.39,-5.03,1.43,1005.89
4.678,-0.27,0.69,-0.88,-4.58,-2.37,-6.05,-2.39,-5.03,1.43,1005.89
4.678,-0.23,0.65,-0.98,-4.58,-2.37,-6.05,-2.39,-5.03,1.43,1005.89
4.679,-0.26,0.66,-0.98,-4.58,-2.37,-6.05,-2.39,-5.03,1.43,1005.89
4.679,-0.26,0.66,-0.98,-4.58,-2.37,-6.05,-2.60,-7.31,1.44,1005.89
4.734,-0.28,0.68,-1.01,-4.58,-2.37,-6.05,-2.60,-7.31,1.44,1005.89
4.736,-0.28,0.71,-1.02,-4.58,-2.37,-6.05,-2.60,-7.31,1.44,1005.89
4.737,-0.25,0.70,-0.96,-4.58,-2.37,-6.05,-2.60,-7.31,1.44,1005.89
4.741,-0.25,0.70,-0.96,-4.58,-2.37,-6.05,-2.33,-7.01,0.91,1005.89
4.742,-0.25,0.70,-0.96,-3.96,-2.36,-6.92,-2.33,-7.01,0.91,1005.89
4.754,-0.25,0.70,-0.96,-3.96,-2.36,-6.92,-2.33,-7.01,0.91,1005.87
4.8,-0.21,0.73,-0.85,-3.96,-2.36,-6.92,-2.33,-7.01,0.91,1005.87
4.802,-0.17,0.80,-0.74,-3.96,-2.36,-6.92,-2.33,-7.01,0.91,1005.87
4.803,-0.10,0.83,-0.63,-3.96,-2.36,-6.92,-2.33,-7.01,0.91,1005.87
4.804,-0.10,0.83,-0.63,-3.96,-2.36,-6.92,-1.79,-5.44,-0.05,1005.87
4.805,-0.10,0.83,-0.63,-1.99,-1.72,-5.01,-1.79,-5.44,-0.05,1005.87
4.836,-0.10,0.83,-0.63,-1.99,-1.72,-5.01,-1.79,-5.44,-0.05,1005.86
4.85,-0.06,0.80,-0.53,-1.99,-1.72,-5.01,-1.79,-5.44,-0.05,1005.86
4.851,-0.11,0.80,-0.46,-1.99,-1.72,-5.01,-1.79,-5.44,-0.05,1005.86
4.851,-0.14,0.89,-0.48,-1.99,-1.72,-5.01,-1.79,-5.44,-0.05,1005.86
4.851,-0.14,0.89,-0.48,-1.99,-1.72,-5.01,-1.18,-3.96,-0.78,1005.86
4.852,-0.14,0.89,-0.48,-0.56,-1.39,-3.15,-1.18,-3.96,-0.78,1005.86
4.875,-0.14,0.89,-0.48,-0.56,-1.39,-3.15,-1.18,-3.96,-0.78,1005.88
4.91,-0.02,0.99,-0.43,-0.56,-1.39,-3.15,-1.18,-3.96,-0.78,1005.88
4.911,0.22,0.98,-0.29,-0.56,-1.39,-3.15,-1.18,-3.96,-0.78,1005.88
4.911,0.25,0.94,-0.11,-0.56,-1.39,-3.15,-1.18,-3.96,-0.78,1005.88
4.911,0.25,0.94,-0.11,2.53,-0.06,-1.58,-1.18,-3.96,-0.78,1005.88
4.912,0.25,0.94,-0.11,2.53,-0.06,-1.58,-0.79,-2.18,-0.85,1005.88
4.956,0.25,0.94,-0.11,2.53,-0.06,-1.58,-0.79,-2.18,-0.85,1005.89
4.967,0.12,0.95,-0.01,2.53,-0.06,-1.58,-0.79,-2.18,-0.85,1005.89
4.968,0.00,1.02,0.10,2.53,-0.06,-1.58,-0.79,-2.18,-0.85,1005.89
4.968,-0.05,1.02,0.18,2.53,-0.06,-1.58,-0.79,-2.18,-0.85,1005.89
4.969,-0.05,1.02,0.18,1.81,0.24,1.53,-0.79,-2.18,-0.85,1005.89
4.969,-0.05,1.02,0.18,1.81,0.24,1.53,-0.55,-1.54,-0.83,1005.89
5.026,0.06,0.89,0.16,1.81,0.24,1.53,-0.55,-1.54,-0.83,1005.89
5.027,0.14,0.87,0.13,1.81,0.24,1.53,-0.55,-1.54,-0.83,1005.89
5.027,0.24,0.88,-0.00,1.81,0.24,1.53,-0.55,-1.54,-0.83,1005.89
5.029,0.24,0.88,-0.00,1.81,0.24,1.53,0.00,-3.36,0.29,1005.89
5.03,0.24,0.88,-0.00,2.88,-0.90,1.29,0.00,-3.36,0.29,1005.89
5.034,0.24,0.88,-0.00,2.88,-0.90,1.29,0.00,-3.36,0.29,1005.90
5.075,0.24,0.88,-0.00,2.88,-0.90,1.29,0.00,-3.36,0.29,1005.91
5.093,0.38,0.88,-0.30,2.88,-0.90,1.29,0.00,-3.36,0.29,1005.91
5.095,0.42,1.05,-0.26,2.88,-0.90,1.29,0.00,-3.36,0.29,1005.91
5.096,0.10,1.51,0.42,2.88,-0.90,1.29,0.00,-3.36,0.29,1005.91
5.097,0.10,1.51,0.42,2.88,-0.90,1.29,-0.21,-1.67,0.87,1005.91
5.099,0.10,1.51,0.42,3.86,1.61,-0.35,-0.21,-1.67,0.87,1005.91
5.144,-0.10,1.64,0.25,3.86,1.61,-0.35,-0.21,-1.67,0.87,1005.91
5.145,-0.54,1.12,-0.43,3.86,1.61,-0.35,-0.21,-1.67,0.87,1005.91
5.145,-0.62,0.82,-0.27,3.86,1.61,-0.35,-0.21,-1.67,0.87,1005.91
5.145,-0.62,0.82,-0.27,3.86,1.61,-0.35,0.13,1.93,0.30,1005.91
5.145,-0.62,0.82,-0.27,-3.32,2.06,-1.17,0.13,1.93,0.30,1005.91
5.155,-0.62,0.82,-0.27,-3.32,2.06,-1.17,0.13,1.93,0.30,1005.89
5.202,-0.40,0.92,-0.04,-3.32,2.06,-1.17,0.13,1.93,0.30,1005.89
5.203,-0.07,1.07,0.12,-3.32,2.06,-1.17,0.13,1.93,0.30,1005.89
5.205,0.24,1.05,0.14,-3.32,2.06,-1.17,0.13,1.93,0.30,1005.89
5.206,0.24,1.05,0.14,-3.32,2.06,-1.17,-0.16,-0.23,1.12,1005.89
5.207,0.24,1.05,0.14,-0.57,0.20,0.90,-0.16,-0.23,1.12,1005.89
5.235,0.24,1.05,0.14,-0.57,0.20,0.90,-0.16,-0.23,1.12,1005.90
5.26,0.24,0.93,0.04,-0.57,0.20,0.90,-0.16,-0.23,1.12,1005.90
5.261,0.10,0.96,0.06,-0.57,0.20,0.90,-0.16,-0.23,1.12,1005.90
5.262,0.05,1.10,0.08,-0.57,0.20,0.90,-0.16,-0.23,1.12,1005.90
5.263,0.05,1.10,0.08,0.97,0.05,0.78,-0.16,-0.23,1.12,1005.90
5.264,0.05,1.10,0.08,0.97,0.05,0.78,-0.00,-0.41,0.84,1005.90
5.274,0.05,1.10,0.08,0.97,0.05,0.78,-0.00,-0.41,0.84,1005.90
5.317,-0.03,1.07,0.05,0.97,0.05,0.78,-0.00,-0.41,0.84,1005.90
5.32,-0.03,0.99,0.03,0.97,0.05,0.78,-0.00,-0.41,0.84,1005.90
5.32,0.06,0.99,0.07,0.97,0.05,0.78,-0.00,-0.41,0.84,1005.90
5.32,0.06,0.99,0.07,0.97,0.05,0.78,0.15,-0.13,0.63,1005.90
5.321,0.06,0.99,0.07,-0.66,0.25,0.73,0.15,-0.13,0.63,1005.90
5.355,0.06,0.99,0.07,-0.66,0.25,0.73,0.15,-0.13,0.63,1005.90
5.376,0.06,1.02,0.07,-0.66,0.25,0.73,0.15,-0.13,0.63,1005.90
5.378,0.01,1.02,0.07,-0.66,0.25,0.73,0.15,-0.13,0.63,1005.90
5.379,0.03,0.99,0.04,-0.66,0.25,0.73,0.15,-0.13,0.63,1005.90
5.38,0.03,0.99,0.04,-0.66,0.25,0.73,0.33,-0.22,0.67,1005.90
5.382,0.03,0.99,0.04,-0.72,0.25,1.02,0.33,-0.22,0.67,1005.90
5.434,0.05,0.99,0.00,-0.72,0.25,1.02,0.33,-0.22,0.67,1005.90
5.435,0.06,1.01,-0.02,-0.72,0.25,1.02,0.33,-0.22,0.67,1005.90
5.436,0.05,1.01,0.01,-0.72,0.25,1.02,0.33,-0.22,0.67,1005.90
5.436,0.05,1.01,0.01,-0.72,0.25,1.02,0.50,-0.29,0.80,1005.90
5.436,0.05,1.01,0.01,-0.91,0.25,0.72,0.50,-0.29,0.80,1005.90
5.437,0.05,1.01,0.01,-0.91,0.25,0.72,0.50,-0.29,0.80,1005.89
5.474,0.05,1.01,0.01,-0.91,0.25,0.72,0.50,-0.29,0.80,1005.90
5.493,0.05,1.01,0.01,-0.16,0.14,0.33,0.50,-0.29,0.80,1005.90
5.495,0.12,0.98,-0.01,-0.16,0.14,0.33,0.50,-0.29,0.80,1005.90
5.496,0.21,0.97,-0.10,-0.16,0.14,0.33,0.50,-0.29,0.80,1005.90
5.497,0.20,0.99,-0.11,-0.16,0.14,0.33,0.50,-0.29,0.80,1005.90
5.498,0.20,0.99,-0.11,-0.16,0.14,0.33,0.56,-0.34,0.89,1005.90
5.552,0.12,1.00,-0.10,-0.16,0.14,0.33,0.56,-0.34,0.89,1005.90
5.553,0.14,0.99,-0.12,-0.16,0.14,0.33,0.56,-0.34,0.89,1005.90
5.554,0.19,1.02,-0.12,-0.16,0.14,0.33,0.56,-0.34,0.89,1005.90
5.554,0.19,1.02,-0.12,-0.16,0.14,0.33,0.53,-0.43,0.88,1005.90
5.555,0.19,1.02,-0.12,-0.88,0.53,0.28,0.53,-0.43,0.88,1005.90
5.555,0.19,1.02,-0.12,-0.88,0.53,0.28,0.53,-0.43,0.88,1005.90
5.609,0.15,1.06,-0.13,-0.88,0.53,0.28,0.53,-0.43,0.88,1005.90
5.611,0.15,1.00,-0.13,-0.88,0.53,0.28,0.53,-0.43,0.88,1005.90
5.611,0.21,0.93,-0.14,-0.88,0.53,0.28,0.53,-0.43,0.88,1005.90
5.612,0.21,0.93,-0.14,-0.88,0.53,0.28,0.52,-0.63,1.02,1005.90
5.612,0.21,0.93,-0.14,-1.15,0.59,0.44,0.52,-0.63,1.02,1005.90
5.635,0.21,0.93,-0.14,-1.15,0.59,0.44,0.52,-0.63,1.02,1005.90
5.669,0.23,0.99,-0.16,-1.15,0.59,0.44,0.52,-0.63,1.02,1005.90
5.671,0.15,1.13,-0.15,-1.15,0.59,0.44,0.52,-0.63,1.02,1005.90
5.672,0.02,1.19,-0.08,-1.15,0.59,0.44,0.52,-0.63,1.02,1005.90
5.672,0.02,1.19,-0.08,-1.15,0.59,0.44,0.66,-0.50,1.18,1005.90
5.673,0.02,1.19,-0.08,-2.05,1.96,0.96,0.66,-0.50,1.18,1005.90
5.674,0.02,1.19,-0.08,-2.05,1.96,0.96,0.66,-0.50,1.18,1005.91
5.727,-0.03,1.15,-0.03,-2.05,1.96,0.96,0.66,-0.50,1.18,1005.91
5.728,-0.03,1.21,-0.05,-2.05,1.96,0.96,0.66,-0.50,1.18,1005.91
5.728,-0.05,1.47,-0.05,-2.05,1.96,0.96,0.66,-0.50,1.18,1005.91
5.729,-0.05,1.47,-0.05,-2.05,1.96,0.96,1.14,-0.79,1.71,1005.91
5.729,-0.05,1.47,-0.05,-4.39,4.09,2.45,1.14,-0.79,1.71,1005.91
5.757,-0.05,1.47,-0.05,-4.39,4.09,2.45,1.14,-0.79,1.71,1005.90
5.787,-0.34,1.77,0.02,-4.39,4.09,2.45,1.14,-0.79,1.71,1005.90
5.787,-0.77,1.80,0.00,-4.39,4.09,2.45,1.14,-0.79,1.71,1005.90
5.788,-1.18,1.77,-0.08,-4.39,4.09,2.45,1.14,-0.79,1.71,1005.90
5.788,-1.18,1.77,-0.08,-4.39,4.09,2.45,1.70,-0.91,2.20,1005.90
5.789,-1.18,1.77,-0.08,-12.14,9.81,3.69,1.70,-0.91,2.20,1005.90
5.836,-1.18,1.77,-0.08,-12.14,9.81,3.69,1.70,-0.91,2.20,1005.89
5.843,-0.92,1.43,-0.00,-12.14,9.81,3.69,1.70,-0.91,2.20,1005.89
5.843,0.03,1.15,-0.35,-12.14,9.81,3.69,1.70,-0.91,2.20,1005.89
5.844,1.04,1.25,-0.59,-12.14,9.81,3.69,1.70,-0.91,2.20,1005.89
5.844,1.04,1.25,-0.59,-12.14,9.81,3.69,1.92,-2.21,3.73,1005.89
5.845,1.04,1.25,-0.59,-4.97,6.39,2.17,1.92,-2.21,3.73,1005.89
5.874,1.04,1.25,-0.59,-4.97,6.39,2.17,1.92,-2.21,3.73,1005.90
5.911,1.39,1.08,-0.50,-4.97,6.39,2.17,1.92,-2.21,3.73,1005.90
5.913,0.84,0.71,-0.61,-4.97,6.39,2.17,1.92,-2.21,3.73,1005.90
5.914,0.61,0.49,-0.92,-4.97,6.39,2.17,1.92,-2.21,3.73,1005.90
5.915,0.61,0.49,-0.92,-4.97,6.39,2.17,1.32,-0.84,2.15,1005.90
5.916,0.61,0.49,-0.92,3.32,2.40,-0.67,1.32,-0.84,2.15,1005.90
5.956,0.61,0.49,-0.92,3.32,2.40,-0.67,1.32,-0.84,2.15,1005.84
5.96,0.44,0.46,-0.63,3.32,2.40,-0.67,1.32,-0.84,2.15,1005.84
5.96,0.25,0.25,-0.25,3.32,2.40,-0.67,1.32,-0.84,2.15,1005.84
5.96,-0.05,0.07,0.03,3.32,2.40,-0.67,1.32,-0.84,2.15,1005.84
5.96,-0.05,0.07,0.03,-3.63,-3.27,2.51,1.32,-0.84,2.15,1005.84
5.961,-0.05,0.07,0.03,-3.63,-3.27,2.51,-1.84,0.19,-0.65,1005.84
6.018,-0.21,0.06,-0.06,-3.63,-3.27,2.51,-1.84,0.19,-0.65,1005.84
6.02,-0.10,0.24,-0.33,-3.63,-3.27,2.51,-1.84,0.19,-0.65,1005.84
6.021,0.08,0.44,-0.47,-3.63,-3.27,2.51,-1.84,0.19,-0.65,1005.84
6.022,0.08,0.44,-0.47,-3.63,-3.27,2.51,-2.46,-0.55,-2.66,1005.84
6.023,0.08,0.44,-0.47,-5.21,-4.81,1.65,-2.46,-0.55,-2.66,1005.84
6.036,0.08,0.44,-0.47,-5.21,-4.81,1.65,-2.46,-0.55,-2.66,1005.87
6.075,0.08,0.44,-0.47,-5.21,-4.81,1.65,-2.46,-0.55,-2.66,1005.92
6.077,0.09,0.55,-0.42,-5.21,-4.81,1.65,-2.46,-0.55,-2.66,1005.92
6.078,0.11,0.58,-0.31,-5.21,-4.81,1.65,-2.46,-0.55,-2.66,1005.92
6.079,0.15,0.63,-0.24,-5.21,-4.81,1.65,-2.46,-0.55,-2.66,1005.92
6.08,0.15,0.63,-0.24,-5.21,-4.81,1.65,-3.61,-1.60,-3.96,1005.92
6.08,0.15,0.63,-0.24,-1.05,-3.02,-0.05,-3.61,-1.60,-3.96,1005.92
6.134,0.13,0.82,-0.24,-1.05,-3.02,-0.05,-3.61,-1.60,-3.96,1005.92
6.135,0.13,1.22,-0.50,-1.05,-3.02,-0.05,-3.61,-1.60,-3.96,1005.92
6.135,0.44,1.75,-0.91,-1.05,-3.02,-0.05,-3.61,-1.60,-3.96,1005.92
6.136,0.44,1.75,-0.91,-1.05,-3.02,-0.05,-4.18,-1.93,-4.52,1005.92
6.138,0.44,1.75,-0.91,2.71,2.83,-4.37,-4.18,-1.93,-4.52,1005.92
6.156,0.44,1.75,-0.91,2.71,2.83,-4.37,-4.18,-1.93,-4.52,1005.91
6.193,0.44,1.75,-0.91,12.23,4.71,-8.92,-4.18,-1.93,-4.52,1005.91
6.196,0.84,1.73,-0.95,12.23,4.71,-8.92,-4.18,-1.93,-4.52,1005.91
6.196,1.06,1.41,-0.81,12.23,4.71,-8.92,-4.18,-1.93,-4.52,1005.91
6.197,1.16,1.16,-0.66,12.23,4.71,-8.92,-4.18,-1.93,-4.52,1005.91
6.199,1.16,1.16,-0.66,12.23,4.71,-8.92,-4.00,0.01,-3.65,1005.91
6.234,1.16,1.16,-0.66,12.23,4.71,-8.92,-4.00,0.01,-3.65,1005.88
6.252,1.22,0.95,-0.70,12.23,4.71,-8.92,-4.00,0.01,-3.65,1005.88
6.254,1.20,0.69,-0.79,12.23,4.71,-8.92,-4.00,0.01,-3.65,1005.88
6.255,1.02,0.83,-1.08,12.23,4.71,-8.92,-4.00,0.01,-3.65,1005.88
6.256,1.02,0.83,-1.08,12.23,4.71,-8.92,-0.70,2.27,-0.18,1005.88
6.257,1.02,0.83,-1.08,13.50,-1.16,-9.32,-0.70,2.27,-0.18,1005.88
6.275,1.02,0.83,-1.08,13.50,-1.16,-9.32,-0.70,2.27,-0.18,1005.85
6.309,0.37,1.71,-0.88,13.50,-1.16,-9.32,-0.70,2.27,-0.18,1005.85
6.311,-1.62,2.03,1.52,13.50,-1.16,-9.32,-0.70,2.27,-0.18,1005.85
6.312,-1.94,1.43,0.08,13.50,-1.16,-9.32,-0.70,2.27,-0.18,1005.85
6.313,-1.94,1.43,0.08,13.50,-1.16,-9.32,0.27,2.81,-0.26,1005.85
6.313,-1.94,1.43,0.08,-7.81,7.57,1.92,0.27,2.81,-0.26,1005.85
6.355,-1.94,1.43,0.08,-7.81,7.57,1.92,0.27,2.81,-0.26,1005.84
6.367,-0.43,0.97,-1.72,-7.81,7.57,1.92,0.27,2.81,-0.26,1005.84
6.368,0.31,0.91,0.01,-7.81,7.57,1.92,0.27,2.81,-0.26,1005.84
6.369,0.59,0.61,0.30,-7.81,7.57,1.92,0.27,2.81,-0.26,1005.84
6.369,0.59,0.61,0.30,-7.81,7.57,1.92,1.07,0.26,2.84,1005.84
6.369,0.59,0.61,0.30,2.59,-1.49,-4.29,1.07,0.26,2.84,1005.84
6.425,0.20,0.97,-0.11,2.59,-1.49,-4.29,1.07,0.26,2.84,1005.84
6.426,0.33,1.14,-0.22,2.59,-1.49,-4.29,1.07,0.26,2.84,1005.84
6.426,0.33,1.05,-0.13,2.59,-1.49,-4.29,1.07,0.26,2.84,1005.84
6.427,0.33,1.05,-0.13,2.59,-1.49,-4.29,0.44,-0.49,1.33,1005.84
6.427,0.33,1.05,-0.13,3.06,0.69,-0.95,0.44,-0.49,1.33,1005.84
6.44,0.33,1.05,-0.13,3.06,0.69,-0.95,0.44,-0.49,1.33,1005.91
6.475,0.33,1.05,-0.13,3.06,0.69,-0.95,0.44,-0.49,1.33,1005.93
6.484,-0.04,1.01,-0.04,3.06,0.69,-0.95,0.44,-0.49,1.33,1005.93
6.485,-0.27,1.02,0.05,3.06,0.69,-0.95,0.44,-0.49,1.33,1005.93
6.486,-0.14,1.00,0.15,3.06,0.69,-0.95,0.44,-0.49,1.33,1005.93
6.487,-0.14,1.00,0.15,3.06,0.69,-0.95,0.25,0.28,0.68,1005.93
6.488,-0.14,1.00,0.15,-1.56,0.26,1.19,0.25,0.28,0.68,1005.93
6.542,0.02,0.99,0.11,-1.56,0.26,1.19,0.25,0.28,0.68,1005.93
6.543,0.05,0.98,0.01,-1.56,0.26,1.19,0.25,0.28,0.68,1005.93
6.543,0.11,0.96,-0.06,-1.56,0.26,1.19,0.25,0.28,0.68,1005.93
6.544,0.11,0.96,-0.06,-1.56,0.26,1.19,0.50,-0.07,0.96,1005.93
6.544,0.11,0.96,-0.06,-0.04,-0.05,1.15,0.50,-0.07,0.96,1005.93
6.555,0.11,0.96,-0.06,-0.04,-0.05,1.15,0.50,-0.07,0.96,1005.93
6.601,0.09,1.00,-0.10,-0.04,-0.05,1.15,0.50,-0.07,0.96,1005.93
6.602,0.00,1.04,-0.09,-0.04,-0.05,1.15,0.50,-0.07,0.96,1005.93
6.602,-0.01,1.03,-0.04,-0.04,-0.05,1.15,0.50,-0.07,0.96,1005.93
6.603,-0.01,1.03,-0.04,-0.04,-0.05,1.15,0.58,0.06,0.90,1005.93
6.603,-0.01,1.03,-0.04,-0.87,0.52,0.53,0.58,0.06,0.90,1005.93
6.636,-0.01,1.03,-0.04,-0.87,0.52,0.53,0.58,0.06,0.90,1005.91
6.658,0.03,1.01,-0.04,-0.87,0.52,0.53,0.58,0.06,0.90,1005.91
6.66,0.11,1.00,-0.09,-0.87,0.52,0.53,0.58,0.06,0.90,1005.91
6.66,0.14,0.98,-0.14,-0.87,0.52,0.53,0.58,0.06,0.90,1005.91
6.661,0.14,0.98,-0.14,-0.87,0.52,0.53,0.72,-0.19,1.08,1005.91
6.661,0.14,0.98,-0.14,-0.81,0.40,0.76,0.72,-0.19,1.08,1005.91
6.675,0.14,0.98,-0.14,-0.81,0.40,0.76,0.72,-0.19,1.08,1005.90
6.719,0.19,1.01,-0.16,-0.81,0.40,0.76,0.72,-0.19,1.08,1005.90
6.723,0.17,1.04,-0.16,-0.81,0.40,0.76,0.72,-0.19,1.08,1005.90
6.724,0.04,1.01,-0.17,-0.81,0.40,0.76,0.72,-0.19,1.08,1005.90
6.725,0.04,1.01,-0.17,-0.92,0.78,0.52,0.72,-0.19,1.08,1005.90
6.726,0.04,1.01,-0.17,-0.92,0.78,0.52,0.77,-0.35,1.10,1005.90
6.756,0.04,1.01,-0.17,-0.92,0.78,0.52,0.77,-0.35,1.10,1005.90
6.78,-0.02,0.98,-0.22,-0.92,0.78,0.52,0.77,-0.35,1.10,1005.90
6.783,0.07,1.07,-0.24,-0.92,0.78,0.52,0.77,-0.35,1.10,1005.90
6.784,0.13,1.16,-0.22,-0.92,0.78,0.52,0.77,-0.35,1.10,1005.90
6.785,0.13,1.16,-0.22,-2.31,1.63,0.48,0.77,-0.35,1.10,1005.90
6.786,0.13,1.16,-0.22,-2.31,1.63,0.48,1.01,-0.25,1.35,1005.90
6.837,0.02,1.17,-0.14,-2.31,1.63,0.48,1.01,-0.25,1.35,1005.90
6.839,-0.10,1.17,-0.09,-2.31,1.63,0.48,1.01,-0.25,1.35,1005.90
6.839,-0.17,1.35,-0.07,-2.31,1.63,0.48,1.01,-0.25,1.35,1005.90
6.839,-0.17,1.35,-0.07,-2.31,1.63,0.48,1.50,-0.19,1.61,1005.90
6.84,-0.17,1.35,-0.07,-2.31,1.63,0.48,1.50,-0.19,1.61,1005.91
6.84,-0.17,1.35,-0.07,-4.40,3.70,2.44,1.50,-0.19,1.61,1005.91
6.876,-0.17,1.35,-0.07,-4.40,3.70,2.44,1.50,-0.19,1.61,1005.91
6.892,-0.48,1.78,0.08,-4.40,3.70,2.44,1.50,-0.19,1.61,1005.91
6.894,-1.04,1.94,0.06,-4.40,3.70,2.44,1.50,-0.19,1.61,1005.91
6.895,-1.16,1.77,0.09,-4.40,3.70,2.44,1.50,-0.19,1.61,1005.91
6.896,-1.16,1.77,0.09,-12.95,10.35,5.15,1.50,-0.19,1.61,1005.91
6.898,-1.16,1.77,0.09,-12.95,10.35,5.15,2.03,-0.52,1.97,1005.91
6.95,-0.43,1.41,0.07,-12.95,10.35,5.15,2.03,-0.52,1.97,1005.91
6.954,0.48,1.38,-0.48,-12.95,10.35,5.15,2.03,-0.52,1.97,1005.91
6.955,1.27,1.33,-0.44,-12.95,10.35,5.15,2.03,-0.52,1.97,1005.91
6.956,1.27,1.33,-0.44,-12.95,10.35,5.15,2.33,-1.51,3.72,1005.91
6.957,1.27,1.33,-0.44,-0.85,7.44,2.91,2.33,-1.51,3.72,1005.91
6.958,1.27,1.33,-0.44,-0.85,7.44,2.91,2.33,-1.51,3.72,1005.92
7.009,1.29,0.94,-0.50,-0.85,7.44,2.91,2.33,-1.51,3.72,1005.92
7.011,0.66,0.70,-0.62,-0.85,7.44,2.91,2.33,-1.51,3.72,1005.92
7.012,0.48,0.57,-0.59,-0.85,7.44,2.91,2.33,-1.51,3.72,1005.92
7.013,0.48,0.57,-0.59,-0.85,7.44,2.91,1.30,-0.17,1.44,1005.92
7.014,0.48,0.57,-0.59,2.34,2.09,0.54,1.30,-0.17,1.44,1005.92
7.038,0.48,0.57,-0.59,2.34,2.09,0.54,1.30,-0.17,1.44,1005.91
7.067,0.27,0.40,-0.26,2.34,2.09,0.54,1.30,-0.17,1.44,1005.91
7.07,0.23,0.20,0.08,2.34,2.09,0.54,1.30,-0.17,1.44,1005.91
7.07,0.22,0.10,0.14,2.34,2.09,0.54,1.30,-0.17,1.44,1005.91
7.071,0.22,0.10,0.14,2.34,2.09,0.54,-1.46,0.31,-1.19,1005.91
7.071,0.22,0.10,0.14,-2.92,-3.69,5.37,-1.46,0.31,-1.19,1005.91
7.075,0.22,0.10,0.14,-2.92,-3.69,5.37,-1.46,0.31,-1.19,1005.85
7.126,0.15,0.16,-0.02,-2.92,-3.69,5.37,-1.46,0.31,-1.19,1005.85
7.128,0.19,0.25,-0.19,-2.92,-3.69,5.37,-1.46,0.31,-1.19,1005.85
7.129,0.23,0.35,-0.28,-2.92,-3.69,5.37,-1.46,0.31,-1.19,1005.85
7.129,0.23,0.35,-0.28,-2.17,-4.88,3.00,-1.46,0.31,-1.19,1005.85
7.13,0.23,0.35,-0.28,-2.17,-4.88,3.00,-2.07,-0.02,-3.07,1005.85
7.155,0.23,0.35,-0.28,-2.17,-4.88,3.00,-2.07,-0.02,-3.07,1005.90
7.184,0.24,0.47,-0.25,-2.17,-4.88,3.00,-2.07,-0.02,-3.07,1005.90
7.185,0.27,0.55,-0.12,-2.17,-4.88,3.00,-2.07,-0.02,-3.07,1005.90
7.186,0.34,0.61,-0.05,-2.17,-4.88,3.00,-2.07,-0.02,-3.07,1005.90
7.186,0.34,0.61,-0.05,-2.17,-4.88,3.00,-3.53,-0.39,-4.44,1005.90
7.186,0.34,0.61,-0.05,0.94,-3.51,1.59,-3.53,-0.39,-4.44,1005.90
7.235,0.34,0.61,-0.05,0.94,-3.51,1.59,-3.53,-0.39,-4.44,1005.91
7.242,0.27,0.82,-0.13,0.94,-3.51,1.59,-3.53,-0.39,-4.44,1005.91
7.243,0.17,1.36,-0.34,0.94,-3.51,1.59,-3.53,-0.39,-4.44,1005.91
7.243,0.40,2.11,-0.60,0.94,-3.51,1.59,-3.53,-0.39,-4.44,1005.91
7.244,0.40,2.11,-0.60,0.94,-3.51,1.59,-4.31,-0.41,-5.29,1005.91
7.244,0.40,2.11,-0.60,3.73,4.54,-2.81,-4.31,-0.41,-5.29,1005.91
7.275,0.40,2.11,-0.60,3.73,4.54,-2.81,-4.31,-0.41,-5.29,1005.90
7.3,0.60,2.13,-0.68,3.73,4.54,-2.81,-4.31,-0.41,-5.29,1005.90
7.301,0.77,1.55,-0.54,3.73,4.54,-2.81,-4.31,-0.41,-5.29,1005.90
7.302,1.03,1.07,-0.45,3.73,4.54,-2.81,-4.31,-0.41,-5.29,1005.90
7.303,1.03,1.07,-0.45,3.73,4.54,-2.81,-4.04,0.23,-3.99,1005.90
7.304,1.03,1.07,-0.45,10.83,6.48,-6.78,-4.04,0.23,-3.99,1005.90
7.355,1.03,1.07,-0.45,10.83,6.48,-6.78,-4.04,0.23,-3.99,1005.86
7.36,1.07,0.93,-0.61,10.83,6.48,-6.78,-4.04,0.23,-3.99,1005.86
7.36,0.92,0.66,-0.76,10.83,6.48,-6.78,-4.04,0.23,-3.99,1005.86
7.361,0.77,0.66,-0.92,10.83,6.48,-6.78,-4.04,0.23,-3.99,1005.86
7.361,0.77,0.66,-0.92,10.83,6.48,-6.78,-0.90,1.23,-0.09,1005.86
7.362,0.77,0.66,-0.92,11.97,-1.55,-8.93,-0.90,1.23,-0.09,1005.86
7.417,0.77,0.66,-0.92,-7.13,8.96,-0.71,-0.90,1.23,-0.09,1005.86
7.418,0.45,1.45,-1.32,-7.13,8.96,-0.71,-0.90,1.23,-0.09,1005.86
7.419,-1.29,2.12,1.09,-7.13,8.96,-0.71,-0.90,1.23,-0.09,1005.86
7.419,-2.32,1.96,0.19,-7.13,8.96,-0.71,-0.90,1.23,-0.09,1005.86
7.419,-2.32,1.96,0.19,-7.13,8.96,-0.71,0.50,3.00,0.11,1005.86
7.434,-2.32,1.96,0.19,-7.13,8.96,-0.71,0.50,3.00,0.11,1005.86
7.475,-0.35,1.29,-1.26,-7.13,8.96,-0.71,0.50,3.00,0.11,1005.86
7.476,0.64,0.81,0.28,-7.13,8.96,-0.71,0.50,3.00,0.11,1005.86
7.476,0.12,0.46,0.14,-7.13,8.96,-0.71,0.50,3.00,0.11,1005.86
7.477,0.12,0.46,0.14,-7.13,8.96,-0.71,1.34,1.22,3.18,1005.86
7.477,0.12,0.46,0.14,2.77,-1.20,-2.39,1.34,1.22,3.18,1005.86
7.477,0.12,0.46,0.14,2.77,-1.20,-2.39,1.34,1.22,3.18,1005.85
7.533,0.20,0.93,-0.19,2.77,-1.20,-2.39,1.34,1.22,3.18,1005.85
7.534,0.48,1.21,-0.31,2.77,-1.20,-2.39,1.34,1.22,3.18,1005.85
7.534,0.48,0.99,-0.25,2.77,-1.20,-2.39,1.34,1.22,3.18,1005.85
7.535,0.48,0.99,-0.25,2.77,-1.20,-2.39,0.75,-0.12,1.87,1005.85
7.535,0.48,0.99,-0.25,4.11,0.61,-1.65,0.75,-0.12,1.87,1005.85
7.559,0.48,0.99,-0.25,4.11,0.61,-1.65,0.75,-0.12,1.87,1005.94
7.592,0.02,0.93,-0.23,4.11,0.61,-1.65,0.75,-0.12,1.87,1005.94
7.593,-0.19,1.02,-0.20,4.11,0.61,-1.65,0.75,-0.12,1.87,1005.94
7.594,-0.12,1.10,-0.10,4.11,0.61,-1.65,0.75,-0.12,1.87,1005.94
7.595,-0.12,1.10,-0.10,4.11,0.61,-1.65,0.30,0.43,0.82,1005.94
7.596,-0.12,1.10,-0.10,-1.10,0.31,-0.74,0.30,0.43,0.82,1005.94
7.636,-0.12,1.10,-0.10,-1.10,0.31,-0.74,0.30,0.43,0.82,1005.91
7.65,-0.02,1.02,0.02,-1.10,0.31,-0.74,0.30,0.43,0.82,1005.91
7.651,0.11,0.96,-0.02,-1.10,0.31,-0.74,0.30,0.43,0.82,1005.91
7.651,0.19,0.96,-0.01,-1.10,0.31,-0.74,0.30,0.43,0.82,1005.91
7.652,0.19,0.96,-0.01,-1.10,0.31,-0.74,0.29,-0.27,0.97,1005.91
7.652,0.19,0.96,-0.01,0.24,0.01,1.07,0.29,-0.27,0.97,1005.91
7.675,0.19,0.96,-0.01,0.24,0.01,1.07,0.29,-0.27,0.97,1005.90
7.716,0.15,0.94,0.02,0.24,0.01,1.07,0.29,-0.27,0.97,1005.90
7.719,0.14,0.96,-0.02,0.24,0.01,1.07,0.29,-0.27,0.97,1005.90
7.72,0.14,0.98,-0.09,0.24,0.01,1.07,0.29,-0.27,0.97,1005.90
7.722,0.14,0.98,-0.09,0.24,0.01,1.07,0.34,-0.24,0.77,1005.90
7.722,0.14,0.98,-0.09,0.32,-0.08,1.01,0.34,-0.24,0.77,1005.90
7.755,0.14,0.98,-0.09,0.32,-0.08,1.01,0.34,-0.24,0.77,1005.90
7.766,0.12,0.97,-0.07,0.32,-0.08,1.01,0.34,-0.24,0.77,1005.90
7.767,0.17,0.95,-0.08,0.32,-0.08,1.01,0.34,-0.24,0.77,1005.90
7.767,0.19,0.92,-0.11,0.32,-0.08,1.01,0.34,-0.24,0.77,1005.90
7.768,0.19,0.92,-0.11,0.32,-0.08,1.01,0.37,-0.19,0.68,1005.90
7.77,0.19,0.92,-0.11,0.10,-0.14,0.66,0.37,-0.19,0.68,1005.90
7.826,0.13,0.92,-0.11,0.10,-0.14,0.66,0.37,-0.19,0.68,1005.90
7.829,0.10,0.95,-0.08,0.10,-0.14,0.66,0.37,-0.19,0.68,1005.90
7.829,0.13,0.96,-0.12,0.10,-0.14,0.66,0.37,-0.19,0.68,1005.90
7.83,0.13,0.96,-0.12,0.10,-0.14,0.66,0.37,-0.22,0.71,1005.90
7.83,0.13,0.96,-0.12,-0.63,-0.06,0.71,0.37,-0.22,0.71,1005.90
7.835,0.13,0.96,-0.12,-0.63,-0.06,0.71,0.37,-0.22,0.71,1005.90
7.876,0.13,0.96,-0.12,-0.63,-0.06,0.71,0.37,-0.22,0.71,1005.89
7.885,0.14,0.96,-0.15,-0.63,-0.06,0.71,0.37,-0.22,0.71,1005.89
7.886,0.20,0.93,-0.10,-0.63,-0.06,0.71,0.37,-0.22,0.71,1005.89
7.886,0.25,0.94,-0.03,-0.63,-0.06,0.71,0.37,-0.22,0.71,1005.89
7.886,0.25,0.94,-0.03,-0.63,-0.06,0.71,0.42,-0.40,0.90,1005.89
7.887,0.25,0.94,-0.03,-0.31,0.05,1.06,0.42,-0.40,0.90,1005.89
7.941,0.18,0.99,-0.02,-0.31,0.05,1.06,0.42,-0.40,0.90,1005.89
7.943,0.12,1.01,-0.04,-0.31,0.05,1.06,0.42,-0.40,0.90,1005.89
7.944,0.10,1.09,-0.06,-0.31,0.05,1.06,0.42,-0.40,0.90,1005.89
7.944,0.10,1.09,-0.06,-0.31,0.05,1.06,0.59,-0.73,1.11,1005.89
7.944,0.10,1.09,-0.06,-1.41,1.13,1.99,0.59,-0.73,1.11,1005.89
7.955,0.10,1.09,-0.06,-1.41,1.13,1.99,0.59,-0.73,1.11,1005.89
8.0,-0.04,1.30,0.08,-1.41,1.13,1.99,0.59,-0.73,1.11,1005.89
8.002,-0.28,1.54,0.06,-1.41,1.13,1.99,0.59,-0.73,1.11,1005.89
8.002,-0.29,1.71,-0.14,-1.41,1.13,1.99,0.59,-0.73,1.11,1005.89
8.002,-0.29,1.71,-0.14,-1.41,1.13,1.99,0.76,-1.76,1.83,1005.89
8.003,-0.29,1.71,-0.14,-5.28,6.25,3.03,0.76,-1.76,1.83,1005.89
8.034,-0.29,1.71,-0.14,-5.28,6.25,3.03,0.76,-1.76,1.83,1005.89
8.06,-0.14,1.69,-0.33,-5.28,6.25,3.03,0.76,-1.76,1.83,1005.89
8.062,0.14,1.38,-0.43,-5.28,6.25,3.03,0.76,-1.76,1.83,1005.89
8.063,0.41,1.04,-0.49,-5.28,6.25,3.03,0.76,-1.76,1.83,1005.89
8.064,0.41,1.04,-0.49,-5.28,6.25,3.03,0.22,-3.56,3.02,1005.89
8.065,0.41,1.04,-0.49,-2.62,5.41,-0.20,0.22,-3.56,3.02,1005.89
8.076,0.41,1.04,-0.49,-2.62,5.41,-0.20,0.22,-3.56,3.02,1005.91
8.116,0.65,0.75,-0.63,-2.62,5.41,-0.20,0.22,-3.56,3.02,1005.91
8.117,0.68,0.53,-0.66,-2.62,5.41,-0.20,0.22,-3.56,3.02,1005.91
8.117,0.40,0.40,-0.65,-2.62,5.41,-0.20,0.22,-3.56,3.02,1005.91
8.118,0.40,0.40,-0.65,-2.62,5.41,-0.20,-1.30,-3.98,3.07,1005.91
8.118,0.40,0.40,-0.65,1.25,-2.04,-2.01,-1.30,-3.98,3.07,1005.91
8.155,0.40,0.40,-0.65,1.25,-2.04,-2.01,-1.30,-3.98,3.07,1005.89
8.175,0.01,0.25,-0.64,1.25,-2.04,-2.01,-1.30,-3.98,3.07,1005.89
8.176,-0.31,0.26,-0.76,1.25,-2.04,-2.01,-1.30,-3.98,3.07,1005.89
8.177,-0.35,0.38,-0.88,1.25,-2.04,-2.01,-1.30,-3.98,3.07,1005.89
8.178,-0.35,0.38,-0.88,1.25,-2.04,-2.01,-2.97,-4.47,2.14,1005.89
8.179,-0.35,0.38,-0.88,-6.27,-4.74,-3.27,-2.97,-4.47,2.14,1005.89
8.234,-0.35,0.38,-0.88,-5.83,-3.77,-5.08,-2.97,-4.47,2.14,1005.89
8.235,-0.21,0.41,-0.98,-5.83,-3.77,-5.08,-2.97,-4.47,2.14,1005.89
8.237,-0.21,0.41,-0.89,-5.83,-3.77,-5.08,-2.97,-4.47,2.14,1005.89
8.237,-0.25,0.49,-0.83,-5.83,-3.77,-5.08,-2.97,-4.47,2.14,1005.89
8.238,-0.25,0.49,-0.83,-5.83,-3.77,-5.08,-3.65,-4.83,1.58,1005.89
8.239,-0.25,0.49,-0.83,-5.83,-3.77,-5.08,-3.65,-4.83,1.58,1005.87
8.276,-0.25,0.49,-0.83,-5.83,-3.77,-5.08,-3.65,-4.83,1.58,1005.86
8.292,-0.33,0.60,-0.86,-5.83,-3.77,-5.08,-3.65,-4.83,1.58,1005.86
8.293,-0.42,0.72,-0.89,-5.83,-3.77,-5.08,-3.65,-4.83,1.58,1005.86
8.294,-0.36,0.77,-0.89,-5.83,-3.77,-5.08,-3.65,-4.83,1.58,1005.86
8.294,-0.36,0.77,-0.89,-5.83,-3.77,-5.08,-3.28,-5.86,0.25,1005.86
8.294,-0.36,0.77,-0.89,-6.11,-1.80,-5.36,-3.28,-5.86,0.25,1005.86
8.35,-0.21,0.80,-0.88,-6.11,-1.80,-5.36,-3.28,-5.86,0.25,1005.86
8.353,-0.05,0.86,-0.82,-6.11,-1.80,-5.36,-3.28,-5.86,0.25,1005.86
8.357,0.09,0.94,-0.75,-6.11,-1.80,-5.36,-3.28,-5.86,0.25,1005.86
8.358,0.09,0.94,-0.75,-6.11,-1.80,-5.36,-2.74,-5.75,-0.39,1005.86
8.359,0.09,0.94,-0.75,-1.83,-0.65,-5.39,-2.74,-5.75,-0.39,1005.86
8.359,0.09,0.94,-0.75,-1.83,-0.65,-5.39,-2.74,-5.75,-0.39,1005.88
8.41,0.17,0.99,-0.67,-1.83,-0.65,-5.39,-2.74,-5.75,-0.39,1005.88
8.411,0.12,1.00,-0.53,-1.83,-0.65,-5.39,-2.74,-5.75,-0.39,1005.88
8.412,0.15,1.01,-0.42,-1.83,-0.65,-5.39,-2.74,-5.75,-0.39,1005.88
8.412,0.15,1.01,-0.42,-1.83,-0.65,-5.39,-2.48,-4.19,-1.16,1005.88
8.412,0.15,1.01,-0.42,1.30,0.32,-3.80,-2.48,-4.19,-1.16,1005.88
8.434,0.15,1.01,-0.42,1.30,0.32,-3.80,-2.48,-4.19,-1.16,1005.88
8.467,0.23,1.06,-0.33,1.30,0.32,-3.80,-2.48,-4.19,-1.16,1005.88
8.469,0.26,1.07,-0.24,1.30,0.32,-3.80,-2.48,-4.19,-1.16,1005.88
8.469,0.28,0.98,-0.24,1.30,0.32,-3.80,-2.48,-4.19,-1.16,1005.88
8.47,0.28,0.98,-0.24,1.30,0.32,-3.80,-1.88,-3.32,-1.29,1005.88
8.47,0.28,0.98,-0.24,3.19,0.56,-2.23,-1.88,-3.32,-1.29,1005.88
8.475,0.28,0.98,-0.24,3.19,0.56,-2.23,-1.88,-3.32,-1.29,1005.89
8.525,0.36,0.95,-0.26,3.19,0.56,-2.23,-1.88,-3.32,-1.29,1005.89
8.526,0.47,0.93,-0.35,3.19,0.56,-2.23,-1.88,-3.32,-1.29,1005.89
8.527,0.61,0.84,-0.60,3.19,0.56,-2.23,-1.88,-3.32,-1.29,1005.89
8.527,0.61,0.84,-0.60,3.19,0.56,-2.23,-0.90,-3.02,-0.31,1005.89
8.527,0.61,0.84,-0.60,5.47,-0.67,-4.13,-0.90,-3.02,-0.31,1005.89
8.555,0.61,0.84,-0.60,5.47,-0.67,-4.13,-0.90,-3.02,-0.31,1005.90
8.584,0.88,1.08,-0.61,5.47,-0.67,-4.13,-0.90,-3.02,-0.31,1005.90
8.585,1.19,1.41,0.49,5.47,-0.67,-4.13,-0.90,-3.02,-0.31,1005.90
8.585,0.17,1.19,0.91,5.47,-0.67,-4.13,-0.90,-3.02,-0.31,1005.90
8.586,0.17,1.19,0.91,5.47,-0.67,-4.13,-0.64,0.37,0.56,1005.90
8.586,0.17,1.19,0.91,7.70,2.40,2.03,-0.64,0.37,0.56,1005.90
8.636,0.17,1.19,0.91,7.70,2.40,2.03,-0.64,0.37,0.56,1005.89
8.642,-1.06,1.09,0.29,7.70,2.40,2.03,-0.64,0.37,0.56,1005.89
8.642,-1.21,1.13,-0.09,7.70,2.40,2.03,-0.64,0.37,0.56,1005.89
8.643,-0.39,0.99,-0.16,7.70,2.40,2.03,-0.64,0.37,0.56,1005.89
8.643,-0.39,0.99,-0.16,-8.12,0.87,-0.36,-0.64,0.37,0.56,1005.89
8.643,-0.39,0.99,-0.16,-8.12,0.87,-0.36,-0.04,1.06,-0.06,1005.89
8.677,-0.39,0.99,-0.16,-8.12,0.87,-0.36,-0.04,1.06,-0.06,1005.91
8.701,0.18,1.05,-0.09,-8.12,0.87,-0.36,-0.04,1.06,-0.06,1005.91
8.702,0.43,1.10,-0.06,-8.12,0.87,-0.36,-0.04,1.06,-0.06,1005.91
8.703,0.26,0.93,0.09,-8.12,0.87,-0.36,-0.04,1.06,-0.06,1005.91
8.703,0.26,0.93,0.09,-8.12,0.87,-0.36,-0.15,-0.59,0.96,1005.91
8.703,0.26,0.93,0.09,2.80,0.41,-0.80,-0.15,-0.59,0.96,1005.91
8.755,0.26,0.93,0.09,2.80,0.41,-0.80,-0.15,-0.59,0.96,1005.89
8.759,-0.15,1.02,0.29,2.80,0.41,-0.80,-0.15,-0.59,0.96,1005.89
8.76,-0.35,1.06,0.25,2.80,0.41,-0.80,-0.15,-0.59,0.96,1005.89
8.76,-0.07,1.02,0.13,2.80,0.41,-0.80,-0.15,-0.59,0.96,1005.89
8.761,-0.07,1.02,0.13,2.80,0.41,-0.80,0.03,-0.30,0.56,1005.89
8.761,-0.07,1.02,0.13,-2.18,0.48,1.59,0.03,-0.30,0.56,1005.89
8.817,0.06,1.01,0.10,-2.18,0.48,1.59,0.03,-0.30,0.56,1005.89
8.82,0.06,0.98,0.18,-2.18,0.48,1.59,0.03,-0.30,0.56,1005.89
8.821,0.05,0.97,0.15,-2.18,0.48,1.59,0.03,-0.30,0.56,1005.89
8.822,0.05,0.97,0.15,-2.18,0.48,1.59,0.37,-0.74,0.86,1005.89
8.823,0.05,0.97,0.15,-0.29,0.01,1.02,0.37,-0.74,0.86,1005.89
8.842,0.05,0.97,0.15,-0.29,0.01,1.02,0.37,-0.74,0.86,1005.91
8.877,0.08,0.98,0.12,-0.29,0.01,1.02,0.37,-0.74,0.86,1005.91
8.878,0.15,0.98,0.04,-0.29,0.01,1.02,0.37,-0.74,0.86,1005.91
8.878,0.11,1.00,0.03,-0.29,0.01,1.02,0.37,-0.74,0.86,1005.91
8.879,0.11,1.00,0.03,-0.20,0.09,0.51,0.37,-0.74,0.86,1005.91
8.879,0.11,1.00,0.03,-0.20,0.09,0.51,0.47,-0.40,0.86,1005.91
8.88,0.11,1.00,0.03,-0.20,0.09,0.51,0.47,-0.40,0.86,1005.90
8.934,0.25,0.97,0.01,-0.20,0.09,0.51,0.47,-0.40,0.86,1005.90
8.935,0.22,1.00,-0.01,-0.20,0.09,0.51,0.47,-0.40,0.86,1005.90
8.936,0.18,0.98,-0.00,-0.20,0.09,0.51,0.47,-0.40,0.86,1005.90
8.936,0.18,0.98,-0.00,0.37,0.10,0.10,0.47,-0.40,0.86,1005.90
8.936,0.18,0.98,-0.00,0.37,0.10,0.10,0.39,-0.49,0.76,1005.90
8.956,0.18,0.98,-0.00,0.37,0.10,0.10,0.39,-0.49,0.76,1005.90
8.992,0.17,0.99,0.01,0.37,0.10,0.10,0.39,-0.49,0.76,1005.90
8.993,0.17,1.03,0.02,0.37,0.10,0.10,0.39,-0.49,0.76,1005.90
8.993,0.08,1.06,0.03,0.37,0.10,0.10,0.39,-0.49,0.76,1005.90
8.993,0.08,1.06,0.03,0.37,0.10,0.10,0.37,-0.42,0.67,1005.90
8.993,0.08,1.06,0.03,-0.73,0.60,0.57,0.37,-0.42,0.67,1005.90
9.04,0.08,1.06,0.03,-0.73,0.60,0.57,0.37,-0.42,0.67,1005.90
9.05,0.02,1.03,-0.03,-0.73,0.60,0.57,0.37,-0.42,0.67,1005.90
9.051,0.12,1.00,-0.05,-0.73,0.60,0.57,0.37,-0.42,0.67,1005.90
9.051,0.18,1.01,-0.03,-0.73,0.60,0.57,0.37,-0.42,0.67,1005.90
9.052,0.18,1.01,-0.03,-0.73,0.60,0.57,0.43,-0.80,0.93,1005.90
9.052,0.18,1.01,-0.03,-1.51,0.60,0.35,0.43,-0.80,0.93,1005.90
9.077,0.18,1.01,-0.03,-1.51,0.60,0.35,0.43,-0.80,0.93,1005.90
9.111,0.23,1.07,-0.00,-1.51,0.60,0.35,0.43,-0.80,0.93,1005.90
9.113,0.13,1.10,-0.04,-1.51,0.60,0.35,0.43,-0.80,0.93,1005.90
9.113,-0.01,1.08,-0.09,-1.51,0.60,0.35,0.43,-0.80,0.93,1005.90
9.114,-0.01,1.08,-0.09,-1.96,1.51,0.69,0.43,-0.80,0.93,1005.90
9.115,-0.01,1.08,-0.09,-1.96,1.51,0.69,0.47,-0.92,1.20,1005.90
9.156,-0.01,1.08,-0.09,-1.96,1.51,0.69,0.47,-0.92,1.20,1005.90
9.168,-0.02,1.10,-0.14,-1.96,1.51,0.69,0.47,-0.92,1.20,1005.90
9.168,-0.01,1.16,-0.23,-1.96,1.51,0.69,0.47,-0.92,1.20,1005.90
9.169,-0.04,1.22,-0.24,-1.96,1.51,0.69,0.47,-0.92,1.20,1005.90
9.169,-0.04,1.22,-0.24,-1.96,1.51,0.69,0.67,-1.38,1.69,1005.90
9.169,-0.04,1.22,-0.24,-4.03,2.62,-0.25,0.67,-1.38,1.69,1005.90
9.224,-0.20,1.33,-0.19,-4.03,2.62,-0.25,0.67,-1.38,1.69,1005.90
9.225,-0.51,1.68,-0.07,-4.03,2.62,-0.25,0.67,-1.38,1.69,1005.90
9.226,-1.06,1.87,0.10,-4.03,2.62,-0.25,0.67,-1.38,1.69,1005.90
9.226,-1.06,1.87,0.10,-4.03,2.62,-0.25,1.13,-1.26,2.03,1005.90
9.226,-1.06,1.87,0.10,-10.27,7.70,2.06,1.13,-1.26,2.03,1005.90
9.236,-1.06,1.87,0.10,-10.27,7.70,2.06,1.13,-1.26,2.03,1005.90
9.276,-1.06,1.87,0.10,-10.27,7.70,2.06,1.13,-1.26,2.03,1005.88
9.284,-1.16,1.55,0.10,-10.27,7.70,2.06,1.13,-1.26,2.03,1005.88
9.285,-0.47,1.37,-0.04,-10.27,7.70,2.06,1.13,-1.26,2.03,1005.88
9.286,0.44,1.49,-0.45,-10.27,7.70,2.06,1.13,-1.26,2.03,1005.88
9.286,0.44,1.49,-0.45,-10.27,7.70,2.06,1.55,-1.81,3.33,1005.88
9.286,0.44,1.49,-0.45,-9.34,7.36,2.47,1.55,-1.81,3.33,1005.88
9.343,1.06,1.62,-0.45,-9.34,7.36,2.47,1.55,-1.81,3.33,1005.88
9.344,1.00,1.25,-0.49,-9.34,7.36,2.47,1.55,-1.81,3.33,1005.88
9.344,0.73,0.90,-0.62,-9.34,7.36,2.47,1.55,-1.81,3.33,1005.88
9.344,0.73,0.90,-0.62,-9.34,7.36,2.47,1.59,-1.45,3.39,1005.88
9.345,0.73,0.90,-0.62,2.72,6.68,-0.22,1.59,-1.45,3.39,1005.88
9.357,0.73,0.90,-0.62,2.72,6.68,-0.22,1.59,-1.45,3.39,1005.87
9.406,0.73,0.90,-0.62,-2.31,-2.02,3.50,1.59,-1.45,3.39,1005.87
9.407,0.54,0.77,-0.48,-2.31,-2.02,3.50,1.59,-1.45,3.39,1005.87
9.407,0.40,0.31,-0.08,-2.31,-2.02,3.50,1.59,-1.45,3.39,1005.87
9.408,0.23,0.06,0.12,-2.31,-2.02,3.50,1.59,-1.45,3.39,1005.87
9.408,0.23,0.06,0.12,-2.31,-2.02,3.50,-1.07,-1.28,0.43,1005.87
9.438,0.23,0.06,0.12,-2.31,-2.02,3.50,-1.07,-1.28,0.43,1005.84
9.464,0.14,0.03,-0.06,-2.31,-2.02,3.50,-1.07,-1.28,0.43,1005.84
9.465,0.18,0.19,-0.27,-2.31,-2.02,3.50,-1.07,-1.28,0.43,1005.84
9.465,0.19,0.35,-0.37,-2.31,-2.02,3.50,-1.07,-1.28,0.43,1005.84
9.466,0.19,0.35,-0.37,-2.31,-2.02,3.50,-1.55,-0.80,-2.02,1005.84
9.466,0.19,0.35,-0.37,-3.42,-4.91,2.28,-1.55,-0.80,-2.02,1005.84
9.49,0.19,0.35,-0.37,-3.42,-4.91,2.28,-1.55,-0.80,-2.02,1005.89
9.517,0.19,0.37,-0.34,-3.42,-4.91,2.28,-1.55,-0.80,-2.02,1005.89
9.518,0.23,0.36,-0.28,-3.42,-4.91,2.28,-1.55,-0.80,-2.02,1005.89
9.518,0.29,0.46,-0.26,-3.42,-4.91,2.28,-1.55,-0.80,-2.02,1005.89
9.518,0.29,0.46,-0.26,-0.89,-4.38,0.61,-1.55,-0.80,-2.02,1005.89
9.519,0.29,0.46,-0.26,-0.89,-4.38,0.61,-3.00,-1.04,-3.64,1005.89
9.556,0.29,0.46,-0.26,-0.89,-4.38,0.61,-3.00,-1.04,-3.64,1005.90
9.577,0.26,0.60,-0.21,-0.89,-4.38,0.61,-3.00,-1.04,-3.64,1005.90
9.578,0.22,0.74,-0.17,-0.89,-4.38,0.61,-3.00,-1.04,-3.64,1005.90
9.578,0.28,1.03,-0.42,-0.89,-4.38,0.61,-3.00,-1.04,-3.64,1005.90
9.579,0.28,1.03,-0.42,-0.89,-4.38,0.61,-4.07,-1.06,-4.83,1005.90
9.579,0.28,1.03,-0.42,1.90,-1.63,-1.11,-4.07,-1.06,-4.83,1005.90
9.633,0.44,1.58,-0.67,1.90,-1.63,-1.11,-4.07,-1.06,-4.83,1005.90
9.634,0.48,1.83,-0.80,1.90,-1.63,-1.11,-4.07,-1.06,-4.83,1005.90
9.635,0.62,1.75,-0.91,1.90,-1.63,-1.11,-4.07,-1.06,-4.83,1005.90
9.635,0.62,1.75,-0.91,1.90,-1.63,-1.11,-4.21,-0.03,-5.25,1005.90
9.636,0.62,1.75,-0.91,7.26,7.52,-8.41,-4.21,-0.03,-5.25,1005.90
9.636,0.62,1.75,-0.91,7.26,7.52,-8.41,-4.21,-0.03,-5.25,1005.88
9.677,0.62,1.75,-0.91,7.26,7.52,-8.41,-4.21,-0.03,-5.25,1005.86
9.692,0.92,1.55,-0.47,7.26,7.52,-8.41,-4.21,-0.03,-5.25,1005.86
9.693,1.09,1.19,-0.28,7.26,7.52,-8.41,-4.21,-0.03,-5.25,1005.86
9.693,1.13,0.75,-0.73,7.26,7.52,-8.41,-4.21,-0.03,-5.25,1005.86
9.693,1.13,0.75,-0.73,7.26,7.52,-8.41,-2.84,1.55,-2.26,1005.86
9.694,1.13,0.75,-0.73,13.55,2.59,-6.57,-2.84,1.55,-2.26,1005.86
9.751,1.18,0.61,-0.58,13.55,2.59,-6.57,-2.84,1.55,-2.26,1005.86
9.752,0.93,0.84,-0.55,13.55,2.59,-6.57,-2.84,1.55,-2.26,1005.86
9.752,0.34,1.39,-0.90,13.55,2.59,-6.57,-2.84,1.55,-2.26,1005.86
9.753,0.34,1.39,-0.90,13.55,2.59,-6.57,0.30,3.49,1.59,1005.86
9.753,0.34,1.39,-0.90,10.58,0.15,-7.47,0.30,3.49,1.59,1005.86
9.755,0.34,1.39,-0.90,10.58,0.15,-7.47,0.30,3.49,1.59,1005.84
9.809,-1.71,1.74,1.16,10.58,0.15,-7.47,0.30,3.49,1.59,1005.84
9.81,-2.53,2.30,0.09,10.58,0.15,-7.47,0.30,3.49,1.59,1005.84
9.81,-0.65,1.44,-1.75,10.58,0.15,-7.47,0.30,3.49,1.59,1005.84
9.811,-0.65,1.44,-1.75,-12.88,8.75,-1.77,0.30,3.49,1.59,1005.84
9.811,-0.65,1.44,-1.75,-12.88,8.75,-1.77,0.62,2.17,-0.39,1005.84
9.841,-0.65,1.44,-1.75,-12.88,8.75,-1.77,0.62,2.17,-0.39,1005.83
9.87,0.15,0.53,-0.42,-12.88,8.75,-1.77,0.62,2.17,-0.39,1005.83
9.871,0.66,0.38,0.87,-12.88,8.75,-1.77,0.62,2.17,-0.39,1005.83
9.871,0.28,0.86,0.10,-12.88,8.75,-1.77,0.62,2.17,-0.39,1005.83
9.872,0.28,0.86,0.10,-12.88,8.75,-1.77,0.37,-0.23,2.85,1005.83
9.872,0.28,0.86,0.10,4.97,-3.74,1.85,0.37,-0.23,2.85,1005.83
9.876,0.28,0.86,0.10,4.97,-3.74,1.85,0.37,-0.23,2.85,1005.98
9.928,0.19,1.25,-0.21,4.97,-3.74,1.85,0.37,-0.23,2.85,1005.98
9.93,0.32,1.09,-0.25,4.97,-3.74,1.85,0.37,-0.23,2.85,1005.98
9.93,-0.12,1.02,-0.18,4.97,-3.74,1.85,0.37,-0.23,2.85,1005.98
9.93,-0.12,1.02,-0.18,4.97,-3.74,1.85,0.42,-0.08,1.05,1005.98
9.931,-0.12,1.02,-0.18,2.12,1.37,-1.82,0.42,-0.08,1.05,1005.98
9.956,-0.12,1.02,-0.18,2.12,1.37,-1.82,0.42,-0.08,1.05,1005.94
9.984,-0.28,0.99,-0.05,2.12,1.37,-1.82,0.42,-0.08,1.05,1005.94
9.985,-0.07,0.99,0.03,2.12,1.37,-1.82,0.42,-0.08,1.05,1005.94
9.986,-0.05,0.99,0.12,2.12,1.37,-1.82,0.42,-0.08,1.05,1005.94
9.986,-0.05,0.99,0.12,2.12,1.37,-1.82,0.20,0.23,0.69,1005.94
9.986,-0.05,0.99,0.12,-0.88,0.09,0.71,0.20,0.23,0.69,1005.94
10.036,-0.05,0.99,0.12,-0.88,0.09,0.71,0.20,0.23,0.69,1005.93
10.063,-0.18,0.96,0.12,-0.88,0.09,0.71,0.20,0.23,0.69,1005.93
10.064,-0.15,0.97,0.15,-0.88,0.09,0.71,0.20,0.23,0.69,1005.93
10.064,-0.07,0.99,0.07,-0.88,0.09,0.71,0.20,0.23,0.69,1005.93
10.065,-0.07,0.99,0.07,-0.88,0.09,0.71,0.48,-0.12,0.91,1005.93
10.065,-0.07,0.99,0.07,-1.38,-0.09,1.74,0.48,-0.12,0.91,1005.93
10.076,-0.07,0.99,0.07,-1.38,-0.09,1.74,0.48,-0.12,0.91,1005.92
10.1,0.03,1.00,-0.01,-1.38,-0.09,1.74,0.48,-0.12,0.91,1005.92
10.101,0.10,0.99,-0.10,-1.38,-0.09,1.74,0.48,-0.12,0.91,1005.92
10.101,0.05,0.99,-0.09,-1.38,-0.09,1.74,0.48,-0.12,0.91,1005.92
10.102,0.05,0.99,-0.09,-1.38,-0.09,1.74,0.67,-0.21,1.11,1005.92
10.102,0.05,0.99,-0.09,-0.09,0.15,0.34,0.67,-0.21,1.11,1005.92
10.156,0.05,0.99,-0.09,-0.09,0.15,0.34,0.67,-0.21,1.11,1005.91
10.157,0.01,0.98,-0.09,-0.09,0.15,0.34,0.67,-0.21,1.11,1005.91
10.157,0.03,0.97,-0.08,-0.09,0.15,0.34,0.67,-0.21,1.11,1005.91
10.158,0.06,1.01,-0.11,-0.09,0.15,0.34,0.67,-0.21,1.11,1005.91
10.158,0.06,1.01,-0.11,-0.92,0.24,0.50,0.67,-0.21,1.11,1005.91
10.158,0.06,1.01,-0.11,-0.92,0.24,0.50,0.76,-0.24,1.12,1005.91
10.218,0.07,1.05,-0.14,-0.92,0.24,0.50,0.76,-0.24,1.12,1005.91
10.219,0.04,1.05,-0.19,-0.92,0.24,0.50,0.76,-0.24,1.12,1005.91
10.22,0.11,1.06,-0.20,-0.92,0.24,0.50,0.76,-0.24,1.12,1005.91
10.22,0.11,1.06,-0.20,-0.92,0.24,0.50,0.85,-0.39,1.27,1005.91
10.22,0.11,1.06,-0.20,-1.19,1.07,0.17,0.85,-0.39,1.27,1005.91
10.238,0.11,1.06,-0.20,-1.19,1.07,0.17,0.85,-0.39,1.27,1005.91
10.276,0.11,1.06,-0.23,-1.19,1.07,0.17,0.85,-0.39,1.27,1005.91
10.277,0.04,1.09,-0.18,-1.19,1.07,0.17,0.85,-0.39,1.27,1005.91
10.277,0.03,1.14,-0.13,-1.19,1.07,0.17,0.85,-0.39,1.27,1005.91
10.277,0.03,1.14,-0.13,-1.98,1.79,0.76,0.85,-0.39,1.27,1005.91
10.278,0.03,1.14,-0.13,-1.98,1.79,0.76,1.11,-0.06,1.37,1005.91
10.278,0.03,1.14,-0.13,-1.98,1.79,0.76,1.11,-0.06,1.37,1005.91
10.333,0.04,1.15,-0.14,-1.98,1.79,0.76,1.11,-0.06,1.37,1005.91
10.334,-0.02,1.21,-0.15,-1.98,1.79,0.76,1.11,-0.06,1.37,1005.91
10.335,-0.18,1.56,-0.03,-1.98,1.79,0.76,1.11,-0.06,1.37,1005.91
10.335,-0.18,1.56,-0.03,-1.98,1.79,0.76,1.52,-0.07,1.57,1005.91
10.335,-0.18,1.56,-0.03,-3.80,4.30,2.22,1.52,-0.07,1.57,1005.91
10.355,-0.18,1.56,-0.03,-3.80,4.30,2.22,1.52,-0.07,1.57,1005.91
10.392,-0.72,1.86,0.17,-3.80,4.30,2.22,1.52,-0.07,1.57,1005.91
10.393,-1.22,1.64,0.11,-3.80,4.30,2.22,1.52,-0.07,1.57,1005.91
10.394,-0.97,1.53,0.10,-3.80,4.30,2.22,1.52,-0.07,1.57,1005.91
10.394,-0.97,1.53,0.10,-3.80,4.30,2.22,2.00,-0.56,1.98,1005.91
10.394,-0.97,1.53,0.10,-13.37,8.62,5.47,2.00,-0.56,1.98,1005.91
10.435,-0.97,1.53,0.10,-13.37,8.62,5.47,2.00,-0.56,1.98,1005.91
10.45,-0.23,1.37,-0.03,-13.37,8.62,5.47,2.00,-0.56,1.98,1005.91
10.451,0.49,1.45,-0.56,-13.37,8.62,5.47,2.00,-0.56,1.98,1005.91
10.451,1.03,1.27,-0.43,-13.37,8.62,5.47,2.00,-0.56,1.98,1005.91
10.451,1.03,1.27,-0.43,-13.37,8.62,5.47,2.43,-1.45,3.74,1005.91
10.451,1.03,1.27,-0.43,-0.74,7.11,2.25,2.43,-1.45,3.74,1005.91
10.476,1.03,1.27,-0.43,-0.74,7.11,2.25,2.43,-1.45,3.74,1005.91
10.509,1.04,0.86,-0.36,-0.74,7.11,2.25,2.43,-1.45,3.74,1005.91
10.51,0.57,0.61,-0.50,-0.74,7.11,2.25,2.43,-1.45,3.74,1005.91
10.51,0.51,0.55,-0.67,-0.74,7.11,2.25,2.43,-1.45,3.74,1005.91
10.51,0.51,0.55,-0.67,-0.74,7.11,2.25,1.17,-0.26,1.47,1005.91
10.511,0.51,0.55,-0.67,1.53,1.16,1.03,1.17,-0.26,1.47,1005.91
10.557,0.51,0.55,-0.67,1.53,1.16,1.03,1.17,-0.26,1.47,1005.89
10.567,0.36,0.42,-0.43,1.53,1.16,1.03,1.17,-0.26,1.47,1005.89
10.567,0.17,0.23,-0.02,1.53,1.16,1.03,1.17,-0.26,1.47,1005.89
10.568,0.12,0.10,0.08,1.53,1.16,1.03,1.17,-0.26,1.47,1005.89
10.568,0.12,0.10,0.08,-3.00,-3.79,4.08,1.17,-0.26,1.47,1005.89
10.569,0.12,0.10,0.08,-3.00,-3.79,4.08,-1.56,0.42,-1.11,1005.89
10.626,0.09,0.16,-0.12,-3.00,-3.79,4.08,-1.56,0.42,-1.11,1005.89
10.626,0.08,0.33,-0.30,-3.00,-3.79,4.08,-1.56,0.42,-1.11,1005.89
10.627,0.09,0.45,-0.29,-3.00,-3.79,4.08,-1.56,0.42,-1.11,1005.89
10.627,0.09,0.45,-0.29,-3.04,-4.52,1.98,-1.56,0.42,-1.11,1005.89
10.628,0.09,0.45,-0.29,-3.04,-4.52,1.98,-2.45,-0.05,-2.83,1005.89
10.635,0.09,0.45,-0.29,-3.04,-4.52,1.98,-2.45,-0.05,-2.83,1005.86
10.676,0.09,0.45,-0.29,-3.04,-4.52,1.98,-2.45,-0.05,-2.83,1005.92
10.684,0.16,0.54,-0.27,-3.04,-4.52,1.98,-2.45,-0.05,-2.83,1005.92
10.685,0.18,0.62,-0.24,-3.04,-4.52,1.98,-2.45,-0.05,-2.83,1005.92
10.685,0.19,0.70,-0.23,-3.04,-4.52,1.98,-2.45,-0.05,-2.83,1005.92
10.686,0.19,0.70,-0.23,-3.04,-4.52,1.98,-3.72,-0.96,-4.19,1005.92
10.686,0.19,0.70,-0.23,0.07,-2.90,0.20,-3.72,-0.96,-4.19,1005.92
10.742,0.15,0.92,-0.28,0.07,-2.90,0.20,-3.72,-0.96,-4.19,1005.92
10.744,0.04,1.36,-0.35,0.07,-2.90,0.20,-3.72,-0.96,-4.19,1005.92
10.746,0.13,2.00,-0.61,0.07,-2.90,0.20,-3.72,-0.96,-4.19,1005.92
10.747,0.13,2.00,-0.61,0.07,-2.90,0.20,-4.37,-1.23,-5.07,1005.92
10.748,0.13,2.00,-0.61,2.21,4.51,-3.72,-4.37,-1.23,-5.07,1005.92
10.755,0.13,2.00,-0.61,2.21,4.51,-3.72,-4.37,-1.23,-5.07,1005.91
10.8,0.50,2.07,-0.88,2.21,4.51,-3.72,-4.37,-1.23,-5.07,1005.91
10.801,0.65,1.67,-0.72,2.21,4.51,-3.72,-4.37,-1.23,-5.07,1005.91
10.802,0.94,1.19,-0.61,2.21,4.51,-3.72,-4.37,-1.23,-5.07,1005.91
10.802,0.94,1.19,-0.61,2.21,4.51,-3.72,-4.01,-0.80,-3.80,1005.91
10.803,0.94,1.19,-0.61,9.82,7.16,-9.01,-4.01,-0.80,-3.80,1005.91
10.835,0.94,1.19,-0.61,9.82,7.16,-9.01,-4.01,-0.80,-3.80,1005.90
10.858,1.04,1.08,-0.48,9.82,7.16,-9.01,-4.01,-0.80,-3.80,1005.90
10.859,0.90,0.76,-0.83,9.82,7.16,-9.01,-4.01,-0.80,-3.80,1005.90
10.859,0.92,0.58,-0.77,9.82,7.16,-9.01,-4.01,-0.80,-3.80,1005.90
10.86,0.92,0.58,-0.77,9.82,7.16,-9.01,-1.07,0.68,-0.18,1005.90
10.86,0.92,0.58,-0.77,12.34,-0.83,-8.85,-1.07,0.68,-0.18,1005.90
10.876,0.92,0.58,-0.77,12.34,-0.83,-8.85,-1.07,0.68,-0.18,1005.86
10.918,0.66,1.10,-1.03,12.34,-0.83,-8.85,-1.07,0.68,-0.18,1005.86
10.919,-0.50,1.76,0.36,12.34,-0.83,-8.85,-1.07,0.68,-0.18,1005.86
10.92,-2.37,1.71,1.32,12.34,-0.83,-8.85,-1.07,0.68,-0.18,1005.86
10.92,-2.37,1.71,1.32,-3.93,6.03,0.63,-1.07,0.68,-0.18,1005.86
10.921,-2.37,1.71,1.32,-3.93,6.03,0.63,0.04,3.09,0.12,1005.86
10.957,-2.37,1.71,1.32,-3.93,6.03,0.63,0.04,3.09,0.12,1005.85
10.976,-0.94,1.66,-0.82,-3.93,6.03,0.63,0.04,3.09,0.12,1005.85
10.977,0.05,1.15,-1.43,-3.93,6.03,0.63,0.04,3.09,0.12,1005.85
10.978,0.34,0.61,0.69,-3.93,6.03,0.63,0.04,3.09,0.12,1005.85
10.978,0.34,0.61,0.69,-3.93,6.03,0.63,1.36,1.36,2.38,1005.85
10.979,0.34,0.61,0.69,0.31,1.80,-5.53,1.36,1.36,2.38,1005.85
11.034,-0.09,0.65,0.03,0.31,1.80,-5.53,1.36,1.36,2.38,1005.85
11.035,0.09,1.13,0.04,0.31,1.80,-5.53,1.36,1.36,2.38,1005.85
11.035,0.38,1.16,-0.24,0.31,1.80,-5.53,1.36,1.36,2.38,1005.85
11.035,0.38,1.16,-0.24,0.31,1.80,-5.53,0.65,-0.43,1.73,1005.85
11.036,0.38,1.16,-0.24,2.37,0.04,-0.66,0.65,-0.43,1.73,1005.85
11.037,0.38,1.16,-0.24,2.37,0.04,-0.66,0.65,-0.43,1.73,1005.88
11.076,0.38,1.16,-0.24,2.37,0.04,-0.66,0.65,-0.43,1.73,1005.93
11.092,0.28,0.96,-0.12,2.37,0.04,-0.66,0.65,-0.43,1.73,1005.93
11.093,-0.23,0.99,0.02,2.37,0.04,-0.66,0.65,-0.43,1.73,1005.93
11.093,-0.24,1.04,0.06,2.37,0.04,-0.66,0.65,-0.43,1.73,1005.93
11.094,-0.24,1.04,0.06,2.37,0.04,-0.66,0.29,0.17,0.80,1005.93
11.094,-0.24,1.04,0.06,0.07,0.19,-0.06,0.29,0.17,0.80,1005.93
11.15,-0.04,1.02,0.10,0.07,0.19,-0.06,0.29,0.17,0.80,1005.93
11.152,-0.02,0.98,0.04,0.07,0.19,-0.06,0.29,0.17,0.80,1005.93
11.153,-0.07,0.96,0.07,0.07,0.19,-0.06,0.29,0.17,0.80,1005.93
11.154,-0.07,0.96,0.07,0.07,0.19,-0.06,0.39,0.04,0.85,1005.93
11.155,-0.07,0.96,0.07,-0.20,0.04,0.97,0.39,0.04,0.85,1005.93
11.156,-0.07,0.96,0.07,-0.20,0.04,0.97,0.39,0.04,0.85,1005.92
11.208,-0.02,0.97,0.08,-0.20,0.04,0.97,0.39,0.04,0.85,1005.92
11.21,0.02,0.99,-0.00,-0.20,0.04,0.97,0.39,0.04,0.85,1005.92
11.21,0.02,1.01,-0.09,-0.20,0.04,0.97,0.39,0.04,0.85,1005.92
11.211,0.02,1.01,-0.09,-0.20,0.04,0.97,0.50,-0.03,0.86,1005.92
11.212,0.02,1.01,-0.09,-0.20,0.10,0.48,0.50,-0.03,0.86,1005.92
11.235,0.02,1.01,-0.09,-0.20,0.10,0.48,0.50,-0.03,0.86,1005.92
11.267,-0.01,1.00,-0.07,-0.20,0.10,0.48,0.50,-0.03,0.86,1005.92
11.268,0.06,0.98,-0.00,-0.20,0.10,0.48,0.50,-0.03,0.86,1005.92
11.269,0.09,0.97,0.01,-0.20,0.10,0.48,0.50,-0.03,0.86,1005.92
11.269,0.09,0.97,0.01,-0.20,0.10,0.48,0.53,-0.00,0.86,1005.92
11.27,0.09,0.97,0.01,-0.29,0.09,0.65,0.53,-0.00,0.86,1005.92
11.275,0.09,0.97,0.01,-0.29,0.09,0.65,0.53,-0.00,0.86,1005.92
11.326,0.01,0.97,-0.05,-0.29,0.09,0.65,0.53,-0.00,0.86,1005.92
11.327,0.00,0.97,-0.14,-0.29,0.09,0.65,0.53,-0.00,0.86,1005.92
11.328,0.11,0.97,-0.16,-0.29,0.09,0.65,0.53,-0.00,0.86,1005.92
11.328,0.11,0.97,-0.16,-0.29,0.09,0.65,0.60,-0.24,0.96,1005.92
11.329,0.11,0.97,-0.16,-0.85,0.04,0.04,0.60,-0.24,0.96,1005.92
11.356,0.11,0.97,-0.16,-0.85,0.04,0.04,0.60,-0.24,0.96,1005.91
11.383,0.17,0.97,-0.11,-0.85,0.04,0.04,0.60,-0.24,0.96,1005.91
11.384,0.13,0.98,-0.00,-0.85,0.04,0.04,0.60,-0.24,0.96,1005.91
11.385,0.14,0.89,0.05,-0.85,0.04,0.04,0.60,-0.24,0.96,1005.91
11.385,0.14,0.89,0.05,-0.85,0.04,0.04,0.58,-0.67,1.07,1005.91
11.386,0.14,0.89,0.05,-0.38,-0.04,1.33,0.58,-0.67,1.07,1005.91
11.436,0.14,0.89,0.05,-0.38,-0.04,1.33,0.58,-0.67,1.07,1005.92
11.443,0.15,0.82,0.05,-0.38,-0.04,1.33,0.58,-0.67,1.07,1005.92
11.444,0.17,0.82,-0.10,-0.38,-0.04,1.33,0.58,-0.67,1.07,1005.92
11.444,0.22,0.90,-0.24,-0.38,-0.04,1.33,0.58,-0.67,1.07,1005.92
11.444,0.22,0.90,-0.24,-0.38,-0.04,1.33,0.78,-1.35,1.39,1005.92
11.445,0.22,0.90,-0.24,-0.59,-0.78,1.17,0.78,-1.35,1.39,1005.92
11.475,0.22,0.90,-0.24,-0.59,-0.78,1.17,0.78,-1.35,1.39,1005.93
11.501,0.20,1.07,-0.19,-0.59,-0.78,1.17,0.78,-1.35,1.39,1005.93
11.502,0.14,1.44,-0.07,-0.59,-0.78,1.17,0.78,-1.35,1.39,1005.93
11.503,0.01,1.82,0.07,-0.59,-0.78,1.17,0.78,-1.35,1.39,1005.93
11.504,0.01,1.82,0.07,-0.59,-0.78,1.17,0.90,-1.60,1.50,1005.93
11.505,0.01,1.82,0.07,-1.74,5.35,2.17,0.90,-1.60,1.50,1005.93
11.559,0.01,1.82,0.07,-3.46,6.05,1.24,0.90,-1.60,1.50,1005.93
11.562,0.01,1.82,0.07,-3.46,6.05,1.24,0.90,-1.60,1.50,1005.91
11.563,-0.04,1.78,-0.06,-3.46,6.05,1.24,0.90,-1.60,1.50,1005.91
11.564,-0.10,1.42,-0.30,-3.46,6.05,1.24,0.90,-1.60,1.50,1005.91
11.565,0.18,1.20,-0.33,-3.46,6.05,1.24,0.90,-1.60,1.50,1005.91
11.566,0.18,1.20,-0.33,-3.46,6.05,1.24,0.50,-2.57,2.47,1005.91
11.618,0.18,1.20,-0.33,0.69,0.41,1.09,0.50,-2.57,2.47,1005.91
11.62,0.55,1.05,-0.22,0.69,0.41,1.09,0.50,-2.57,2.47,1005.91
11.62,0.59,0.82,-0.28,0.69,0.41,1.09,0.50,-2.57,2.47,1005.91
11.621,0.33,0.68,-0.36,0.69,0.41,1.09,0.50,-2.57,2.47,1005.91
11.621,0.33,0.68,-0.36,0.69,0.41,1.09,-1.05,-4.15,3.04,1005.91
11.636,0.33,0.68,-0.36,0.69,0.41,1.09,-1.05,-4.15,3.04,1005.90
11.676,0.10,0.56,-0.53,0.69,0.41,1.09,-1.05,-4.15,3.04,1005.90
11.678,-0.09,0.43,-0.67,0.69,0.41,1.09,-1.05,-4.15,3.04,1005.90
11.678,-0.19,0.48,-0.88,0.69,0.41,1.09,-1.05,-4.15,3.04,1005.90
11.683,-0.19,0.48,-0.88,0.69,0.41,1.09,-2.47,-4.87,2.39,1005.90
11.684,-0.19,0.48,-0.88,0.69,0.41,1.09,-2.47,-4.87,2.39,1005.90
11.684,-0.19,0.48,-0.88,-4.59,-3.03,-2.75,-2.47,-4.87,2.39,1005.90
11.733,-0.08,0.57,-0.95,-4.59,-3.03,-2.75,-2.47,-4.87,2.39,1005.90
11.733,-0.10,0.62,-0.97,-4.59,-3.03,-2.75,-2.47,-4.87,2.39,1005.90
11.734,-0.24,0.58,-0.89,-4.59,-3.03,-2.75,-2.47,-4.87,2.39,1005.90
11.734,-0.24,0.58,-0.89,-4.59,-3.03,-2.75,-3.29,-3.90,1.66,1005.90
11.734,-0.24,0.58,-0.89,-5.18,-2.33,-5.72,-3.29,-3.90,1.66,1005.90
11.756,-0.24,0.58,-0.89,-5.18,-2.33,-5.72,-3.29,-3.90,1.66,1005.88
11.791,-0.35,0.59,-0.83,-5.18,-2.33,-5.72,-3.29,-3.90,1.66,1005.88
11.792,-0.38,0.65,-0.83,-5.18,-2.33,-5.72,-3.29,-3.90,1.66,1005.88
11.792,-0.35,0.72,-0.84,-5.18,-2.33,-5.72,-3.29,-3.90,1.66,1005.88
11.792,-0.35,0.72,-0.84,-5.18,-2.33,-5.72,-3.38,-4.23,0.20,1005.88
11.792,-0.35,0.72,-0.84,-6.56,-2.26,-5.37,-3.38,-4.23,0.20,1005.88
11.837,-0.35,0.72,-0.84,-6.56,-2.26,-5.37,-3.38,-4.23,0.20,1005.87
11.85,-0.37,0.71,-0.81,-6.56,-2.26,-5.37,-3.38,-4.23,0.20,1005.87
11.851,-0.38,0.77,-0.86,-6.56,-2.26,-5.37,-3.38,-4.23,0.20,1005.87
11.851,-0.28,0.88,-0.87,-6.56,-2.26,-5.37,-3.38,-4.23,0.20,1005.87
11.852,-0.28,0.88,-0.87,-6.56,-2.26,-5.37,-2.34,-5.60,-0.82,1005.87
11.852,-0.28,0.88,-0.87,-5.04,-1.36,-5.83,-2.34,-5.60,-0.82,1005.87
11.875,-0.28,0.88,-0.87,-5.04,-1.36,-5.83,-2.34,-5.60,-0.82,1005.88
11.907,-0.14,0.94,-0.82,-5.04,-1.36,-5.83,-2.34,-5.60,-0.82,1005.88
11.908,-0.04,0.96,-0.73,-5.04,-1.36,-5.83,-2.34,-5.60,-0.82,1005.88
11.909,0.05,0.96,-0.64,-5.04,-1.36,-5.83,-2.34,-5.60,-0.82,1005.88
11.909,0.05,0.96,-0.64,-5.04,-1.36,-5.83,-1.71,-5.13,-1.36,1005.88
11.91,0.05,0.96,-0.64,-0.71,-0.05,-5.19,-1.71,-5.13,-1.36,1005.88
11.96,0.05,0.96,-0.64,-0.71,-0.05,-5.19,-1.71,-5.13,-1.36,1005.87
11.967,0.02,0.95,-0.57,-0.71,-0.05,-5.19,-1.71,-5.13,-1.36,1005.87
11.968,0.01,1.01,-0.49,-0.71,-0.05,-5.19,-1.71,-5.13,-1.36,1005.87
11.969,0.07,1.05,-0.39,-0.71,-0.05,-5.19,-1.71,-5.13,-1.36,1005.87
11.969,0.07,1.05,-0.39,-0.71,-0.05,-5.19,-1.34,-3.69,-1.61,1005.87
11.969,0.07,1.05,-0.39,1.26,0.33,-3.55,-1.34,-3.69,-1.61,1005.87
12.027,0.12,1.00,-0.29,1.26,0.33,-3.55,-1.34,-3.69,-1.61,1005.87
12.028,0.21,1.00,-0.21,1.26,0.33,-3.55,-1.34,-3.69,-1.61,1005.87
12.028,0.28,1.01,-0.21,1.26,0.33,-3.55,-1.34,-3.69,-1.61,1005.87
12.029,0.28,1.01,-0.21,1.26,0.33,-3.55,-0.73,-3.12,-1.01,1005.87
12.029,0.28,1.01,-0.21,3.57,0.38,-1.73,-0.73,-3.12,-1.01,1005.87
12.037,0.28,1.01,-0.21,3.57,0.38,-1.73,-0.73,-3.12,-1.01,1005.88
12.076,0.28,1.01,-0.21,3.57,0.38,-1.73,-0.73,-3.12,-1.01,1005.90
12.097,0.39,0.92,-0.21,3.57,0.38,-1.73,-0.73,-3.12,-1.01,1005.90
12.098,0.51,0.86,-0.25,3.57,0.38,-1.73,-0.73,-3.12,-1.01,1005.90
12.099,0.70,0.90,-0.45,3.57,0.38,-1.73,-0.73,-3.12,-1.01,1005.90
12.099,0.70,0.90,-0.45,3.57,0.38,-1.73,0.02,-2.89,0.49,1005.90
12.099,0.70,0.90,-0.45,6.49,-0.75,-2.60,0.02,-2.89,0.49,1005.90
12.141,0.74,1.09,-0.25,6.49,-0.75,-2.60,0.02,-2.89,0.49,1005.90
12.141,0.24,1.53,1.08,6.49,-0.75,-2.60,0.02,-2.89,0.49,1005.90
12.142,-0.13,1.50,0.22,6.49,-0.75,-2.60,0.02,-2.89,0.49,1005.90
12.142,-0.13,1.50,0.22,6.49,-0.75,-2.60,-0.58,-0.05,0.86,1005.90
12.142,-0.13,1.50,0.22,3.51,3.85,3.45,-0.58,-0.05,0.86,1005.90
12.159,-0.13,1.50,0.22,3.51,3.85,3.45,-0.58,-0.05,0.86,1005.88
12.2,-0.74,1.18,-0.79,3.51,3.85,3.45,-0.58,-0.05,0.86,1005.88
12.201,-0.61,0.88,-0.02,3.51,3.85,3.45,-0.58,-0.05,0.86,1005.88
12.202,0.08,0.81,0.07,3.51,3.85,3.45,-0.58,-0.05,0.86,1005.88
12.202,0.08,0.81,0.07,3.51,3.85,3.45,0.24,0.27,0.98,1005.88
12.202,0.08,0.81,0.07,-3.90,-0.24,-2.25,0.24,0.27,0.98,1005.88
12.236,0.08,0.81,0.07,-3.90,-0.24,-2.25,0.24,0.27,0.98,1005.89
12.258,0.29,1.05,0.27,-3.90,-0.24,-2.25,0.24,0.27,0.98,1005.89
12.259,0.26,1.15,0.16,-3.90,-0.24,-2.25,0.24,0.27,0.98,1005.89
12.259,0.15,0.97,-0.02,-3.90,-0.24,-2.25,0.24,0.27,0.98,1005.89
12.259,0.15,0.97,-0.02,-3.90,-0.24,-2.25,0.04,-0.73,1.08,1005.89
12.26,0.15,0.97,-0.02,1.93,0.73,1.49,0.04,-0.73,1.08,1005.89
12.275,0.15,0.97,-0.02,1.93,0.73,1.49,0.04,-0.73,1.08,1005.89
12.317,0.08,0.98,-0.02,1.93,0.73,1.49,0.04,-0.73,1.08,1005.89
12.317,0.04,1.05,0.01,1.93,0.73,1.49,0.04,-0.73,1.08,1005.89
12.318,0.11,1.03,0.00,1.93,0.73,1.49,0.04,-0.73,1.08,1005.89
12.318,0.11,1.03,0.00,1.93,0.73,1.49,0.09,-0.71,0.62,1005.89
12.319,0.11,1.03,0.00,0.01,0.37,0.21,0.09,-0.71,0.62,1005.89
12.355,0.11,1.03,0.00,0.01,0.37,0.21,0.09,-0.71,0.62,1005.90
12.377,0.12,0.99,0.07,0.01,0.37,0.21,0.09,-0.71,0.62,1005.90
12.378,0.09,0.97,0.03,0.01,0.37,0.21,0.09,-0.71,0.62,1005.90
12.378,0.12,0.99,0.04,0.01,0.37,0.21,0.09,-0.71,0.62,1005.90
12.378,0.12,0.99,0.04,0.01,0.37,0.21,0.19,-0.50,0.44,1005.90
12.379,0.12,0.99,0.04,0.13,0.03,0.83,0.19,-0.50,0.44,1005.90
12.434,0.09,1.00,0.01,0.13,0.03,0.83,0.19,-0.50,0.44,1005.90
12.435,0.05,0.99,-0.02,0.13,0.03,0.83,0.19,-0.50,0.44,1005.90
12.435,0.04,1.00,-0.01,0.13,0.03,0.83,0.19,-0.50,0.44,1005.90
12.436,0.04,1.00,-0.01,0.13,0.03,0.83,0.28,-0.46,0.39,1005.90
12.436,0.04,1.00,-0.01,-0.58,0.20,0.48,0.28,-0.46,0.39,1005.90
12.436,0.04,1.00,-0.01,-0.58,0.20,0.48,0.28,-0.46,0.39,1005.91
12.475,0.04,1.00,-0.01,-0.58,0.20,0.48,0.28,-0.46,0.39,1005.91
12.49,0.06,0.98,-0.02,-0.58,0.20,0.48,0.28,-0.46,0.39,1005.91
12.491,0.16,0.98,-0.01,-0.58,0.20,0.48,0.28,-0.46,0.39,1005.91
12.491,0.14,0.99,-0.01,-0.58,0.20,0.48,0.28,-0.46,0.39,1005.91
12.491,0.14,0.99,-0.01,-0.58,0.20,0.48,0.35,-0.09,0.51,1005.91
12.491,0.14,0.99,-0.01,-0.26,0.13,0.61,0.35,-0.09,0.51,1005.91
12.549,-0.01,0.98,0.03,-0.26,0.13,0.61,0.35,-0.09,0.51,1005.91
12.55,-0.13,1.03,0.06,-0.26,0.13,0.61,0.35,-0.09,0.51,1005.91
12.55,-0.06,1.05,0.01,-0.26,0.13,0.61,0.35,-0.09,0.51,1005.91
12.551,-0.06,1.05,0.01,-0.26,0.13,0.61,0.46,-0.04,0.69,1005.91
12.551,-0.06,1.05,0.01,-2.41,0.57,1.28,0.46,-0.04,0.69,1005.91
12.561,-0.06,1.05,0.01,-2.41,0.57,1.28,0.46,-0.04,0.69,1005.91
12.613,0.06,1.03,-0.12,-2.41,0.57,1.28,0.46,-0.04,0.69,1005.91
12.613,0.10,1.04,-0.15,-2.41,0.57,1.28,0.46,-0.04,0.69,1005.91
12.614,0.01,1.07,-0.15,-2.41,0.57,1.28,0.46,-0.04,0.69,1005.91
12.614,0.01,1.07,-0.15,-2.41,0.57,1.28,0.60,-0.48,1.16,1005.91
12.614,0.01,1.07,-0.15,-1.79,0.97,-0.04,0.60,-0.48,1.16,1005.91
12.635,0.01,1.07,-0.15,-1.79,0.97,-0.04,0.60,-0.48,1.16,1005.91
12.67,0.05,1.12,-0.20,-1.79,0.97,-0.04,0.60,-0.48,1.16,1005.91
12.671,0.10,1.15,-0.14,-1.79,0.97,-0.04,0.60,-0.48,1.16,1005.91
12.672,0.03,1.14,-0.08,-1.79,0.97,-0.04,0.60,-0.48,1.16,1005.91
12.672,0.03,1.14,-0.08,-2.46,2.11,0.47,0.60,-0.48,1.16,1005.91
12.672,0.03,1.14,-0.08,-2.46,2.11,0.47,0.79,-0.63,1.52,1005.91
12.676,0.03,1.14,-0.08,-2.46,2.11,0.47,0.79,-0.63,1.52,1005.91
12.725,-0.04,1.17,-0.16,-2.46,2.11,0.47,0.79,-0.63,1.52,1005.91
12.725,0.01,1.23,-0.22,-2.46,2.11,0.47,0.79,-0.63,1.52,1005.91
12.725,0.01,1.29,-0.25,-2.46,2.11,0.47,0.79,-0.63,1.52,1005.91
12.726,0.01,1.29,-0.25,-2.46,2.11,0.47,1.15,-0.80,1.99,1005.91
12.726,0.01,1.29,-0.25,-3.94,3.55,0.55,1.15,-0.80,1.99,1005.91
12.756,0.01,1.29,-0.25,-3.94,3.55,0.55,1.15,-0.80,1.99,1005.92
12.783,-0.31,1.65,-0.16,-3.94,3.55,0.55,1.15,-0.80,1.99,1005.92
12.783,-0.94,1.92,0.05,-3.94,3.55,0.55,1.15,-0.80,1.99,1005.92
12.784,-1.32,1.75,0.15,-3.94,3.55,0.55,1.15,-0.80,1.99,1005.92
12.784,-1.32,1.75,0.15,-3.94,3.55,0.55,1.50,-0.90,2.18,1005.92
12.784,-1.32,1.75,0.15,-12.94,9.55,3.62,1.50,-0.90,2.18,1005.92
12.836,-1.32,1.75,0.15,-12.94,9.55,3.62,1.50,-0.90,2.18,1005.91
12.842,-0.92,1.41,0.12,-12.94,9.55,3.62,1.50,-0.90,2.18,1005.91
12.842,0.18,1.28,-0.33,-12.94,9.55,3.62,1.50,-0.90,2.18,1005.91
12.842,1.18,1.60,-0.49,-12.94,9.55,3.62,1.50,-0.90,2.18,1005.91
12.843,1.18,1.60,-0.49,-12.94,9.55,3.62,2.04,-1.70,3.90,1005.91
12.843,1.18,1.60,-0.49,-4.21,7.71,2.53,2.04,-1.70,3.90,1005.91
12.878,1.18,1.60,-0.49,-4.21,7.71,2.53,2.04,-1.70,3.90,1005.92
12.9,1.38,1.21,-0.44,-4.21,7.71,2.53,2.04,-1.70,3.90,1005.92
12.901,0.83,0.76,-0.44,-4.21,7.71,2.53,2.04,-1.70,3.90,1005.92
12.902,0.53,0.63,-0.55,-4.21,7.71,2.53,2.04,-1.70,3.90,1005.92
12.902,0.53,0.63,-0.55,-4.21,7.71,2.53,1.12,-0.66,2.21,1005.92
12.903,0.53,0.63,-0.55,2.67,3.25,0.75,1.12,-0.66,2.21,1005.92
12.957,0.53,0.63,-0.55,2.67,3.25,0.75,1.12,-0.66,2.21,1005.87
12.957,0.42,0.42,-0.30,2.67,3.25,0.75,1.12,-0.66,2.21,1005.87
12.958,0.29,0.18,0.02,2.67,3.25,0.75,1.12,-0.66,2.21,1005.87
12.958,0.20,0.05,0.18,2.67,3.25,0.75,1.12,-0.66,2.21,1005.87
12.958,0.20,0.05,0.18,2.67,3.25,0.75,-1.56,-0.03,-0.85,1005.87
12.959,0.20,0.05,0.18,-2.95,-3.85,4.46,-1.56,-0.03,-0.85,1005.87
13.017,0.09,0.10,-0.03,-2.95,-3.85,4.46,-1.56,-0.03,-0.85,1005.87
13.018,-0.00,0.30,-0.26,-2.95,-3.85,4.46,-1.56,-0.03,-0.85,1005.87
13.019,0.01,0.44,-0.31,-2.95,-3.85,4.46,-1.56,-0.03,-0.85,1005.87
13.019,0.01,0.44,-0.31,-2.95,-3.85,4.46,-1.98,-0.58,-3.04,1005.87
13.019,0.01,0.44,-0.31,-4.18,-4.56,2.23,-1.98,-0.58,-3.04,1005.87
13.035,0.01,0.44,-0.31,-4.18,-4.56,2.23,-1.98,-0.58,-3.04,1005.86
13.077,0.11,0.50,-0.36,-4.18,-4.56,2.23,-1.98,-0.58,-3.04,1005.86
13.078,0.18,0.57,-0.32,-4.18,-4.56,2.23,-1.98,-0.58,-3.04,1005.86
13.079,0.17,0.68,-0.32,-4.18,-4.56,2.23,-1.98,-0.58,-3.04,1005.86
13.079,0.17,0.68,-0.32,-4.18,-4.56,2.23,-3.40,-1.60,-4.15,1005.86
13.079,0.17,0.68,-0.32,-0.66,-3.08,-0.38,-3.40,-1.60,-4.15,1005.86
13.089,0.17,0.68,-0.32,-0.66,-3.08,-0.38,-3.40,-1.60,-4.15,1005.92
13.132,0.17,0.86,-0.35,-0.66,-3.08,-0.38,-3.40,-1.60,-4.15,1005.92
13.133,0.28,1.22,-0.59,-0.66,-3.08,-0.38,-3.40,-1.60,-4.15,1005.92
13.133,0.55,1.67,-0.98,-0.66,-3.08,-0.38,-3.40,-1.60,-4.15,1005.92
13.133,0.55,1.67,-0.98,-0.66,-3.08,-0.38,-4.27,-1.13,-4.88,1005.92
13.133,0.55,1.67,-0.98,3.81,2.71,-5.53,-4.27,-1.13,-4.88,1005.92
13.156,0.55,1.67,-0.98,3.81,2.71,-5.53,-4.27,-1.13,-4.88,1005.88
13.192,0.82,1.68,-1.10,3.81,2.71,-5.53,-4.27,-1.13,-4.88,1005.88
13.192,1.08,1.58,-0.99,3.81,2.71,-5.53,-4.27,-1.13,-4.88,1005.88
13.193,1.35,1.27,-0.58,3.81,2.71,-5.53,-4.27,-1.13,-4.88,1005.88
13.193,1.35,1.27,-0.58,3.81,2.71,-5.53,-3.62,1.37,-4.08,1005.88
13.193,1.35,1.27,-0.58,13.17,5.61,-9.61,-3.62,1.37,-4.08,1005.88
13.236,1.35,1.27,-0.58,13.17,5.61,-9.61,-3.62,1.37,-4.08,1005.86
13.249,1.42,0.94,-0.40,13.17,5.61,-9.61,-3.62,1.37,-4.08,1005.86
13.25,1.27,0.75,-0.64,13.17,5.61,-9.61,-3.62,1.37,-4.08,1005.86
13.25,0.89,0.97,-0.81,13.17,5.61,-9.61,-3.62,1.37,-4.08,1005.86
13.25,0.89,0.97,-0.81,13.17,5.61,-9.61,-0.74,2.95,-0.17,1005.86
13.251,0.89,0.97,-0.81,14.29,-0.41,-6.77,-0.74,2.95,-0.17,1005.86
13.275,0.89,0.97,-0.81,14.29,-0.41,-6.77,-0.74,2.95,-0.17,1005.82
13.308,0.40,1.55,-0.52,14.29,-0.41,-6.77,-0.74,2.95,-0.17,1005.82
13.309,-1.28,1.59,1.30,14.29,-0.41,-6.77,-0.74,2.95,-0.17,1005.82
13.309,-2.19,1.48,0.25,14.29,-0.41,-6.77,-0.74,2.95,-0.17,1005.82
13.31,-2.19,1.48,0.25,14.29,-0.41,-6.77,0.14,2.59,-0.52,1005.82
13.31,-2.19,1.48,0.25,-6.96,5.97,3.10,0.14,2.59,-0.52,1005.82
13.356,-2.19,1.48,0.25,-6.96,5.97,3.10,0.14,2.59,-0.52,1005.84
13.369,-0.66,1.26,-1.40,-6.96,5.97,3.10,0.14,2.59,-0.52,1005.84
13.37,0.24,0.97,-0.68,-6.96,5.97,3.10,0.14,2.59,-0.52,1005.84
13.37,0.75,0.64,0.52,-6.96,5.97,3.10,0.14,2.59,-0.52,1005.84
13.37,0.75,0.64,0.52,-6.96,5.97,3.10,0.95,0.70,2.88,1005.84
13.371,0.75,0.64,0.52,2.51,-0.11,-4.64,0.95,0.70,2.88,1005.84
13.425,0.27,0.80,-0.02,2.51,-0.11,-4.64,0.95,0.70,2.88,1005.84
13.426,-0.02,1.18,-0.21,2.51,-0.11,-4.64,0.95,0.70,2.88,1005.84
13.427,0.11,1.13,-0.21,2.51,-0.11,-4.64,0.95,0.70,2.88,1005.84
13.427,0.11,1.13,-0.21,2.51,-0.11,-4.64,0.49,-0.12,1.35,1005.84
13.427,0.11,1.13,-0.21,1.85,0.60,-0.71,0.49,-0.12,1.35,1005.84
13.435,0.11,1.13,-0.21,1.85,0.60,-0.71,0.49,-0.12,1.35,1005.93
13.476,0.11,1.13,-0.21,1.85,0.60,-0.71,0.49,-0.12,1.35,1005.93
13.492,0.02,1.02,-0.15,1.85,0.60,-0.71,0.49,-0.12,1.35,1005.93
13.492,-0.09,1.00,-0.11,1.85,0.60,-0.71,0.49,-0.12,1.35,1005.93
13.492,-0.04,0.96,-0.03,1.85,0.60,-0.71,0.49,-0.12,1.35,1005.93
13.493,-0.04,0.96,-0.03,-0.16,0.14,-0.06,0.49,-0.12,1.35,1005.93
13.493,-0.04,0.96,-0.03,-0.16,0.14,-0.06,0.27,0.24,0.84,1005.93
13.542,-0.07,1.01,0.06,-0.16,0.14,-0.06,0.27,0.24,0.84,1005.93
13.542,-0.09,1.02,0.02,-0.16,0.14,-0.06,0.27,0.24,0.84,1005.93
13.543,-0.07,0.98,0.01,-0.16,0.14,-0.06,0.27,0.24,0.84,1005.93
13.543,-0.07,0.98,0.01,-0.16,0.14,-0.06,0.36,0.13,0.84,1005.93
13.544,-0.07,0.98,0.01,-1.03,0.25,1.35,0.36,0.13,0.84,1005.93
13.555,-0.07,0.98,0.01,-1.03,0.25,1.35,0.36,0.13,0.84,1005.93
13.599,-0.05,0.97,-0.01,-1.03,0.25,1.35,0.36,0.13,0.84,1005.93
13.6,0.04,0.97,-0.04,-1.03,0.25,1.35,0.36,0.13,0.84,1005.93
13.6,0.06,0.99,-0.03,-1.03,0.25,1.35,0.36,0.13,0.84,1005.93
13.6,0.06,0.99,-0.03,-1.03,0.25,1.35,0.60,-0.13,1.05,1005.93
13.601,0.06,0.99,-0.03,-0.70,0.09,1.11,0.60,-0.13,1.05,1005.93
13.637,0.06,0.99,-0.03,-0.70,0.09,1.11,0.60,-0.13,1.05,1005.92
13.658,0.00,0.99,-0.06,-0.70,0.09,1.11,0.60,-0.13,1.05,1005.92
13.659,0.09,1.00,-0.13,-0.70,0.09,1.11,0.60,-0.13,1.05,1005.92
13.659,0.21,1.01,-0.21,-0.70,0.09,1.11,0.60,-0.13,1.05,1005.92
13.659,0.21,1.01,-0.21,-0.70,0.09,1.11,0.76,-0.21,1.14,1005.92
13.659,0.21,1.01,-0.21,-0.43,0.45,0.49,0.76,-0.21,1.14,1005.92
13.676,0.21,1.01,-0.21,-0.43,0.45,0.49,0.76,-0.21,1.14,1005.91
13.716,0.17,1.01,-0.23,-0.43,0.45,0.49,0.76,-0.21,1.14,1005.91
13.717,0.06,1.01,-0.22,-0.43,0.45,0.49,0.76,-0.21,1.14,1005.91
13.717,0.07,1.00,-0.20,-0.43,0.45,0.49,0.76,-0.21,1.14,1005.91
13.717,0.07,1.00,-0.20,-0.43,0.45,0.49,0.71,-0.29,1.10,1005.91
13.717,0.07,1.00,-0.20,-1.01,0.68,0.12,0.71,-0.29,1.10,1005.91
13.756,0.07,1.00,-0.20,-1.01,0.68,0.12,0.71,-0.29,1.10,1005.91
13.775,0.12,0.99,-0.19,-1.01,0.68,0.12,0.71,-0.29,1.10,1005.91
13.775,0.07,1.08,-0.17,-1.01,0.68,0.12,0.71,-0.29,1.10,1005.91
13.776,0.01,1.15,-0.12,-1.01,0.68,0.12,0.71,-0.29,1.10,1005.91
13.776,0.01,1.15,-0.12,-1.01,0.68,0.12,0.95,-0.09,1.30,1005.91
13.776,0.01,1.15,-0.12,-1.96,1.65,1.15,0.95,-0.09,1.30,1005.91
13.832,-0.02,1.17,-0.05,-1.96,1.65,1.15,0.95,-0.09,1.30,1005.91
13.833,-0.07,1.25,-0.00,-1.96,1.65,1.15,0.95,-0.09,1.30,1005.91
13.833,-0.21,1.44,-0.01,-1.96,1.65,1.15,0.95,-0.09,1.30,1005.91
13.833,-0.21,1.44,-0.01,-1.96,1.65,1.15,1.56,-0.28,1.69,1005.91
13.833,-0.21,1.44,-0.01,-4.28,4.25,3.28,1.56,-0.28,1.69,1005.91
13.837,-0.21,1.44,-0.01,-4.28,4.25,3.28,1.56,-0.28,1.69,1005.90
13.875,-0.21,1.44,-0.01,-4.28,4.25,3.28,1.56,-0.28,1.69,1005.90
13.89,-0.32,1.61,-0.14,-4.28,4.25,3.28,1.56,-0.28,1.69,1005.90
13.891,-0.70,1.83,-0.07,-4.28,4.25,3.28,1.56,-0.28,1.69,1005.90
13.891,-1.11,1.90,0.05,-4.28,4.25,3.28,1.56,-0.28,1.69,1005.90
13.891,-1.11,1.90,0.05,-4.28,4.25,3.28,2.09,-0.77,2.09,1005.90
13.892,-1.11,1.90,0.05,-10.90,9.86,4.03,2.09,-0.77,2.09,1005.90
13.951,-0.59,1.41,0.12,-10.90,9.86,4.03,2.09,-0.77,2.09,1005.90
13.952,0.29,1.14,-0.32,-10.90,9.86,4.03,2.09,-0.77,2.09,1005.90
13.952,0.95,1.19,-0.54,-10.90,9.86,4.03,2.09,-0.77,2.09,1005.90
13.952,0.95,1.19,-0.54,-10.90,9.86,4.03,2.29,-1.75,3.31,1005.90
13.953,0.95,1.19,-0.54,-2.58,6.03,3.44,2.29,-1.75,3.31,1005.90
13.956,0.95,1.19,-0.54,-2.58,6.03,3.44,2.29,-1.75,3.31,1005.90
14.008,1.16,0.98,-0.53,-2.58,6.03,3.44,2.29,-1.75,3.31,1005.90
14.009,0.93,0.62,-0.76,-2.58,6.03,3.44,2.29,-1.75,3.31,1005.90
14.009,0.54,0.49,-0.74,-2.58,6.03,3.44,2.29,-1.75,3.31,1005.90
14.01,0.54,0.49,-0.74,3.44,1.56,-0.25,2.29,-1.75,3.31,1005.90
14.01,0.54,0.49,-0.74,3.44,1.56,-0.25,1.27,-0.32,1.58,1005.90
14.036,0.54,0.49,-0.74,3.44,1.56,-0.25,1.27,-0.32,1.58,1005.88
14.068,0.40,0.38,-0.37,3.44,1.56,-0.25,1.27,-0.32,1.58,1005.88
14.069,0.19,0.21,-0.16,3.44,1.56,-0.25,1.27,-0.32,1.58,1005.88
14.069,0.07,0.08,0.05,3.44,1.56,-0.25,1.27,-0.32,1.58,1005.88
14.069,0.07,0.08,0.05,3.44,1.56,-0.25,-1.65,0.69,-0.97,1005.88
14.069,0.07,0.08,0.05,-2.84,-3.92,3.98,-1.65,0.69,-0.97,1005.88
14.075,0.07,0.08,0.05,-2.84,-3.92,3.98,-1.65,0.69,-0.97,1005.84
14.124,0.05,0.11,-0.02,-2.84,-3.92,3.98,-1.65,0.69,-0.97,1005.84
14.124,0.11,0.26,-0.18,-2.84,-3.92,3.98,-1.65,0.69,-0.97,1005.84
14.124,0.19,0.39,-0.31,-2.84,-3.92,3.98,-1.65,0.69,-0.97,1005.84
14.125,0.19,0.39,-0.31,-2.84,-3.92,3.98,-2.52,0.24,-2.72,1005.84
14.125,0.19,0.39,-0.31,-2.78,-4.99,2.76,-2.52,0.24,-2.72,1005.84
14.156,0.19,0.39,-0.31,-2.78,-4.99,2.76,-2.52,0.24,-2.72,1005.91
14.184,0.18,0.52,-0.30,-2.78,-4.99,2.76,-2.52,0.24,-2.72,1005.91
14.184,0.15,0.60,-0.22,-2.78,-4.99,2.76,-2.52,0.24,-2.72,1005.91
14.185,0.13,0.69,-0.27,-2.78,-4.99,2.76,-2.52,0.24,-2.72,1005.91
14.185,0.13,0.69,-0.27,-2.78,-4.99,2.76,-3.56,-0.47,-4.08,1005.91
14.185,0.13,0.69,-0.27,-0.37,-2.96,0.24,-3.56,-0.47,-4.08,1005.91
14.237,0.13,0.69,-0.27,-0.37,-2.96,0.24,-3.56,-0.47,-4.08,1005.92
14.24,0.11,0.91,-0.34,-0.37,-2.96,0.24,-3.56,-0.47,-4.08,1005.92
14.24,0.15,1.31,-0.37,-0.37,-2.96,0.24,-3.56,-0.47,-4.08,1005.92
14.24,0.29,1.85,-0.59,-0.37,-2.96,0.24,-3.56,-0.47,-4.08,1005.92
14.241,0.29,1.85,-0.59,2.58,3.83,-3.61,-3.56,-0.47,-4.08,1005.92
14.241,0.29,1.85,-0.59,2.58,3.83,-3.61,-4.19,-0.93,-4.84,1005.92
14.276,0.29,1.85,-0.59,2.58,3.83,-3.61,-4.19,-0.93,-4.84,1005.88
14.299,0.40,1.90,-0.83,2.58,3.83,-3.61,-4.19,-0.93,-4.84,1005.88
14.3,0.53,1.55,-0.66,2.58,3.83,-3.61,-4.19,-0.93,-4.84,1005.88
14.3,0.83,1.18,-0.57,2.58,3.83,-3.61,-4.19,-0.93,-4.84,1005.88
14.3,0.83,1.18,-0.57,2.58,3.83,-3.61,-3.86,-0.32,-3.89,1005.88
14.301,0.83,1.18,-0.57,8.49,6.05,-8.11,-3.86,-0.32,-3.89,1005.88
14.357,0.83,1.18,-0.57,8.49,6.05,-8.11,-3.86,-0.32,-3.89,1005.85
14.357,0.94,1.07,-0.47,8.49,6.05,-8.11,-3.86,-0.32,-3.89,1005.85
14.358,0.86,0.88,-0.67,8.49,6.05,-8.11,-3.86,-0.32,-3.89,1005.85
14.358,0.82,0.70,-0.63,8.49,6.05,-8.11,-3.86,-0.32,-3.89,1005.85
14.358,0.82,0.70,-0.63,11.66,-0.12,-7.54,-3.86,-0.32,-3.89,1005.85
14.359,0.82,0.70,-0.63,11.66,-0.12,-7.54,-1.42,1.26,-0.77,1005.85
14.415,0.63,1.02,-0.80,11.66,-0.12,-7.54,-1.42,1.26,-0.77,1005.85
14.416,-0.17,1.71,-0.35,11.66,-0.12,-7.54,-1.42,1.26,-0.77,1005.85
14.416,-1.97,1.69,1.32,11.66,-0.12,-7.54,-1.42,1.26,-0.77,1005.85
14.416,-1.97,1.69,1.32,11.66,-0.12,-7.54,-0.01,2.74,0.28,1005.85
14.417,-1.97,1.69,1.32,-1.71,5.50,-0.68,-0.01,2.74,0.28,1005.85
14.436,-1.97,1.69,1.32,-1.71,5.50,-0.68,-0.01,2.74,0.28,1005.86
14.474,-1.69,1.51,0.19,-1.71,5.50,-0.68,-0.01,2.74,0.28,1005.86
14.474,-0.15,1.01,-1.34,-1.71,5.50,-0.68,-0.01,2.74,0.28,1005.86
14.474,0.24,0.80,-0.02,-1.71,5.50,-0.68,-0.01,2.74,0.28,1005.86
14.475,0.24,0.80,-0.02,-1.71,5.50,-0.68,1.67,1.34,1.96,1005.86
14.475,0.24,0.80,-0.02,-2.96,1.54,-3.86,1.67,1.34,1.96,1005.86
14.475,0.24,0.80,-0.02,-2.96,1.54,-3.86,1.67,1.34,1.96,1005.87
14.533,0.44,0.71,0.10,-2.96,1.54,-3.86,1.67,1.34,1.96,1005.87
14.534,0.09,0.93,0.01,-2.96,1.54,-3.86,1.67,1.34,1.96,1005.87
14.534,0.08,1.10,-0.24,-2.96,1.54,-3.86,1.67,1.34,1.96,1005.87
14.534,0.08,1.10,-0.24,-2.96,1.54,-3.86,0.62,-0.20,1.76,1005.87
14.534,0.08,1.10,-0.24,3.25,-0.55,-0.13,0.62,-0.20,1.76,1005.87
14.556,0.08,1.10,-0.24,3.25,-0.55,-0.13,0.62,-0.20,1.76,1005.94
14.596,0.24,1.03,-0.11,3.25,-0.55,-0.13,0.62,-0.20,1.76,1005.94
14.598,-0.03,0.97,-0.06,3.25,-0.55,-0.13,0.62,-0.20,1.76,1005.94
14.598,-0.18,1.03,-0.06,3.25,-0.55,-0.13,0.62,-0.20,1.76,1005.94
14.599,-0.18,1.03,-0.06,3.25,-0.55,-0.13,0.29,0.34,0.96,1005.94
14.6,-0.18,1.03,-0.06,0.79,0.31,-0.30,0.29,0.34,0.96,1005.94
14.636,-0.18,1.03,-0.06,0.79,0.31,-0.30,0.29,0.34,0.96,1005.94
14.649,-0.09,1.05,-0.01,0.79,0.31,-0.30,0.29,0.34,0.96,1005.94
14.65,-0.05,1.00,0.03,0.79,0.31,-0.30,0.29,0.34,0.96,1005.94
14.65,0.00,0.99,-0.04,0.79,0.31,-0.30,0.29,0.34,0.96,1005.94
14.65,0.00,0.99,-0.04,0.79,0.31,-0.30,0.24,0.05,0.82,1005.94
14.65,0.00,0.99,-0.04,-0.20,0.35,0.54,0.24,0.05,0.82,1005.94
14.676,0.00,0.99,-0.04,-0.20,0.35,0.54,0.24,0.05,0.82,1005.93
14.709,0.05,1.02,-0.05,-0.20,0.35,0.54,0.24,0.05,0.82,1005.93
14.709,0.02,1.00,-0.03,-0.20,0.35,0.54,0.24,0.05,0.82,1005.93
14.709,-0.00,1.00,-0.02,-0.20,0.35,0.54,0.24,0.05,0.82,1005.93
14.71,-0.00,1.00,-0.02,-0.20,0.35,0.54,0.30,-0.06,0.70,1005.93
14.71,-0.00,1.00,-0.02,0.07,0.26,0.42,0.30,-0.06,0.70,1005.93
14.756,-0.00,1.00,-0.02,0.07,0.26,0.42,0.30,-0.06,0.70,1005.92
14.766,-0.00,0.99,-0.00,0.07,0.26,0.42,0.30,-0.06,0.70,1005.92
14.766,-0.00,0.99,0.06,0.07,0.26,0.42,0.30,-0.06,0.70,1005.92
14.766,0.00,0.99,0.05,0.07,0.26,0.42,0.30,-0.06,0.70,1005.92
14.767,0.00,0.99,0.05,0.07,0.26,0.42,0.43,-0.07,0.67,1005.92
14.767,0.00,0.99,0.05,-0.50,0.15,1.33,0.43,-0.07,0.67,1005.92
14.823,0.04,0.95,0.01,-0.50,0.15,1.33,0.43,-0.07,0.67,1005.92
14.824,0.10,0.95,-0.08,-0.50,0.15,1.33,0.43,-0.07,0.67,1005.92
14.824,0.12,0.98,-0.08,-0.50,0.15,1.33,0.43,-0.07,0.67,1005.92
14.825,0.12,0.98,-0.08,-0.50,0.15,1.33,0.62,-0.16,0.74,1005.92
14.825,0.12,0.98,-0.08,-0.05,-0.06,0.79,0.62,-0.16,0.74,1005.92
14.835,0.12,0.98,-0.08,-0.05,-0.06,0.79,0.62,-0.16,0.74,1005.91
14.876,0.12,0.98,-0.08,-0.05,-0.06,0.79,0.62,-0.16,0.74,1005.90
14.882,0.08,0.98,-0.10,-0.05,-0.06,0.79,0.62,-0.16,0.74,1005.90
14.883,0.01,0.94,-0.11,-0.05,-0.06,0.79,0.62,-0.16,0.74,1005.90
14.883,0.01,0.96,-0.10,-0.05,-0.06,0.79,0.62,-0.16,0.74,1005.90
14.883,0.01,0.96,-0.10,-0.05,-0.06,0.79,0.65,-0.13,0.77,1005.90
14.883,0.01,0.96,-0.10,-0.97,0.04,0.65,0.65,-0.13,0.77,1005.90
14.941,0.08,0.97,-0.08,-0.97,0.04,0.65,0.65,-0.13,0.77,1005.90
14.942,0.10,1.00,-0.07,-0.97,0.04,0.65,0.65,-0.13,0.77,1005.90
14.942,0.08,1.02,-0.04,-0.97,0.04,0.65,0.65,-0.13,0.77,1005.90
14.942,0.08,1.02,-0.04,-0.97,0.04,0.65,0.81,-0.44,1.05,1005.90
14.942,0.08,1.02,-0.04,-0.95,0.60,1.51,0.81,-0.44,1.05,1005.90
14.958,0.08,1.02,-0.04,-0.95,0.60,1.51,0.81,-0.44,1.05,1005.90
14.999,-0.00,1.12,0.02,-0.95,0.60,1.51,0.81,-0.44,1.05,1005.90
14.999,-0.13,1.29,0.07,-0.95,0.60,1.51,0.81,-0.44,1.05,1005.90
14.999,-0.25,1.53,0.20,-0.95,0.60,1.51,0.81,-0.44,1.05,1005.90
14.999,-0.25,1.53,0.20,-0.95,0.60,1.51,1.17,-1.00,1.56,1005.90
15.0,-0.25,1.53,0.20,-3.66,3.95,3.73,1.17,-1.00,1.56,1005.90
15.036,-0.25,1.53,0.20,-3.66,3.95,3.73,1.17,-1.00,1.56,1005.91
15.057,-0.38,1.72,-0.06,-3.66,3.95,3.73,1.17,-1.00,1.56,1005.91
15.058,-0.20,1.80,-0.36,-3.66,3.95,3.73,1.17,-1.00,1.56,1005.91
15.058,0.09,1.42,-0.42,-3.66,3.95,3.73,1.17,-1.00,1.56,1005.91
15.058,0.09,1.42,-0.42,-3.66,3.95,3.73,1.01,-2.84,2.83,1005.91
15.058,0.09,1.42,-0.42,-4.79,7.77,1.03,1.01,-2.84,2.83,1005.91
15.076,0.09,1.42,-0.42,-4.79,7.77,1.03,1.01,-2.84,2.83,1005.92
15.115,0.22,0.98,-0.36,-4.79,7.77,1.03,1.01,-2.84,2.83,1005.92
15.116,0.42,0.74,-0.52,-4.79,7.77,1.03,1.01,-2.84,2.83,1005.92
15.116,0.54,0.59,-0.66,-4.79,7.77,1.03,1.01,-2.84,2.83,1005.92
15.116,0.54,0.59,-0.66,-4.79,7.77,1.03,-0.25,-4.21,3.23,1005.92
15.116,0.54,0.59,-0.66,0.15,-0.23,-0.48,-0.25,-4.21,3.23,1005.92
15.157,0.54,0.59,-0.66,0.15,-0.23,-0.48,-0.25,-4.21,3.23,1005.90
15.179,0.30,0.47,-0.68,0.15,-0.23,-0.48,-0.25,-4.21,3.23,1005.90
15.18,0.00,0.32,-0.77,0.15,-0.23,-0.48,-0.25,-4.21,3.23,1005.90
15.18,-0.37,0.20,-0.84,0.15,-0.23,-0.48,-0.25,-4.21,3.23,1005.90
15.18,-0.37,0.20,-0.84,0.15,-0.23,-0.48,-2.21,-5.04,2.57,1005.90
15.181,-0.37,0.20,-0.84,-3.62,-4.50,-2.86,-2.21,-5.04,2.57,1005.90
15.233,-0.45,0.16,-0.95,-3.62,-4.50,-2.86,-2.21,-5.04,2.57,1005.90
15.234,-0.30,0.31,-1.25,-3.62,-4.50,-2.86,-2.21,-5.04,2.57,1005.90
15.234,-0.12,0.45,-1.02,-3.62,-4.50,-2.86,-2.21,-5.04,2.57,1005.90
15.235,-0.12,0.45,-1.02,-3.62,-4.50,-2.86,-2.77,-4.81,2.42,1005.90
15.235,-0.12,0.45,-1.02,-6.00,-4.93,-6.09,-2.77,-4.81,2.42,1005.90
15.236,-0.12,0.45,-1.02,-6.00,-4.93,-6.09,-2.77,-4.81,2.42,1005.88
15.276,-0.12,0.45,-1.02,-6.00,-4.93,-6.09,-2.77,-4.81,2.42,1005.88
15.292,-0.12,0.45,-1.02,-5.16,-2.19,-4.02,-2.77,-4.81,2.42,1005.88
15.293,-0.09,0.54,-0.74,-5.16,-2.19,-4.02,-2.77,-4.81,2.42,1005.88
15.293,-0.28,0.63,-0.76,-5.16,-2.19,-4.02,-2.77,-4.81,2.42,1005.88
15.293,-0.43,0.75,-0.88,-5.16,-2.19,-4.02,-2.77,-4.81,2.42,1005.88
15.293,-0.43,0.75,-0.88,-5.16,-2.19,-4.02,-3.09,-4.39,1.07,1005.88
15.35,-0.43,0.75,-0.80,-5.16,-2.19,-4.02,-3.09,-4.39,1.07,1005.88
15.351,-0.36,0.77,-0.73,-5.16,-2.19,-4.02,-3.09,-4.39,1.07,1005.88
15.351,-0.28,0.85,-0.78,-5.16,-2.19,-4.02,-3.09,-4.39,1.07,1005.88
15.351,-0.28,0.85,-0.78,-5.16,-2.19,-4.02,-2.49,-5.18,-0.03,1005.88
15.352,-0.28,0.85,-0.78,-4.89,-1.17,-4.35,-2.49,-5.18,-0.03,1005.88
15.357,-0.28,0.85,-0.78,-4.89,-1.17,-4.35,-2.49,-5.18,-0.03,1005.88
15.41,-0.19,0.91,-0.78,-4.89,-1.17,-4.35,-2.49,-5.18,-0.03,1005.88
15.411,-0.09,0.98,-0.73,-4.89,-1.17,-4.35,-2.49,-5.18,-0.03,1005.88
15.411,0.04,1.08,-0.68,-4.89,-1.17,-4.35,-2.49,-5.18,-0.03,1005.88
15.411,0.04,1.08,-0.68,-4.89,-1.17,-4.35,-2.10,-4.11,-0.88,1005.88
15.412,0.04,1.08,-0.68,-1.04,0.40,-4.79,-2.10,-4.11,-0.88,1005.88
15.436,0.04,1.08,-0.68,-1.04,0.40,-4.79,-2.10,-4.11,-0.88,1005.89
15.467,0.05,1.11,-0.50,-1.04,0.40,-4.79,-2.10,-4.11,-0.88,1005.89
15.467,-0.07,1.06,-0.31,-1.04,0.40,-4.79,-2.10,-4.11,-0.88,1005.89
15.467,-0.14,1.10,-0.27,-1.04,0.40,-4.79,-2.10,-4.11,-0.88,1005.89
15.467,-0.14,1.10,-0.27,-1.04,0.40,-4.79,-1.87,-2.76,-1.70,1005.89
15.468,-0.14,1.10,-0.27,0.47,1.24,-2.20,-1.87,-2.76,-1.70,1005.89
15.476,-0.14,1.10,-0.27,0.47,1.24,-2.20,-1.87,-2.76,-1.70,1005.90
15.525,-0.05,1.17,-0.29,0.47,1.24,-2.20,-1.87,-2.76,-1.70,1005.90
15.525,0.18,1.11,-0.24,0.47,1.24,-2.20,-1.87,-2.76,-1.70,1005.90
15.526,0.28,1.06,-0.14,0.47,1.24,-2.20,-1.87,-2.76,-1.70,1005.90
15.526,0.28,1.06,-0.14,2.99,1.45,-1.67,-1.87,-2.76,-1.70,1005.90
15.526,0.28,1.06,-0.14,2.99,1.45,-1.67,-1.10,-2.95,-1.02,1005.90
15.557,0.28,1.06,-0.14,2.99,1.45,-1.67,-1.10,-2.95,-1.02,1005.90
15.582,0.28,1.00,-0.08,2.99,1.45,-1.67,-1.10,-2.95,-1.02,1005.90
15.582,0.30,0.93,-0.07,2.99,1.45,-1.67,-1.10,-2.95,-1.02,1005.90
15.583,0.31,0.91,-0.05,2.99,1.45,-1.67,-1.10,-2.95,-1.02,1005.90
15.583,0.31,0.91,-0.05,2.99,1.45,-1.67,-0.59,-3.01,-0.25,1005.90
15.583,0.31,0.91,-0.05,4.66,-0.19,-0.78,-0.59,-3.01,-0.25,1005.90
15.637,0.31,0.91,-0.05,4.66,-0.19,-0.78,-0.59,-3.01,-0.25,1005.89
15.641,0.33,0.85,-0.10,4.66,-0.19,-0.78,-0.59,-3.01,-0.25,1005.89
15.641,0.33,0.78,-0.09,4.66,-0.19,-0.78,-0.59,-3.01,-0.25,1005.89
15.641,0.34,0.72,-0.09,4.66,-0.19,-0.78,-0.59,-3.01,-0.25,1005.89
15.641,0.34,0.72,-0.09,4.66,-0.19,-0.78,-0.23,-2.21,0.44,1005.89
15.641,0.34,0.72,-0.09,4.63,-1.79,-1.33,-0.23,-2.21,0.44,1005.89
15.676,0.34,0.72,-0.09,4.63,-1.79,-1.33,-0.23,-2.21,0.44,1005.90
15.7,0.32,0.72,-0.07,4.63,-1.79,-1.33,-0.23,-2.21,0.44,1005.90
15.7,0.24,0.74,-0.10,4.63,-1.79,-1.33,-0.23,-2.21,0.44,1005.90
15.701,0.18,0.95,-0.12,4.63,-1.79,-1.33,-0.23,-2.21,0.44,1005.90
15.701,0.18,0.95,-0.12,4.63,-1.79,-1.33,-0.24,-0.43,-0.02,1005.90
15.701,0.18,0.95,-0.12,3.72,-1.55,-1.52,-0.24,-0.43,-0.02,1005.90
15.756,0.18,0.95,-0.12,3.72,-1.55,-1.52,-0.24,-0.43,-0.02,1005.90
15.756,0.07,1.33,0.14,3.72,-1.55,-1.52,-0.24,-0.43,-0.02,1005.90
15.757,-0.54,1.71,0.99,3.72,-1.55,-1.52,-0.24,-0.43,-0.02,1005.90
15.757,-0.95,1.36,0.55,3.72,-1.55,-1.52,-0.24,-0.43,-0.02,1005.90
15.758,-0.95,1.36,0.55,3.72,-1.55,-1.52,-0.86,1.40,-0.40,1005.90
15.762,-0.95,1.36,0.55,-3.00,4.95,4.52,-0.86,1.40,-0.40,1005.90
15.816,-0.74,0.85,-0.47,-3.00,4.95,4.52,-0.86,1.40,-0.40,1005.90
15.817,-0.73,0.99,-0.42,-3.00,4.95,4.52,-0.86,1.40,-0.40,1005.90
15.817,-0.27,1.08,0.02,-3.00,4.95,4.52,-0.86,1.40,-0.40,1005.90
15.817,-0.27,1.08,0.02,-3.00,4.95,4.52,0.16,0.61,0.73,1005.90
15.817,-0.27,1.08,0.02,-4.36,0.02,-3.61,0.16,0.61,0.73,1005.90
15.837,-0.27,1.08,0.02,-4.36,0.02,-3.61,0.16,0.61,0.73,1005.90
15.873,0.28,1.04,0.12,-4.36,0.02,-3.61,0.16,0.61,0.73,1005.90
15.874,0.44,0.96,0.23,-4.36,0.02,-3.61,0.16,0.61,0.73,1005.90
15.874,0.04,0.97,0.28,-4.36,0.02,-3.61,0.16,0.61,0.73,1005.90
15.875,0.04,0.97,0.28,-4.36,0.02,-3.61,-0.12,-0.35,0.98,1005.90
15.875,0.04,0.97,0.28,3.24,0.12,1.17,-0.12,-0.35,0.98,1005.90
15.876,0.04,0.97,0.28,3.24,0.12,1.17,-0.12,-0.35,0.98,1005.87
15.933,-0.26,1.08,0.12,3.24,0.12,1.17,-0.12,-0.35,0.98,1005.87
15.933,-0.18,1.09,-0.05,3.24,0.12,1.17,-0.12,-0.35,0.98,1005.87
15.933,-0.03,0.99,0.12,3.24,0.12,1.17,-0.12,-0.35,0.98,1005.87
15.934,-0.03,0.99,0.12,3.24,0.12,1.17,0.09,-0.69,0.54,1005.87
15.934,-0.03,0.99,0.12,-1.10,0.73,-0.26,0.09,-0.69,0.54,1005.87
15.956,-0.03,0.99,0.12,-1.10,0.73,-0.26,0.09,-0.69,0.54,1005.89
15.995,0.00,0.96,0.20,-1.10,0.73,-0.26,0.09,-0.69,0.54,1005.89
15.996,-0.06,0.99,0.25,-1.10,0.73,-0.26,0.09,-0.69,0.54,1005.89
15.997,-0.18,0.96,0.26,-1.10,0.73,-0.26,0.09,-0.69,0.54,1005.89
15.998,-0.18,0.96,0.26,-0.66,-0.10,1.57,0.09,-0.69,0.54,1005.89
15.999,-0.18,0.96,0.26,-0.66,-0.10,1.57,0.23,-0.02,0.53,1005.89
16.037,-0.18,0.96,0.26,-0.66,-0.10,1.57,0.23,-0.02,0.53,1005.89
16.05,-0.18,0.96,0.26,-0.76,0.23,0.59,0.23,-0.02,0.53,1005.89
16.051,-0.12,0.99,0.20,-0.76,0.23,0.59,0.23,-0.02,0.53,1005.89
16.051,-0.05,1.01,0.10,-0.76,0.23,0.59,0.23,-0.02,0.53,1005.89
16.051,0.03,1.02,0.04,-0.76,0.23,0.59,0.23,-0.02,0.53,1005.89
16.051,0.03,1.02,0.04,-0.76,0.23,0.59,0.46,-0.40,0.75,1005.89
16.076,0.03,1.02,0.04,-0.76,0.23,0.59,0.46,-0.40,0.75,1005.89
16.108,0.01,1.01,0.06,-0.76,0.23,0.59,0.46,-0.40,0.75,1005.89
16.109,0.04,1.00,0.04,-0.76,0.23,0.59,0.46,-0.40,0.75,1005.89
16.109,0.08,1.00,0.05,-0.76,0.23,0.59,0.46,-0.40,0.75,1005.89
16.109,0.08,1.00,0.05,-0.76,0.23,0.59,0.51,-0.39,0.79,1005.89
16.109,0.08,1.00,0.05,-0.32,0.18,0.26,0.51,-0.39,0.79,1005.89
16.156,0.08,1.00,0.05,-0.32,0.18,0.26,0.51,-0.39,0.79,1005.89
16.165,0.06,1.00,0.07,-0.32,0.18,0.26,0.51,-0.39,0.79,1005.89
16.166,0.01,0.99,0.06,-0.32,0.18,0.26,0.51,-0.39,0.79,1005.89
16.166,-0.01,0.99,0.10,-0.32,0.18,0.26,0.51,-0.39,0.79,1005.89
16.166,-0.01,0.99,0.10,-0.32,0.18,0.26,0.57,-0.30,0.84,1005.89
16.166,-0.01,0.99,0.10,-1.01,0.14,0.84,0.57,-0.30,0.84,1005.89
16.223,0.06,1.01,0.03,-1.01,0.14,0.84,0.57,-0.30,0.84,1005.89
16.224,0.11,1.03,-0.03,-1.01,0.14,0.84,0.57,-0.30,0.84,1005.89
16.224,0.05,1.02,-0.03,-1.01,0.14,0.84,0.57,-0.30,0.84,1005.89
16.224,0.05,1.02,-0.03,-1.01,0.14,0.84,0.69,-0.37,1.08,1005.89
16.224,0.05,1.02,-0.03,-1.05,0.50,0.40,0.69,-0.37,1.08,1005.89
16.236,0.05,1.02,-0.03,-1.05,0.50,0.40,0.69,-0.37,1.08,1005.89
16.277,0.05,1.02,-0.03,-1.05,0.50,0.40,0.69,-0.37,1.08,1005.89
16.282,0.06,1.03,-0.04,-1.05,0.50,0.40,0.69,-0.37,1.08,1005.89
16.282,0.21,1.03,-0.08,-1.05,0.50,0.40,0.69,-0.37,1.08,1005.89
16.283,0.17,1.06,-0.09,-1.05,0.50,0.40,0.69,-0.37,1.08,1005.89
16.284,0.17,1.06,-0.09,-0.99,0.90,0.27,0.69,-0.37,1.08,1005.89
16.285,0.17,1.06,-0.09,-0.99,0.90,0.27,0.75,-0.51,1.29,1005.89
16.342,0.09,1.08,-0.03,-0.99,0.90,0.27,0.75,-0.51,1.29,1005.89
16.342,0.17,1.08,-0.05,-0.99,0.90,0.27,0.75,-0.51,1.29,1005.89
16.343,0.18,1.12,-0.12,-0.99,0.90,0.27,0.75,-0.51,1.29,1005.89
16.343,0.18,1.12,-0.12,-0.99,0.90,0.27,0.83,-0.56,1.52,1005.89
16.343,0.18,1.12,-0.12,-1.75,1.66,0.84,0.83,-0.56,1.52,1005.89
16.357,0.18,1.12,-0.12,-1.75,1.66,0.84,0.83,-0.56,1.52,1005.90
16.399,0.07,1.16,-0.12,-1.75,1.66,0.84,0.83,-0.56,1.52,1005.90
16.399,-0.05,1.24,-0.17,-1.75,1.66,0.84,0.83,-0.56,1.52,1005.90
16.4,-0.23,1.44,-0.07,-1.75,1.66,0.84,0.83,-0.56,1.52,1005.90
16.4,-0.23,1.44,-0.07,-1.75,1.66,0.84,1.02,-1.01,1.82,1005.90
16.4,-0.23,1.44,-0.07,-4.62,3.96,1.06,1.02,-1.01,1.82,1005.90
16.437,-0.23,1.44,-0.07,-4.62,3.96,1.06,1.02,-1.01,1.82,1005.91
16.457,-0.55,1.66,-0.08,-4.62,3.96,1.06,1.02,-1.01,1.82,1005.91
16.457,-0.98,1.79,-0.11,-4.62,3.96,1.06,1.02,-1.01,1.82,1005.91
16.458,-1.31,1.70,-0.12,-4.62,3.96,1.06,1.02,-1.01,1.82,1005.91
16.458,-1.31,1.70,-0.12,-4.62,3.96,1.06,1.44,-1.77,2.43,1005.91
16.459,-1.31,1.70,-0.12,-13.86,8.91,2.30,1.44,-1.77,2.43,1005.91
16.477,-1.31,1.70,-0.12,-13.86,8.91,2.30,1.44,-1.77,2.43,1005.90
16.515,-0.79,1.29,-0.14,-13.86,8.91,2.30,1.44,-1.77,2.43,1005.90
16.516,0.22,1.18,-0.59,-13.86,8.91,2.30,1.44,-1.77,2.43,1005.90
16.516,1.09,1.27,-0.68,-13.86,8.91,2.30,1.44,-1.77,2.43,1005.90
16.516,1.09,1.27,-0.68,-13.86,8.91,2.30,1.87,-3.19,4.19,1005.90
16.516,1.09,1.27,-0.68,-3.74,5.93,0.42,1.87,-3.19,4.19,1005.90
16.557,1.09,1.27,-0.68,-3.74,5.93,0.42,1.87,-3.19,4.19,1005.89
16.573,1.32,0.96,-0.53,-3.74,5.93,0.42,1.87,-3.19,4.19,1005.89
16.574,1.13,0.56,-0.63,-3.74,5.93,0.42,1.87,-3.19,4.19,1005.89
16.575,0.71,0.52,-0.80,-3.74,5.93,0.42,1.87,-3.19,4.19,1005.89
16.575,0.71,0.52,-0.80,-3.74,5.93,0.42,0.90,-1.03,2.25,1005.89
16.577,0.71,0.52,-0.80,4.34,1.36,-0.72,0.90,-1.03,2.25,1005.89
16.632,0.46,0.38,-0.51,4.34,1.36,-0.72,0.90,-1.03,2.25,1005.89
16.632,0.22,0.16,-0.18,4.34,1.36,-0.72,0.90,-1.03,2.25,1005.89
16.632,-0.15,0.03,0.08,4.34,1.36,-0.72,0.90,-1.03,2.25,1005.89
16.633,-0.15,0.03,0.08,4.34,1.36,-0.72,-1.92,0.19,-0.76,1005.89
16.633,-0.15,0.03,0.08,-3.96,-4.19,2.97,-1.92,0.19,-0.76,1005.89
16.636,-0.15,0.03,0.08,-3.96,-4.19,2.97,-1.92,0.19,-0.76,1005.86
16.678,-0.15,0.03,0.08,-3.96,-4.19,2.97,-1.92,0.19,-0.76,1005.82
16.693,-0.25,0.08,0.01,-3.96,-4.19,2.97,-1.92,0.19,-0.76,1005.82
16.697,-0.04,0.29,-0.26,-3.96,-4.19,2.97,-1.92,0.19,-0.76,1005.82
16.697,0.17,0.47,-0.44,-3.96,-4.19,2.97,-1.92,0.19,-0.76,1005.82
16.697,0.17,0.47,-0.44,-3.96,-4.19,2.97,-2.37,-0.81,-2.53,1005.82
16.698,0.17,0.47,-0.44,-4.80,-4.65,1.92,-2.37,-0.81,-2.53,1005.82
16.75,0.16,0.54,-0.35,-4.80,-4.65,1.92,-2.37,-0.81,-2.53,1005.82
16.751,0.12,0.53,-0.25,-4.80,-4.65,1.92,-2.37,-0.81,-2.53,1005.82
16.751,0.17,0.59,-0.30,-4.80,-4.65,1.92,-2.37,-0.81,-2.53,1005.82
16.751,0.17,0.59,-0.30,-0.70,-3.35,-0.06,-2.37,-0.81,-2.53,1005.82
16.751,0.17,0.59,-0.30,-0.70,-3.35,-0.06,-3.51,-1.87,-3.82,1005.82
16.756,0.17,0.59,-0.30,-0.70,-3.35,-0.06,-3.51,-1.87,-3.82,1005.90
16.807,0.16,0.77,-0.39,-0.70,-3.35,-0.06,-3.51,-1.87,-3.82,1005.90
16.808,0.17,1.10,-0.56,-0.70,-3.35,-0.06,-3.51,-1.87,-3.82,1005.90
16.808,0.35,1.61,-0.72,-0.70,-3.35,-0.06,-3.51,-1.87,-3.82,1005.90
16.808,0.35,1.61,-0.72,-0.70,-3.35,-0.06,-4.23,-1.67,-4.62,1005.90
16.809,0.35,1.61,-0.72,2.70,1.87,-4.68,-4.23,-1.67,-4.62,1005.90
16.836,0.35,1.61,-0.72,2.70,1.87,-4.68,-4.23,-1.67,-4.62,1005.90
16.866,0.60,1.92,-0.92,2.70,1.87,-4.68,-4.23,-1.67,-4.62,1005.90
16.867,0.82,1.70,-0.87,2.70,1.87,-4.68,-4.23,-1.67,-4.62,1005.90
16.867,1.09,1.28,-0.48,2.70,1.87,-4.68,-4.23,-1.67,-4.62,1005.90
16.868,1.09,1.28,-0.48,2.70,1.87,-4.68,-4.17,0.73,-4.02,1005.90
16.868,1.09,1.28,-0.48,10.71,6.83,-8.65,-4.17,0.73,-4.02,1005.90
16.876,1.09,1.28,-0.48,10.71,6.83,-8.65,-4.17,0.73,-4.02,1005.86
16.923,1.15,0.98,-0.30,10.71,6.83,-8.65,-4.17,0.73,-4.02,1005.86
16.924,0.93,0.86,-0.62,10.71,6.83,-8.65,-4.17,0.73,-4.02,1005.86
16.924,0.75,0.73,-0.77,10.71,6.83,-8.65,-4.17,0.73,-4.02,1005.86
16.924,0.75,0.73,-0.77,12.18,-0.50,-6.98,-4.17,0.73,-4.02,1005.86
16.925,0.75,0.73,-0.77,12.18,-0.50,-6.98,-1.35,2.26,-0.75,1005.86
16.956,0.75,0.73,-0.77,12.18,-0.50,-6.98,-1.35,2.26,-0.75,1005.85
16.983,0.72,1.00,-0.82,12.18,-0.50,-6.98,-1.35,2.26,-0.75,1005.85
16.983,-0.09,1.60,-0.08,12.18,-0.50,-6.98,-1.35,2.26,-0.75,1005.85
16.984,-2.06,1.44,1.18,12.18,-0.50,-6.98,-1.35,2.26,-0.75,1005.85
16.984,-2.06,1.44,1.18,-1.51,4.22,0.01,-1.35,2.26,-0.75,1005.85
16.984,-2.06,1.44,1.18,-1.51,4.22,0.01,-0.03,3.21,-0.02,1005.85
17.036,-2.06,1.44,1.18,-1.51,4.22,0.01,-0.03,3.21,-0.02,1005.86
17.04,-2.19,1.72,-0.32,-1.51,4.22,0.01,-0.03,3.21,-0.02,1005.86
17.04,-0.44,1.23,-1.12,-1.51,4.22,0.01,-0.03,3.21,-0.02,1005.86
17.04,0.14,0.81,-0.16,-1.51,4.22,0.01,-0.03,3.21,-0.02,1005.86
17.04,0.14,0.81,-0.16,-1.51,4.22,0.01,1.24,0.85,1.64,1005.86
17.04,0.14,0.81,-0.16,-5.70,2.93,-5.25,1.24,0.85,1.64,1005.86
17.077,0.14,0.81,-0.16,-5.70,2.93,-5.25,1.24,0.85,1.64,1005.92
17.099,0.55,0.56,0.54,-5.70,2.93,-5.25,1.24,0.85,1.64,1005.92
17.099,0.37,0.78,0.12,-5.70,2.93,-5.25,1.24,0.85,1.64,1005.92
17.099,0.10,1.14,-0.20,-5.70,2.93,-5.25,1.24,0.85,1.64,1005.92
17.1,0.10,1.14,-0.20,-5.70,2.93,-5.25,0.48,-0.41,2.03,1005.92
17.1,0.10,1.14,-0.20,4.58,-1.43,1.74,0.48,-0.41,2.03,1005.92
17.157,0.10,1.14,-0.20,4.58,-1.43,1.74,0.48,-0.41,2.03,1005.93
17.157,0.21,1.13,-0.25,4.58,-1.43,1.74,0.48,-0.41,2.03,1005.93
17.157,0.02,1.02,-0.16,4.58,-1.43,1.74,0.48,-0.41,2.03,1005.93
17.158,-0.19,0.99,-0.05,4.58,-1.43,1.74,0.48,-0.41,2.03,1005.93
17.158,-0.19,0.99,-0.05,4.58,-1.43,1.74,0.25,0.29,0.86,1005.93
17.158,-0.19,0.99,-0.05,0.89,0.71,-1.11,0.25,0.29,0.86,1005.93
17.216,-0.17,1.00,0.10,0.89,0.71,-1.11,0.25,0.29,0.86,1005.93
17.216,-0.15,1.01,0.12,0.89,0.71,-1.11,0.25,0.29,0.86,1005.93
17.217,-0.14,1.01,0.06,0.89,0.71,-1.11,0.25,0.29,0.86,1005.93
17.217,-0.14,1.01,0.06,0.89,0.71,-1.11,0.28,0.28,0.76,1005.93
17.217,-0.14,1.01,0.06,-1.18,0.26,1.43,0.28,0.28,0.76,1005.93
17.237,-0.14,1.01,0.06,-1.18,0.26,1.43,0.28,0.28,0.76,1005.91
17.274,-0.08,1.00,0.01,-1.18,0.26,1.43,0.28,0.28,0.76,1005.91
17.275,-0.04,0.98,-0.04,-1.18,0.26,1.43,0.28,0.28,0.76,1005.91
17.275,-0.03,0.98,0.02,-1.18,0.26,1.43,0.28,0.28,0.76,1005.91
17.275,-0.03,0.98,0.02,-1.18,0.26,1.43,0.55,-0.17,1.01,1005.91
17.275,-0.03,0.98,0.02,-0.72,0.08,0.80,0.55,-0.17,1.01,1005.91
17.276,-0.03,0.98,0.02,-0.72,0.08,0.80,0.55,-0.17,1.01,1005.90
17.333,0.02,0.98,0.02,-0.72,0.08,0.80,0.55,-0.17,1.01,1005.90
17.333,0.08,0.98,-0.02,-0.72,0.08,0.80,0.55,-0.17,1.01,1005.90
17.334,0.07,0.99,-0.09,-0.72,0.08,0.80,0.55,-0.17,1.01,1005.90
17.334,0.07,0.99,-0.09,-0.72,0.08,0.80,0.72,-0.06,1.12,1005.90
17.334,0.07,0.99,-0.09,-0.27,0.12,0.91,0.72,-0.06,1.12,1005.90
17.357,0.07,0.99,-0.09,-0.27,0.12,0.91,0.72,-0.06,1.12,1005.90
17.391,0.10,1.00,-0.13,-0.27,0.12,0.91,0.72,-0.06,1.12,1005.90
17.391,0.16,0.98,-0.19,-0.27,0.12,0.91,0.72,-0.06,1.12,1005.90
17.391,0.15,1.01,-0.16,-0.27,0.12,0.91,0.72,-0.06,1.12,1005.90
17.391,0.15,1.01,-0.16,-0.27,0.12,0.91,0.76,-0.16,1.10,1005.90
17.392,0.15,1.01,-0.16,-0.09,0.38,0.10,0.76,-0.16,1.10,1005.90
17.446,0.15,1.01,-0.16,-0.09,0.38,0.10,0.76,-0.16,1.10,1005.89
17.451,0.07,1.02,-0.11,-0.09,0.38,0.10,0.76,-0.16,1.10,1005.89
17.451,0.02,1.04,-0.13,-0.09,0.38,0.10,0.76,-0.16,1.10,1005.89
17.451,0.03,1.06,-0.18,-0.09,0.38,0.10,0.76,-0.16,1.10,1005.89
17.452,0.03,1.06,-0.18,-0.09,0.38,0.10,0.81,-0.17,1.13,1005.89
17.452,0.03,1.06,-0.18,-1.58,0.98,0.71,0.81,-0.17,1.13,1005.89
17.477,0.03,1.06,-0.18,-1.58,0.98,0.71,0.81,-0.17,1.13,1005.90
17.512,0.03,1.06,-0.18,-2.47,2.13,0.94,0.81,-0.17,1.13,1005.90
17.518,0.06,1.07,-0.17,-2.47,2.13,0.94,0.81,-0.17,1.13,1005.90
17.519,0.02,1.13,-0.18,-2.47,2.13,0.94,0.81,-0.17,1.13,1005.90
17.519,-0.02,1.16,-0.17,-2.47,2.13,0.94,0.81,-0.17,1.13,1005.90
17.52,-0.02,1.16,-0.17,-2.47,2.13,0.94,1.08,-0.15,1.47,1005.90
17.557,-0.02,1.16,-0.17,-2.47,2.13,0.94,1.08,-0.15,1.47,1005.89
17.566,-0.03,1.17,-0.14,-2.47,2.13,0.94,1.08,-0.15,1.47,1005.89
17.566,-0.05,1.22,-0.17,-2.47,2.13,0.94,1.08,-0.15,1.47,1005.89
17.566,-0.20,1.45,-0.14,-2.47,2.13,0.94,1.08,-0.15,1.47,1005.89
17.566,-0.20,1.45,-0.14,-2.47,2.13,0.94,1.55,-0.36,1.84,1005.89
17.567,-0.20,1.45,-0.14,-4.41,4.19,1.98,1.55,-0.36,1.84,1005.89
17.623,-0.68,1.85,0.04,-4.41,4.19,1.98,1.55,-0.36,1.84,1005.89
17.624,-1.17,1.87,0.06,-4.41,4.19,1.98,1.55,-0.36,1.84,1005.89
17.624,-0.86,1.59,0.10,-4.41,4.19,1.98,1.55,-0.36,1.84,1005.89
17.624,-0.86,1.59,0.10,-4.41,4.19,1.98,1.96,-0.96,2.17,1005.89
17.624,-0.86,1.59,0.10,-12.88,9.77,5.16,1.96,-0.96,2.17,1005.89
17.636,-0.86,1.59,0.10,-12.88,9.77,5.16,1.96,-0.96,2.17,1005.90
17.677,-0.86,1.59,0.10,-12.88,9.77,5.16,1.96,-0.96,2.17,1005.90
17.682,-0.07,1.22,-0.13,-12.88,9.77,5.16,1.96,-0.96,2.17,1005.90
17.682,0.66,1.25,-0.58,-12.88,9.77,5.16,1.96,-0.96,2.17,1005.90
17.682,1.11,1.15,-0.46,-12.88,9.77,5.16,1.96,-0.96,2.17,1005.90
17.682,1.11,1.15,-0.46,-12.88,9.77,5.16,2.28,-1.72,3.66,1005.90
17.683,1.11,1.15,-0.46,0.58,5.85,2.03,2.28,-1.72,3.66,1005.90
17.74,1.11,0.75,-0.60,0.58,5.85,2.03,2.28,-1.72,3.66,1005.90
17.741,0.90,0.49,-0.81,0.58,5.85,2.03,2.28,-1.72,3.66,1005.90
17.741,0.51,0.52,-0.58,0.58,5.85,2.03,2.28,-1.72,3.66,1005.90
17.741,0.51,0.52,-0.58,0.58,5.85,2.03,0.70,0.04,1.11,1005.90
17.742,0.51,0.52,-0.58,2.82,0.35,-0.45,0.70,0.04,1.11,1005.90
17.757,0.51,0.52,-0.58,2.82,0.35,-0.45,0.70,0.04,1.11,1005.87
17.8,0.25,0.28,-0.17,2.82,0.35,-0.45,0.70,0.04,1.11,1005.87
17.8,0.06,0.09,0.13,2.82,0.35,-0.45,0.70,0.04,1.11,1005.87
17.801,0.02,0.08,0.06,2.82,0.35,-0.45,0.70,0.04,1.11,1005.87
17.801,0.02,0.08,0.06,2.82,0.35,-0.45,-1.77,0.64,-1.55,1005.87
17.801,0.02,0.08,0.06,-3.94,-4.94,5.20,-1.77,0.64,-1.55,1005.87
17.837,0.02,0.08,0.06,-3.94,-4.94,5.20,-1.77,0.64,-1.55,1005.85
17.857,-0.02,0.24,-0.12,-3.94,-4.94,5.20,-1.77,0.64,-1.55,1005.85
17.858,0.08,0.37,-0.26,-3.94,-4.94,5.20,-1.77,0.64,-1.55,1005.85
17.858,0.20,0.50,-0.37,-3.94,-4.94,5.20,-1.77,0.64,-1.55,1005.85
17.859,0.20,0.50,-0.37,-3.94,-4.94,5.20,-2.30,-0.39,-3.02,1005.85
17.859,0.20,0.50,-0.37,-2.74,-4.09,1.81,-2.30,-0.39,-3.02,1005.85
17.876,0.20,0.50,-0.37,-2.74,-4.09,1.81,-2.30,-0.39,-3.02,1005.93
17.915,0.19,0.62,-0.34,-2.74,-4.09,1.81,-2.30,-0.39,-3.02,1005.93
17.915,0.10,0.66,-0.22,-2.74,-4.09,1.81,-2.30,-0.39,-3.02,1005.93
17.916,0.14,0.77,-0.27,-2.74,-4.09,1.81,-2.30,-0.39,-3.02,1005.93
17.916,0.14,0.77,-0.27,-2.74,-4.09,1.81,-3.62,-1.29,-4.25,1005.93
17.916,0.14,0.77,-0.27,0.18,-2.33,-0.04,-3.62,-1.29,-4.25,1005.93
17.958,0.14,0.77,-0.27,0.18,-2.33,-0.04,-3.62,-1.29,-4.25,1005.91
17.974,0.14,1.04,-0.35,0.18,-2.33,-0.04,-3.62,-1.29,-4.25,1005.91
17.974,0.15,1.56,-0.51,0.18,-2.33,-0.04,-3.62,-1.29,-4.25,1005.91
17.974,0.35,2.02,-0.81,0.18,-2.33,-0.04,-3.62,-1.29,-4.25,1005.91
17.974,0.35,2.02,-0.81,0.18,-2.33,-0.04,-4.32,-1.09,-4.82,1005.91
17.975,0.35,2.02,-0.81,3.49,5.62,-5.09,-4.32,-1.09,-4.82,1005.91
18.032,0.58,1.82,-0.84,3.49,5.62,-5.09,-4.32,-1.09,-4.82,1005.91
18.033,0.84,1.31,-0.54,3.49,5.62,-5.09,-4.32,-1.09,-4.82,1005.91
18.033,1.03,1.15,-0.39,3.49,5.62,-5.09,-4.32,-1.09,-4.82,1005.91
18.033,1.03,1.15,-0.39,3.49,5.62,-5.09,-3.92,0.28,-3.43,1005.91
18.033,1.03,1.15,-0.39,11.11,5.05,-7.32,-3.92,0.28,-3.43,1005.91
18.043,1.03,1.15,-0.39,11.11,5.05,-7.32,-3.92,0.28,-3.43,1005.89
18.079,1.03,1.15,-0.39,11.11,5.05,-7.32,-3.92,0.28,-3.43,1005.84
18.092,0.88,1.06,-0.39,11.11,5.05,-7.32,-3.92,0.28,-3.43,1005.84
18.092,0.65,0.77,-0.63,11.11,5.05,-7.32,-3.92,0.28,-3.43,1005.84
18.092,0.69,0.65,-0.61,11.11,5.05,-7.32,-3.92,0.28,-3.43,1005.84
18.093,0.69,0.65,-0.61,10.37,-0.67,-7.06,-3.92,0.28,-3.43,1005.84
18.093,0.69,0.65,-0.61,10.37,-0.67,-7.06,-0.92,0.98,-0.15,1005.84
18.149,0.54,1.11,-1.12,10.37,-0.67,-7.06,-0.92,0.98,-0.15,1005.84
18.152,-0.78,1.64,0.60,10.37,-0.67,-7.06,-0.92,0.98,-0.15,1005.84
18.152,-2.36,1.67,0.84,10.37,-0.67,-7.06,-0.92,0.98,-0.15,1005.84
18.152,-2.36,1.67,0.84,-4.94,5.62,-0.15,-0.92,0.98,-0.15,1005.84
18.153,-2.36,1.67,0.84,-4.94,5.62,-0.15,0.07,2.54,-0.20,1005.84
18.158,-2.36,1.67,0.84,-4.94,5.62,-0.15,0.07,2.54,-0.20,1005.85
18.208,-0.90,1.84,-1.44,-4.94,5.62,-0.15,0.07,2.54,-0.20,1005.85
18.209,0.28,1.23,-1.20,-4.94,5.62,-0.15,0.07,2.54,-0.20,1005.85
18.209,0.28,0.41,1.31,-4.94,5.62,-0.15,0.07,2.54,-0.20,1005.85
18.209,0.28,0.41,1.31,-4.94,5.62,-0.15,0.82,1.21,2.59,1005.85
18.209,0.28,0.41,1.31,1.07,2.01,-4.81,0.82,1.21,2.59,1005.85
18.238,0.28,0.41,1.31,1.07,2.01,-4.81,0.82,1.21,2.59,1005.89
18.265,-0.16,0.55,-0.01,1.07,2.01,-4.81,0.82,1.21,2.59,1005.89
18.266,0.32,1.13,-0.01,1.07,2.01,-4.81,0.82,1.21,2.59,1005.89
18.266,0.47,1.25,-0.18,1.07,2.01,-4.81,0.82,1.21,2.59,1005.89
18.266,0.47,1.25,-0.18,1.07,2.01,-4.81,0.47,-0.47,1.53,1005.89
18.268,0.47,1.25,-0.18,3.32,0.04,-0.90,0.47,-0.47,1.53,1005.89
18.281,0.47,1.25,-0.18,3.32,0.04,-0.90,0.47,-0.47,1.53,1005.89
18.325,-0.01,0.99,0.00,3.32,0.04,-0.90,0.47,-0.47,1.53,1005.89
18.326,-0.44,0.93,0.08,3.32,0.04,-0.90,0.47,-0.47,1.53,1005.89
18.326,-0.30,1.05,0.17,3.32,0.04,-0.90,0.47,-0.47,1.53,1005.89
18.326,-0.30,1.05,0.17,3.32,0.04,-0.90,0.19,0.36,0.65,1005.89
18.326,-0.30,1.05,0.17,-1.51,0.12,0.73,0.19,0.36,0.65,1005.89
18.357,-0.30,1.05,0.17,-1.51,0.12,0.73,0.19,0.36,0.65,1005.91
18.383,-0.02,0.97,0.20,-1.51,0.12,0.73,0.19,0.36,0.65,1005.91
18.383,0.03,0.92,0.11,-1.51,0.12,0.73,0.19,0.36,0.65,1005.91
18.384,0.00,0.99,0.08,-1.51,0.12,0.73,0.19,0.36,0.65,1005.91
18.384,0.00,0.99,0.08,0.44,-0.18,1.38,0.19,0.36,0.65,1005.91
18.384,0.00,0.99,0.08,0.44,-0.18,1.38,0.42,-0.02,0.92,1005.91
18.437,0.00,0.99,0.08,0.44,-0.18,1.38,0.42,-0.02,0.92,1005.90
18.441,-0.07,0.99,0.12,0.44,-0.18,1.38,0.42,-0.02,0.92,1005.90
18.441,-0.14,0.99,0.11,0.44,-0.18,1.38,0.42,-0.02,0.92,1005.90
18.441,-0.15,1.01,0.02,0.44,-0.18,1.38,0.42,-0.02,0.92,1005.90
18.442,-0.15,1.01,0.02,0.44,-0.18,1.38,0.63,-0.05,0.92,1005.90
18.442,-0.15,1.01,0.02,-1.24,0.16,1.27,0.63,-0.05,0.92,1005.90
18.477,-0.15,1.01,0.02,-1.24,0.16,1.27,0.63,-0.05,0.92,1005.90
18.499,0.03,0.98,-0.08,-1.24,0.16,1.27,0.63,-0.05,0.92,1005.90
18.499,0.18,0.95,-0.10,-1.24,0.16,1.27,0.63,-0.05,0.92,1005.90
18.5,0.15,0.98,-0.05,-1.24,0.16,1.27,0.63,-0.05,0.92,1005.90
18.5,0.15,0.98,-0.05,0.52,-0.09,0.11,0.63,-0.05,0.92,1005.90
18.5,0.15,0.98,-0.05,0.52,-0.09,0.11,0.75,-0.24,1.07,1005.90
18.559,0.06,0.97,-0.03,0.52,-0.09,0.11,0.75,-0.24,1.07,1005.90
18.56,0.02,0.96,-0.12,0.52,-0.09,0.11,0.75,-0.24,1.07,1005.90
18.56,0.10,0.95,-0.25,0.52,-0.09,0.11,0.75,-0.24,1.07,1005.90
18.56,0.10,0.95,-0.25,0.52,-0.09,0.11,0.71,-0.16,0.96,1005.90
18.56,0.10,0.95,-0.25,-0.62,-0.06,-0.05,0.71,-0.16,0.96,1005.90
18.56,0.10,0.95,-0.25,-0.62,-0.06,-0.05,0.71,-0.16,0.96,1005.90
18.616,0.24,0.93,-0.19,-0.62,-0.06,-0.05,0.71,-0.16,0.96,1005.90
18.616,0.26,0.96,-0.06,-0.62,-0.06,-0.05,0.71,-0.16,0.96,1005.90
18.616,0.11,1.00,-0.03,-0.62,-0.06,-0.05,0.71,-0.16,0.96,1005.90
18.617,0.11,1.00,-0.03,-0.62,-0.06,-0.05,0.59,-0.38,0.95,1005.90
18.617,0.11,1.00,-0.03,0.32,0.11,0.68,0.59,-0.38,0.95,1005.90
18.637,0.11,1.00,-0.03,0.32,0.11,0.68,0.59,-0.38,0.95,1005.91
18.675,0.10,0.97,-0.09,0.32,0.11,0.68,0.59,-0.38,0.95,1005.91
18.675,0.14,0.97,-0.13,0.32,0.11,0.68,0.59,-0.38,0.95,1005.91
18.675,0.17,0.93,-0.15,0.32,0.11,0.68,0.59,-0.38,0.95,1005.91
18.676,0.17,0.93,-0.15,0.32,0.11,0.68,0.65,-0.84,1.07,1005.91
18.676,0.17,0.93,-0.15,-0.81,0.22,0.83,0.65,-0.84,1.07,1005.91
18.679,0.17,0.93,-0.15,-0.81,0.22,0.83,0.65,-0.84,1.07,1005.92
18.732,0.18,0.99,-0.11,-0.81,0.22,0.83,0.65,-0.84,1.07,1005.92
18.733,0.18,1.26,0.01,-0.81,0.22,0.83,0.65,-0.84,1.07,1005.92
18.733,0.13,1.56,0.12,-0.81,0.22,0.83,0.65,-0.84,1.07,1005.92
18.734,0.13,1.56,0.12,-0.81,0.22,0.83,0.71,-1.39,1.29,1005.92
18.738,0.13,1.56,0.12,-1.02,3.50,2.60,0.71,-1.39,1.29,1005.92
18.757,0.13,1.56,0.12,-1.02,3.50,2.60,0.71,-1.39,1.29,1005.93
18.791,0.08,1.63,0.01,-1.02,3.50,2.60,0.71,-1.39,1.29,1005.93
18.791,-0.08,1.50,-0.23,-1.02,3.50,2.60,0.71,-1.39,1.29,1005.93
