
time,gFx,gFy,gFz,ax,ay,az,wx,wy,wz,
0.063501,0.0000,0.0000,0.0000,0.0150,-0.0710,-0.0129,0.0000,0.0000,0.0000,
0.064160,-0.2935,0.8114,0.4346,0.0150,-0.0710,-0.0129,0.0000,0.0000,0.0000,
0.064486,-0.2935,0.8114,0.4346,0.0150,-0.0710,-0.0129,0.0000,0.0000,0.0000,
0.064740,-0.2935,0.8114,0.4346,0.0150,-0.0710,-0.0129,0.0000,0.0000,0.0000,
0.064992,-0.2935,0.8114,0.4346,0.0150,-0.0710,-0.0129,-0.0128,0.0306,-0.0218,
0.121766,-0.3013,0.7872,0.3980,0.0150,-0.0710,-0.0129,-0.0128,0.0306,-0.0218,
0.122425,-0.3015,0.7799,0.3953,0.0150,-0.0710,-0.0129,-0.0128,0.0306,-0.0218,
0.123004,-0.2998,0.7623,0.3882,0.0150,-0.0710,-0.0129,-0.0128,0.0306,-0.0218,
0.123394,-0.2998,0.7623,0.3882,0.0150,-0.0710,-0.0129,0.2217,-0.1073,0.1305,
0.123747,-0.2998,0.7623,0.3882,-0.0970,-0.3265,-0.2173,0.2217,-0.1073,0.1305,
0.179862,-0.2764,0.7826,0.3948,-0.0970,-0.3265,-0.2173,0.2217,-0.1073,0.1305,
0.180695,-0.2576,0.8338,0.4026,-0.0970,-0.3265,-0.2173,0.2217,-0.1073,0.1305,
0.181230,-0.2835,0.8697,0.3963,-0.0970,-0.3265,-0.2173,0.2217,-0.1073,0.1305,
0.181740,-0.2835,0.8697,0.3963,-0.0970,-0.3265,-0.2173,0.3062,-0.1150,0.1817,
0.182241,-0.2835,0.8697,0.3963,0.0523,0.0631,-0.0401,0.3062,-0.1150,0.1817,
0.238359,-0.2835,0.8697,0.3963,-0.1873,0.4581,0.1987,0.3062,-0.1150,0.1817,
0.239082,-0.3096,0.8734,0.4087,-0.1873,0.4581,0.1987,0.3062,-0.1150,0.1817,
0.239416,-0.2967,0.8783,0.4248,-0.1873,0.4581,0.1987,0.3062,-0.1150,0.1817,
0.239749,-0.2552,0.9217,0.4129,-0.1873,0.4581,0.1987,0.3062,-0.1150,0.1817,
0.240072,-0.2552,0.9217,0.4129,-0.1873,0.4581,0.1987,0.2997,-0.1657,0.2226,
0.296434,-0.2500,0.9601,0.3985,-0.1873,0.4581,0.1987,0.2997,-0.1657,0.2226,
0.297354,-0.2825,0.9410,0.4104,-0.1873,0.4581,0.1987,0.2997,-0.1657,0.2226,
0.298006,-0.3125,0.8705,0.4266,-0.1873,0.4581,0.1987,0.2997,-0.1657,0.2226,
0.298719,-0.3125,0.8705,0.4266,-0.1873,0.4581,0.1987,0.1934,-0.1462,0.2330,
0.299337,-0.3125,0.8705,0.4266,-0.2329,0.5840,0.1956,0.1934,-0.1462,0.2330,
0.354741,-0.3164,0.8062,0.4212,-0.2329,0.5840,0.1956,0.1934,-0.1462,0.2330,
0.355582,-0.2967,0.7620,0.3872,-0.2329,0.5840,0.1956,0.1934,-0.1462,0.2330,
0.356157,-0.2705,0.7069,0.3445,-0.2329,0.5840,0.1956,0.1934,-0.1462,0.2330,
0.356670,-0.2705,0.7069,0.3445,-0.2329,0.5840,0.1956,0.1576,-0.3527,0.2356,
0.357248,-0.2705,0.7069,0.3445,-0.4752,-0.9481,-0.0391,0.1576,-0.3527,0.2356,
0.414524,-0.2442,0.6409,0.3221,-0.4752,-0.9481,-0.0391,0.1576,-0.3527,0.2356,
0.415494,-0.2237,0.5838,0.3240,-0.4752,-0.9481,-0.0391,0.1576,-0.3527,0.2356,
0.416087,-0.2127,0.5599,0.3130,-0.4752,-0.9481,-0.0391,0.1576,-0.3527,0.2356,
0.416626,-0.2127,0.5599,0.3130,-0.0212,-2.3177,-0.5096,0.1576,-0.3527,0.2356,
0.417209,-0.2127,0.5599,0.3130,-0.0212,-2.3177,-0.5096,0.3286,-0.5331,0.1947,
0.472319,-0.1785,0.5733,0.2984,-0.0212,-2.3177,-0.5096,0.3286,-0.5331,0.1947,
0.473519,-0.1406,0.6075,0.2779,-0.0212,-2.3177,-0.5096,0.3286,-0.5331,0.1947,
0.474163,-0.1194,0.6497,0.2578,-0.0212,-2.3177,-0.5096,0.3286,-0.5331,0.1947,
0.474837,-0.1194,0.6497,0.2578,0.4699,-2.0718,-0.6039,0.3286,-0.5331,0.1947,
0.475529,-0.1194,0.6497,0.2578,0.4699,-2.0718,-0.6039,0.6603,-0.6471,0.2234,
0.530943,-0.0967,0.6778,0.2539,0.4699,-2.0718,-0.6039,0.6603,-0.6471,0.2234,
0.533645,-0.0601,0.7222,0.2466,0.4699,-2.0718,-0.6039,0.6603,-0.6471,0.2234,
0.535602,-0.0425,0.7747,0.2417,0.4699,-2.0718,-0.6039,0.6603,-0.6471,0.2234,
0.537400,-0.0425,0.7747,0.2417,0.4699,-2.0718,-0.6039,1.0527,-0.4707,0.2717,
0.540335,-0.0425,0.7747,0.2417,0.9325,-1.0497,-0.4068,1.0527,-0.4707,0.2717,
0.590864,-0.0606,0.8436,0.2454,0.9325,-1.0497,-0.4068,1.0527,-0.4707,0.2717,
0.593434,-0.0667,0.9281,0.2447,0.9325,-1.0497,-0.4068,1.0527,-0.4707,0.2717,
0.595155,-0.0530,1.0116,0.2266,0.9325,-1.0497,-0.4068,1.0527,-0.4707,0.2717,
0.597068,-0.0530,1.0116,0.2266,0.9325,-1.0497,-0.4068,1.3586,-0.2250,0.1855,
0.599105,-0.0530,1.0116,0.2266,0.7923,0.6564,0.1313,1.3586,-0.2250,0.1855,
0.648393,-0.0579,1.0629,0.2044,0.7923,0.6564,0.1313,1.3586,-0.2250,0.1855,
0.650989,-0.0737,1.0961,0.2039,0.7923,0.6564,0.1313,1.3586,-0.2250,0.1855,
0.652883,-0.0925,1.1405,0.2132,0.7923,0.6564,0.1313,1.3586,-0.2250,0.1855,
0.654908,-0.0925,1.1405,0.2132,0.7923,0.6564,0.1313,1.3854,-0.0197,0.0373,
0.656970,-0.0925,1.1405,0.2132,0.5752,2.0062,0.4647,1.3854,-0.0197,0.0373,
0.708894,-0.0950,1.2013,0.2022,0.5752,2.0062,0.4647,1.3854,-0.0197,0.0373,
0.711794,-0.1079,1.2567,0.1778,0.5752,2.0062,0.4647,1.3854,-0.0197,0.0373,
0.713604,-0.1394,1.2648,0.1538,0.5752,2.0062,0.4647,1.3854,-0.0197,0.0373,
0.715338,-0.1394,1.2648,0.1538,0.5752,2.0062,0.4647,1.1281,0.1171,-0.0201,
0.717116,-0.1394,1.2648,0.1538,0.1918,3.0527,0.7086,1.1281,0.1171,-0.0201,
0.764530,-0.1638,1.2365,0.1516,0.1918,3.0527,0.7086,1.1281,0.1171,-0.0201,
0.766215,-0.1607,1.1656,0.1555,0.1918,3.0527,0.7086,1.1281,0.1171,-0.0201,
0.767227,-0.1460,1.0843,0.1467,0.1918,3.0527,0.7086,1.1281,0.1171,-0.0201,
0.772419,-0.1460,1.0843,0.1467,0.1918,3.0527,0.7086,0.6772,-0.1631,0.2578,
0.775741,-0.1460,1.0843,0.1467,-0.3454,2.0689,0.7399,0.6772,-0.1631,0.2578,
0.825065,-0.1206,1.0138,0.1128,-0.3454,2.0689,0.7399,0.6772,-0.1631,0.2578,
0.827987,-0.0855,0.9454,0.0911,-0.3454,2.0689,0.7399,0.6772,-0.1631,0.2578,
0.830167,0.0024,1.2943,0.1643,-0.3454,2.0689,0.7399,0.6772,-0.1631,0.2578,
0.831971,0.0024,1.2943,0.1643,-0.3454,2.0689,0.7399,0.3681,-0.6416,0.6775,
0.834079,0.0024,1.2943,0.1643,0.1243,1.1709,0.5819,0.3681,-0.6416,0.6775,
0.880499,-0.3677,2.7239,-0.0674,0.1243,1.1709,0.5819,0.3681,-0.6416,0.6775,
0.882756,-0.4361,2.3547,0.1912,0.1243,1.1709,0.5819,0.3681,-0.6416,0.6775,
0.884336,-0.2979,0.6871,0.2593,0.1243,1.1709,0.5819,0.3681,-0.6416,0.6775,
0.885836,-0.2979,0.6871,0.2593,-2.9673,8.7615,0.7370,0.3681,-0.6416,0.6775,
0.887783,-0.2979,0.6871,0.2593,-2.9673,8.7615,0.7370,0.2981,-0.2382,0.6298,
0.940215,-0.0508,0.3416,-0.1885,-2.9673,8.7615,0.7370,0.2981,-0.2382,0.6298,
0.942755,0.2896,0.5667,-0.1402,-2.9673,8.7615,0.7370,0.2981,-0.2382,0.6298,
0.944373,0.2954,1.0011,0.0381,-2.9673,8.7615,0.7370,0.2981,-0.2382,0.6298,
0.945765,0.2954,1.0011,0.0381,-2.9673,8.7615,0.7370,0.9116,0.0650,0.8182,
0.947262,0.2954,1.0011,0.0381,1.7838,-3.6401,-0.8717,0.9116,0.0650,0.8182,
1.000238,-0.0383,1.1976,-0.0054,1.7838,-3.6401,-0.8717,0.9116,0.0650,0.8182,
1.002231,-0.1218,1.1141,-0.0957,1.7838,-3.6401,-0.8717,0.9116,0.0650,0.8182,
1.003589,-0.0933,1.1202,-0.1282,1.7838,-3.6401,-0.8717,0.9116,0.0650,0.8182,
1.004943,-0.0933,1.1202,-0.1282,1.7838,-3.6401,-0.8717,0.5579,0.1713,0.5828,
1.006268,-0.0933,1.1202,-0.1282,-1.0650,1.2712,-0.3321,0.5579,0.1713,0.5828,
1.057012,-0.0342,1.1122,-0.1277,-1.0650,1.2712,-0.3321,0.5579,0.1713,0.5828,
1.059284,0.0481,1.0694,-0.2471,-1.0650,1.2712,-0.3321,0.5579,0.1713,0.5828,
1.060592,0.1682,1.1783,-0.3081,-1.0650,1.2712,-0.3321,0.5579,0.1713,0.5828,
1.061855,0.1682,1.1783,-0.3081,-1.0650,1.2712,-0.3321,0.6905,-0.0926,0.6142,
1.063283,0.1682,1.1783,-0.3081,0.0058,1.0190,-1.3374,0.6905,-0.0926,0.6142,
1.114488,0.0418,1.2726,-0.2593,0.0058,1.0190,-1.3374,0.6905,-0.0926,0.6142,
1.116652,-0.2447,1.3620,-0.2285,0.0058,1.0190,-1.3374,0.6905,-0.0926,0.6142,
1.117967,-0.3924,1.3578,-0.1839,0.0058,1.0190,-1.3374,0.6905,-0.0926,0.6142,
1.119624,-0.3924,1.3578,-0.1839,0.0058,1.0190,-1.3374,0.3529,0.0916,0.4458,
1.121049,-0.3924,1.3578,-0.1839,-2.6578,2.9678,-1.0452,0.3529,0.0916,0.4458,
1.174236,-0.2356,1.1879,-0.1988,-2.6578,2.9678,-1.0452,0.3529,0.0916,0.4458,
1.175968,-0.1404,1.0953,-0.1956,-2.6578,2.9678,-1.0452,0.3529,0.0916,0.4458,
1.177773,-0.1450,1.1412,-0.2710,-2.6578,2.9678,-1.0452,0.3529,0.0916,0.4458,
1.180026,-0.1450,1.1412,-0.2710,-2.6578,2.9678,-1.0452,0.0590,-0.4127,1.0269,
1.181582,-0.1450,1.1412,-0.2710,-2.8457,1.1205,-0.9190,0.0590,-0.4127,1.0269,
1.232277,-0.3865,1.0314,-0.1751,-2.8457,1.1205,-0.9190,0.0590,-0.4127,1.0269,
1.234863,-0.6954,0.7955,-0.0200,-2.8457,1.1205,-0.9190,0.0590,-0.4127,1.0269,
1.236633,-0.8553,0.6602,-0.0281,-2.8457,1.1205,-0.9190,0.0590,-0.4127,1.0269,
1.239059,-0.8553,0.6602,-0.0281,-2.8457,1.1205,-0.9190,-0.5779,-1.1846,0.3920,
1.242616,-0.8553,0.6602,-0.0281,-7.2766,-1.8627,0.2609,-0.5779,-1.1846,0.3920,
1.288492,-0.6348,0.7320,-0.3191,-7.2766,-1.8627,0.2609,-0.5779,-1.1846,0.3920,
1.291294,-0.4344,0.7696,-0.3069,-7.2766,-1.8627,0.2609,-0.5779,-1.1846,0.3920,
1.292739,-0.3706,0.7064,-0.1963,-7.2766,-1.8627,0.2609,-0.5779,-1.1846,0.3920,
1.294079,-0.3706,0.7064,-0.1963,-7.2766,-1.8627,0.2609,-0.5987,-2.7031,-0.7811,
1.295994,-0.3706,0.7064,-0.1963,-4.8392,-2.7108,-1.8540,-0.5987,-2.7031,-0.7811,
1.347466,-0.3765,0.7012,-0.1548,-4.8392,-2.7108,-1.8540,-0.5987,-2.7031,-0.7811,
1.351424,-0.3438,0.8541,-0.2092,-4.8392,-2.7108,-1.8540,-0.5987,-2.7031,-0.7811,
1.354177,-0.3440,0.9344,-0.3050,-4.8392,-2.7108,-1.8540,-0.5987,-2.7031,-0.7811,
1.356826,-0.3440,0.9344,-0.3050,-4.8392,-2.7108,-1.8540,-0.9684,-2.9930,-2.0598,
1.359724,-0.3440,0.9344,-0.3050,-2.2287,-1.6842,-1.9117,-0.9684,-2.9930,-2.0598,
1.406362,-0.1997,0.9364,-0.3802,-2.2287,-1.6842,-1.9117,-0.9684,-2.9930,-2.0598,
1.408699,-0.0464,0.8983,-0.3550,-2.2287,-1.6842,-1.9117,-0.9684,-2.9930,-2.0598,
1.410601,0.1006,0.8595,-0.3699,-2.2287,-1.6842,-1.9117,-0.9684,-2.9930,-2.0598,
1.413109,0.1006,0.8595,-0.3699,-2.2287,-1.6842,-1.9117,-0.8365,-2.8165,-2.1759,
1.416070,0.1006,0.8595,-0.3699,1.9086,-0.7438,-3.9507,-0.8365,-2.8165,-2.1759,
1.463060,0.1765,0.8636,-0.4017,1.9086,-0.7438,-3.9507,-0.8365,-2.8165,-2.1759,
1.465018,0.2610,0.8800,-0.3164,1.9086,-0.7438,-3.9507,-0.8365,-2.8165,-2.1759,
1.466048,0.2632,0.9041,-0.2432,1.9086,-0.7438,-3.9507,-0.8365,-2.8165,-2.1759,
1.467042,0.2632,0.9041,-0.2432,1.9086,-0.7438,-3.9507,-0.2869,-1.5697,-1.6108,
1.469367,0.2632,0.9041,-0.2432,5.2949,-0.5992,-3.7432,-0.2869,-1.5697,-1.6108,
1.523947,0.3147,0.9750,-0.1367,5.2949,-0.5992,-3.7432,-0.2869,-1.5697,-1.6108,
1.527485,0.5923,1.0506,-0.0747,5.2949,-0.5992,-3.7432,-0.2869,-1.5697,-1.6108,
1.529900,0.9117,1.3927,-0.1450,5.2949,-0.5992,-3.7432,-0.2869,-1.5697,-1.6108,
1.531613,0.9117,1.3927,-0.1450,8.6319,1.8536,-1.7230,-0.2869,-1.5697,-1.6108,
1.533630,0.9117,1.3927,-0.1450,8.6319,1.8536,-1.7230,0.4217,-1.3836,-0.1283,
1.582094,1.0792,1.9418,0.1748,8.6319,1.8536,-1.7230,0.4217,-1.3836,-0.1283,
1.584029,-1.1998,1.9973,1.4098,8.6319,1.8536,-1.7230,0.4217,-1.3836,-0.1283,
1.585548,-0.9161,1.0067,-0.3355,8.6319,1.8536,-1.7230,0.4217,-1.3836,-0.1283,
1.586904,-0.9161,1.0067,-0.3355,8.6319,1.8536,-1.7230,0.3920,-0.7505,2.1446,
1.588472,-0.9161,1.0067,-0.3355,-1.8351,6.3361,3.5083,0.3920,-0.7505,2.1446,
1.653044,-0.1907,0.6409,-1.6745,-1.8351,6.3361,3.5083,0.3920,-0.7505,2.1446,
1.655713,0.6407,0.8875,-0.1663,-1.8351,6.3361,3.5083,0.3920,-0.7505,2.1446,
1.657710,0.6238,1.1295,-0.2832,-1.8351,6.3361,3.5083,0.3920,-0.7505,2.1446,
1.666806,0.6238,1.1295,-0.2832,-1.8351,6.3361,3.5083,1.0036,-0.5685,2.6196,
1.669685,0.6238,1.1295,-0.2832,3.4120,-1.2317,-6.7186,1.0036,-0.5685,2.6196,
1.696407,0.6226,1.0787,0.0879,3.4120,-1.2317,-6.7186,1.0036,-0.5685,2.6196,
1.697849,0.1663,0.9483,0.0496,3.4120,-1.2317,-6.7186,1.0036,-0.5685,2.6196,
1.698851,0.1043,0.9049,-0.0427,3.4120,-1.2317,-6.7186,1.0036,-0.5685,2.6196,
1.699709,0.1043,0.9049,-0.0427,3.4120,-1.2317,-6.7186,0.3549,-0.2753,1.3547,
1.700754,0.1043,0.9049,-0.0427,1.9771,-0.2821,0.7171,0.3549,-0.2753,1.3547,
1.756463,0.1043,0.9049,-0.0427,2.0162,0.1490,0.1424,0.3549,-0.2753,1.3547,
1.767116,0.3267,1.0123,-0.0864,2.0162,0.1490,0.1424,0.3549,-0.2753,1.3547,
1.769402,0.3594,1.0296,-0.0461,2.0162,0.1490,0.1424,0.3549,-0.2753,1.3547,
1.771407,0.4012,1.0016,0.0095,2.0162,0.1490,0.1424,0.3549,-0.2753,1.3547,
1.773209,0.4012,1.0016,0.0095,2.0162,0.1490,0.1424,0.1342,-0.8825,0.9650,
1.813029,0.2930,0.9508,0.0366,2.0162,0.1490,0.1424,0.1342,-0.8825,0.9650,
1.814871,0.2102,0.9559,0.0459,2.0162,0.1490,0.1424,0.1342,-0.8825,0.9650,
1.815747,0.1311,0.9857,-0.0002,2.0162,0.1490,0.1424,0.1342,-0.8825,0.9650,
1.816656,0.1311,0.9857,-0.0002,2.0162,0.1490,0.1424,0.1627,-0.6137,0.4201,
1.817627,0.1311,0.9857,-0.0002,0.3093,-0.2891,0.9352,0.1627,-0.6137,0.4201,
1.874583,0.0715,0.9571,-0.0378,0.3093,-0.2891,0.9352,0.1627,-0.6137,0.4201,
1.882558,0.1223,0.9779,-0.0776,0.3093,-0.2891,0.9352,0.1627,-0.6137,0.4201,
1.884731,0.1072,1.0130,-0.0823,0.3093,-0.2891,0.9352,0.1627,-0.6137,0.4201,
1.886715,0.1072,1.0130,-0.0823,-0.9922,-0.0422,0.2200,0.1627,-0.6137,0.4201,
1.889079,0.1072,1.0130,-0.0823,-0.9922,-0.0422,0.2200,0.2390,-0.6473,0.4816,
1.930761,0.0850,0.9903,-0.0273,-0.9922,-0.0422,0.2200,0.2390,-0.6473,0.4816,
1.933217,0.1062,0.9571,-0.0132,-0.9922,-0.0422,0.2200,0.2390,-0.6473,0.4816,
1.934647,0.1174,0.9608,-0.0261,-0.9922,-0.0422,0.2200,0.2390,-0.6473,0.4816,
1.935993,0.1174,0.9608,-0.0261,-0.9922,-0.0422,0.2200,0.4062,-0.3728,0.7738,
1.937315,0.1174,0.9608,-0.0261,-1.3396,-0.0484,0.8956,0.4062,-0.3728,0.7738,
1.992554,0.0984,1.0040,-0.0391,-1.3396,-0.0484,0.8956,0.4062,-0.3728,0.7738,
1.995543,0.1973,0.9789,-0.1130,-1.3396,-0.0484,0.8956,0.4062,-0.3728,0.7738,
1.997110,0.3367,0.9566,-0.1861,-1.3396,-0.0484,0.8956,0.4062,-0.3728,0.7738,
1.998977,0.3367,0.9566,-0.1861,-1.3396,-0.0484,0.8956,0.6475,-0.5062,1.0921,
2.000478,0.3367,0.9566,-0.1861,-0.8202,0.2638,0.4302,0.6475,-0.5062,1.0921,
2.052479,0.4112,0.9772,-0.1900,-0.8202,0.2638,0.4302,0.6475,-0.5062,1.0921,
2.054993,0.3286,1.0121,-0.2166,-0.8202,0.2638,0.4302,0.6475,-0.5062,1.0921,
2.057128,0.1636,1.1273,-0.2486,-0.8202,0.2638,0.4302,0.6475,-0.5062,1.0921,
2.059790,0.1636,1.1273,-0.2486,-0.8202,0.2638,0.4302,0.7021,-0.2451,1.0684,
2.061919,0.1636,1.1273,-0.2486,-0.4708,1.0798,-0.1785,0.7021,-0.2451,1.0684,
2.106530,0.0305,1.2216,-0.2278,-0.4708,1.0798,-0.1785,0.7021,-0.2451,1.0684,
2.114893,-0.0325,1.2115,-0.2017,-0.4708,1.0798,-0.1785,0.7021,-0.2451,1.0684,
2.115789,-0.0264,1.2230,-0.1436,-0.4708,1.0798,-0.1785,0.7021,-0.2451,1.0684,
2.116728,-0.0264,1.2230,-0.1436,-0.4708,1.0798,-0.1785,0.8762,-0.3337,1.2706,
2.117715,-0.0264,1.2230,-0.1436,-4.0198,3.1455,0.6009,0.8762,-0.3337,1.2706,
2.167406,-0.1033,1.2738,0.0088,-4.0198,3.1455,0.6009,0.8762,-0.3337,1.2706,
2.170352,-0.2830,1.4525,0.1397,-4.0198,3.1455,0.6009,0.8762,-0.3337,1.2706,
2.172037,-0.6158,1.9516,0.2608,-4.0198,3.1455,0.6009,0.8762,-0.3337,1.2706,
2.173571,-0.6158,1.9516,0.2608,-4.0198,3.1455,0.6009,1.4298,-0.5180,1.9004,
2.175281,-0.6158,1.9516,0.2608,-7.8384,7.0189,4.5240,1.4298,-0.5180,1.9004,
2.224173,-1.2015,2.0739,0.2339,-7.8384,7.0189,4.5240,1.4298,-0.5180,1.9004,
2.227644,-0.9554,1.6491,0.0974,-7.8384,7.0189,4.5240,1.4298,-0.5180,1.9004,
2.235944,-0.0483,1.5048,-0.3221,-7.8384,7.0189,4.5240,1.4298,-0.5180,1.9004,
2.237923,-0.0483,1.5048,-0.3221,-7.8384,7.0189,4.5240,1.6992,-1.6795,2.9670,
2.240058,-0.0483,1.5048,-0.3221,-12.3897,9.8118,4.3630,1.6992,-1.6795,2.9670,
2.280296,0.9801,1.5441,-0.5066,-12.3897,9.8118,4.3630,1.6992,-1.6795,2.9670,
2.281859,1.3439,1.4367,-0.5713,-12.3897,9.8118,4.3630,1.6992,-1.6795,2.9670,
2.282689,0.7818,0.9691,-0.7948,-12.3897,9.8118,4.3630,1.6992,-1.6795,2.9670,
2.283540,0.7818,0.9691,-0.7948,-12.3897,9.8118,4.3630,1.8827,-1.8788,3.4993,
2.284449,0.7818,0.9691,-0.7948,4.0886,7.1474,-0.4512,1.8827,-1.8788,3.4993,
2.338824,0.5315,0.7938,-0.7852,4.0886,7.1474,-0.4512,1.8827,-1.8788,3.4993,
2.339974,0.3018,0.4390,-0.3313,4.0886,7.1474,-0.4512,1.8827,-1.8788,3.4993,
2.340689,0.1165,0.0779,-0.1179,4.0886,7.1474,-0.4512,1.8827,-1.8788,3.4993,
2.341520,0.1165,0.0779,-0.1179,4.0886,7.1474,-0.4512,-0.7748,-0.1914,0.6516,
2.342475,0.1165,0.0779,-0.1179,-3.0264,-1.4603,1.4121,-0.7748,-0.1914,0.6516,
2.397896,0.1165,0.0779,-0.1179,-4.3679,-6.0538,2.3333,-0.7748,-0.1914,0.6516,
2.402271,0.0371,-0.0447,-0.0989,-4.3679,-6.0538,2.3333,-0.7748,-0.1914,0.6516,
2.404251,0.0913,0.0557,-0.2849,-4.3679,-6.0538,2.3333,-0.7748,-0.1914,0.6516,
2.406611,0.1294,0.2366,-0.3453,-4.3679,-6.0538,2.3333,-0.7748,-0.1914,0.6516,
2.409603,0.1294,0.2366,-0.3453,-4.3679,-6.0538,2.3333,-1.9184,-0.1089,-2.0800,
2.458047,0.1006,0.3348,-0.3912,-4.3679,-6.0538,2.3333,-1.9184,-0.1089,-2.0800,
2.462817,0.0818,0.3687,-0.3543,-4.3679,-6.0538,2.3333,-1.9184,-0.1089,-2.0800,
2.465535,0.2058,0.4419,-0.2735,-4.3679,-6.0538,2.3333,-1.9184,-0.1089,-2.0800,
2.470169,0.2058,0.4419,-0.2735,-4.3679,-6.0538,2.3333,-3.0861,-0.6817,-4.1042,
2.473322,0.2058,0.4419,-0.2735,-1.8661,-4.7630,0.1463,-3.0861,-0.6817,-4.1042,
2.514509,0.2676,0.6099,-0.2168,-1.8661,-4.7630,0.1463,-3.0861,-0.6817,-4.1042,
2.516930,0.2508,0.8998,-0.2742,-1.8661,-4.7630,0.1463,-3.0861,-0.6817,-4.1042,
2.518056,0.4898,1.2775,-0.5775,-1.8661,-4.7630,0.1463,-3.0861,-0.6817,-4.1042,
2.520149,0.4898,1.2775,-0.5775,2.8796,-0.4845,-2.0524,-3.0861,-0.6817,-4.1042,
2.522319,0.4898,1.2775,-0.5775,2.8796,-0.4845,-2.0524,-4.0723,-0.9022,-4.9769,
2.571369,0.7977,1.4091,-0.6903,2.8796,-0.4845,-2.0524,-4.0723,-0.9022,-4.9769,
2.573439,0.8700,1.4735,-0.7884,2.8796,-0.4845,-2.0524,-4.0723,-0.9022,-4.9769,
2.574973,0.9044,1.5517,-0.8724,2.8796,-0.4845,-2.0524,-4.0723,-0.9022,-4.9769,
2.576729,0.9044,1.5517,-0.8724,2.8796,-0.4845,-2.0524,-4.5563,-0.2093,-4.7122,
2.578157,0.9044,1.5517,-0.8724,10.4006,4.9937,-8.5991,-4.5563,-0.2093,-4.7122,
2.630054,1.0846,1.4164,-0.5972,10.4006,4.9937,-8.5991,-4.5563,-0.2093,-4.7122,
2.632738,1.0450,1.0196,-0.5147,10.4006,4.9937,-8.5991,-4.5563,-0.2093,-4.7122,
2.634148,0.6251,0.7476,-0.5428,10.4006,4.9937,-8.5991,-4.5563,-0.2093,-4.7122,
2.645230,0.6251,0.7476,-0.5428,10.4006,4.9937,-8.5991,-3.0479,1.5606,-2.2199,
2.647541,0.6251,0.7476,-0.5428,12.0905,1.5120,-7.5265,-3.0479,1.5606,-2.2199,
2.688692,0.4241,0.7999,-0.4141,12.0905,1.5120,-7.5265,-3.0479,1.5606,-2.2199,
2.691250,0.4783,0.7559,-0.7276,12.0905,1.5120,-7.5265,-3.0479,1.5606,-2.2199,
2.693005,0.2005,1.2318,-1.1383,12.0905,1.5120,-7.5265,-3.0479,1.5606,-2.2199,
2.695747,0.2005,1.2318,-1.1383,12.0905,1.5120,-7.5265,0.3252,1.3720,1.4555,
2.696881,0.2005,1.2318,-1.1383,5.9655,-0.0533,-8.9628,0.3252,1.3720,1.4555,
2.747357,-1.6486,2.2121,0.9395,5.9655,-0.0533,-8.9628,0.3252,1.3720,1.4555,
2.750055,-1.2682,2.3039,0.7816,5.9655,-0.0533,-8.9628,0.3252,1.3720,1.4555,
2.751458,0.7200,1.1300,-1.3048,5.9655,-0.0533,-8.9628,0.3252,1.3720,1.4555,
2.752807,0.7200,1.1300,-1.3048,5.9655,-0.0533,-8.9628,0.7821,2.5602,1.6123,
2.754122,0.7200,1.1300,-1.3048,-5.4003,8.8539,0.5558,0.7821,2.5602,1.6123,
2.805275,0.3990,0.7374,-0.2129,-5.4003,8.8539,0.5558,0.7821,2.5602,1.6123,
2.807407,-0.1289,0.5721,0.3181,-5.4003,8.8539,0.5558,0.7821,2.5602,1.6123,
2.809383,0.2210,0.9369,0.0908,-5.4003,8.8539,0.5558,0.7821,2.5602,1.6123,
2.811444,0.2210,0.9369,0.0908,-5.4003,8.8539,0.5558,0.8870,-0.0912,2.3673,
2.812862,0.2210,0.9369,0.0908,2.0018,-2.3842,0.3422,0.8870,-0.0912,2.3673,
2.864034,0.6058,1.1989,-0.4529,2.0018,-2.3842,0.3422,0.8870,-0.0912,2.3673,
2.866582,0.7052,1.0575,-0.3338,2.0018,-2.3842,0.3422,0.8870,-0.0912,2.3673,
2.868902,0.1170,1.0309,-0.2112,2.0018,-2.3842,0.3422,0.8870,-0.0912,2.3673,
2.870452,0.1170,1.0309,-0.2112,2.0018,-2.3842,0.3422,0.4142,-0.5141,1.1124,
2.873138,0.1170,1.0309,-0.2112,4.3381,0.9863,-3.2560,0.4142,-0.5141,1.1124,
2.922407,-0.2005,1.0453,-0.0361,4.3381,0.9863,-3.2560,0.4142,-0.5141,1.1124,
2.924774,-0.1778,1.0074,0.1057,4.3381,0.9863,-3.2560,0.4142,-0.5141,1.1124,
2.926624,0.0195,0.9745,0.1426,4.3381,0.9863,-3.2560,0.4142,-0.5141,1.1124,
2.929992,0.0195,0.9745,0.1426,4.3381,0.9863,-3.2560,0.1951,0.2871,0.5408,
2.931991,0.0195,0.9745,0.1426,-1.7715,0.1496,0.7825,0.1951,0.2871,0.5408,
2.980880,0.0737,0.9688,0.1130,-1.7715,0.1496,0.7825,0.1951,0.2871,0.5408,
2.985470,0.0188,0.9435,0.0808,-1.7715,0.1496,0.7825,0.1951,0.2871,0.5408,
2.987032,0.0303,0.9549,0.0816,-1.7715,0.1496,0.7825,0.1951,0.2871,0.5408,
2.989777,0.0303,0.9549,0.0816,-1.7715,0.1496,0.7825,0.3808,-0.3981,0.8613,
2.992189,0.0303,0.9549,0.0816,-0.6683,-0.3197,1.2021,0.3808,-0.3981,0.8613,
3.037898,0.0933,0.9938,0.0488,-0.6683,-0.3197,1.2021,0.3808,-0.3981,0.8613,
3.041212,0.1443,0.9857,0.0171,-0.6683,-0.3197,1.2021,0.3808,-0.3981,0.8613,
3.043290,0.1782,0.9698,-0.0708,-0.6683,-0.3197,1.2021,0.3808,-0.3981,0.8613,
3.045311,0.1782,0.9698,-0.0708,-0.6683,-0.3197,1.2021,0.6453,-0.4653,1.0183,
3.054565,0.1782,0.9698,-0.0708,-0.2656,0.0466,0.6731,0.6453,-0.4653,1.0183,
3.096912,0.1629,0.9820,-0.1145,-0.2656,0.0466,0.6731,0.6453,-0.4653,1.0183,
3.099401,0.1008,0.9701,-0.1033,-0.2656,0.0466,0.6731,0.6453,-0.4653,1.0183,
3.101199,0.1238,0.9667,-0.1109,-0.2656,0.0466,0.6731,0.6453,-0.4653,1.0183,
3.102876,0.1238,0.9667,-0.1109,-0.2656,0.0466,0.6731,0.7114,-0.4931,1.0603,
3.104564,0.1238,0.9667,-0.1109,-0.9031,0.1008,0.0638,0.7114,-0.4931,1.0603,
3.156824,0.2361,1.0028,-0.1489,-0.9031,0.1008,0.0638,0.7114,-0.4931,1.0603,
3.159261,0.2378,1.0106,-0.1858,-0.9031,0.1008,0.0638,0.7114,-0.4931,1.0603,
3.160425,0.1878,1.0189,-0.2268,-0.9031,0.1008,0.0638,0.7114,-0.4931,1.0603,
3.161559,0.1878,1.0189,-0.2268,-0.9031,0.1008,0.0638,0.7318,-0.6328,1.1922,
3.162547,0.1878,1.0189,-0.2268,-0.5935,0.6896,-0.2040,0.7318,-0.6328,1.1922,
3.214838,0.1497,1.0929,-0.2254,-0.5935,0.6896,-0.2040,0.7318,-0.6328,1.1922,
3.217363,0.0847,1.1312,-0.1521,-0.5935,0.6896,-0.2040,0.7318,-0.6328,1.1922,
3.218847,0.0667,1.1246,-0.0715,-0.5935,0.6896,-0.2040,0.7318,-0.6328,1.1922,
3.220131,0.0667,1.1246,-0.0715,-0.5935,0.6896,-0.2040,1.0203,-0.2254,1.2026,
3.221554,0.0667,1.1246,-0.0715,-2.3404,2.0159,0.7282,1.0203,-0.2254,1.2026,
3.271416,0.0901,1.1290,-0.0618,-2.3404,2.0159,0.7282,1.0203,-0.2254,1.2026,
3.273402,0.0547,1.1766,-0.1126,-2.3404,2.0159,0.7282,1.0203,-0.2254,1.2026,
3.274810,-0.1218,1.4413,-0.0867,-2.3404,2.0159,0.7282,1.0203,-0.2254,1.2026,
3.276148,-0.1218,1.4413,-0.0867,-2.3404,2.0159,0.7282,1.4034,-0.5493,1.5239,
3.281409,-0.1218,1.4413,-0.0867,-3.8657,3.7892,2.1317,1.4034,-0.5493,1.5239,
3.331372,-0.5518,1.8000,0.0881,-3.8657,3.7892,2.1317,1.4034,-0.5493,1.5239,
3.334344,-1.0953,1.7529,0.1594,-3.8657,3.7892,2.1317,1.4034,-0.5493,1.5239,
3.336323,-0.8534,1.5768,0.0508,-3.8657,3.7892,2.1317,1.4034,-0.5493,1.5239,
3.345624,-0.8534,1.5768,0.0508,-12.5611,8.9989,4.9871,1.4034,-0.5493,1.5239,
3.347959,-0.8534,1.5768,0.0508,-12.5611,8.9989,4.9871,1.8346,-1.0138,1.8819,
3.387955,-0.0657,1.2675,-0.1829,-12.5611,8.9989,4.9871,1.8346,-1.0138,1.8819,
3.390492,0.8480,1.3375,-0.5264,-12.5611,8.9989,4.9871,1.8346,-1.0138,1.8819,
3.392097,1.1923,1.4367,-0.4295,-12.5611,8.9989,4.9871,1.8346,-1.0138,1.8819,
3.393610,1.1923,1.4367,-0.4295,-12.5611,8.9989,4.9871,2.0539,-2.0112,3.1328,
3.399727,1.1923,1.4367,-0.4295,1.3046,6.7686,1.6755,2.0539,-2.0112,3.1328,
3.448767,1.1923,1.4367,-0.4295,0.6414,2.1998,1.2431,2.0539,-2.0112,3.1328,
3.451503,0.7667,1.0880,-0.5074,0.6414,2.1998,1.2431,2.0539,-2.0112,3.1328,
3.453043,0.5494,0.7408,-0.4979,0.6414,2.1998,1.2431,2.0539,-2.0112,3.1328,
3.454395,0.5384,0.5953,-0.4314,0.6414,2.1998,1.2431,2.0539,-2.0112,3.1328,
3.455431,0.5384,0.5953,-0.4314,0.6414,2.1998,1.2431,1.0714,-0.6011,1.2906,
3.505521,0.3995,0.3804,-0.1926,0.6414,2.1998,1.2431,1.0714,-0.6011,1.2906,
3.508824,0.2361,0.2190,-0.0100,0.6414,2.1998,1.2431,1.0714,-0.6011,1.2906,
3.510301,0.1799,0.1560,-0.0623,0.6414,2.1998,1.2431,1.0714,-0.6011,1.2906,
3.512463,0.1799,0.1560,-0.0623,0.6414,2.1998,1.2431,-1.1236,0.2024,-0.9513,
3.515080,0.1799,0.1560,-0.0623,-2.4410,-3.8533,4.5358,-1.1236,0.2024,-0.9513,
3.562402,0.2127,0.2066,-0.1758,-2.4410,-3.8533,4.5358,-1.1236,0.2024,-0.9513,
3.564256,0.2693,0.3328,-0.2874,-2.4410,-3.8533,4.5358,-1.1236,0.2024,-0.9513,
3.565131,0.3809,0.3902,-0.2867,-2.4410,-3.8533,4.5358,-1.1236,0.2024,-0.9513,
3.565865,0.3809,0.3902,-0.2867,-2.4410,-3.8533,4.5358,-2.4077,0.0139,-2.7780,
3.567701,0.3809,0.3902,-0.2867,-1.1261,-4.6355,1.9233,-2.4077,0.0139,-2.7780,
3.621207,0.4229,0.4139,-0.1861,-1.1261,-4.6355,1.9233,-2.4077,0.0139,-2.7780,
3.623212,0.3396,0.4673,-0.0840,-1.1261,-4.6355,1.9233,-2.4077,0.0139,-2.7780,
3.624031,0.2219,0.6895,-0.0842,-1.1261,-4.6355,1.9233,-2.4077,0.0139,-2.7780,
3.625261,0.2219,0.6895,-0.0842,-1.1261,-4.6355,1.9233,-3.9216,-0.1914,-4.3060,
3.626122,0.2219,0.6895,-0.0842,1.4220,-3.9871,1.2767,-3.9216,-0.1914,-4.3060,
3.680813,0.2158,1.1515,-0.3018,1.4220,-3.9871,1.2767,-3.9216,-0.1914,-4.3060,
3.684601,0.4856,1.6532,-0.6055,1.4220,-3.9871,1.2767,-3.9216,-0.1914,-4.3060,
3.686749,0.6939,1.7265,-0.7237,1.4220,-3.9871,1.2767,-3.9216,-0.1914,-4.3060,
3.689195,0.6939,1.7265,-0.7237,5.3687,5.1518,-5.3688,-3.9216,-0.1914,-4.3060,
3.691713,0.6939,1.7265,-0.7237,5.3687,5.1518,-5.3688,-4.6785,-0.9004,-4.7876,
3.739253,0.9156,1.5929,-0.8416,5.3687,5.1518,-5.3688,-4.6785,-0.9004,-4.7876,
3.743096,1.1373,1.3778,-0.7271,5.3687,5.1518,-5.3688,-4.6785,-0.9004,-4.7876,
3.745614,0.8726,1.0033,-0.6026,5.3687,5.1518,-5.3688,-4.6785,-0.9004,-4.7876,
3.747776,0.8726,1.0033,-0.6026,5.3687,5.1518,-5.3688,-4.1665,0.2034,-3.0270,
3.750259,0.8726,1.0033,-0.6026,11.8594,3.8487,-9.2362,-4.1665,0.2034,-3.0270,
3.796503,0.5560,0.6783,-0.8275,11.8594,3.8487,-9.2362,-4.1665,0.2034,-3.0270,
3.800147,0.5833,0.6737,-0.7301,11.8594,3.8487,-9.2362,-4.1665,0.2034,-3.0270,
3.802423,0.5511,0.8162,-1.0929,11.8594,3.8487,-9.2362,-4.1665,0.2034,-3.0270,
3.804584,0.5511,0.8162,-1.0929,11.8594,3.8487,-9.2362,-0.6304,1.4203,0.3615,
3.806772,0.5511,0.8162,-1.0929,7.7017,-1.9832,-10.7496,-0.6304,1.4203,0.3615,
3.855835,-0.4090,1.5512,-0.3306,7.7017,-1.9832,-10.7496,-0.6304,1.4203,0.3615,
3.860820,-2.2788,2.4094,1.1893,7.7017,-1.9832,-10.7496,-0.6304,1.4203,0.3615,
3.863662,-0.4551,1.8327,-1.0450,7.7017,-1.9832,-10.7496,-0.6304,1.4203,0.3615,
3.866671,-0.4551,1.8327,-1.0450,7.7017,-1.9832,-10.7496,0.8293,3.6202,0.9534,
3.870124,-0.4551,1.8327,-1.0450,-8.1030,9.5025,-1.7780,0.8293,3.6202,0.9534,
3.913900,0.4209,0.8287,-0.1907,-8.1030,9.5025,-1.7780,0.8293,3.6202,0.9534,
3.915792,-0.3499,0.4979,0.1340,-8.1030,9.5025,-1.7780,0.8293,3.6202,0.9534,
3.917102,0.2232,0.8053,0.0825,-8.1030,9.5025,-1.7780,0.8293,3.6202,0.9534,
3.919033,0.2232,0.8053,0.0825,-8.1030,9.5025,-1.7780,1.1226,0.0882,2.2376,
3.921011,0.2232,0.8053,0.0825,1.8597,-2.6708,-0.4219,1.1226,0.0882,2.2376,
3.972174,0.6312,1.2030,-0.2666,1.8597,-2.6708,-0.4219,1.1226,0.0882,2.2376,
3.979955,0.5679,1.0797,-0.3042,1.8597,-2.6708,-0.4219,1.1226,0.0882,2.2376,
3.981843,0.1152,0.9200,-0.1204,1.8597,-2.6708,-0.4219,1.1226,0.0882,2.2376,
3.983645,0.1152,0.9200,-0.1204,1.8597,-2.6708,-0.4219,0.4647,-0.3649,1.0851,
3.985363,0.1152,0.9200,-0.1204,4.4975,0.7669,-2.4708,0.4647,-0.3649,1.0851,
4.030549,-0.1848,1.0555,-0.0579,4.4975,0.7669,-2.4708,0.4647,-0.3649,1.0851,
4.033528,-0.1682,1.1363,-0.0281,4.4975,0.7669,-2.4708,0.4647,-0.3649,1.0851,
4.035175,-0.0051,0.9759,0.0730,4.4975,0.7669,-2.4708,0.4647,-0.3649,1.0851,
4.036950,-0.0051,0.9759,0.0730,4.4975,0.7669,-2.4708,0.1437,0.1322,0.4291,
4.039189,-0.0051,0.9759,0.0730,-1.1876,0.6385,-0.1711,0.1437,0.1322,0.4291,
4.090365,0.0620,0.9425,0.1406,-1.1876,0.6385,-0.1711,0.1437,0.1322,0.4291,
4.093368,0.0798,0.9996,0.1502,-1.1876,0.6385,-0.1711,0.1437,0.1322,0.4291,
4.095175,0.0444,0.9559,0.0903,-1.1876,0.6385,-0.1711,0.1437,0.1322,0.4291,
4.096997,0.0444,0.9559,0.0903,-1.1876,0.6385,-0.1711,0.2728,-0.4176,0.4936,
4.098968,0.0444,0.9559,0.0903,0.3055,-0.2351,1.2540,0.2728,-0.4176,0.4936,
4.151727,-0.0012,0.9620,0.0139,0.3055,-0.2351,1.2540,0.2728,-0.4176,0.4936,
4.154823,-0.0430,1.0133,-0.0330,0.3055,-0.2351,1.2540,0.2728,-0.4176,0.4936,
4.156564,-0.0083,0.9969,-0.0671,0.3055,-0.2351,1.2540,0.2728,-0.4176,0.4936,
4.159214,-0.0083,0.9969,-0.0671,0.3055,-0.2351,1.2540,0.4388,-0.5880,0.5056,
4.160179,-0.0083,0.9969,-0.0671,-0.7433,0.0236,-0.0088,0.4388,-0.5880,0.5056,
4.205804,0.1238,0.9354,-0.0523,-0.7433,0.0236,-0.0088,0.4388,-0.5880,0.5056,
4.208465,0.1751,0.9010,-0.0789,-0.7433,0.0236,-0.0088,0.4388,-0.5880,0.5056,
4.210615,0.1824,0.9105,-0.1343,-0.7433,0.0236,-0.0088,0.4388,-0.5880,0.5056,
4.212234,0.1824,0.9105,-0.1343,-0.7433,0.0236,-0.0088,0.4712,-0.6084,0.5325,
4.214000,0.1824,0.9105,-0.1343,0.7029,-0.6675,-0.2981,0.4712,-0.6084,0.5325,
4.267473,0.2495,0.9059,-0.1626,0.7029,-0.6675,-0.2981,0.4712,-0.6084,0.5325,
4.271732,0.3138,0.9532,-0.1001,0.7029,-0.6675,-0.2981,0.4712,-0.6084,0.5325,
4.273944,0.2625,1.0011,-0.0767,0.7029,-0.6675,-0.2981,0.4712,-0.6084,0.5325,
4.275518,0.2625,1.0011,-0.0767,0.7029,-0.6675,-0.2981,0.2276,-0.5646,0.2847,
4.277471,0.2625,1.0011,-0.0767,1.6619,-0.2687,-0.3743,0.2276,-0.5646,0.2847,
4.324188,0.1013,0.9620,-0.0564,1.6619,-0.2687,-0.3743,0.2276,-0.5646,0.2847,
4.329546,-0.0523,0.9610,0.0308,1.6619,-0.2687,-0.3743,0.2276,-0.5646,0.2847,
4.331360,-0.1724,1.1063,0.0901,1.6619,-0.2687,-0.3743,0.2276,-0.5646,0.2847,
4.332951,-0.1724,1.1063,0.0901,1.6619,-0.2687,-0.3743,0.2229,-0.8244,0.1228,
4.334761,-0.1724,1.1063,0.0901,-1.4430,0.2972,1.1021,0.2229,-0.8244,0.1228,
4.381822,-0.3089,1.3173,0.0906,-1.4430,0.2972,1.1021,0.2229,-0.8244,0.1228,
4.384752,-0.4224,1.3454,0.0955,-1.4430,0.2972,1.1021,0.2229,-0.8244,0.1228,
4.386628,-0.4822,1.4357,0.0254,-1.4430,0.2972,1.1021,0.2229,-0.8244,0.1228,
4.388657,-0.4822,1.4357,0.0254,-5.2620,3.8266,2.0370,0.2229,-0.8244,0.1228,
4.390737,-0.4822,1.4357,0.0254,-5.2620,3.8266,2.0370,0.6919,-1.4821,0.7976,
4.437964,-0.2671,1.5546,-0.0613,-5.2620,3.8266,2.0370,0.6919,-1.4821,0.7976,
4.441153,0.2678,1.3532,-0.1550,-5.2620,3.8266,2.0370,0.6919,-1.4821,0.7976,
4.443172,0.5518,0.9391,-0.3462,-5.2620,3.8266,2.0370,0.6919,-1.4821,0.7976,
4.445113,0.5518,0.9391,-0.3462,-5.2620,3.8266,2.0370,0.2160,-2.8421,2.0116,
4.447026,0.5518,0.9391,-0.3462,-0.3376,3.1727,-0.0850,0.2160,-2.8421,2.0116,
4.497097,0.3396,0.8236,-0.1445,-0.3376,3.1727,-0.0850,0.2160,-2.8421,2.0116,
4.499998,0.0559,0.6317,-0.2053,-0.3376,3.1727,-0.0850,0.2160,-2.8421,2.0116,
4.502241,-0.0820,0.5972,-0.5330,-0.3376,3.1727,-0.0850,0.2160,-2.8421,2.0116,
4.504351,-0.0820,0.5972,-0.5330,-0.3376,3.1727,-0.0850,-1.2800,-5.2520,1.7288,
4.506974,-0.0820,0.5972,-0.5330,-1.4824,-2.5416,-1.0774,-1.2800,-5.2520,1.7288,
4.555165,-0.1765,0.6026,-0.7569,-1.4824,-2.5416,-1.0774,-1.2800,-5.2520,1.7288,
4.557404,-0.2950,0.6165,-0.9471,-1.4824,-2.5416,-1.0774,-1.2800,-5.2520,1.7288,
4.559019,-0.2649,0.6793,-0.9303,-1.4824,-2.5416,-1.0774,-1.2800,-5.2520,1.7288,
4.561511,-0.2649,0.6793,-0.9303,-1.4824,-2.5416,-1.0774,-1.7157,-7.5060,1.4745,
4.564193,-0.2649,0.6793,-0.9303,-4.7940,-2.9663,-6.5056,-1.7157,-7.5060,1.4745,
4.613977,-0.1165,0.7059,-0.9625,-4.7940,-2.9663,-6.5056,-1.7157,-7.5060,1.4745,
4.617823,-0.1475,0.7828,-0.9520,-4.7940,-2.9663,-6.5056,-1.7157,-7.5060,1.4745,
4.620630,-0.2407,0.8441,-0.8370,-4.7940,-2.9663,-6.5056,-1.7157,-7.5060,1.4745,
4.622879,-0.2407,0.8441,-0.8370,-3.4956,-1.6242,-6.7424,-1.7157,-7.5060,1.4745,
4.625123,-0.2407,0.8441,-0.8370,-3.4956,-1.6242,-6.7424,-1.7033,-7.4587,0.8310,
4.672913,-0.3181,0.8683,-0.7906,-3.4956,-1.6242,-6.7424,-1.7033,-7.4587,0.8310,
4.677187,-0.3174,0.8726,-0.7547,-3.4956,-1.6242,-6.7424,-1.7033,-7.4587,0.8310,
4.679732,-0.2652,0.8609,-0.6917,-3.4956,-1.6242,-6.7424,-1.7033,-7.4587,0.8310,
4.682077,-0.2652,0.8609,-0.6917,-3.4956,-1.6242,-6.7424,-1.5003,-6.1166,-0.0600,
4.684338,-0.2652,0.8609,-0.6917,-3.9286,-0.9177,-5.2607,-1.5003,-6.1166,-0.0600,
4.731158,-0.1402,0.9105,-0.6422,-3.9286,-0.9177,-5.2607,-1.5003,-6.1166,-0.0600,
4.735116,-0.0144,0.9945,-0.5897,-3.9286,-0.9177,-5.2607,-1.5003,-6.1166,-0.0600,
4.737400,0.0310,1.0040,-0.4776,-3.9286,-0.9177,-5.2607,-1.5003,-6.1166,-0.0600,
4.739665,0.0310,1.0040,-0.4776,-3.9286,-0.9177,-5.2607,-1.1702,-5.1987,-0.6687,
4.742106,0.0310,1.0040,-0.4776,-0.4578,-0.0561,-3.9526,-1.1702,-5.1987,-0.6687,
4.790108,0.0413,0.9581,-0.3880,-0.4578,-0.0561,-3.9526,-1.1702,-5.1987,-0.6687,
4.795340,0.0713,0.9566,-0.3858,-0.4578,-0.0561,-3.9526,-1.1702,-5.1987,-0.6687,
4.797186,0.1311,0.9696,-0.3489,-0.4578,-0.0561,-3.9526,-1.1702,-5.1987,-0.6687,
4.799651,0.1311,0.9696,-0.3489,-0.4578,-0.0561,-3.9526,-0.8658,-3.7126,-0.9867,
4.801027,0.1311,0.9696,-0.3489,1.5637,-0.1798,-2.5519,-0.8658,-3.7126,-0.9867,
4.847604,0.2009,0.9610,-0.2981,1.5637,-0.1798,-2.5519,-0.8658,-3.7126,-0.9867,
4.852164,0.2261,0.9320,-0.1655,1.5637,-0.1798,-2.5519,-0.8658,-3.7126,-0.9867,
4.855084,0.2122,0.9078,-0.0623,1.5637,-0.1798,-2.5519,-0.8658,-3.7126,-0.9867,
4.856893,0.2122,0.9078,-0.0623,1.5637,-0.1798,-2.5519,-0.5239,-2.2791,-0.8607,
4.859212,0.2122,0.9078,-0.0623,3.4000,-0.4190,-1.0186,-0.5239,-2.2791,-0.8607,
4.907571,0.2324,0.9007,-0.0203,3.4000,-0.4190,-1.0186,-0.5239,-2.2791,-0.8607,
4.913007,0.2962,0.8849,-0.0005,3.4000,-0.4190,-1.0186,-0.5239,-2.2791,-0.8607,
4.915202,0.3533,0.9019,0.0459,3.4000,-0.4190,-1.0186,-0.5239,-2.2791,-0.8607,
4.917444,0.3533,0.9019,0.0459,3.4000,-0.4190,-1.0186,-0.0849,-2.0047,-0.3156,
4.919653,0.3533,0.9019,0.0459,4.3618,-0.7534,0.5543,-0.0849,-2.0047,-0.3156,
4.965164,0.4332,0.9234,-0.0042,4.3618,-0.7534,0.5543,-0.0849,-2.0047,-0.3156,
4.969545,0.5337,0.8990,-0.0435,4.3618,-0.7534,0.5543,-0.0849,-2.0047,-0.3156,
4.972095,0.5682,1.0719,-0.0513,4.3618,-0.7534,0.5543,-0.0849,-2.0047,-0.3156,
4.974423,0.5682,1.0719,-0.0513,4.3618,-0.7534,0.5543,0.1574,-2.1407,0.5826,
4.976279,0.5682,1.0719,-0.0513,6.1190,-0.1180,0.0628,0.1574,-2.1407,0.5826,
5.022760,-0.0662,1.3170,0.4190,6.1190,-0.1180,0.0628,0.1574,-2.1407,0.5826,
5.025959,-0.6036,1.6608,0.5901,6.1190,-0.1180,0.0628,0.1574,-2.1407,0.5826,
5.027861,-0.1641,1.4123,-0.3230,6.1190,-0.1180,0.0628,0.1574,-2.1407,0.5826,
5.030254,-0.1641,1.4123,-0.3230,6.1190,-0.1180,0.0628,-0.1615,0.6133,0.7151,
5.033855,-0.1641,1.4123,-0.3230,-1.9979,4.6484,2.5209,-0.1615,0.6133,0.7151,
5.081724,-0.4039,0.9750,-0.5362,-1.9979,4.6484,2.5209,-0.1615,0.6133,0.7151,
5.086967,-0.3301,0.8119,-0.0234,-1.9979,4.6484,2.5209,-0.1615,0.6133,0.7151,
5.089615,0.1377,0.9085,0.2910,-1.9979,4.6484,2.5209,-0.1615,0.6133,0.7151,
5.092448,0.1377,0.9085,0.2910,-1.9979,4.6484,2.5209,0.1649,0.3975,1.3254,
5.094730,0.1377,0.9085,0.2910,-1.9466,-0.8962,-0.4865,0.1649,0.3975,1.3254,
5.138844,0.3484,1.0633,0.1985,-1.9466,-0.8962,-0.4865,0.1649,0.3975,1.3254,
5.142404,0.1966,1.0328,0.1057,-1.9466,-0.8962,-0.4865,0.1649,0.3975,1.3254,
5.144545,0.0864,0.9869,-0.0706,-1.9466,-0.8962,-0.4865,0.1649,0.3975,1.3254,
5.146286,0.0864,0.9869,-0.0706,-1.9466,-0.8962,-0.4865,0.2091,-0.4931,1.1806,
5.148561,0.0864,0.9869,-0.0706,1.3865,0.3919,1.2633,0.2091,-0.4931,1.1806,
5.197258,0.1643,1.0345,-0.1050,1.3865,0.3919,1.2633,0.2091,-0.4931,1.1806,
5.200919,0.1477,1.0467,-0.0544,1.3865,0.3919,1.2633,0.2091,-0.4931,1.1806,
5.202949,0.0483,1.0023,0.0452,1.3865,0.3919,1.2633,0.2091,-0.4931,1.1806,
5.204501,0.0483,1.0023,0.0452,1.3865,0.3919,1.2633,0.2119,-0.2842,0.8251,
5.206472,0.0483,1.0023,0.0452,0.0450,0.4366,0.2565,0.2119,-0.2842,0.8251,
5.255955,0.0554,0.9901,0.0400,0.0450,0.4366,0.2565,0.2119,-0.2842,0.8251,
5.259682,0.1004,0.9852,0.0378,0.0450,0.4366,0.2565,0.2119,-0.2842,0.8251,
5.261708,0.1372,0.9720,-0.0012,0.0450,0.4366,0.2565,0.2119,-0.2842,0.8251,
5.263487,0.1372,0.9720,-0.0012,0.0450,0.4366,0.2565,0.3918,-0.0912,0.7542,
5.265307,0.1372,0.9720,-0.0012,-0.5838,0.0664,1.0879,0.3918,-0.0912,0.7542,
5.314614,0.1941,0.9625,-0.0669,-0.5838,0.0664,1.0879,0.3918,-0.0912,0.7542,
5.319303,0.2088,1.0135,-0.0984,-0.5838,0.0664,1.0879,0.3918,-0.0912,0.7542,
5.321058,0.1397,1.0226,-0.1008,-0.5838,0.0664,1.0879,0.3918,-0.0912,0.7542,
5.322425,0.1397,1.0226,-0.1008,-0.5838,0.0664,1.0879,0.4302,-0.2936,0.7300,
5.324207,0.1397,1.0226,-0.1008,-0.1545,0.3267,0.2331,0.4302,-0.2936,0.7300,
5.372672,0.1030,0.9950,-0.0615,-0.1545,0.3267,0.2331,0.4302,-0.2936,0.7300,
5.375919,0.1577,0.9877,-0.0645,-0.1545,0.3267,0.2331,0.4302,-0.2936,0.7300,
5.378683,0.2178,0.9696,-0.0996,-0.1545,0.3267,0.2331,0.4302,-0.2936,0.7300,
5.380477,0.2178,0.9696,-0.0996,-0.1545,0.3267,0.2331,0.4714,-0.3579,0.7443,
5.382488,0.2178,0.9696,-0.0996,-0.7334,0.2966,0.6574,0.4714,-0.3579,0.7443,
5.431354,0.2178,0.9696,-0.0996,-0.7692,0.6697,0.6232,0.4714,-0.3579,0.7443,
5.434718,0.1826,0.9859,-0.0864,-0.7692,0.6697,0.6232,0.4714,-0.3579,0.7443,
5.436503,0.1887,1.0096,-0.1094,-0.7692,0.6697,0.6232,0.4714,-0.3579,0.7443,
5.438604,0.2107,1.0248,-0.1419,-0.7692,0.6697,0.6232,0.4714,-0.3579,0.7443,
5.439495,0.2107,1.0248,-0.1419,-0.7692,0.6697,0.6232,0.4923,-0.5231,0.8047,
5.488901,0.2371,1.0118,-0.1121,-0.7692,0.6697,0.6232,0.4923,-0.5231,0.8047,
5.493781,0.1883,1.0248,-0.0816,-0.7692,0.6697,0.6232,0.4923,-0.5231,0.8047,
5.496041,0.1091,1.0482,-0.0869,-0.7692,0.6697,0.6232,0.4923,-0.5231,0.8047,
5.498524,0.1091,1.0482,-0.0869,-0.7692,0.6697,0.6232,0.5734,-0.5705,0.9243,
5.499737,0.1091,1.0482,-0.0869,-1.3282,1.0819,1.1895,0.5734,-0.5705,0.9243,
5.549180,0.0586,1.0641,-0.1128,-1.3282,1.0819,1.1895,0.5734,-0.5705,0.9243,
5.554399,0.0139,1.1488,-0.0999,-1.3282,1.0819,1.1895,0.5734,-0.5705,0.9243,
5.556343,-0.0359,1.2506,-0.0940,-1.3282,1.0819,1.1895,0.5734,-0.5705,0.9243,
5.559436,-0.0359,1.2506,-0.0940,-1.3282,1.0819,1.1895,0.8792,-0.6330,1.3217,
5.560422,-0.0359,1.2506,-0.0940,-3.4865,2.6568,1.6520,0.8792,-0.6330,1.3217,
5.608881,-0.0754,1.2614,-0.1140,-3.4865,2.6568,1.6520,0.8792,-0.6330,1.3217,
5.612783,-0.1148,1.2819,-0.1201,-3.4865,2.6568,1.6520,0.8792,-0.6330,1.3217,
5.614600,-0.2515,1.5605,-0.0430,-3.4865,2.6568,1.6520,0.8792,-0.6330,1.3217,
5.616389,-0.2515,1.5605,-0.0430,-3.4865,2.6568,1.6520,1.4738,-0.9232,1.9061,
5.619265,-0.2515,1.5605,-0.0430,-5.7094,5.3700,2.6339,1.4738,-0.9232,1.9061,
5.663519,-0.7130,1.9831,0.1248,-5.7094,5.3700,2.6339,1.4738,-0.9232,1.9061,
5.665130,-1.0360,1.8222,0.1624,-5.7094,5.3700,2.6339,1.4738,-0.9232,1.9061,
5.665982,-0.6817,1.5426,0.0723,-5.7094,5.3700,2.6339,1.4738,-0.9232,1.9061,
5.666709,-0.6817,1.5426,0.0723,-5.7094,5.3700,2.6339,1.8778,-1.0957,2.2511,
5.667544,-0.6817,1.5426,0.0723,-12.7171,10.3195,5.7366,1.8778,-1.0957,2.2511,
5.720773,0.3438,1.3639,-0.3514,-12.7171,10.3195,5.7366,1.8778,-1.0957,2.2511,
5.722554,1.2990,1.5048,-0.3924,-12.7171,10.3195,5.7366,1.8778,-1.0957,2.2511,
5.723308,1.1188,1.2492,-0.4400,-12.7171,10.3195,5.7366,1.8778,-1.0957,2.2511,
5.724227,1.1188,1.2492,-0.4400,-12.7171,10.3195,5.7366,1.9483,-1.6556,3.3441,
5.725868,1.1188,1.2492,-0.4400,3.4475,7.7679,1.8911,1.9483,-1.6556,3.3441,
5.780328,0.5904,0.8570,-0.5430,3.4475,7.7679,1.8911,1.9483,-1.6556,3.3441,
5.782001,0.4405,0.6751,-0.5923,3.4475,7.7679,1.8911,1.9483,-1.6556,3.3441,
5.782989,0.2425,0.4173,-0.3150,3.4475,7.7679,1.8911,1.9483,-1.6556,3.3441,
5.783946,0.2425,0.4173,-0.3150,3.4475,7.7679,1.8911,0.2301,-0.3274,0.9365,
5.784996,0.2425,0.4173,-0.3150,-1.5733,1.0534,1.1830,0.2301,-0.3274,0.9365,
5.838630,0.1162,0.1821,-0.0103,-1.5733,1.0534,1.1830,0.2301,-0.3274,0.9365,
5.840478,0.0254,0.1104,-0.0435,-1.5733,1.0534,1.1830,0.2301,-0.3274,0.9365,
5.841193,0.0493,0.2244,-0.2351,-1.5733,1.0534,1.1830,0.2301,-0.3274,0.9365,
5.841910,0.0493,0.2244,-0.2351,-1.5733,1.0534,1.1830,-1.8129,-0.0429,-1.5719,
5.843146,0.0493,0.2244,-0.2351,-4.4776,-4.6435,4.3002,-1.8129,-0.0429,-1.5719,
5.896496,0.1423,0.4090,-0.3765,-4.4776,-4.6435,4.3002,-1.8129,-0.0429,-1.5719,
5.899201,0.2193,0.4769,-0.4434,-4.4776,-4.6435,4.3002,-1.8129,-0.0429,-1.5719,
5.901066,0.2193,0.4625,-0.3357,-4.4776,-4.6435,4.3002,-1.8129,-0.0429,-1.5719,
5.902633,0.2193,0.4625,-0.3357,-4.4776,-4.6435,4.3002,-2.7882,-0.3854,-3.2075,
5.904338,0.2193,0.4625,-0.3357,-1.7263,-3.4626,0.3959,-2.7882,-0.3854,-3.2075,
5.955444,0.1594,0.5018,-0.2200,-1.7263,-3.4626,0.3959,-2.7882,-0.3854,-3.2075,
5.958459,0.0796,0.6766,-0.2273,-1.7263,-3.4626,0.3959,-2.7882,-0.3854,-3.2075,
5.960116,0.1431,0.9251,-0.3794,-1.7263,-3.4626,0.3959,-2.7882,-0.3854,-3.2075,
5.961443,0.1431,0.9251,-0.3794,-1.7263,-3.4626,0.3959,-4.0377,-1.1543,-4.4021,
5.962931,0.1431,0.9251,-0.3794,0.0602,-2.3493,-0.4024,-4.0377,-1.1543,-4.4021,
6.012561,0.4241,1.2553,-0.5811,0.0602,-2.3493,-0.4024,-4.0377,-1.1543,-4.4021,
6.014616,0.5706,1.6147,-0.7030,0.0602,-2.3493,-0.4024,-4.0377,-1.1543,-4.4021,
6.015630,0.6011,1.7033,-0.7679,0.0602,-2.3493,-0.4024,-4.0377,-1.1543,-4.4021,
6.016569,0.6011,1.7033,-0.7679,0.0602,-2.3493,-0.4024,-4.7349,-0.9821,-4.6444,
6.017569,0.6011,1.7033,-0.7679,6.5377,5.3849,-6.9045,-4.7349,-0.9821,-4.6444,
6.071469,0.8475,1.5702,-0.8756,6.5377,5.3849,-6.9045,-4.7349,-0.9821,-4.6444,
6.074425,1.1344,1.2772,-0.7264,6.5377,5.3849,-6.9045,-4.7349,-0.9821,-4.6444,
6.075946,1.0463,0.9769,-0.6988,6.5377,5.3849,-6.9045,-4.7349,-0.9821,-4.6444,
6.077421,1.0463,0.9769,-0.6988,6.5377,5.3849,-6.9045,-3.8045,0.7691,-3.2883,
6.079315,1.0463,0.9769,-0.6988,12.8498,3.5767,-9.4929,-3.8045,0.7691,-3.2883,
6.130445,0.7977,0.7716,-0.7032,12.8498,3.5767,-9.4929,-3.8045,0.7691,-3.2883,
6.133824,0.6812,0.7823,-0.5643,12.8498,3.5767,-9.4929,-3.8045,0.7691,-3.2883,
6.135887,0.5511,1.0318,-0.8431,12.8498,3.5767,-9.4929,-3.8045,0.7691,-3.2883,
6.137734,0.5511,1.0318,-0.8431,12.8498,3.5767,-9.4929,-0.2387,2.3315,0.4682,
6.140531,0.5511,1.0318,-0.8431,9.4564,-0.5135,-8.4261,-0.2387,2.3315,0.4682,
6.191011,-0.6380,1.6064,0.1609,9.4564,-0.5135,-8.4261,-0.2387,2.3315,0.4682,
6.195348,-2.6001,1.8632,1.0282,9.4564,-0.5135,-8.4261,-0.2387,2.3315,0.4682,
6.197774,-0.6834,1.8496,-0.0737,9.4564,-0.5135,-8.4261,-0.2387,2.3315,0.4682,
6.200094,-0.6834,1.8496,-0.0737,9.4564,-0.5135,-8.4261,0.4152,2.6901,0.9033,
6.201083,-0.6834,1.8496,-0.0737,-10.0977,8.1080,2.7106,0.4152,2.6901,0.9033,
6.247920,0.6993,1.1742,-1.0922,-10.0977,8.1080,2.7106,0.4152,2.6901,0.9033,
6.252931,0.2549,0.7230,-0.3011,-10.0977,8.1080,2.7106,0.4152,2.6901,0.9033,
6.254232,0.1602,0.6568,0.3919,-10.0977,8.1080,2.7106,0.4152,2.6901,0.9033,
6.255172,0.1602,0.6568,0.3919,-10.0977,8.1080,2.7106,1.1712,0.2941,2.8182,
6.256377,0.1602,0.6568,0.3919,4.7340,-1.2632,-3.4454,1.1712,0.2941,2.8182,
6.306328,0.2740,0.9317,0.3846,4.7340,-1.2632,-3.4454,1.1712,0.2941,2.8182,
6.309648,0.1611,1.0624,-0.1546,4.7340,-1.2632,-3.4454,1.1712,0.2941,2.8182,
6.311174,0.2722,1.0182,-0.3872,4.7340,-1.2632,-3.4454,1.1712,0.2941,2.8182,
6.312667,0.2722,1.0182,-0.3872,4.7340,-1.2632,-3.4454,0.7976,-0.3728,1.4722,
6.313974,0.2722,1.0182,-0.3872,2.5363,0.1746,-0.2461,0.7976,-0.3728,1.4722,
6.363583,0.1536,1.0936,-0.2195,2.5363,0.1746,-0.2461,0.7976,-0.3728,1.4722,
6.366199,-0.0762,1.0585,-0.1028,2.5363,0.1746,-0.2461,0.7976,-0.3728,1.4722,
6.367169,-0.0156,0.9916,-0.0203,2.5363,0.1746,-0.2461,0.7976,-0.3728,1.4722,
6.368040,-0.0156,0.9916,-0.0203,2.5363,0.1746,-0.2461,0.3653,0.2753,0.7742,
6.370150,-0.0156,0.9916,-0.0203,-0.0155,0.6012,-0.6367,0.3653,0.2753,0.7742,
6.422742,0.0679,0.9986,0.0444,-0.0155,0.6012,-0.6367,0.3653,0.2753,0.7742,
6.426169,-0.0322,1.0074,0.0530,-0.0155,0.6012,-0.6367,0.3653,0.2753,0.7742,
6.427783,-0.0930,0.9806,0.0579,-0.0155,0.6012,-0.6367,0.3653,0.2753,0.7742,
6.430084,-0.0930,0.9806,0.0579,-0.0155,0.6012,-0.6367,0.3374,0.2543,0.7113,
6.432086,-0.0930,0.9806,0.0579,-0.8002,0.1151,1.1538,0.3374,0.2543,0.7113,
6.481504,-0.0454,1.0074,0.0132,-0.8002,0.1151,1.1538,0.3374,0.2543,0.7113,
6.485083,0.0601,1.0172,0.0010,-0.8002,0.1151,1.1538,0.3374,0.2543,0.7113,
6.486759,0.0796,0.9857,0.0120,-0.8002,0.1151,1.1538,0.3374,0.2543,0.7113,
6.488140,0.0796,0.9857,0.0120,-0.8002,0.1151,1.1538,0.4986,-0.3396,0.8874,
6.490356,0.0796,0.9857,0.0120,-0.7730,0.2556,1.0125,0.4986,-0.3396,0.8874,
6.540289,0.0613,0.9723,0.0745,-0.7730,0.2556,1.0125,0.4986,-0.3396,0.8874,
6.544584,0.0190,0.9625,0.0464,-0.7730,0.2556,1.0125,0.4986,-0.3396,0.8874,
6.546037,0.0320,0.9720,-0.0220,-0.7730,0.2556,1.0125,0.4986,-0.3396,0.8874,
6.547474,0.0320,0.9720,-0.0220,-0.7730,0.2556,1.0125,0.8149,-0.3262,0.9957,
6.549838,0.0320,0.9720,-0.0220,-1.2241,0.0502,1.6991,0.8149,-0.3262,0.9957,
6.597940,0.1177,1.0104,-0.1399,-1.2241,0.0502,1.6991,0.8149,-0.3262,0.9957,
6.602692,0.1155,1.0274,-0.2014,-1.2241,0.0502,1.6991,0.8149,-0.3262,0.9957,
6.604504,0.0630,1.0243,-0.2146,-1.2241,0.0502,1.6991,0.8149,-0.3262,0.9957,
6.606142,0.0630,1.0243,-0.2146,-1.2241,0.0502,1.6991,0.9163,-0.6005,1.2232,
6.608135,0.0630,1.0243,-0.2146,-1.2105,0.7685,0.1239,0.9163,-0.6005,1.2232,
6.655763,0.1790,0.9879,-0.2315,-1.2105,0.7685,0.1239,0.9163,-0.6005,1.2232,
6.660995,0.2981,0.9759,-0.2007,-1.2105,0.7685,0.1239,0.9163,-0.6005,1.2232,
6.662468,0.2288,1.0575,-0.1792,-1.2105,0.7685,0.1239,0.9163,-0.6005,1.2232,
6.664123,0.2288,1.0575,-0.1792,-1.2105,0.7685,0.1239,1.0295,-0.4842,1.3167,
6.666167,0.2288,1.0575,-0.1792,-0.4978,0.9460,0.5486,1.0295,-0.4842,1.3167,
6.714297,0.1060,1.1573,-0.1470,-0.4978,0.9460,0.5486,1.0295,-0.4842,1.3167,
6.720372,0.0259,1.1869,-0.1211,-0.4978,0.9460,0.5486,1.0295,-0.4842,1.3167,
6.722208,0.0293,1.2550,-0.1311,-0.4978,0.9460,0.5486,1.0295,-0.4842,1.3167,
6.723771,0.0293,1.2550,-0.1311,-0.4978,0.9460,0.5486,1.3455,-0.2126,1.3926,
6.725749,0.0293,1.2550,-0.1311,-2.8996,3.2625,1.9290,1.3455,-0.2126,1.3926,
6.772371,-0.1074,1.5336,-0.0515,-2.8996,3.2625,1.9290,1.3455,-0.2126,1.3926,
6.775845,-0.5015,1.7917,0.0303,-2.8996,3.2625,1.9290,1.3455,-0.2126,1.3926,
6.777485,-0.9498,1.8474,0.0427,-2.8996,3.2625,1.9290,1.3455,-0.2126,1.3926,
6.779530,-0.9498,1.8474,0.0427,-9.0082,9.0446,4.3006,1.3455,-0.2126,1.3926,
6.781642,-0.9498,1.8474,0.0427,-9.0082,9.0446,4.3006,1.8965,-0.7827,1.7255,
6.830507,-1.0379,1.7231,-0.0107,-9.0082,9.0446,4.3006,1.8965,-0.7827,1.7255,
6.833999,-0.3433,1.3068,-0.1199,-9.0082,9.0446,4.3006,1.8965,-0.7827,1.7255,
6.835644,0.6761,1.2467,-0.5210,-9.0082,9.0446,4.3006,1.8965,-0.7827,1.7255,
6.837615,0.6761,1.2467,-0.5210,-9.0082,9.0446,4.3006,2.0547,-2.0839,2.6306,
6.839809,0.6761,1.2467,-0.5210,-6.6149,7.2292,3.4282,2.0547,-2.0839,2.6306,
6.890320,1.3502,1.2658,-0.4143,-6.6149,7.2292,3.4282,2.0547,-2.0839,2.6306,
6.894741,0.9466,1.0116,-0.4307,-6.6149,7.2292,3.4282,2.0547,-2.0839,2.6306,
6.896619,0.5989,0.6285,-0.4747,-6.6149,7.2292,3.4282,2.0547,-2.0839,2.6306,
6.899092,0.5989,0.6285,-0.4747,-6.6149,7.2292,3.4282,1.7941,-0.8621,2.0859,
6.900311,0.5989,0.6285,-0.4747,4.6178,3.8666,2.0802,1.7941,-0.8621,2.0859,
6.946540,0.5279,0.4625,-0.4883,4.6178,3.8666,2.0802,1.7941,-0.8621,2.0859,
6.949954,0.3565,0.3479,-0.2681,4.6178,3.8666,2.0802,1.7941,-0.8621,2.0859,
6.951999,0.2263,0.1985,0.0029,4.6178,3.8666,2.0802,1.7941,-0.8621,2.0859,
6.953576,0.2263,0.1985,0.0029,4.6178,3.8666,2.0802,-0.5940,0.5028,-0.2893,
6.955774,0.2263,0.1985,0.0029,-1.2762,-2.5850,3.5265,-0.5940,0.5028,-0.2893,
7.006654,0.1497,0.1470,0.0266,-1.2762,-2.5850,3.5265,-0.5940,0.5028,-0.2893,
7.009573,0.1192,0.2249,-0.1560,-1.2762,-2.5850,3.5265,-0.5940,0.5028,-0.2893,
7.012213,0.0496,0.3457,-0.1731,-1.2762,-2.5850,3.5265,-0.5940,0.5028,-0.2893,
7.014567,0.0496,0.3457,-0.1731,-1.2762,-2.5850,3.5265,-1.9287,0.5274,-2.2763,
7.017229,0.0496,0.3457,-0.1731,-3.1175,-4.6909,4.0563,-1.9287,0.5274,-2.2763,
7.063384,0.1228,0.4195,-0.1499,-3.1175,-4.6909,4.0563,-1.9287,0.5274,-2.2763,
7.065192,0.2427,0.5035,-0.1494,-3.1175,-4.6909,4.0563,-1.9287,0.5274,-2.2763,
7.065920,0.3062,0.5892,-0.1590,-3.1175,-4.6909,4.0563,-1.9287,0.5274,-2.2763,
7.066525,0.3062,0.5892,-0.1590,-3.1175,-4.6909,4.0563,-3.2419,-0.3840,-3.4176,
7.067355,0.3062,0.5892,-0.1590,-0.3050,-3.5308,2.0987,-3.2419,-0.3840,-3.4176,
7.122157,0.2815,0.7467,-0.2837,-0.3050,-3.5308,2.0987,-3.2419,-0.3840,-3.4176,
7.124490,0.2388,1.0067,-0.3531,-0.3050,-3.5308,2.0987,-3.2419,-0.3840,-3.4176,
7.125537,0.3179,1.3852,-0.4014,-0.3050,-3.5308,2.0987,-3.2419,-0.3840,-3.4176,
7.126461,0.3179,1.3852,-0.4014,-0.3050,-3.5308,2.0987,-4.3899,-0.9232,-4.3078,
7.127595,0.3179,1.3852,-0.4014,2.5997,0.7993,-2.0129,-4.3899,-0.9232,-4.3078,
7.179809,0.4612,1.7722,-0.6649,2.5997,0.7993,-2.0129,-4.3899,-0.9232,-4.3078,
7.181909,0.4700,1.8469,-0.6790,2.5997,0.7993,-2.0129,-4.3899,-0.9232,-4.3078,
7.182986,0.7391,1.5519,-0.6578,2.5997,0.7993,-2.0129,-4.3899,-0.9232,-4.3078,
7.184065,0.7391,1.5519,-0.6578,2.5997,0.7993,-2.0129,-4.7719,-0.1124,-4.1081,
7.185037,0.7391,1.5519,-0.6578,7.4653,7.5357,-7.6563,-4.7719,-0.1124,-4.1081,
7.237077,0.9295,1.1207,-0.5794,7.4653,7.5357,-7.6563,-4.7719,-0.1124,-4.1081,
7.238522,0.6287,1.0336,-0.5606,7.4653,7.5357,-7.6563,-4.7719,-0.1124,-4.1081,
7.240000,0.4932,0.8114,-0.6959,7.4653,7.5357,-7.6563,-4.7719,-0.1124,-4.1081,
7.241003,0.4932,0.8114,-0.6959,7.4653,7.5357,-7.6563,-2.7614,0.9634,-1.8662,
7.245327,0.4932,0.8114,-0.6959,9.6513,0.8842,-8.2834,-2.7614,0.9634,-1.8662,
7.295802,0.5630,0.7042,-0.6859,9.6513,0.8842,-8.2834,-2.7614,0.9634,-1.8662,
7.297404,0.4546,0.8853,-0.9410,9.6513,0.8842,-8.2834,-2.7614,0.9634,-1.8662,
7.298170,-0.6153,1.6252,-0.0193,9.6513,0.8842,-8.2834,-2.7614,0.9634,-1.8662,
7.299022,-0.6153,1.6252,-0.0193,9.6513,0.8842,-8.2834,0.2912,1.9306,1.0955,
7.299638,-0.6153,1.6252,-0.0193,3.8747,1.4614,-7.0641,0.2912,1.9306,1.0955,
7.354240,-2.4973,1.8745,1.2780,3.8747,1.4614,-7.0641,0.2912,1.9306,1.0955,
7.355922,-0.4124,1.5932,0.1047,3.8747,1.4614,-7.0641,0.2912,1.9306,1.0955,
7.356748,0.5240,1.1627,-1.2977,3.8747,1.4614,-7.0641,0.2912,1.9306,1.0955,
7.357604,0.5240,1.1627,-1.2977,3.8747,1.4614,-7.0641,1.1555,2.0890,1.2900,
7.358866,0.5240,1.1627,-1.2977,-5.6726,5.7335,-0.5005,1.1555,2.0890,1.2900,
7.414185,0.0027,0.8390,0.2385,-5.6726,5.7335,-0.5005,1.1555,2.0890,1.2900,
7.417754,-0.1311,0.6754,0.1235,-5.6726,5.7335,-0.5005,1.1555,2.0890,1.2900,
7.419887,0.2547,0.9056,0.0371,-5.6726,5.7335,-0.5005,1.1555,2.0890,1.2900,
7.421625,0.2547,0.9056,0.0371,-5.6726,5.7335,-0.5005,1.0694,0.1796,1.7999,
7.423422,0.2547,0.9056,0.0371,1.5201,-1.6590,1.1259,1.0694,0.1796,1.7999,
7.473306,0.4356,1.0765,-0.2034,1.5201,-1.6590,1.1259,1.0694,0.1796,1.7999,
7.477966,0.2429,1.0414,-0.1416,1.5201,-1.6590,1.1259,1.0694,0.1796,1.7999,
7.479735,-0.1184,0.9896,-0.0813,1.5201,-1.6590,1.1259,1.0694,0.1796,1.7999,
7.480521,-0.1184,0.9896,-0.0813,1.5201,-1.6590,1.1259,0.5634,0.0014,1.0073,
7.481334,-0.1184,0.9896,-0.0813,2.3346,0.5289,-1.2341,0.5634,0.0014,1.0073,
7.531125,-0.1736,1.0638,-0.0674,2.3346,0.5289,-1.2341,0.5634,0.0014,1.0073,
7.535601,-0.0383,1.0756,0.0012,2.3346,0.5289,-1.2341,0.5634,0.0014,1.0073,
7.537394,0.0146,0.9950,0.0208,2.3346,0.5289,-1.2341,0.5634,0.0014,1.0073,
7.538964,0.0146,0.9950,0.0208,2.3346,0.5289,-1.2341,0.3531,0.0823,0.6868,
7.539766,0.0146,0.9950,0.0208,-0.5178,0.5994,0.2061,0.3531,0.0823,0.6868,
7.589226,0.0093,0.9737,0.0347,-0.5178,0.5994,0.2061,0.3531,0.0823,0.6868,
7.592689,0.1067,0.9869,0.0188,-0.5178,0.5994,0.2061,0.3531,0.0823,0.6868,
7.594201,0.0999,0.9828,-0.0007,-0.5178,0.5994,0.2061,0.3531,0.0823,0.6868,
7.595924,0.0999,0.9828,-0.0007,-0.5178,0.5994,0.2061,0.4148,-0.1588,0.5918,
7.597763,0.0999,0.9828,-0.0007,0.4953,-0.0115,0.7480,0.4148,-0.1588,0.5918,
7.646982,0.0095,0.9759,-0.0015,0.4953,-0.0115,0.7480,0.4148,-0.1588,0.5918,
7.649890,-0.0149,0.9913,0.0090,0.4953,-0.0115,0.7480,0.4148,-0.1588,0.5918,
7.652101,0.0176,0.9923,0.0313,0.4953,-0.0115,0.7480,0.4148,-0.1588,0.5918,
7.653804,0.0176,0.9923,0.0313,0.4953,-0.0115,0.7480,0.5335,-0.0136,0.4419,
7.655632,0.0176,0.9923,0.0313,-0.4103,0.0711,0.9850,0.5335,-0.0136,0.4419,
7.704978,0.0093,0.9708,0.0557,-0.4103,0.0711,0.9850,0.5335,-0.0136,0.4419,
7.709372,-0.0002,0.9579,0.0110,-0.4103,0.0711,0.9850,0.5335,-0.0136,0.4419,
7.711415,0.0137,0.9627,-0.0388,-0.4103,0.0711,0.9850,0.5335,-0.0136,0.4419,
7.713482,0.0137,0.9627,-0.0388,-0.4103,0.0711,0.9850,0.7395,-0.2681,0.5140,
7.715218,0.0137,0.9627,-0.0388,-0.6350,-0.0863,1.3484,0.7395,-0.2681,0.5140,
7.763050,0.0090,0.9747,-0.0996,-0.6350,-0.0863,1.3484,0.7395,-0.2681,0.5140,
7.765286,0.0356,0.9728,-0.1419,-0.6350,-0.0863,1.3484,0.7395,-0.2681,0.5140,
7.766865,0.0230,0.9681,-0.1253,-0.6350,-0.0863,1.3484,0.7395,-0.2681,0.5140,
7.767979,0.0230,0.9681,-0.1253,-0.6350,-0.0863,1.3484,0.8403,-0.5601,0.6624,
7.769736,0.0230,0.9681,-0.1253,-0.7914,0.0983,0.5435,0.8403,-0.5601,0.6624,
7.822220,0.0347,0.9608,-0.0342,-0.7914,0.0983,0.5435,0.8403,-0.5601,0.6624,
7.825085,0.0879,0.9579,0.0261,-0.7914,0.0983,0.5435,0.8403,-0.5601,0.6624,
7.826536,0.0994,0.9930,0.0313,-0.7914,0.0983,0.5435,0.8403,-0.5601,0.6624,
7.828718,0.0994,0.9930,0.0313,-0.6705,0.2724,2.4121,0.8403,-0.5601,0.6624,
7.830824,0.0994,0.9930,0.0313,-0.6705,0.2724,2.4121,1.0853,-0.6361,0.8646,
7.881567,-0.0073,1.0367,-0.0166,-0.6705,0.2724,2.4121,1.0853,-0.6361,0.8646,
7.886089,-0.0479,1.1893,-0.0957,-0.6705,0.2724,2.4121,1.0853,-0.6361,0.8646,
7.887558,-0.0598,1.5212,-0.1624,-0.6705,0.2724,2.4121,1.0853,-0.6361,0.8646,
7.889855,-0.0598,1.5212,-0.1624,-2.2262,3.3124,2.3014,1.0853,-0.6361,0.8646,
7.891899,-0.0598,1.5212,-0.1624,-2.2262,3.3124,2.3014,1.5351,-0.9289,1.2173,
7.937608,-0.0208,1.8388,-0.2156,-2.2262,3.3124,2.3014,1.5351,-0.9289,1.2173,
7.940335,0.1402,1.6357,-0.2566,-2.2262,3.3124,2.3014,1.5351,-0.9289,1.2173,
7.941779,-0.0645,1.1512,-0.3662,-2.2262,3.3124,2.3014,1.5351,-0.9289,1.2173,
7.942924,-0.0645,1.1512,-0.3662,-2.2262,3.3124,2.3014,1.2107,-1.5227,1.8438,
7.944285,-0.0645,1.1512,-0.3662,-2.2442,6.5579,1.2466,1.2107,-1.5227,1.8438,
7.996947,0.1741,0.8824,-0.4349,-2.2442,6.5579,1.2466,1.2107,-1.5227,1.8438,
7.999402,0.5142,0.7313,-0.4524,-2.2442,6.5579,1.2466,1.2107,-1.5227,1.8438,
8.000325,0.4366,0.5589,-0.5159,-2.2442,6.5579,1.2466,1.2107,-1.5227,1.8438,
8.001050,0.4366,0.5589,-0.5159,-2.2442,6.5579,1.2466,-0.4266,-3.9804,2.6286,
8.002249,0.4366,0.5589,-0.5159,0.9341,-1.1439,-0.1932,-0.4266,-3.9804,2.6286,
8.053736,0.0630,0.5093,-0.6129,0.9341,-1.1439,-0.1932,-0.4266,-3.9804,2.6286,
8.055318,-0.1365,0.4781,-0.7003,0.9341,-1.1439,-0.1932,-0.4266,-3.9804,2.6286,
8.056089,-0.1665,0.4961,-0.7635,0.9341,-1.1439,-0.1932,-0.4266,-3.9804,2.6286,
8.056877,-0.1665,0.4961,-0.7635,0.9341,-1.1439,-0.1932,-2.4596,-4.9120,2.4182,
8.057664,-0.1665,0.4961,-0.7635,-3.4205,-3.5557,-2.7580,-2.4596,-4.9120,2.4182,
8.113368,-0.2241,0.5289,-0.7691,-3.4205,-3.5557,-2.7580,-2.4596,-4.9120,2.4182,
8.117053,-0.4163,0.5611,-0.7747,-3.4205,-3.5557,-2.7580,-2.4596,-4.9120,2.4182,
8.120009,-0.5521,0.6404,-0.8289,-3.4205,-3.5557,-2.7580,-2.4596,-4.9120,2.4182,
8.122519,-0.5521,0.6404,-0.8289,-3.4205,-3.5557,-2.7580,-2.8772,-5.1458,1.6217,
8.125149,-0.5521,0.6404,-0.8289,-6.1264,-3.0799,-4.3422,-2.8772,-5.1458,1.6217,
8.172133,-0.5477,0.7191,-0.9303,-6.1264,-3.0799,-4.3422,-2.8772,-5.1458,1.6217,
8.175716,-0.4456,0.7305,-0.9796,-6.1264,-3.0799,-4.3422,-2.8772,-5.1458,1.6217,
8.178152,-0.3103,0.7464,-0.9207,-6.1264,-3.0799,-4.3422,-2.8772,-5.1458,1.6217,
8.180800,-0.3103,0.7464,-0.9207,-5.5226,-1.8789,-6.2290,-2.8772,-5.1458,1.6217,
8.183149,-0.3103,0.7464,-0.9207,-5.5226,-1.8789,-6.2290,-2.1605,-5.8413,0.3875,
8.229275,-0.1326,0.7838,-0.8001,-5.5226,-1.8789,-6.2290,-2.1605,-5.8413,0.3875,
8.233879,-0.0115,0.8375,-0.6512,-5.5226,-1.8789,-6.2290,-2.1605,-5.8413,0.3875,
8.234871,-0.0042,0.9063,-0.5840,-5.5226,-1.8789,-6.2290,-2.1605,-5.8413,0.3875,
8.235764,-0.0042,0.9063,-0.5840,-5.5226,-1.8789,-6.2290,-1.8825,-4.2907,-0.8784,
8.236784,-0.0042,0.9063,-0.5840,-0.6005,-1.0962,-4.3813,-1.8825,-4.2907,-0.8784,
8.288571,-0.0476,0.9859,-0.5069,-0.6005,-1.0962,-4.3813,-1.8825,-4.2907,-0.8784,
8.292602,-0.0886,1.0336,-0.3279,-0.6005,-1.0962,-4.3813,-1.8825,-4.2907,-0.8784,
8.294666,-0.1353,1.0653,-0.2056,-0.6005,-1.0962,-4.3813,-1.8825,-4.2907,-0.8784,
8.296785,-0.1353,1.0653,-0.2056,-0.6005,-1.0962,-4.3813,-1.7052,-2.6795,-1.7672,
8.306049,-0.1353,1.0653,-0.2056,0.2500,0.5937,-2.1016,-1.7052,-2.6795,-1.7672,
8.350731,-0.1460,1.1224,-0.1653,0.2500,0.5937,-2.1016,-1.7052,-2.6795,-1.7672,
8.354141,-0.0772,1.1766,-0.0901,0.2500,0.5937,-2.1016,-1.7052,-2.6795,-1.7672,
8.356230,-0.0415,1.1383,-0.0410,0.2500,0.5937,-2.1016,-1.7052,-2.6795,-1.7672,
8.358320,-0.0415,1.1383,-0.0410,0.2500,0.5937,-2.1016,-1.0731,-2.8603,-1.4599,
8.360573,-0.0415,1.1383,-0.0410,1.1980,1.7971,-0.5280,-1.0731,-2.8603,-1.4599,
8.405510,-0.0569,1.0140,-0.0024,1.1980,1.7971,-0.5280,-1.0731,-2.8603,-1.4599,
8.410632,-0.0593,0.9391,-0.0139,1.1980,1.7971,-0.5280,-1.0731,-2.8603,-1.4599,
8.412532,-0.0501,0.9203,-0.0461,1.1980,1.7971,-0.5280,-1.0731,-2.8603,-1.4599,
8.414603,-0.0501,0.9203,-0.0461,1.1980,1.7971,-0.5280,-0.4730,-4.1824,-0.3541,
8.416867,-0.0501,0.9203,-0.0461,1.6871,-0.0035,-0.5585,-0.4730,-4.1824,-0.3541,
8.463803,0.0569,0.8724,-0.0759,1.6871,-0.0035,-0.5585,-0.4730,-4.1824,-0.3541,
8.467636,0.1863,0.8316,-0.1143,1.6871,-0.0035,-0.5585,-0.4730,-4.1824,-0.3541,
8.470053,0.2918,0.8006,-0.1526,1.6871,-0.0035,-0.5585,-0.4730,-4.1824,-0.3541,
8.472832,0.2918,0.8006,-0.1526,1.6871,-0.0035,-0.5585,0.1977,-5.1282,0.6400,
8.475133,0.2918,0.8006,-0.1526,3.3759,-1.2681,-1.9340,0.1977,-5.1282,0.6400,
8.526062,0.2918,0.8006,-0.1526,3.5753,-0.8979,-1.8798,0.1977,-5.1282,0.6400,
8.530131,0.3440,0.7894,-0.2031,3.5753,-0.8979,-1.8798,0.1977,-5.1282,0.6400,
8.531964,0.3213,0.8814,-0.2105,3.5753,-0.8979,-1.8798,0.1977,-5.1282,0.6400,
8.533899,0.1260,0.9679,0.0725,3.5753,-0.8979,-1.8798,0.1977,-5.1282,0.6400,
8.535727,0.1260,0.9679,0.0725,3.5753,-0.8979,-1.8798,0.5133,-3.3671,0.7445,
8.589085,0.2178,1.2587,0.6751,3.5753,-0.8979,-1.8798,0.5133,-3.3671,0.7445,
8.592168,0.6619,1.5026,0.4842,3.5753,-0.8979,-1.8798,0.5133,-3.3671,0.7445,
8.594014,-0.2984,1.3898,-0.2918,3.5753,-0.8979,-1.8798,0.5133,-3.3671,0.7445,
8.595763,-0.2984,1.3898,-0.2918,3.5753,-0.8979,-1.8798,-0.1582,0.7076,0.3814,
8.598656,-0.2984,1.3898,-0.2918,2.6654,3.9631,1.9791,-0.1582,0.7076,0.3814,
8.638538,-1.0663,1.1027,-0.2139,2.6654,3.9631,1.9791,-0.1582,0.7076,0.3814,
8.641315,-0.6375,0.8092,0.0789,2.6654,3.9631,1.9791,-0.1582,0.7076,0.3814,
8.642621,-0.0850,0.9522,-0.0239,2.6654,3.9631,1.9791,-0.1582,0.7076,0.3814,
8.643622,-0.0850,0.9522,-0.0239,2.6654,3.9631,1.9791,0.2910,0.5608,0.7137,
8.644640,-0.0850,0.9522,-0.0239,-5.3606,-0.2736,-1.1712,0.2910,0.5608,0.7137,
8.695624,0.3753,1.0843,0.0422,-5.3606,-0.2736,-1.1712,0.2910,0.5608,0.7137,
8.697105,0.2473,1.0277,0.1521,-5.3606,-0.2736,-1.1712,0.2910,0.5608,0.7137,
8.698318,-0.1419,0.9596,0.2486,-5.3606,-0.2736,-1.1712,0.2910,0.5608,0.7137,
8.699302,-0.1419,0.9596,0.2486,1.5029,0.3791,0.8899,0.2910,0.5608,0.7137,
8.700275,-0.1419,0.9596,0.2486,1.5029,0.3791,0.8899,0.2008,-0.3771,0.9110,
8.754749,-0.1421,1.0470,0.1497,1.5029,0.3791,0.8899,0.2008,-0.3771,0.9110,
8.757384,0.0579,1.0963,0.1082,1.5029,0.3791,0.8899,0.2008,-0.3771,0.9110,
8.759465,0.1455,0.9649,0.1909,1.5029,0.3791,0.8899,0.2008,-0.3771,0.9110,
8.761509,0.1455,0.9649,0.1909,1.5029,0.3791,0.8899,0.2922,-1.1584,0.7862,
8.763251,0.1455,0.9649,0.1909,-0.3360,0.4964,1.0782,0.2922,-1.1584,0.7862,
8.813814,0.1616,0.9107,0.2351,-0.3360,0.4964,1.0782,0.2922,-1.1584,0.7862,
8.817479,0.0874,0.9842,0.1953,-0.3360,0.4964,1.0782,0.2922,-1.1584,0.7862,
8.819761,0.0823,1.0116,0.1033,-0.3360,0.4964,1.0782,0.2922,-1.1584,0.7862,
8.821537,0.0823,1.0116,0.1033,0.1513,-0.1378,1.6365,0.2922,-1.1584,0.7862,
8.823538,0.0823,1.0116,0.1033,0.1513,-0.1378,1.6365,0.4930,-0.7408,0.6775,
8.872971,0.1235,0.9999,0.0496,0.1513,-0.1378,1.6365,0.4930,-0.7408,0.6775,
8.876849,0.2083,0.9696,0.0171,0.1513,-0.1378,1.6365,0.4930,-0.7408,0.6775,
8.878805,0.2083,1.0001,-0.0303,0.1513,-0.1378,1.6365,0.4930,-0.7408,0.6775,
8.880494,0.2083,1.0001,-0.0303,0.1513,-0.1378,1.6365,0.5117,-0.7630,0.6400,
8.882322,0.2083,1.0001,-0.0303,0.4691,0.1093,0.3424,0.5117,-0.7630,0.6400,
8.931359,0.1365,0.9945,-0.0623,0.4691,0.1093,0.3424,0.5117,-0.7630,0.6400,
8.933952,0.1331,0.9898,-0.0823,0.4691,0.1093,0.3424,0.5117,-0.7630,0.6400,
8.936021,0.1265,0.9837,-0.0752,0.4691,0.1093,0.3424,0.5117,-0.7630,0.6400,
8.938043,0.1265,0.9837,-0.0752,0.4691,0.1093,0.3424,0.4624,-0.6015,0.4741,
8.939351,0.1265,0.9837,-0.0752,-0.2487,0.1515,-0.1833,0.4624,-0.6015,0.4741,
8.988952,0.1895,0.9667,-0.0181,-0.2487,0.1515,-0.1833,0.4624,-0.6015,0.4741,
8.993130,0.2342,0.9811,-0.0002,-0.2487,0.1515,-0.1833,0.4624,-0.6015,0.4741,
8.995288,0.1851,0.9718,-0.0254,-0.2487,0.1515,-0.1833,0.4624,-0.6015,0.4741,
8.997417,0.1851,0.9718,-0.0254,0.2066,0.0524,0.6549,0.4624,-0.6015,0.4741,
8.999751,0.1851,0.9718,-0.0254,0.2066,0.0524,0.6549,0.4376,-0.3272,0.4478,
9.046903,0.0933,1.0013,-0.0413,0.2066,0.0524,0.6549,0.4376,-0.3272,0.4478,
9.049698,0.0051,0.9933,-0.0701,0.2066,0.0524,0.6549,0.4376,-0.3272,0.4478,
9.051631,0.0266,0.9828,-0.0845,0.2066,0.0524,0.6549,0.4376,-0.3272,0.4478,
9.053296,0.0266,0.9828,-0.0845,0.2066,0.0524,0.6549,0.5217,-0.1026,0.5449,
9.055112,0.0266,0.9828,-0.0845,-1.6405,0.3261,0.4490,0.5217,-0.1026,0.5449,
9.105435,0.1528,1.0121,-0.0659,-1.6405,0.3261,0.4490,0.5217,-0.1026,0.5449,
9.108761,0.2256,1.0248,-0.0862,-1.6405,0.3261,0.4490,0.5217,-0.1026,0.5449,
9.110621,0.1275,1.0580,-0.1228,-1.6405,0.3261,0.4490,0.5217,-0.1026,0.5449,
9.112464,0.1275,1.0580,-0.1228,-1.6405,0.3261,0.4490,0.6481,-0.2828,0.8964,
9.114441,0.1275,1.0580,-0.1228,-0.8476,0.8630,0.5710,0.6481,-0.2828,0.8964,
9.164020,0.1673,1.0248,-0.1477,-0.8476,0.8630,0.5710,0.6481,-0.2828,0.8964,
9.166906,0.2219,1.0370,-0.1839,-0.8476,0.8630,0.5710,0.6481,-0.2828,0.8964,
9.168723,0.1555,1.0611,-0.1765,-0.8476,0.8630,0.5710,0.6481,-0.2828,0.8964,
9.170476,0.1555,1.0611,-0.1765,-0.8476,0.8630,0.5710,0.7658,-0.4960,1.0870,
9.172470,0.1555,1.0611,-0.1765,-1.2286,1.1865,0.2923,0.7658,-0.4960,1.0870,
9.222775,0.1038,1.0853,-0.1795,-1.2286,1.1865,0.2923,0.7658,-0.4960,1.0870,
9.225990,0.0183,1.1363,-0.1939,-1.2286,1.1865,0.2923,0.7658,-0.4960,1.0870,
9.227692,-0.0918,1.1671,-0.1614,-1.2286,1.1865,0.2923,0.7658,-0.4960,1.0870,
9.229700,-0.0918,1.1671,-0.1614,-1.2286,1.1865,0.2923,0.9314,-0.5626,1.4193,
9.231701,-0.0918,1.1671,-0.1614,-3.5063,2.4127,0.7808,0.9314,-0.5626,1.4193,
9.279973,-0.1057,1.2648,-0.1482,-3.5063,2.4127,0.7808,0.9314,-0.5626,1.4193,
9.281886,-0.1355,1.5810,-0.1174,-3.5063,2.4127,0.7808,0.9314,-0.5626,1.4193,
9.283335,-0.4747,1.9350,0.0151,-3.5063,2.4127,0.7808,0.9314,-0.5626,1.4193,
9.284474,-0.4747,1.9350,0.0151,-3.5063,2.4127,0.7808,1.3750,-0.7793,1.9799,
9.285825,-0.4747,1.9350,0.0151,-6.6576,7.5342,2.5167,1.3750,-0.7793,1.9799,
9.338495,-1.0118,1.8503,0.1372,-6.6576,7.5342,2.5167,1.3750,-0.7793,1.9799,
9.340634,-0.8463,1.4948,0.0151,-6.6576,7.5342,2.5167,1.3750,-0.7793,1.9799,
9.341522,0.0520,1.1451,-0.3450,-6.6576,7.5342,2.5167,1.3750,-0.7793,1.9799,
9.342399,0.0520,1.1451,-0.3450,-6.6576,7.5342,2.5167,1.5829,-1.7717,2.6418,
9.343309,0.0520,1.1451,-0.3450,-10.7912,7.5480,3.8305,1.5829,-1.7717,2.6418,
9.396657,1.1141,1.3747,-0.4837,-10.7912,7.5480,3.8305,1.5829,-1.7717,2.6418,
9.400123,1.3463,1.3754,-0.4869,-10.7912,7.5480,3.8305,1.5829,-1.7717,2.6418,
9.402482,0.6917,1.0174,-0.4712,-10.7912,7.5480,3.8305,1.5829,-1.7717,2.6418,
9.404874,0.6917,1.0174,-0.4712,-10.7912,7.5480,3.8305,1.8242,-1.0609,3.0228,
9.407447,0.6917,1.0174,-0.4712,4.5047,6.5436,0.7441,1.8242,-1.0609,3.0228,
9.456368,0.5235,0.6802,-0.4532,4.5047,6.5436,0.7441,1.8242,-1.0609,3.0228,
9.459520,0.4358,0.5401,-0.3321,4.5047,6.5436,0.7441,1.8242,-1.0609,3.0228,
9.461416,0.2127,0.3213,-0.0547,4.5047,6.5436,0.7441,1.8242,-1.0609,3.0228,
9.462822,0.2127,0.3213,-0.0547,4.5047,6.5436,0.7441,-0.4390,-0.4125,0.7374,
9.465290,0.2127,0.3213,-0.0547,-2.0376,-0.6066,2.6647,-0.4390,-0.4125,0.7374,
9.513026,-0.1143,0.1243,0.0337,-2.0376,-0.6066,2.6647,-0.4390,-0.4125,0.7374,
9.514834,-0.1663,0.1651,-0.1909,-2.0376,-0.6066,2.6647,-0.4390,-0.4125,0.7374,
9.516043,0.0315,0.3777,-0.3289,-2.0376,-0.6066,2.6647,-0.4390,-0.4125,0.7374,
9.517255,0.0315,0.3777,-0.3289,-2.0376,-0.6066,2.6647,-1.6180,-0.5504,-1.4913,
9.518461,0.0315,0.3777,-0.3289,-5.8753,-4.3614,3.3661,-1.6180,-0.5504,-1.4913,
9.572802,0.1057,0.5018,-0.4053,-5.8753,-4.3614,3.3661,-1.6180,-0.5504,-1.4913,
9.576009,0.0845,0.5044,-0.4566,-5.8753,-4.3614,3.3661,-1.6180,-0.5504,-1.4913,
9.578124,0.1372,0.5037,-0.3687,-5.8753,-4.3614,3.3661,-1.6180,-0.5504,-1.4913,
9.580070,0.1372,0.5037,-0.3687,-5.8753,-4.3614,3.3661,-2.8100,-1.0140,-3.0429,
9.581121,0.1372,0.5037,-0.3687,-2.3833,-3.0579,-0.0117,-2.8100,-1.0140,-3.0429,
9.631879,0.1814,0.5928,-0.3047,-2.3833,-3.0579,-0.0117,-2.8100,-1.0140,-3.0429,
9.636256,0.0708,0.7584,-0.2935,-2.3833,-3.0579,-0.0117,-2.8100,-1.0140,-3.0429,
9.638720,0.0295,0.9256,-0.3977,-2.3833,-3.0579,-0.0117,-2.8100,-1.0140,-3.0429,
9.639764,0.0295,0.9256,-0.3977,-2.3833,-3.0579,-0.0117,-4.0814,-1.4290,-4.3123,
9.640867,0.0295,0.9256,-0.3977,-0.0756,-1.8243,-1.1187,-4.0814,-1.4290,-4.3123,
9.687094,0.2539,1.2113,-0.7569,-0.0756,-1.8243,-1.1187,-4.0814,-1.4290,-4.3123,
9.689656,0.5022,1.5929,-0.8736,-0.0756,-1.8243,-1.1187,-4.0814,-1.4290,-4.3123,
9.690728,0.7830,1.7184,-0.7325,-0.0756,-1.8243,-1.1187,-4.0814,-1.4290,-4.3123,
9.691767,0.7830,1.7184,-0.7325,6.5717,5.2803,-7.9740,-4.0814,-1.4290,-4.3123,
9.692808,0.7830,1.7184,-0.7325,6.5717,5.2803,-7.9740,-4.5992,-0.2714,-4.7589,
9.745546,1.2970,1.5500,-0.8834,6.5717,5.2803,-7.9740,-4.5992,-0.2714,-4.7589,
9.748610,1.4789,1.2428,-0.8016,6.5717,5.2803,-7.9740,-4.5992,-0.2714,-4.7589,
9.750082,0.9674,1.0062,-0.4791,6.5717,5.2803,-7.9740,-4.5992,-0.2714,-4.7589,
9.750909,0.9674,1.0062,-0.4791,6.5717,5.2803,-7.9740,-3.5111,2.1368,-3.3164,
9.751732,0.9674,1.0062,-0.4791,15.4490,3.5619,-8.7171,-3.5111,2.1368,-3.3164,
9.804546,0.6348,0.8455,-0.6883,15.4490,3.5619,-8.7171,-3.5111,2.1368,-3.3164,
9.807142,0.6685,0.8570,-0.9071,15.4490,3.5619,-8.7171,-3.5111,2.1368,-3.3164,
9.808080,-0.0117,1.5798,-0.5220,15.4490,3.5619,-8.7171,-3.5111,2.1368,-3.3164,
9.809270,-0.0117,1.5798,-0.5220,15.4490,3.5619,-8.7171,-0.0784,3.0867,0.9039,
9.810208,-0.0117,1.5798,-0.5220,7.1233,1.6914,-7.8745,-0.0784,3.0867,0.9039,
9.863329,-2.4746,1.8254,1.2550,7.1233,1.6914,-7.8745,-0.0784,3.0867,0.9039,
9.866498,-1.7509,1.4733,0.4366,7.1233,1.6914,-7.8745,-0.0784,3.0867,0.9039,
9.868667,0.5252,1.1293,-0.8504,7.1233,1.6914,-7.8745,-0.0784,3.0867,0.9039,
9.870784,0.5252,1.1293,-0.8504,7.1233,1.6914,-7.8745,0.8460,1.8670,1.2146,
9.872515,0.5252,1.1293,-0.8504,-9.5985,5.1338,2.4911,0.8460,1.8670,1.2146,
9.921690,0.9615,0.8695,-0.7261,-9.5985,5.1338,2.4911,0.8460,1.8670,1.2146,
9.924218,0.4324,0.6590,0.6783,-9.5985,5.1338,2.4911,0.8460,1.8670,1.2146,
9.925867,-0.0689,0.8250,0.0789,-9.5985,5.1338,2.4911,0.8460,1.8670,1.2146,
9.927226,-0.0689,0.8250,0.0789,-9.5985,5.1338,2.4911,0.8399,0.1454,2.4005,
9.929029,-0.0689,0.8250,0.0789,5.4036,-1.8672,0.3298,0.8399,0.1454,2.4005,
9.980253,-0.0493,1.1466,-0.1382,5.4036,-1.8672,0.3298,0.8399,0.1454,2.4005,
9.983322,0.2732,1.1158,-0.3377,5.4036,-1.8672,0.3298,0.8399,0.1454,2.4005,
9.985221,0.2266,1.0350,-0.2569,5.4036,-1.8672,0.3298,0.8399,0.1454,2.4005,
9.986928,0.2266,1.0350,-0.2569,5.4036,-1.8672,0.3298,0.6424,-0.2160,1.2238,
9.988870,0.2266,1.0350,-0.2569,1.8376,1.1595,-1.7833,0.6424,-0.2160,1.2238,
10.037769,-0.0488,1.0023,-0.1655,1.8376,1.1595,-1.7833,0.6424,-0.2160,1.2238,
10.040415,-0.0059,0.9549,-0.0874,1.8376,1.1595,-1.7833,0.6424,-0.2160,1.2238,
10.042166,0.0181,1.0155,-0.0405,1.8376,1.1595,-1.7833,0.6424,-0.2160,1.2238,
10.043755,0.0181,1.0155,-0.0405,1.8376,1.1595,-1.7833,0.3622,0.5250,0.6923,
10.045456,0.0181,1.0155,-0.0405,-0.1619,0.1053,-0.1402,0.3622,0.5250,0.6923,
10.096421,-0.0520,1.0509,-0.0510,-0.1619,0.1053,-0.1402,0.3622,0.5250,0.6923,
10.098994,-0.0884,0.9815,-0.0418,-0.1619,0.1053,-0.1402,0.3622,0.5250,0.6923,
10.100904,-0.0674,0.9796,-0.0356,-0.1619,0.1053,-0.1402,0.3622,0.5250,0.6923,
10.102642,-0.0674,0.9796,-0.0356,-0.1619,0.1053,-0.1402,0.3690,0.0900,0.7113,
10.104424,-0.0674,0.9796,-0.0356,-1.1046,0.2593,0.5948,0.3690,0.0900,0.7113,
10.154935,0.0127,0.9842,-0.0430,-1.1046,0.2593,0.5948,0.3690,0.0900,0.7113,
10.157457,0.0879,0.9652,0.0061,-1.1046,0.2593,0.5948,0.3690,0.0900,0.7113,
10.159440,0.1109,0.9562,-0.0168,-1.1046,0.2593,0.5948,0.3690,0.0900,0.7113,
10.161432,0.1109,0.9562,-0.0168,-1.1046,0.2593,0.5948,0.5638,-0.2209,0.8929,
10.162980,0.1109,0.9562,-0.0168,-0.2134,-0.0147,1.1428,0.5638,-0.2209,0.8929,
10.213121,0.1069,0.9803,-0.1345,-0.2134,-0.0147,1.1428,0.5638,-0.2209,0.8929,
10.215905,0.1155,0.9928,-0.2078,-0.2134,-0.0147,1.1428,0.5638,-0.2209,0.8929,
10.217666,0.1284,0.9857,-0.2185,-0.2134,-0.0147,1.1428,0.5638,-0.2209,0.8929,
10.219711,0.1284,0.9857,-0.2185,-0.2134,-0.0147,1.1428,0.6652,-0.2356,0.8742,
10.221443,0.1284,0.9857,-0.2185,-0.2155,0.2710,-0.1294,0.6652,-0.2356,0.8742,
10.270982,0.1279,0.9894,-0.1924,-0.2155,0.2710,-0.1294,0.6652,-0.2356,0.8742,
10.273732,0.1072,1.0238,-0.1782,-0.2155,0.2710,-0.1294,0.6652,-0.2356,0.8742,
10.275326,0.0884,1.0331,-0.1670,-0.2155,0.2710,-0.1294,0.6652,-0.2356,0.8742,
10.277133,0.0884,1.0331,-0.1670,-0.2155,0.2710,-0.1294,0.6528,-0.2842,0.8646,
10.278993,0.0884,1.0331,-0.1670,-0.7310,0.6966,0.3222,0.6528,-0.2842,0.8646,
10.329181,0.0982,1.0384,-0.1514,-0.7310,0.6966,0.3222,0.6528,-0.2842,0.8646,
10.330852,0.0930,1.0848,-0.1231,-0.7310,0.6966,0.3222,0.6528,-0.2842,0.8646,
10.331862,0.0266,1.1222,-0.0747,-0.7310,0.6966,0.3222,0.6528,-0.2842,0.8646,
10.332800,0.0266,1.1222,-0.0747,-0.7310,0.6966,0.3222,0.9741,-0.0733,0.9966,
10.333838,0.0266,1.1222,-0.0747,-1.5712,1.5731,1.4405,0.9741,-0.0733,0.9966,
10.386463,0.0090,1.1468,-0.0383,-1.5712,1.5731,1.4405,0.9741,-0.0733,0.9966,
10.387440,0.0230,1.1986,-0.0347,-1.5712,1.5731,1.4405,0.9741,-0.0733,0.9966,
10.387935,-0.0413,1.3900,0.0044,-1.5712,1.5731,1.4405,0.9741,-0.0733,0.9966,
10.388546,-0.0413,1.3900,0.0044,-1.5712,1.5731,1.4405,1.5870,-0.3669,1.3050,
10.389108,-0.0413,1.3900,0.0044,-2.8693,3.5896,3.1735,1.5870,-0.3669,1.3050,
10.446185,-0.2512,1.5907,0.0208,-2.8693,3.5896,3.1735,1.5870,-0.3669,1.3050,
10.447427,-0.5413,1.6528,-0.0227,-2.8693,3.5896,3.1735,1.5870,-0.3669,1.3050,
10.448281,-0.9159,1.7038,-0.0100,-2.8693,3.5896,3.1735,1.5870,-0.3669,1.3050,
10.449016,-0.9159,1.7038,-0.0100,-2.8693,3.5896,3.1735,2.3239,-0.4530,1.6728,
10.449785,-0.9159,1.7038,-0.0100,-8.9636,8.2631,4.4793,2.3239,-0.4530,1.6728,
10.506267,-0.7909,1.5622,0.0166,-8.9636,8.2631,4.4793,2.3239,-0.4530,1.6728,
10.508376,0.0103,1.2472,-0.2390,-8.9636,8.2631,4.4793,2.3239,-0.4530,1.6728,
10.509200,0.9200,1.3214,-0.5198,-8.9636,8.2631,4.4793,2.3239,-0.4530,1.6728,
10.509914,0.9200,1.3214,-0.5198,-8.9636,8.2631,4.4793,2.2800,-1.3589,2.6856,
10.510691,0.9200,1.3214,-0.5198,-3.5903,6.7583,3.3101,2.2800,-1.3589,2.6856,
10.563490,1.0978,1.2252,-0.3318,-3.5903,6.7583,3.3101,2.2800,-1.3589,2.6856,
10.567032,0.5657,0.9154,-0.4773,-3.5903,6.7583,3.3101,2.2800,-1.3589,2.6856,
10.569297,0.3765,0.5486,-0.5020,-3.5903,6.7583,3.3101,2.2800,-1.3589,2.6856,
10.571170,0.3765,0.5486,-0.5020,-3.5903,6.7583,3.3101,1.6664,-0.3415,1.6982,
10.573194,0.3765,0.5486,-0.5020,2.0828,3.0155,2.1047,1.6664,-0.3415,1.6982,
10.622326,0.4356,0.4722,-0.6187,2.0828,3.0155,2.1047,1.6664,-0.3415,1.6982,
10.625491,0.3453,0.4676,-0.3457,2.0828,3.0155,2.1047,1.6664,-0.3415,1.6982,
10.627322,0.1489,0.2747,0.0618,2.0828,3.0155,2.1047,1.6664,-0.3415,1.6982,
10.629467,0.1489,0.2747,0.0618,2.0828,3.0155,2.1047,-0.9454,0.5474,-0.1521,
10.631888,0.1489,0.2747,0.0618,-1.6579,-2.1469,2.9127,-0.9454,0.5474,-0.1521,
10.682690,0.0171,0.1448,0.0046,-1.6579,-2.1469,2.9127,-0.9454,0.5474,-0.1521,
10.686740,-0.0020,0.2610,-0.2727,-1.6579,-2.1469,2.9127,-0.9454,0.5474,-0.1521,
10.689043,0.0288,0.4336,-0.3550,-1.6579,-2.1469,2.9127,-0.9454,0.5474,-0.1521,
10.691637,0.0288,0.4336,-0.3550,-1.6579,-2.1469,2.9127,-2.4066,0.1817,-2.0030,
10.694409,0.0288,0.4336,-0.3550,-3.7547,-4.5570,2.7833,-2.4066,0.1817,-2.0030,
10.738374,0.1214,0.4937,-0.3096,-3.7547,-4.5570,2.7833,-2.4066,0.1817,-2.0030,
10.741736,0.1685,0.5301,-0.3431,-3.7547,-4.5570,2.7833,-2.4066,0.1817,-2.0030,
10.744338,0.1848,0.6036,-0.3274,-3.7547,-4.5570,2.7833,-2.4066,0.1817,-2.0030,
10.746422,0.1848,0.6036,-0.3274,-3.7547,-4.5570,2.7833,-3.6942,-0.4280,-3.2695,
10.749417,0.1848,0.6036,-0.3274,-0.6970,-3.3822,-0.0498,-3.6942,-0.4280,-3.2695,
10.796699,0.1531,0.7760,-0.3103,-0.6970,-3.3822,-0.0498,-3.6942,-0.4280,-3.2695,
10.800086,0.0818,1.0299,-0.3487,-0.6970,-3.3822,-0.0498,-3.6942,-0.4280,-3.2695,
10.802188,0.1421,1.3204,-0.4744,-0.6970,-3.3822,-0.0498,-3.6942,-0.4280,-3.2695,
10.804587,0.1421,1.3204,-0.4744,-0.6970,-3.3822,-0.0498,-4.3661,-0.4009,-4.3604,
10.807439,0.1421,1.3204,-0.4744,1.3471,0.7178,-2.8159,-4.3661,-0.4009,-4.3604,
10.854137,0.3616,1.7311,-0.5633,1.3471,0.7178,-2.8159,-4.3661,-0.4009,-4.3604,
10.857123,0.2686,1.9072,-0.5892,1.3471,0.7178,-2.8159,-4.3661,-0.4009,-4.3604,
10.859540,0.4205,1.6552,-0.5342,1.3471,0.7178,-2.8159,-4.3661,-0.4009,-4.3604,
10.862148,0.4205,1.6552,-0.5342,1.3471,0.7178,-2.8159,-4.4085,-0.1851,-4.5027,
10.864225,0.4205,1.6552,-0.5342,5.9091,8.1025,-6.9291,-4.4085,-0.1851,-4.5027,
10.913078,0.7689,1.2304,-0.3731,5.9091,8.1025,-6.9291,-4.4085,-0.1851,-4.5027,
10.916554,0.7962,1.0216,-0.3868,5.9091,8.1025,-6.9291,-4.4085,-0.1851,-4.5027,
10.918689,0.6700,0.8763,-0.6856,5.9091,8.1025,-6.9291,-4.4085,-0.1851,-4.5027,
10.920983,0.6700,0.8763,-0.6856,5.9091,8.1025,-6.9291,-2.4217,-0.0303,-1.8489,
10.923275,0.6700,0.8763,-0.6856,10.5586,1.6120,-7.2782,-2.4217,-0.0303,-1.8489,
10.972052,0.6693,0.7957,-0.7474,10.5586,1.6120,-7.2782,-2.4217,-0.0303,-1.8489,
10.976282,0.6299,0.8983,-0.7664,10.5586,1.6120,-7.2782,-2.4217,-0.0303,-1.8489,
10.978832,-0.0830,1.4774,-0.5108,10.5586,1.6120,-7.2782,-2.4217,-0.0303,-1.8489,
10.981737,-0.0830,1.4774,-0.5108,10.5586,1.6120,-7.2782,0.5243,1.5451,1.2071,
10.983842,-0.0830,1.4774,-0.5108,6.7159,1.4448,-8.4742,0.5243,1.5451,1.2071,
11.029425,-2.3767,1.6462,1.1110,6.7159,1.4448,-8.4742,0.5243,1.5451,1.2071,
11.031277,-1.3432,1.4530,0.1443,6.7159,1.4448,-8.4742,0.5243,1.5451,1.2071,
11.032168,0.4510,1.4335,-0.7371,6.7159,1.4448,-8.4742,0.5243,1.5451,1.2071,
11.033094,0.4510,1.4335,-0.7371,6.7159,1.4448,-8.4742,0.6994,2.1631,0.8852,
11.033970,0.4510,1.4335,-0.7371,-8.0735,5.6004,0.5183,0.6994,2.1631,0.8852,
11.089465,0.4891,1.1964,-0.4908,-8.0735,5.6004,0.5183,0.6994,2.1631,0.8852,
11.092701,-0.0332,0.6448,0.5306,-8.0735,5.6004,0.5183,0.6994,2.1631,0.8852,
11.094495,-0.0891,0.7457,0.2044,-8.0735,5.6004,0.5183,0.6994,2.1631,0.8852,
11.096260,-0.0891,0.7457,0.2044,2.7418,-1.0177,0.1497,0.6994,2.1631,0.8852,
11.098053,-0.0891,0.7457,0.2044,2.7418,-1.0177,0.1497,0.8627,0.3944,1.9049,
11.146916,0.0964,1.0506,-0.0505,2.7418,-1.0177,0.1497,0.8627,0.3944,1.9049,
11.150248,0.2620,1.1400,-0.1992,2.7418,-1.0177,0.1497,0.8627,0.3944,1.9049,
11.152450,0.0569,1.0133,-0.0635,2.7418,-1.0177,0.1497,0.8627,0.3944,1.9049,
11.154088,0.0569,1.0133,-0.0635,2.7418,-1.0177,0.1497,0.4402,-0.3235,1.1507,
11.156028,0.0569,1.0133,-0.0635,2.2152,0.8872,-1.4229,0.4402,-0.3235,1.1507,
11.205477,-0.1917,0.9901,0.0254,2.2152,0.8872,-1.4229,0.4402,-0.3235,1.1507,
11.208431,-0.0530,1.0101,0.0967,2.2152,0.8872,-1.4229,0.4402,-0.3235,1.1507,
11.211087,-0.0293,1.0008,0.1267,2.2152,0.8872,-1.4229,0.4402,-0.3235,1.1507,
11.213138,-0.0293,1.0008,0.1267,-0.4212,0.1900,0.5180,0.4402,-0.3235,1.1507,
11.215191,-0.0293,1.0008,0.1267,-0.4212,0.1900,0.5180,0.2014,0.0416,0.7013,
11.264318,-0.0554,0.9981,0.1255,-0.4212,0.1900,0.5180,0.2014,0.0416,0.7013,
11.268631,-0.0403,1.0265,0.0552,-0.4212,0.1900,0.5180,0.2014,0.0416,0.7013,
11.270976,-0.0005,0.9867,0.0925,-0.4212,0.1900,0.5180,0.2014,0.0416,0.7013,
11.273017,-0.0005,0.9867,0.0925,-0.2363,0.2048,0.7672,0.2014,0.0416,0.7013,
11.275048,-0.0005,0.9867,0.0925,-0.2363,0.2048,0.7672,0.3341,-0.3622,0.7052,
11.324537,-0.0195,0.9645,0.1304,-0.2363,0.2048,0.7672,0.3341,-0.3622,0.7052,
11.328873,-0.0754,0.9957,0.1563,-0.2363,0.2048,0.7672,0.3341,-0.3622,0.7052,
11.330639,-0.0461,0.9750,0.1199,-0.2363,0.2048,0.7672,0.3341,-0.3622,0.7052,
11.332064,-0.0461,0.9750,0.1199,-0.7805,-0.0364,1.5173,0.3341,-0.3622,0.7052,
11.334335,-0.0461,0.9750,0.1199,-0.7805,-0.0364,1.5173,0.6019,-0.2993,0.7316,
11.380773,0.0320,0.9613,0.0183,-0.7805,-0.0364,1.5173,0.6019,-0.2993,0.7316,
11.383724,0.0579,0.9750,-0.0227,-0.7805,-0.0364,1.5173,0.6019,-0.2993,0.7316,
11.385118,0.0654,0.9713,-0.0264,-0.7805,-0.0364,1.5173,0.6019,-0.2993,0.7316,
11.387264,0.0654,0.9713,-0.0264,-0.7805,-0.0364,1.5173,0.8409,-0.3378,0.8913,
11.388944,0.0654,0.9713,-0.0264,-0.2983,-0.0747,0.5616,0.8409,-0.3378,0.8913,
11.438950,0.0918,0.9684,-0.0654,-0.2983,-0.0747,0.5616,0.8409,-0.3378,0.8913,
11.443657,0.0730,0.9859,-0.1360,-0.2983,-0.0747,0.5616,0.8409,-0.3378,0.8913,
11.445343,0.0896,0.9640,-0.2158,-0.2983,-0.0747,0.5616,0.8409,-0.3378,0.8913,
11.446982,0.0896,0.9640,-0.2158,-0.2983,-0.0747,0.5616,0.8465,-0.3026,0.9577,
11.448963,0.0896,0.9640,-0.2158,-0.4823,0.0635,-0.2086,0.8465,-0.3026,0.9577,
11.497229,0.1709,0.9364,-0.1926,-0.4823,0.0635,-0.2086,0.8465,-0.3026,0.9577,
11.501625,0.1870,0.9518,-0.1458,-0.4823,0.0635,-0.2086,0.8465,-0.3026,0.9577,
11.503558,0.2207,0.9300,-0.0808,-0.4823,0.0635,-0.2086,0.8465,-0.3026,0.9577,
11.505496,0.2207,0.9300,-0.0808,-0.4823,0.0635,-0.2086,0.7017,-0.6135,0.9951,
11.507283,0.2207,0.9300,-0.0808,0.0801,-0.1147,0.2226,0.7017,-0.6135,0.9951,
11.556196,0.2202,0.9395,-0.0703,0.0801,-0.1147,0.2226,0.7017,-0.6135,0.9951,
11.560791,0.2215,0.9347,-0.1118,0.0801,-0.1147,0.2226,0.7017,-0.6135,0.9951,
11.562837,0.2849,0.9808,-0.1326,0.0801,-0.1147,0.2226,0.7017,-0.6135,0.9951,
11.564587,0.2849,0.9808,-0.1326,0.0801,-0.1147,0.2226,0.7346,-0.9169,0.9845,
11.566389,0.2849,0.9808,-0.1326,0.1304,0.1979,1.0508,0.7346,-0.9169,0.9845,
11.616098,0.2725,1.0880,-0.0867,0.1304,0.1979,1.0508,0.7346,-0.9169,0.9845,
11.622060,0.1636,1.2540,0.0039,0.1304,0.1979,1.0508,0.7346,-0.9169,0.9845,
11.623944,0.0811,1.5187,0.0508,0.1304,0.1979,1.0508,0.7346,-0.9169,0.9845,
11.626387,0.0811,1.5187,0.0508,0.1304,0.1979,1.0508,0.9234,-1.1975,0.9911,
11.628794,0.0811,1.5187,0.0508,-0.8911,3.6907,2.5854,0.9234,-1.1975,0.9911,
11.669826,-0.0598,1.6445,0.0696,-0.8911,3.6907,2.5854,0.9234,-1.1975,0.9911,
11.671129,-0.1506,1.4281,-0.1651,-0.8911,3.6907,2.5854,0.9234,-1.1975,0.9911,
11.671816,-0.0835,1.2577,-0.3387,-0.8911,3.6907,2.5854,0.9234,-1.1975,0.9911,
11.672492,-0.0835,1.2577,-0.3387,-0.8911,3.6907,2.5854,0.8615,-2.2685,1.7194,
11.673582,-0.0835,1.2577,-0.3387,-3.9349,5.5680,2.0492,0.8615,-2.2685,1.7194,
11.729031,0.2078,1.0817,-0.2552,-3.9349,5.5680,2.0492,0.8615,-2.2685,1.7194,
11.730727,0.4563,0.9176,-0.3960,-3.9349,5.5680,2.0492,0.8615,-2.2685,1.7194,
11.731554,0.5948,0.8226,-0.4861,-3.9349,5.5680,2.0492,0.8615,-2.2685,1.7194,
11.732266,0.5948,0.8226,-0.4861,-3.9349,5.5680,2.0492,-0.0458,-4.0979,2.7862,
11.733486,0.5948,0.8226,-0.4861,0.7000,1.1299,0.4924,-0.0458,-4.0979,2.7862,
11.787501,0.4327,0.7232,-0.4825,0.7000,1.1299,0.4924,-0.0458,-4.0979,2.7862,
11.790765,0.1712,0.5709,-0.4834,0.7000,1.1299,0.4924,-0.0458,-4.0979,2.7862,
11.792542,0.0034,0.4859,-0.5523,0.7000,1.1299,0.4924,-0.0458,-4.0979,2.7862,
11.794733,0.0034,0.4859,-0.5523,0.7000,1.1299,0.4924,-1.5968,-4.4141,2.7510,
11.797029,0.0034,0.4859,-0.5523,-1.5650,-2.0807,-0.5806,-1.5968,-4.4141,2.7510,
11.846213,-0.1277,0.4603,-0.6265,-1.5650,-2.0807,-0.5806,-1.5968,-4.4141,2.7510,
11.850405,-0.1746,0.4673,-0.7935,-1.5650,-2.0807,-0.5806,-1.5968,-4.4141,2.7510,
11.852571,-0.1428,0.5252,-0.8858,-1.5650,-2.0807,-0.5806,-1.5968,-4.4141,2.7510,
11.854816,-0.1428,0.5252,-0.8858,-1.5650,-2.0807,-0.5806,-2.1466,-4.2376,2.3338,
11.857345,-0.1428,0.5252,-0.8858,-4.9207,-3.1557,-3.2099,-2.1466,-4.2376,2.3338,
11.906153,-0.0918,0.5210,-0.8314,-4.9207,-3.1557,-3.2099,-2.1466,-4.2376,2.3338,
11.912012,-0.0806,0.5938,-0.7198,-4.9207,-3.1557,-3.2099,-2.1466,-4.2376,2.3338,
11.914579,-0.1243,0.6878,-0.6121,-4.9207,-3.1557,-3.2099,-2.1466,-4.2376,2.3338,
11.916873,-0.1243,0.6878,-0.6121,-4.9207,-3.1557,-3.2099,-2.6310,-3.0999,1.3338,
11.919269,-0.1243,0.6878,-0.6121,-4.2519,-2.3282,-3.3078,-2.6310,-3.0999,1.3338,
11.963744,-0.2979,0.7115,-0.5511,-4.2519,-2.3282,-3.3078,-2.6310,-3.0999,1.3338,
11.969112,-0.5281,0.7742,-0.6085,-4.2519,-2.3282,-3.3078,-2.6310,-3.0999,1.3338,
11.971887,-0.5823,0.8238,-0.6766,-4.2519,-2.3282,-3.3078,-2.6310,-3.0999,1.3338,
11.974353,-0.5823,0.8238,-0.6766,-6.9358,-1.1665,-2.7603,-2.6310,-3.0999,1.3338,
11.977200,-0.5823,0.8238,-0.6766,-6.9358,-1.1665,-2.7603,-2.5946,-4.1985,0.0456,
12.021647,-0.3968,0.8905,-0.7554,-6.9358,-1.1665,-2.7603,-2.5946,-4.1985,0.0456,
12.026322,-0.2302,0.9745,-0.7769,-6.9358,-1.1665,-2.7603,-2.5946,-4.1985,0.0456,
12.028957,-0.0991,0.9996,-0.6964,-6.9358,-1.1665,-2.7603,-2.5946,-4.1985,0.0456,
12.031746,-0.0991,0.9996,-0.6964,-6.9358,-1.1665,-2.7603,-2.0623,-5.2099,-0.4227,
12.034173,-0.0991,0.9996,-0.6964,-3.5262,0.2419,-4.4983,-2.0623,-5.2099,-0.4227,
12.078734,-0.0535,0.9999,-0.5948,-3.5262,0.2419,-4.4983,-2.0623,-5.2099,-0.4227,
12.082297,-0.0906,1.0162,-0.5264,-3.5262,0.2419,-4.4983,-2.0623,-5.2099,-0.4227,
12.084395,-0.1402,1.0235,-0.4458,-3.5262,0.2419,-4.4983,-2.0623,-5.2099,-0.4227,
12.086487,-0.1402,1.0235,-0.4458,-3.5262,0.2419,-4.4983,-1.9265,-3.7452,-1.2769,
12.089777,-0.1402,1.0235,-0.4458,-0.8561,0.5044,-3.1953,-1.9265,-3.7452,-1.2769,
12.137919,-0.1638,1.0453,-0.3470,-0.8561,0.5044,-3.1953,-1.9265,-3.7452,-1.2769,
12.141593,-0.1372,1.0702,-0.2776,-0.8561,0.5044,-3.1953,-1.9265,-3.7452,-1.2769,
12.144069,-0.0444,1.0702,-0.2461,-0.8561,0.5044,-3.1953,-1.9265,-3.7452,-1.2769,
12.145755,-0.0444,1.0702,-0.2461,-0.8561,0.5044,-3.1953,-1.5956,-3.1232,-1.5526,
12.147995,-0.0444,1.0702,-0.2461,0.0641,0.8913,-1.8838,-1.5956,-3.1232,-1.5526,
12.196033,0.0513,1.0450,-0.2063,0.0641,0.8913,-1.8838,-1.5956,-3.1232,-1.5526,
12.199763,0.1358,1.0206,-0.1790,0.0641,0.8913,-1.8838,-1.5956,-3.1232,-1.5526,
12.202266,0.1633,0.9562,-0.1419,0.0641,0.8913,-1.8838,-1.5956,-3.1232,-1.5526,
12.204149,0.1633,0.9562,-0.1419,0.0641,0.8913,-1.8838,-1.2136,-3.2563,-1.2292,
12.206452,0.1633,0.9562,-0.1419,3.0539,0.4281,-1.7103,-1.2136,-3.2563,-1.2292,
12.254837,0.1963,0.8744,-0.0908,3.0539,0.4281,-1.7103,-1.2136,-3.2563,-1.2292,
12.258759,0.2068,0.8741,-0.0574,3.0539,0.4281,-1.7103,-1.2136,-3.2563,-1.2292,
12.261886,0.1944,0.8556,-0.0439,3.0539,0.4281,-1.7103,-1.2136,-3.2563,-1.2292,
12.263900,0.1944,0.8556,-0.0439,3.0539,0.4281,-1.7103,-0.5370,-2.6848,-0.5192,
12.266288,0.1944,0.8556,-0.0439,4.0277,-0.8520,-1.2130,-0.5370,-2.6848,-0.5192,
12.313949,0.2434,0.8875,-0.0830,4.0277,-0.8520,-1.2130,-0.5370,-2.6848,-0.5192,
12.319926,0.3716,0.9254,-0.2432,4.0277,-0.8520,-1.2130,-0.5370,-2.6848,-0.5192,
12.322712,0.0396,1.0821,0.1380,4.0277,-0.8520,-1.2130,-0.5370,-2.6848,-0.5192,
12.324866,0.0396,1.0821,0.1380,4.0277,-0.8520,-1.2130,0.3323,-1.8617,0.5653,
12.326995,0.0396,1.0821,0.1380,3.7699,0.0238,-1.2090,0.3323,-1.8617,0.5653,
12.371338,-0.6373,1.2780,0.7767,3.7699,0.0238,-1.2090,0.3323,-1.8617,0.5653,
12.373708,-0.1900,1.3649,0.4754,3.7699,0.0238,-1.2090,0.3323,-1.8617,0.5653,
12.375007,0.1514,1.2831,-0.5066,3.7699,0.0238,-1.2090,0.3323,-1.8617,0.5653,
12.376429,0.1514,1.2831,-0.5066,-0.8908,3.2815,1.8612,0.3323,-1.8617,0.5653,
12.377824,0.1514,1.2831,-0.5066,-0.8908,3.2815,1.8612,0.0024,0.6378,0.6345,
12.430442,-0.5665,1.1749,-0.3538,-0.8908,3.2815,1.8612,0.0024,0.6378,0.6345,
12.433563,-0.5223,0.8875,0.2659,-0.8908,3.2815,1.8612,0.0024,0.6378,0.6345,
12.435430,-0.0510,0.9102,0.1414,-0.8908,3.2815,1.8612,0.0024,0.6378,0.6345,
12.437222,-0.0510,0.9102,0.1414,-0.8908,3.2815,1.8612,0.2761,0.5268,1.1521,
12.439093,-0.0510,0.9102,0.1414,-2.9844,0.0909,-0.2094,0.2761,0.5268,1.1521,
12.487841,0.2918,1.0274,0.1177,-2.9844,0.0909,-0.2094,0.2761,0.5268,1.1521,
12.490591,0.3001,1.0140,0.2100,-2.9844,0.0909,-0.2094,0.2761,0.5268,1.1521,
12.492586,0.0371,0.9811,0.0779,-2.9844,0.0909,-0.2094,0.2761,0.5268,1.1521,
12.493873,0.0371,0.9811,0.0779,-2.9844,0.0909,-0.2094,0.3258,-0.5671,1.1788,
12.495649,0.0371,0.9811,0.0779,2.0860,0.2165,1.0956,0.3258,-0.5671,1.1788,
12.546437,0.0032,1.0128,0.0283,2.0860,0.2165,1.0956,0.3258,-0.5671,1.1788,
12.550567,0.0879,1.0524,-0.0537,2.0860,0.2165,1.0956,0.3258,-0.5671,1.1788,
12.552504,0.1734,1.0267,-0.0559,2.0860,0.2165,1.0956,0.3258,-0.5671,1.1788,
12.554467,0.1734,1.0267,-0.0559,2.0860,0.2165,1.0956,0.2260,-0.5797,0.7050,
12.556423,0.1734,1.0267,-0.0559,0.4846,0.4404,-0.3550,0.2260,-0.5797,0.7050,
12.604861,0.0769,1.0340,-0.0178,0.4846,0.4404,-0.3550,0.2260,-0.5797,0.7050,
12.608347,-0.1025,1.0543,0.0933,0.4846,0.4404,-0.3550,0.2260,-0.5797,0.7050,
12.610289,-0.1201,0.9613,0.1621,0.4846,0.4404,-0.3550,0.2260,-0.5797,0.7050,
12.611731,-0.1201,0.9613,0.1621,-1.0889,0.3101,0.8157,0.2260,-0.5797,0.7050,
12.613755,-0.1201,0.9613,0.1621,-1.0889,0.3101,0.8157,0.2506,-0.0788,0.4468,
12.661715,-0.0400,0.9544,0.1758,-1.0889,0.3101,0.8157,0.2506,-0.0788,0.4468,
12.663372,0.0237,0.9867,0.1196,-1.0889,0.3101,0.8157,0.2506,-0.0788,0.4468,
12.664010,0.0869,0.9818,0.0410,-1.0889,0.3101,0.8157,0.2506,-0.0788,0.4468,
12.664614,0.0869,0.9818,0.0410,-1.0889,0.3101,0.8157,0.5192,-0.3435,0.7276,
12.665255,0.0869,0.9818,0.0410,-0.7739,-0.0624,1.4230,0.5192,-0.3435,0.7276,
12.722007,0.1074,0.9798,-0.0606,-0.7739,-0.0624,1.4230,0.5192,-0.3435,0.7276,
12.725564,0.0852,0.9886,-0.0569,-0.7739,-0.0624,1.4230,0.5192,-0.3435,0.7276,
12.727473,0.0571,0.9942,-0.0132,-0.7739,-0.0624,1.4230,0.5192,-0.3435,0.7276,
12.729551,0.0571,0.9942,-0.0132,-0.7739,-0.0624,1.4230,0.6296,-0.2584,0.7968,
12.731606,0.0571,0.9942,-0.0132,-0.6158,0.1409,0.2627,0.6296,-0.2584,0.7968,
12.779997,0.1699,1.0008,-0.0332,-0.6158,0.1409,0.2627,0.6296,-0.2584,0.7968,
12.783266,0.2012,1.0204,-0.0813,-0.6158,0.1409,0.2627,0.6296,-0.2584,0.7968,
12.785274,0.0581,1.0209,-0.0659,-0.6158,0.1409,0.2627,0.6296,-0.2584,0.7968,
12.787088,0.0581,1.0209,-0.0659,-0.6158,0.1409,0.2627,0.6109,-0.2867,0.8540,
12.789350,0.0581,1.0209,-0.0659,-0.4791,0.5053,0.4578,0.6109,-0.2867,0.8540,
12.839223,0.0654,1.0116,-0.0630,-0.4791,0.5053,0.4578,0.6109,-0.2867,0.8540,
12.842558,0.1331,1.0348,-0.1008,-0.4791,0.5053,0.4578,0.6109,-0.2867,0.8540,
12.844695,0.1470,1.0580,-0.1289,-0.4791,0.5053,0.4578,0.6109,-0.2867,0.8540,
12.846087,0.1470,1.0580,-0.1289,-0.4791,0.5053,0.4578,0.6795,-0.5622,0.9974,
12.848188,0.1470,1.0580,-0.1289,-1.2336,0.8683,0.5230,0.6795,-0.5622,0.9974,
12.896391,0.1543,1.0519,-0.1040,-1.2336,0.8683,0.5230,0.6795,-0.5622,0.9974,
12.899484,0.1055,1.0836,-0.0921,-1.2336,0.8683,0.5230,0.6795,-0.5622,0.9974,
12.900338,0.0330,1.1378,-0.1243,-1.2336,0.8683,0.5230,0.6795,-0.5622,0.9974,
12.901031,0.0330,1.1378,-0.1243,-1.2336,0.8683,0.5230,0.8165,-0.6371,1.2468,
12.901903,0.0330,1.1378,-0.1243,-1.9722,1.6689,0.9509,0.8165,-0.6371,1.2468,
12.956655,0.0273,1.1625,-0.1602,-1.9722,1.6689,0.9509,0.8165,-0.6371,1.2468,
12.962420,0.0703,1.1476,-0.1485,-1.9722,1.6689,0.9509,0.8165,-0.6371,1.2468,
12.964447,0.0532,1.1964,-0.1707,-1.9722,1.6689,0.9509,0.8165,-0.6371,1.2468,
12.966086,0.0532,1.1964,-0.1707,-3.0998,2.8605,1.1860,0.8165,-0.6371,1.2468,
12.968171,0.0532,1.1964,-0.1707,-3.0998,2.8605,1.1860,1.2252,-0.7621,1.6030,
13.018371,-0.0974,1.5031,0.0630,-3.0998,2.8605,1.1860,1.2252,-0.7621,1.6030,
13.020824,-0.5565,1.7389,0.1113,-3.0998,2.8605,1.1860,1.2252,-0.7621,1.6030,
13.022824,-0.9855,1.7082,0.0823,-3.0998,2.8605,1.1860,1.2252,-0.7621,1.6030,
13.024887,-0.9855,1.7082,0.0823,-3.0998,2.8605,1.1860,1.7477,-1.0429,1.8487,
13.026942,-0.9855,1.7082,0.0823,-9.4750,8.2000,4.5915,1.7477,-1.0429,1.8487,
13.070910,-1.0885,1.6525,0.0266,-9.4750,8.2000,4.5915,1.7477,-1.0429,1.8487,
13.073207,-0.3269,1.2325,-0.1826,-9.4750,8.2000,4.5915,1.7477,-1.0429,1.8487,
13.074243,0.7618,1.2872,-0.6280,-9.4750,8.2000,4.5915,1.7477,-1.0429,1.8487,
13.075262,0.7618,1.2872,-0.6280,-9.4750,8.2000,4.5915,1.8582,-2.6432,2.9859,
13.076361,0.7618,1.2872,-0.6280,-6.7213,6.8047,2.6367,1.8582,-2.6432,2.9859,
13.130550,1.3888,1.3544,-0.4510,-6.7213,6.8047,2.6367,1.8582,-2.6432,2.9859,
13.134522,0.8172,1.0336,-0.3794,-6.7213,6.8047,2.6367,1.8582,-2.6432,2.9859,
13.135978,0.4463,0.6141,-0.4778,-6.7213,6.8047,2.6367,1.8582,-2.6432,2.9859,
13.138002,0.4463,0.6141,-0.4778,3.5867,4.0660,1.8025,1.8582,-2.6432,2.9859,
13.139848,0.4463,0.6141,-0.4778,3.5867,4.0660,1.8025,1.5561,-1.2274,2.2784,
13.189728,0.4183,0.4778,-0.6219,3.5867,4.0660,1.8025,1.5561,-1.2274,2.2784,
13.194367,0.3660,0.4046,-0.4283,3.5867,4.0660,1.8025,1.5561,-1.2274,2.2784,
13.196298,0.2266,0.2661,-0.0776,3.5867,4.0660,1.8025,1.5561,-1.2274,2.2784,
13.197927,0.2266,0.2661,-0.0776,3.5867,4.0660,1.8025,-0.9249,-0.0904,0.1607,
13.200262,0.2266,0.2661,-0.0776,-1.7634,-2.2251,2.0700,-0.9249,-0.0904,0.1607,
13.247953,0.2266,0.2661,-0.0776,-4.2956,-4.6516,3.4878,-0.9249,-0.0904,0.1607,
13.251969,0.0063,0.1677,0.0457,-4.2956,-4.6516,3.4878,-0.9249,-0.0904,0.1607,
13.253704,-0.0488,0.2102,-0.1416,-4.2956,-4.6516,3.4878,-0.9249,-0.0904,0.1607,
13.254950,0.0227,0.3929,-0.3001,-4.2956,-4.6516,3.4878,-0.9249,-0.0904,0.1607,
13.256733,0.0227,0.3929,-0.3001,-4.2956,-4.6516,3.4878,-2.3633,0.0108,-1.9688,
13.305010,0.1235,0.5108,-0.3062,-4.2956,-4.6516,3.4878,-2.3633,0.0108,-1.9688,
13.308898,0.1279,0.5757,-0.3035,-4.2956,-4.6516,3.4878,-2.3633,0.0108,-1.9688,
13.311169,0.1209,0.6092,-0.3040,-4.2956,-4.6516,3.4878,-2.3633,0.0108,-1.9688,
13.313812,0.1209,0.6092,-0.3040,-1.3561,-3.0469,0.2992,-2.3633,0.0108,-1.9688,
13.316114,0.1209,0.6092,-0.3040,-1.3561,-3.0469,0.2992,-3.5337,-0.7516,-3.1474,
13.364481,0.1287,0.7071,-0.3247,-1.3561,-3.0469,0.2992,-3.5337,-0.7516,-3.1474,
13.369790,0.0742,0.9161,-0.3194,-1.3561,-3.0469,0.2992,-3.5337,-0.7516,-3.1474,
13.373377,0.0505,1.2628,-0.4336,-1.3561,-3.0469,0.2992,-3.5337,-0.7516,-3.1474,
13.375975,0.0505,1.2628,-0.4336,-1.3561,-3.0469,0.2992,-4.4319,-1.2590,-4.1873,
13.378616,0.0505,1.2628,-0.4336,0.6334,-0.0604,-2.4563,-4.4319,-1.2590,-4.1873,
13.421039,0.2913,1.7607,-0.7369,0.6334,-0.0604,-2.4563,-4.4319,-1.2590,-4.1873,
13.423955,0.5398,1.8986,-0.7535,0.6334,-0.0604,-2.4563,-4.4319,-1.2590,-4.1873,
13.425795,0.7625,1.5695,-0.6339,0.6334,-0.0604,-2.4563,-4.4319,-1.2590,-4.1873,
13.427651,0.7625,1.5695,-0.6339,0.6334,-0.0604,-2.4563,-4.7782,0.0269,-4.1199,
13.429859,0.7625,1.5695,-0.6339,7.1757,7.7616,-8.3486,-4.7782,0.0269,-4.1199,
13.479728,1.0880,1.1232,-0.5308,7.1757,7.7616,-8.3486,-4.7782,0.0269,-4.1199,
13.482075,0.8206,1.0084,-0.4642,7.1757,7.7616,-8.3486,-4.7782,0.0269,-4.1199,
13.483070,0.6243,0.9291,-0.6610,7.1757,7.7616,-8.3486,-4.7782,0.0269,-4.1199,
13.484068,0.6243,0.9291,-0.6610,7.1757,7.7616,-8.3486,-2.5143,1.7436,-1.8578,
13.485221,0.6243,0.9291,-0.6610,11.2553,1.2243,-7.7358,-2.5143,1.7436,-1.8578,
13.537988,0.8978,0.7721,-0.7464,11.2553,1.2243,-7.7358,-2.5143,1.7436,-1.8578,
13.542522,0.7144,1.0221,-1.0384,11.2553,1.2243,-7.7358,-2.5143,1.7436,-1.8578,
13.544774,-0.9493,1.7621,0.3948,11.2553,1.2243,-7.7358,-2.5143,1.7436,-1.8578,
13.546993,-0.9493,1.7621,0.3948,4.7554,2.5472,-6.0695,-2.5143,1.7436,-1.8578,
13.551054,-0.9493,1.7621,0.3948,4.7554,2.5472,-6.0695,0.3341,3.0171,1.3097,
13.596175,-2.8536,1.6952,0.9337,4.7554,2.5472,-6.0695,0.3341,3.0171,1.3097,
13.601145,-0.6619,1.5685,-0.2322,4.7554,2.5472,-6.0695,0.3341,3.0171,1.3097,
13.602240,0.7442,1.0375,-1.1505,4.7554,2.5472,-6.0695,0.3341,3.0171,1.3097,
13.603153,0.7442,1.0375,-1.1505,4.7554,2.5472,-6.0695,1.1356,1.7599,1.4610,
13.604027,0.7442,1.0375,-1.1505,-7.0088,4.6372,-2.1104,1.1356,1.7599,1.4610,
13.653184,0.6947,0.7696,0.0225,-7.0088,4.6372,-2.1104,1.1356,1.7599,1.4610,
13.654302,0.2271,0.6859,0.5044,-7.0088,4.6372,-2.1104,1.1356,1.7599,1.4610,
13.654878,-0.0398,1.0563,0.0239,-7.0088,4.6372,-2.1104,1.1356,1.7599,1.4610,
13.655492,-0.0398,1.0563,0.0239,3.8388,-1.3672,1.4769,1.1356,1.7599,1.4610,
13.656085,-0.0398,1.0563,0.0239,3.8388,-1.3672,1.4769,0.6023,0.0440,1.8471,
13.713460,0.0457,1.1605,-0.2659,3.8388,-1.3672,1.4769,0.6023,0.0440,1.8471,
13.716559,0.2405,1.0565,-0.2427,3.8388,-1.3672,1.4769,0.6023,0.0440,1.8471,
13.718706,-0.0803,1.0592,-0.0254,3.8388,-1.3672,1.4769,0.6023,0.0440,1.8471,
13.720605,-0.0803,1.0592,-0.0254,3.8388,-1.3672,1.4769,0.3844,-0.1637,0.9070,
13.722665,-0.0803,1.0592,-0.0254,1.1022,1.0699,-1.8265,0.3844,-0.1637,0.9070,
13.771465,-0.2346,1.0062,0.0684,1.1022,1.0699,-1.8265,0.3844,-0.1637,0.9070,
13.775040,-0.0374,0.9708,0.1865,1.1022,1.0699,-1.8265,0.3844,-0.1637,0.9070,
13.776899,-0.0649,0.9955,0.1973,1.1022,1.0699,-1.8265,0.3844,-0.1637,0.9070,
13.778878,-0.0649,0.9955,0.1973,1.1022,1.0699,-1.8265,0.3221,0.1053,0.7039,
13.779684,-0.0649,0.9955,0.1973,-1.0491,0.0672,1.5507,0.3221,0.1053,0.7039,
13.830848,-0.1304,0.9608,0.1721,-1.0491,0.0672,1.5507,0.3221,0.1053,0.7039,
13.835302,-0.0044,0.9391,0.1116,-1.0491,0.0672,1.5507,0.3221,0.1053,0.7039,
13.837658,0.0513,0.9723,0.0637,-1.0491,0.0672,1.5507,0.3221,0.1053,0.7039,
13.839563,0.0513,0.9723,0.0637,-1.0491,0.0672,1.5507,0.6245,-0.3339,0.9491,
13.840477,0.0513,0.9723,0.0637,-0.7368,-0.2357,1.5384,0.6245,-0.3339,0.9491,
13.889930,0.0513,0.9723,0.0637,-0.6832,0.1977,0.8902,0.6245,-0.3339,0.9491,
13.893304,-0.0107,1.0145,0.0195,-0.6832,0.1977,0.8902,0.6245,-0.3339,0.9491,
13.894928,0.0283,0.9984,0.0100,-0.6832,0.1977,0.8902,0.6245,-0.3339,0.9491,
13.896551,0.0903,0.9691,-0.0215,-0.6832,0.1977,0.8902,0.6245,-0.3339,0.9491,
13.898146,0.0903,0.9691,-0.0215,-0.6832,0.1977,0.8902,0.8259,-0.3131,1.0636,
13.946804,0.0603,0.9840,-0.0230,-0.6832,0.1977,0.8902,0.8259,-0.3131,1.0636,
13.951146,0.0601,0.9884,-0.0740,-0.6832,0.1977,0.8902,0.8259,-0.3131,1.0636,
13.953000,0.1526,1.0262,-0.1858,-0.6832,0.1977,0.8902,0.8259,-0.3131,1.0636,
13.954789,0.1526,1.0262,-0.1858,-0.6832,0.1977,0.8902,0.9635,-0.4818,1.1741,
13.956411,0.1526,1.0262,-0.1858,-0.7473,0.4018,0.5021,0.9635,-0.4818,1.1741,
14.005844,0.2027,1.0228,-0.2515,-0.7473,0.4018,0.5021,0.9635,-0.4818,1.1741,
14.010146,0.1619,1.0431,-0.2422,-0.7473,0.4018,0.5021,0.9635,-0.4818,1.1741,
14.012221,0.1477,1.0309,-0.2266,-0.7473,0.4018,0.5021,0.9635,-0.4818,1.1741,
14.014776,0.1477,1.0309,-0.2266,-0.7473,0.4018,0.5021,0.9059,-0.5968,1.1784,
14.017009,0.1477,1.0309,-0.2266,-0.5352,0.9295,-0.3628,0.9059,-0.5968,1.1784,
14.065426,0.1201,1.0047,-0.2281,-0.5352,0.9295,-0.3628,0.9059,-0.5968,1.1784,
14.070497,0.0781,1.0582,-0.1824,-0.5352,0.9295,-0.3628,0.9059,-0.5968,1.1784,
14.072629,0.0662,1.1276,-0.1199,-0.5352,0.9295,-0.3628,0.9059,-0.5968,1.1784,
14.074412,0.0662,1.1276,-0.1199,-0.5352,0.9295,-0.3628,1.0835,-0.2101,1.1841,
14.076394,0.0662,1.1276,-0.1199,-1.9098,1.5281,0.8440,1.0835,-0.2101,1.1841,
14.121507,0.0200,1.1544,-0.0816,-1.9098,1.5281,0.8440,1.0835,-0.2101,1.1841,
14.124508,-0.0078,1.2868,-0.0562,-1.9098,1.5281,0.8440,1.0835,-0.2101,1.1841,
14.126116,-0.2017,1.6093,0.1438,-1.9098,1.5281,0.8440,1.0835,-0.2101,1.1841,
14.127346,-0.2017,1.6093,0.1438,-1.9098,1.5281,0.8440,1.5931,-0.3111,1.4303,
14.129071,-0.2017,1.6093,0.1438,-3.9909,4.7952,3.3975,1.5931,-0.3111,1.4303,
14.180200,-0.7645,1.8268,0.1568,-3.9909,4.7952,3.3975,1.5931,-0.3111,1.4303,
14.183246,-1.1561,1.7783,0.0891,-3.9909,4.7952,3.3975,1.5931,-0.3111,1.4303,
14.186108,-0.8726,1.5893,0.0342,-3.9909,4.7952,3.3975,1.5931,-0.3111,1.4303,
14.190312,-0.8726,1.5893,0.0342,-3.9909,4.7952,3.3975,2.2545,-1.1722,1.9316,
14.193087,-0.8726,1.5893,0.0342,-12.8990,9.3220,5.5045,2.2545,-1.1722,1.9316,
14.241221,-0.0217,1.3073,-0.2373,-12.8990,9.3220,5.5045,2.2545,-1.1722,1.9316,
14.245468,0.9999,1.4130,-0.5713,-12.8990,9.3220,5.5045,2.2545,-1.1722,1.9316,
14.247693,1.3952,1.2577,-0.4261,-12.8990,9.3220,5.5045,2.2545,-1.1722,1.9316,
14.251462,1.3952,1.2577,-0.4261,-12.8990,9.3220,5.5045,2.3586,-1.7422,3.1871,
14.255083,1.3952,1.2577,-0.4261,3.1815,6.7369,1.9031,2.3586,-1.7422,3.1871,
14.295784,0.7586,0.9688,-0.4866,3.1815,6.7369,1.9031,2.3586,-1.7422,3.1871,
14.297869,0.4021,0.5892,-0.4600,3.1815,6.7369,1.9031,2.3586,-1.7422,3.1871,
14.299543,0.2886,0.4334,-0.4344,3.1815,6.7369,1.9031,2.3586,-1.7422,3.1871,
14.301514,0.2886,0.4334,-0.4344,3.1815,6.7369,1.9031,1.0570,-0.1934,0.9548,
14.303206,0.2886,0.4334,-0.4344,-0.1006,0.8738,1.8107,1.0570,-0.1934,0.9548,
14.363410,0.1714,0.3157,-0.1340,-0.1006,0.8738,1.8107,1.0570,-0.1934,0.9548,
14.367355,0.1284,0.1648,0.0693,-0.1006,0.8738,1.8107,1.0570,-0.1934,0.9548,
14.369127,0.0918,0.1318,-0.0955,-0.1006,0.8738,1.8107,1.0570,-0.1934,0.9548,
14.370696,0.0918,0.1318,-0.0955,-0.1006,0.8738,1.8107,-1.3527,0.0340,-0.9985,
14.373269,0.0918,0.1318,-0.0955,-3.1634,-4.3100,5.2272,-1.3527,0.0340,-0.9985,
14.411447,0.0896,0.2151,-0.2459,-3.1634,-4.3100,5.2272,-1.3527,0.0340,-0.9985,
14.413068,0.1431,0.3264,-0.2727,-3.1634,-4.3100,5.2272,-1.3527,0.0340,-0.9985,
14.414076,0.2552,0.4183,-0.3152,-3.1634,-4.3100,5.2272,-1.3527,0.0340,-0.9985,
14.415275,0.2552,0.4183,-0.3152,-3.1634,-4.3100,5.2272,-2.5917,-0.4215,-2.4646,
14.416430,0.2552,0.4183,-0.3152,-1.6826,-4.4575,2.0273,-2.5917,-0.4215,-2.4646,
14.470990,0.2403,0.5103,-0.2771,-1.6826,-4.4575,2.0273,-2.5917,-0.4215,-2.4646,
14.473182,0.1853,0.5858,-0.2447,-1.6826,-4.4575,2.0273,-2.5917,-0.4215,-2.4646,
14.474166,0.2259,0.7376,-0.2349,-1.6826,-4.4575,2.0273,-2.5917,-0.4215,-2.4646,
14.475362,0.2259,0.7376,-0.2349,-1.6826,-4.4575,2.0273,-4.1784,-0.4687,-3.7591,
14.476393,0.2259,0.7376,-0.2349,0.7823,-2.9873,0.2941,-4.1784,-0.4687,-3.7591,
14.531537,0.2188,1.0572,-0.3638,0.7823,-2.9873,0.2941,-4.1784,-0.4687,-3.7591,
14.533719,0.3291,1.5978,-0.6241,0.7823,-2.9873,0.2941,-4.1784,-0.4687,-3.7591,
14.534838,0.5977,1.8647,-0.7928,0.7823,-2.9873,0.2941,-4.1784,-0.4687,-3.7591,
14.535913,0.5977,1.8647,-0.7928,0.7823,-2.9873,0.2941,-4.9151,-0.0808,-4.5518,
14.536950,0.5977,1.8647,-0.7928,4.8005,5.2552,-5.6208,-4.9151,-0.0808,-4.5518,
14.586713,0.7528,1.7512,-0.7603,4.8005,5.2552,-5.6208,-4.9151,-0.0808,-4.5518,
14.588566,1.0096,1.4650,-0.6688,4.8005,5.2552,-5.6208,-4.9151,-0.0808,-4.5518,
14.589730,1.1444,1.1632,-0.7008,4.8005,5.2552,-5.6208,-4.9151,-0.0808,-4.5518,
14.591025,1.1444,1.1632,-0.7008,4.8005,5.2552,-5.6208,-4.0491,1.3533,-3.5534,
14.592568,1.1444,1.1632,-0.7008,12.3497,5.3323,-8.6241,-4.0491,1.3533,-3.5534,
14.644625,0.8299,0.8836,-0.8258,12.3497,5.3323,-8.6241,-4.0491,1.3533,-3.5534,
14.645887,0.6309,0.7721,-0.7948,12.3497,5.3323,-8.6241,-4.0491,1.3533,-3.5534,
14.646378,0.5765,1.0865,-1.0150,12.3497,5.3323,-8.6241,-4.0491,1.3533,-3.5534,
14.647039,0.5765,1.0865,-1.0150,12.3497,5.3323,-8.6241,-0.6392,2.4920,0.1625,
14.648266,0.5765,1.0865,-1.0150,9.5218,0.0196,-9.9874,-0.6392,2.4920,0.1625,
14.703129,-0.8077,1.6789,0.2786,9.5218,0.0196,-9.9874,-0.6392,2.4920,0.1625,
14.704803,-2.7815,1.4582,1.0282,9.5218,0.0196,-9.9874,-0.6392,2.4920,0.1625,
14.705524,-0.7266,1.3185,-0.4339,9.5218,0.0196,-9.9874,-0.6392,2.4920,0.1625,
14.706145,-0.7266,1.3185,-0.4339,9.5218,0.0196,-9.9874,0.6801,3.0521,0.6250,
14.706708,-0.7266,1.3185,-0.4339,-11.1928,5.3880,2.2941,0.6801,3.0521,0.6250,
14.761374,0.6275,1.1571,-0.9742,-11.1928,5.3880,2.2941,0.6801,3.0521,0.6250,
14.762927,0.5411,0.8551,0.2339,-11.1928,5.3880,2.2941,0.6801,3.0521,0.6250,
14.763828,-0.1214,0.7576,0.0164,-11.1928,5.3880,2.2941,0.6801,3.0521,0.6250,
14.764839,-0.1214,0.7576,0.0164,-11.1928,5.3880,2.2941,1.0975,0.4675,2.3606,
14.767360,-0.1214,0.7576,0.0164,4.9688,-0.4369,-2.2064,1.0975,0.4675,2.3606,
14.820085,-0.1214,0.7576,0.0164,2.5772,0.6978,-1.0122,1.0975,0.4675,2.3606,
14.822072,0.0359,0.9867,-0.1416,2.5772,0.6978,-1.0122,1.0975,0.4675,2.3606,
14.822560,0.3296,1.1522,-0.2281,2.5772,0.6978,-1.0122,1.0975,0.4675,2.3606,
14.823283,0.1660,1.0057,-0.0669,2.5772,0.6978,-1.0122,1.0975,0.4675,2.3606,
14.823986,0.1660,1.0057,-0.0669,2.5772,0.6978,-1.0122,0.4455,-0.1663,1.2006,
14.877961,-0.2173,0.9537,-0.0200,2.5772,0.6978,-1.0122,0.4455,-0.1663,1.2006,
14.879510,-0.1890,1.0756,0.0264,2.5772,0.6978,-1.0122,0.4455,-0.1663,1.2006,
14.881266,-0.0554,1.0079,0.1460,2.5772,0.6978,-1.0122,0.4455,-0.1663,1.2006,
14.884621,-0.0554,1.0079,0.1460,2.5772,0.6978,-1.0122,0.3254,0.4926,0.7565,
14.885901,-0.0554,1.0079,0.1460,-1.0874,0.3236,1.0909,0.3254,0.4926,0.7565,
14.937779,0.0125,0.9122,0.0715,-1.0874,0.3236,1.0909,0.3254,0.4926,0.7565,
14.938961,0.0444,0.9664,-0.0603,-1.0874,0.3236,1.0909,0.3254,0.4926,0.7565,
14.939656,0.0151,0.9908,-0.0908,-1.0874,0.3236,1.0909,0.3254,0.4926,0.7565,
14.940251,0.0151,0.9908,-0.0908,0.1905,-0.2093,0.5949,0.3254,0.4926,0.7565,
14.940930,0.0151,0.9908,-0.0908,0.1905,-0.2093,0.5949,0.4830,0.0330,0.8245,
14.994427,-0.0803,0.9928,-0.0386,0.1905,-0.2093,0.5949,0.4830,0.0330,0.8245,
14.995545,-0.0671,0.9818,-0.0591,0.1905,-0.2093,0.5949,0.4830,0.0330,0.8245,
14.996137,0.0237,0.9842,-0.0811,0.1905,-0.2093,0.5949,0.4830,0.0330,0.8245,
14.997390,0.0237,0.9842,-0.0811,-0.8649,0.1298,0.6106,0.4830,0.0330,0.8245,
14.998420,0.0237,0.9842,-0.0811,-0.8649,0.1298,0.6106,0.6251,-0.0708,0.7797,
15.053751,0.1277,0.9757,-0.1013,-0.8649,0.1298,0.6106,0.6251,-0.0708,0.7797,
15.055053,0.2163,0.9422,-0.1433,-0.8649,0.1298,0.6106,0.6251,-0.0708,0.7797,
15.055746,0.2166,0.9469,-0.1611,-0.8649,0.1298,0.6106,0.6251,-0.0708,0.7797,
15.056449,0.2166,0.9469,-0.1611,-0.8649,0.1298,0.6106,0.6581,-0.3225,0.7453,
15.057138,0.2166,0.9469,-0.1611,0.9678,-0.0941,0.2422,0.6581,-0.3225,0.7453,
15.111375,0.1065,0.9684,-0.1314,0.9678,-0.0941,0.2422,0.6581,-0.3225,0.7453,
15.112767,-0.0081,0.9772,-0.1238,0.9678,-0.0941,0.2422,0.6581,-0.3225,0.7453,
15.113389,-0.0459,0.9811,-0.1389,0.9678,-0.0941,0.2422,0.6581,-0.3225,0.7453,
15.113952,-0.0459,0.9811,-0.1389,0.9678,-0.0941,0.2422,0.6695,-0.1205,0.5470,
15.116345,-0.0459,0.9811,-0.1389,-0.9637,0.2049,0.6436,0.6695,-0.1205,0.5470,
15.170225,0.0037,0.9740,-0.1516,-0.9637,0.2049,0.6436,0.6695,-0.1205,0.5470,
15.171596,0.0549,0.9654,-0.0955,-0.9637,0.2049,0.6436,0.6695,-0.1205,0.5470,
15.172242,0.0977,0.9400,-0.0342,-0.9637,0.2049,0.6436,0.6695,-0.1205,0.5470,
15.172886,0.0977,0.9400,-0.0342,-0.9912,0.2183,1.4814,0.6695,-0.1205,0.5470,
15.173552,0.0977,0.9400,-0.0342,-0.9912,0.2183,1.4814,0.8202,-0.6463,0.8622,
15.231901,0.0977,0.9725,0.0696,-0.9912,0.2183,1.4814,0.8202,-0.6463,0.8622,
15.232640,0.0474,1.1163,-0.0320,-0.9912,0.2183,1.4814,0.8202,-0.6463,0.8622,
15.233176,0.1216,1.1603,-0.2617,-0.9912,0.2183,1.4814,0.8202,-0.6463,0.8622,
15.233862,0.1216,1.1603,-0.2617,-0.9912,0.2183,1.4814,1.2820,-1.0633,1.1633,
15.234261,0.1216,1.1603,-0.2617,-1.0525,1.7227,2.4099,1.2820,-1.0633,1.1633,
15.286292,0.2066,1.2404,-0.3250,-1.0525,1.7227,2.4099,1.2820,-1.0633,1.1633,
15.288163,0.3589,1.4967,-0.1839,-1.0525,1.7227,2.4099,1.2820,-1.0633,1.1633,
15.288860,0.3575,1.4674,-0.1843,-1.0525,1.7227,2.4099,1.2820,-1.0633,1.1633,
15.289519,0.3575,1.4674,-0.1843,0.6155,5.1861,1.6236,1.2820,-1.0633,1.1633,
15.290173,0.3575,1.4674,-0.1843,0.6155,5.1861,1.6236,1.2378,-1.1627,1.3932,
15.344866,0.2295,1.2025,-0.2447,0.6155,5.1861,1.6236,1.2378,-1.1627,1.3932,
15.346125,0.3470,1.0338,-0.1741,0.6155,5.1861,1.6236,1.2378,-1.1627,1.3932,
15.346901,0.2820,0.9115,-0.2476,0.6155,5.1861,1.6236,1.2378,-1.1627,1.3932,
15.347549,0.2820,0.9115,-0.2476,0.6155,5.1861,1.6236,0.0328,-2.5161,1.9397,
15.349829,0.2820,0.9115,-0.2476,0.0624,1.9990,2.0754,0.0328,-2.5161,1.9397,
15.402941,-0.0061,0.7852,-0.3943,0.0624,1.9990,2.0754,0.0328,-2.5161,1.9397,
15.404200,-0.2083,0.6783,-0.4793,0.0624,1.9990,2.0754,0.0328,-2.5161,1.9397,
15.404870,-0.2932,0.6361,-0.6715,0.0624,1.9990,2.0754,0.0328,-2.5161,1.9397,
15.406261,-0.2932,0.6361,-0.6715,-4.2370,-1.4605,-0.8411,0.0328,-2.5161,1.9397,
15.407247,-0.2932,0.6361,-0.6715,-4.2370,-1.4605,-0.8411,-1.7675,-4.9981,2.3826,
15.462549,-0.2583,0.6070,-0.7623,-4.2370,-1.4605,-0.8411,-1.7675,-4.9981,2.3826,
15.463457,-0.3494,0.6043,-0.8797,-4.2370,-1.4605,-0.8411,-1.7675,-4.9981,2.3826,
15.463883,-0.5127,0.6859,-0.8932,-4.2370,-1.4605,-0.8411,-1.7675,-4.9981,2.3826,
15.464293,-0.5127,0.6859,-0.8932,-4.2370,-1.4605,-0.8411,-2.5850,-6.1618,2.2598,
15.464789,-0.5127,0.6859,-0.8932,-5.8052,-2.3686,-4.4063,-2.5850,-6.1618,2.2598,
15.519578,-0.5960,0.7569,-0.9330,-5.8052,-2.3686,-4.4063,-2.5850,-6.1618,2.2598,
15.520768,-0.5670,0.7476,-0.9427,-5.8052,-2.3686,-4.4063,-2.5850,-6.1618,2.2598,
15.521429,-0.4874,0.7225,-0.9420,-5.8052,-2.3686,-4.4063,-2.5850,-6.1618,2.2598,
15.522031,-0.4874,0.7225,-0.9420,-5.8052,-2.3686,-4.4063,-2.2195,-6.3371,1.1256,
15.522541,-0.4874,0.7225,-0.9420,-6.6461,-1.6150,-5.7017,-2.2195,-6.3371,1.1256,
15.577640,-0.4060,0.7301,-0.8853,-6.6461,-1.6150,-5.7017,-2.2195,-6.3371,1.1256,
15.579631,-0.3091,0.7816,-0.7994,-6.6461,-1.6150,-5.7017,-2.2195,-6.3371,1.1256,
15.580587,-0.2654,0.8614,-0.6888,-6.6461,-1.6150,-5.7017,-2.2195,-6.3371,1.1256,
15.581462,-0.2654,0.8614,-0.6888,-3.4157,-1.4754,-4.9869,-2.2195,-6.3371,1.1256,
15.582790,-0.2654,0.8614,-0.6888,-3.4157,-1.4754,-4.9869,-2.0265,-5.4744,0.0298,
15.636745,-0.2654,0.8614,-0.6888,-0.8169,-0.6550,-3.8240,-2.0265,-5.4744,0.0298,
15.638780,-0.2495,0.9002,-0.5897,-0.8169,-0.6550,-3.8240,-2.0265,-5.4744,0.0298,
15.639838,-0.1370,0.8917,-0.5875,-0.8169,-0.6550,-3.8240,-2.0265,-5.4744,0.0298,
15.640900,-0.0996,0.8988,-0.5308,-0.8169,-0.6550,-3.8240,-2.0265,-5.4744,0.0298,
15.641820,-0.0996,0.8988,-0.5308,-0.8169,-0.6550,-3.8240,-1.8489,-4.4866,-0.6902,
15.694210,-0.0825,0.9046,-0.4075,-0.8169,-0.6550,-3.8240,-1.8489,-4.4866,-0.6902,
15.697074,-0.0679,0.9586,-0.3550,-0.8169,-0.6550,-3.8240,-1.8489,-4.4866,-0.6902,
15.698056,-0.0303,0.9466,-0.2801,-0.8169,-0.6550,-3.8240,-1.8489,-4.4866,-0.6902,
15.699199,-0.0303,0.9466,-0.2801,-0.8169,-0.6550,-3.8240,-1.2873,-3.3917,-1.0537,
15.700329,-0.0303,0.9466,-0.2801,1.0014,-0.2836,-2.5503,-1.2873,-3.3917,-1.0537,
15.752498,0.0369,0.9312,-0.1519,1.0014,-0.2836,-2.5503,-1.2873,-3.3917,-1.0537,
15.753820,0.1260,0.9620,-0.1250,1.0014,-0.2836,-2.5503,-1.2873,-3.3917,-1.0537,
15.754405,0.2185,0.8973,-0.1370,1.0014,-0.2836,-2.5503,-1.2873,-3.3917,-1.0537,
15.755160,0.2185,0.8973,-0.1370,3.1446,-0.3124,-1.2889,-1.2873,-3.3917,-1.0537,
15.759033,0.2185,0.8973,-0.1370,3.1446,-0.3124,-1.2889,-0.6880,-4.0977,-0.4703,
15.811284,0.3101,0.8492,-0.1550,3.1446,-0.3124,-1.2889,-0.6880,-4.0977,-0.4703,
15.812459,0.3787,0.8734,-0.2803,3.1446,-0.3124,-1.2889,-0.6880,-4.0977,-0.4703,
15.813408,0.5552,0.8597,-0.4227,3.1446,-0.3124,-1.2889,-0.6880,-4.0977,-0.4703,
15.814134,0.5552,0.8597,-0.4227,5.5605,-1.0263,-3.0879,-0.6880,-4.0977,-0.4703,
15.815169,0.5552,0.8597,-0.4227,5.5605,-1.0263,-3.0879,0.1647,-4.6967,0.4675,
15.870328,0.4822,0.9247,-0.1480,5.5605,-1.0263,-3.0879,0.1647,-4.6967,0.4675,
15.872031,-0.1106,1.0560,0.5611,5.5605,-1.0263,-3.0879,0.1647,-4.6967,0.4675,
15.872569,-0.1904,1.4010,0.7638,5.5605,-1.0263,-3.0879,0.1647,-4.6967,0.4675,
15.873246,-0.1904,1.4010,0.7638,5.5605,-1.0263,-3.0879,-0.3517,-1.2645,0.3759,
15.874166,-0.1904,1.4010,0.7638,1.8226,1.5385,3.2055,-0.3517,-1.2645,0.3759,
15.927843,0.1533,1.5590,0.2234,1.8226,1.5385,3.2055,-0.3517,-1.2645,0.3759,
15.929389,-0.3841,1.2545,-0.1499,1.8226,1.5385,3.2055,-0.3517,-1.2645,0.3759,
15.930276,-0.6075,0.8851,0.1392,1.8226,1.5385,3.2055,-0.3517,-1.2645,0.3759,
15.931092,-0.6075,0.8851,0.1392,1.8226,1.5385,3.2055,0.0859,1.1794,0.3851,
15.931920,-0.6075,0.8851,0.1392,-1.6527,2.5030,0.1767,0.0859,1.1794,0.3851,
15.985776,-0.4180,0.8004,0.1914,-1.6527,2.5030,0.1767,0.0859,1.1794,0.3851,
15.987259,-0.0107,1.0218,-0.0273,-1.6527,2.5030,0.1767,0.0859,1.1794,0.3851,
15.987792,0.2786,1.0560,-0.0183,-1.6527,2.5030,0.1767,0.0859,1.1794,0.3851,
15.988395,0.2786,1.0560,-0.0183,-1.6527,2.5030,0.1767,0.1499,-0.3972,1.0587,
15.989075,0.2786,1.0560,-0.0183,-0.0088,-0.2259,0.0273,0.1499,-0.3972,1.0587,
16.044638,0.2012,0.9432,0.1900,-0.0088,-0.2259,0.0273,0.1499,-0.3972,1.0587,
16.045538,0.0156,0.9923,0.1782,-0.0088,-0.2259,0.0273,0.1499,-0.3972,1.0587,
16.046119,-0.0610,1.0934,0.0786,-0.0088,-0.2259,0.0273,0.1499,-0.3972,1.0587,
16.046670,-0.0610,1.0934,0.0786,-0.0088,-0.2259,0.0273,0.1415,-0.3924,0.8263,
16.047208,-0.0610,1.0934,0.0786,0.5081,0.2469,1.0669,0.1415,-0.3924,0.8263,
16.103067,-0.0986,1.0614,0.0349,0.5081,0.2469,1.0669,0.1415,-0.3924,0.8263,
16.104717,-0.0210,0.9950,0.0310,0.5081,0.2469,1.0669,0.1415,-0.3924,0.8263,
16.105354,0.0537,1.0113,0.0386,0.5081,0.2469,1.0669,0.1415,-0.3924,0.8263,
16.106039,0.0537,1.0113,0.0386,0.5081,0.2469,1.0669,0.3362,-0.3030,0.7068,
16.106666,0.0537,1.0113,0.0386,-0.6090,0.3700,0.1389,0.3362,-0.3030,0.7068,
16.161162,0.0354,1.0314,0.0374,-0.6090,0.3700,0.1389,0.3362,-0.3030,0.7068,
16.162132,0.0093,0.9845,0.1118,-0.6090,0.3700,0.1389,0.3362,-0.3030,0.7068,
16.162550,0.0686,0.9706,0.0857,-0.6090,0.3700,0.1389,0.3362,-0.3030,0.7068,
16.163237,0.0686,0.9706,0.0857,-0.3933,0.1232,0.8274,0.3362,-0.3030,0.7068,
16.164253,0.0686,0.9706,0.0857,-0.3933,0.1232,0.8274,0.4864,-0.0951,0.6679,
16.219506,0.1150,1.0035,-0.0146,-0.3933,0.1232,0.8274,0.4864,-0.0951,0.6679,
16.220988,0.0933,1.0194,-0.0232,-0.3933,0.1232,0.8274,0.4864,-0.0951,0.6679,
16.221738,0.0701,1.0003,-0.0818,-0.3933,0.1232,0.8274,0.4864,-0.0951,0.6679,
16.222477,0.0701,1.0003,-0.0818,-0.3933,0.1232,0.8274,0.5200,-0.2439,0.6435,
16.223631,0.0701,1.0003,-0.0818,-0.2082,0.2806,-0.0251,0.5200,-0.2439,0.6435,
16.277845,0.1360,1.0052,-0.0418,-0.2082,0.2806,-0.0251,0.5200,-0.2439,0.6435,
16.279195,0.1150,1.0043,0.0046,-0.2082,0.2806,-0.0251,0.5200,-0.2439,0.6435,
16.279727,0.0247,1.0033,0.0205,-0.2082,0.2806,-0.0251,0.5200,-0.2439,0.6435,
16.280252,0.0247,1.0033,0.0205,-0.2082,0.2806,-0.0251,0.4966,-0.3535,0.6488,
16.280848,0.0247,1.0033,0.0205,-0.5585,0.3051,0.6051,0.4966,-0.3535,0.6488,
16.335995,0.0671,1.0013,0.0081,-0.5585,0.3051,0.6051,0.4966,-0.3535,0.6488,
16.337239,0.1655,1.0255,-0.0056,-0.5585,0.3051,0.6051,0.4966,-0.3535,0.6488,
16.337824,0.1292,1.0145,-0.0591,-0.5585,0.3051,0.6051,0.4966,-0.3535,0.6488,
16.338367,0.1292,1.0145,-0.0591,-0.5585,0.3051,0.6051,0.6493,-0.2865,0.8060,
16.338961,0.1292,1.0145,-0.0591,-0.6969,0.5010,0.8468,0.6493,-0.2865,0.8060,
16.394540,0.1477,0.9984,-0.0698,-0.6969,0.5010,0.8468,0.6493,-0.2865,0.8060,
16.395656,0.1494,1.0238,-0.1035,-0.6969,0.5010,0.8468,0.6493,-0.2865,0.8060,
16.396179,0.2337,1.0299,-0.1370,-0.6969,0.5010,0.8468,0.6493,-0.2865,0.8060,
16.396648,0.2337,1.0299,-0.1370,-0.6969,0.5010,0.8468,0.7031,-0.3647,0.9591,
16.397288,0.2337,1.0299,-0.1370,-0.6308,0.6945,0.4395,0.7031,-0.3647,0.9591,
16.454908,0.2166,1.0497,-0.1206,-0.6308,0.6945,0.4395,0.7031,-0.3647,0.9591,
16.456009,0.1130,1.0433,-0.0818,-0.6308,0.6945,0.4395,0.7031,-0.3647,0.9591,
16.456492,0.0645,1.0795,-0.0789,-0.6308,0.6945,0.4395,0.7031,-0.3647,0.9591,
16.456990,0.0645,1.0795,-0.0789,-1.5882,1.3075,0.9906,0.7031,-0.3647,0.9591,
16.457535,0.0645,1.0795,-0.0789,-1.5882,1.3075,0.9906,0.7391,-0.5050,1.0996,
16.510740,0.0742,1.1146,-0.0989,-1.5882,1.3075,0.9906,0.7391,-0.5050,1.0996,
16.511867,0.0728,1.1134,-0.1384,-1.5882,1.3075,0.9906,0.7391,-0.5050,1.0996,
16.512463,0.1084,1.0987,-0.1885,-1.5882,1.3075,0.9906,0.7391,-0.5050,1.0996,
16.512968,0.1084,1.0987,-0.1885,-2.6887,2.2057,1.1981,0.7391,-0.5050,1.0996,
16.513965,0.1084,1.0987,-0.1885,-2.6887,2.2057,1.1981,1.1246,-0.6369,1.5050,
16.569626,0.0557,1.2001,-0.1961,-2.6887,2.2057,1.1981,1.1246,-0.6369,1.5050,
16.571155,-0.0593,1.5216,-0.0149,-2.6887,2.2057,1.1981,1.1246,-0.6369,1.5050,
16.571821,-0.5203,1.8425,0.1787,-2.6887,2.2057,1.1981,1.1246,-0.6369,1.5050,
16.572658,-0.5203,1.8425,0.1787,-2.6887,2.2057,1.1981,1.5605,-0.9236,1.7459,
16.573345,-0.5203,1.8425,0.1787,-5.8196,6.8072,3.3940,1.5605,-0.9236,1.7459,
16.627663,-0.9706,1.8095,0.2183,-5.8196,6.8072,3.3940,1.5605,-0.9236,1.7459,
16.629160,-0.9413,1.7158,0.0669,-5.8196,6.8072,3.3940,1.5605,-0.9236,1.7459,
16.629889,-0.2210,1.3566,-0.2539,-5.8196,6.8072,3.3940,1.5605,-0.9236,1.7459,
16.630583,-0.2210,1.3566,-0.2539,-5.8196,6.8072,3.3940,1.8328,-1.9637,2.5657,
16.631282,-0.2210,1.3566,-0.2539,-11.5311,8.8082,4.8428,1.8328,-1.9637,2.5657,
16.685826,0.8341,1.3275,-0.6133,-11.5311,8.8082,4.8428,1.8328,-1.9637,2.5657,
16.687257,1.2999,1.2352,-0.4971,-11.5311,8.8082,4.8428,1.8328,-1.9637,2.5657,
16.687923,0.7728,0.9239,-0.5845,-11.5311,8.8082,4.8428,1.8328,-1.9637,2.5657,
16.689329,0.7728,0.9239,-0.5845,-11.5311,8.8082,4.8428,1.8200,-2.1283,3.0973,
16.690151,0.7728,0.9239,-0.5845,4.3663,5.6016,0.4801,1.8200,-2.1283,3.0973,
16.744274,0.5313,0.5174,-0.7115,4.3663,5.6016,0.4801,1.8200,-2.1283,3.0973,
16.745678,0.5345,0.4466,-0.5933,4.3663,5.6016,0.4801,1.8200,-2.1283,3.0973,
16.746282,0.4849,0.2749,-0.3264,4.3663,5.6016,0.4801,1.8200,-2.1283,3.0973,
16.746802,0.4849,0.2749,-0.3264,4.3663,5.6016,0.4801,-0.4643,0.0978,0.7316,
16.747596,0.4849,0.2749,-0.3264,-0.3317,-1.6532,0.4949,-0.4643,0.0978,0.7316,
16.802496,0.1516,0.0916,-0.1006,-0.3317,-1.6532,0.4949,-0.4643,0.0978,0.7316,
16.803712,-0.1445,0.0356,-0.0603,-0.3317,-1.6532,0.4949,-0.4643,0.0978,0.7316,
16.804215,-0.1829,0.1709,-0.2146,-0.3317,-1.6532,0.4949,-0.4643,0.0978,0.7316,
16.804681,-0.1829,0.1709,-0.2146,-0.3317,-1.6532,0.4949,-2.3977,0.6750,-1.7318,
16.805413,-0.1829,0.1709,-0.2146,-5.4424,-5.8921,3.4489,-2.3977,0.6750,-1.7318,
16.860726,-0.1028,0.3499,-0.3494,-5.4424,-5.8921,3.4489,-2.3977,0.6750,-1.7318,
16.862283,-0.0681,0.4283,-0.2652,-5.4424,-5.8921,3.4489,-2.3977,0.6750,-1.7318,
16.862977,-0.0244,0.5196,-0.3597,-5.4424,-5.8921,3.4489,-2.3977,0.6750,-1.7318,
16.863654,-0.0244,0.5196,-0.3597,-5.4424,-5.8921,3.4489,-3.2938,-1.2468,-3.0211,
16.864314,-0.0244,0.5196,-0.3597,-3.8020,-4.0635,0.3043,-3.2938,-1.2468,-3.0211,
16.919262,-0.0566,0.6448,-0.4422,-3.8020,-4.0635,0.3043,-3.2938,-1.2468,-3.0211,
16.920727,-0.0210,0.7987,-0.4852,-3.8020,-4.0635,0.3043,-3.2938,-1.2468,-3.0211,
16.921371,0.1033,1.0077,-0.5765,-3.8020,-4.0635,0.3043,-3.2938,-1.2468,-3.0211,
16.921973,0.1033,1.0077,-0.5765,-3.8020,-4.0635,0.3043,-4.1209,-2.4840,-3.8291,
16.922663,0.1033,1.0077,-0.5765,-0.7070,-1.3414,-3.2339,-4.1209,-2.4840,-3.8291,
16.977484,0.3807,1.3204,-0.7091,-0.7070,-1.3414,-3.2339,-4.1209,-2.4840,-3.8291,
16.979305,0.4754,1.6779,-0.8182,-0.7070,-1.3414,-3.2339,-4.1209,-2.4840,-3.8291,
16.979959,0.3775,1.7480,-0.9234,-0.7070,-1.3414,-3.2339,-4.1209,-2.4840,-3.8291,
16.980623,0.3775,1.7480,-0.9234,-0.7070,-1.3414,-3.2339,-4.7951,-0.4671,-4.1246,
16.981274,0.3775,1.7480,-0.9234,5.4585,6.0423,-8.8107,-4.7951,-0.4671,-4.1246,
17.036168,0.5193,1.5380,-0.6954,5.4585,6.0423,-8.8107,-4.7951,-0.4671,-4.1246,
17.037612,0.8043,1.2655,-0.4017,5.4585,6.0423,-8.8107,-4.7951,-0.4671,-4.1246,
17.038723,0.8783,1.1100,-0.3675,5.4585,6.0423,-8.8107,-4.7951,-0.4671,-4.1246,
17.039492,0.8783,1.1100,-0.3675,5.4585,6.0423,-8.8107,-3.4761,1.7471,-3.1142,
17.040156,0.8783,1.1100,-0.3675,10.2992,4.0144,-7.0607,-3.4761,1.7471,-3.1142,
17.094214,0.6356,1.0035,-0.4961,10.2992,4.0144,-7.0607,-3.4761,1.7471,-3.1142,
17.095677,0.5638,0.8565,-0.5359,10.2992,4.0144,-7.0607,-3.4761,1.7471,-3.1142,
17.096279,0.5018,1.0756,-0.6378,10.2992,4.0144,-7.0607,-3.4761,1.7471,-3.1142,
17.096852,0.5018,1.0756,-0.6378,10.2992,4.0144,-7.0607,-0.0047,1.7003,0.4867,
17.097437,0.5018,1.0756,-0.6378,8.4948,0.7219,-7.2865,-0.0047,1.7003,0.4867,
17.152384,-0.7972,1.6047,0.5572,8.4948,0.7219,-7.2865,-0.0047,1.7003,0.4867,
17.153801,-2.5017,1.3710,1.0331,8.4948,0.7219,-7.2865,-0.0047,1.7003,0.4867,
17.154443,-0.5176,1.1549,-0.4122,8.4948,0.7219,-7.2865,-0.0047,1.7003,0.4867,
17.155097,-0.5176,1.1549,-0.4122,8.4948,0.7219,-7.2865,0.4659,1.8597,0.6822,
17.155630,-0.5176,1.1549,-0.4122,-9.5529,4.3958,2.5271,0.4659,1.8597,0.6822,
17.210844,0.5079,1.2428,-0.9339,-9.5529,4.3958,2.5271,0.4659,1.8597,0.6822,
17.211930,0.3160,1.1456,-0.1795,-9.5529,4.3958,2.5271,0.4659,1.8597,0.6822,
17.212441,0.0859,0.8531,0.2720,-9.5529,4.3958,2.5271,0.4659,1.8597,0.6822,
17.212892,0.0859,0.8531,0.2720,-9.5529,4.3958,2.5271,0.7102,0.6646,2.0949,
17.213433,0.0859,0.8531,0.2720,4.7172,1.1373,-3.5251,0.7102,0.6646,2.0949,
17.269259,0.0466,0.8619,0.2847,4.7172,1.1373,-3.5251,0.7102,0.6646,2.0949,
17.270626,-0.0376,1.0016,0.2595,4.7172,1.1373,-3.5251,0.7102,0.6646,2.0949,
17.271127,-0.1057,1.0731,0.0525,4.7172,1.1373,-3.5251,0.7102,0.6646,2.0949,
17.271646,-0.1057,1.0731,0.0525,4.7172,1.1373,-3.5251,0.4573,-0.1440,1.2613,
17.272146,-0.1057,1.0731,0.0525,0.7130,0.0207,1.3943,0.4573,-0.1440,1.2613,
17.327797,-0.0696,1.0157,-0.0596,0.7130,0.0207,1.3943,0.4573,-0.1440,1.2613,
17.329501,-0.0090,1.0194,0.1055,0.7130,0.0207,1.3943,0.4573,-0.1440,1.2613,
17.330265,-0.0374,0.9938,0.1189,0.7130,0.0207,1.3943,0.4573,-0.1440,1.2613,
17.331000,-0.0374,0.9938,0.1189,0.7130,0.0207,1.3943,0.4952,-0.1266,0.9894,
17.332246,-0.0374,0.9938,0.1189,0.0909,0.2623,0.2511,0.4952,-0.1266,0.9894,
17.386525,0.0195,0.9715,0.1392,0.0909,0.2623,0.2511,0.4952,-0.1266,0.9894,
17.388721,-0.0349,1.0086,0.0374,0.0909,0.2623,0.2511,0.4952,-0.1266,0.9894,
17.390092,-0.1797,1.0331,0.0205,0.0909,0.2623,0.2511,0.4952,-0.1266,0.9894,
17.391103,-0.1797,1.0331,0.0205,0.0909,0.2623,0.2511,0.6363,0.2662,0.8516,
17.393522,-0.1797,1.0331,0.0205,-0.6346,0.1926,0.7049,0.6363,0.2662,0.8516,
17.444948,-0.1372,1.0126,0.0713,-0.6346,0.1926,0.7049,0.6363,0.2662,0.8516,
17.446237,0.0439,0.9994,0.0183,-0.6346,0.1926,0.7049,0.6363,0.2662,0.8516,
17.447009,0.1282,0.9615,-0.0093,-0.6346,0.1926,0.7049,0.6363,0.2662,0.8516,
17.448421,0.1282,0.9615,-0.0093,-0.6346,0.1926,0.7049,0.7530,-0.2730,1.0471,
17.449697,0.1282,0.9615,-0.0093,-0.4587,0.0908,0.7404,0.7530,-0.2730,1.0471,
17.505291,0.0637,0.9662,0.0410,-0.4587,0.0908,0.7404,0.7530,-0.2730,1.0471,
17.508826,0.0193,0.9688,0.0144,-0.4587,0.0908,0.7404,0.7530,-0.2730,1.0471,
17.510691,0.0769,0.9664,-0.0266,-0.4587,0.0908,0.7404,0.7530,-0.2730,1.0471,
17.512362,0.0769,0.9664,-0.0266,-0.4587,0.0908,0.7404,0.8615,-0.3783,1.0536,
17.514191,0.0769,0.9664,-0.0266,-0.6126,-0.0541,1.0550,0.8615,-0.3783,1.0536,
17.562345,0.1260,0.9669,-0.0942,-0.6126,-0.0541,1.0550,0.8615,-0.3783,1.0536,
17.565590,0.1655,0.9877,-0.1553,-0.6126,-0.0541,1.0550,0.8615,-0.3783,1.0536,
17.566986,0.1670,1.0118,-0.1738,-0.6126,-0.0541,1.0550,0.8615,-0.3783,1.0536,
17.569065,0.1670,1.0118,-0.1738,-0.6126,-0.0541,1.0550,0.9668,-0.3903,1.1503,
17.576288,0.1670,1.0118,-0.1738,-0.2394,0.3195,0.1415,0.9668,-0.3903,1.1503,
17.619854,0.1719,1.0228,-0.2146,-0.2394,0.3195,0.1415,0.9668,-0.3903,1.1503,
17.621249,0.1211,1.0382,-0.2185,-0.2394,0.3195,0.1415,0.9668,-0.3903,1.1503,
17.621925,0.1121,1.0423,-0.1897,-0.2394,0.3195,0.1415,0.9668,-0.3903,1.1503,
17.622563,0.1121,1.0423,-0.1897,-0.2394,0.3195,0.1415,0.9417,-0.4595,1.1273,
17.623746,0.1121,1.0423,-0.1897,-0.9584,0.9824,0.0522,0.9417,-0.4595,1.1273,
17.678109,0.1839,1.0599,-0.1299,-0.9584,0.9824,0.0522,0.9417,-0.4595,1.1273,
17.680425,0.1262,1.1195,-0.0962,-0.9584,0.9824,0.0522,0.9417,-0.4595,1.1273,
17.681475,0.0486,1.1908,-0.1018,-0.9584,0.9824,0.0522,0.9417,-0.4595,1.1273,
17.682420,0.0486,1.1908,-0.1018,-1.7167,2.1827,1.6590,0.9417,-0.4595,1.1273,
17.683848,0.0486,1.1908,-0.1018,-1.7167,2.1827,1.6590,1.2321,-0.1794,1.2605,
17.735843,0.0024,1.2299,-0.0940,-1.7167,2.1827,1.6590,1.2321,-0.1794,1.2605,
17.737035,-0.0085,1.2499,-0.1880,-1.7167,2.1827,1.6590,1.2321,-0.1794,1.2605,
17.737515,-0.0418,1.4230,-0.2219,-1.7167,2.1827,1.6590,1.2321,-0.1794,1.2605,
17.737988,-0.0418,1.4230,-0.2219,-1.7167,2.1827,1.6590,1.7424,-0.4610,1.5294,
17.738761,-0.0418,1.4230,-0.2219,-3.6572,4.4613,2.0043,1.7424,-0.4610,1.5294,
17.794177,-0.3960,1.7187,-0.0610,-3.6572,4.4613,2.0043,1.7424,-0.4610,1.5294,
17.795369,-0.9400,1.8388,0.1404,-3.6572,4.4613,2.0043,1.7424,-0.4610,1.5294,
17.796131,-1.0079,1.7228,0.2110,-3.6572,4.4613,2.0043,1.7424,-0.4610,1.5294,
17.796866,-1.0079,1.7228,0.2110,-3.6572,4.4613,2.0043,2.1391,-0.4913,1.6844,
17.797580,-1.0079,1.7228,0.2110,-11.6128,9.6983,5.5934,2.1391,-0.4913,1.6844,
17.852834,-0.2178,1.3585,-0.0713,-11.6128,9.6983,5.5934,2.1391,-0.4913,1.6844,
17.855305,0.7684,1.3666,-0.4632,-11.6128,9.6983,5.5934,2.1391,-0.4913,1.6844,
17.856657,1.2020,1.2965,-0.2971,-11.6128,9.6983,5.5934,2.1391,-0.4913,1.6844,
17.857945,1.2020,1.2965,-0.2971,-11.6128,9.6983,5.5934,2.0857,-1.6937,2.9428,
17.859411,1.2020,1.2965,-0.2971,1.1014,6.8525,3.1441,2.0857,-1.6937,2.9428,
17.911102,0.6907,0.9674,-0.3462,1.1014,6.8525,3.1441,2.0857,-1.6937,2.9428,
17.912363,0.5013,0.6419,-0.5296,1.1014,6.8525,3.1441,2.0857,-1.6937,2.9428,
17.913145,0.4507,0.5313,-0.5855,1.1014,6.8525,3.1441,2.0857,-1.6937,2.9428,
17.913720,0.4507,0.5313,-0.5855,1.1014,6.8525,3.1441,1.0030,-0.4298,1.0627,
17.914338,0.4507,0.5313,-0.5855,0.5142,1.3358,1.5271,1.0030,-0.4298,1.0627,
17.970502,0.3101,0.3990,-0.2830,0.5142,1.3358,1.5271,1.0030,-0.4298,1.0627,
17.972627,0.1936,0.2149,-0.0261,0.5142,1.3358,1.5271,1.0030,-0.4298,1.0627,
17.974564,0.1514,0.1294,-0.0754,0.5142,1.3358,1.5271,1.0030,-0.4298,1.0627,
17.975963,0.1514,0.1294,-0.0754,-2.4688,-3.9457,4.3388,1.0030,-0.4298,1.0627,
17.978043,0.1514,0.1294,-0.0754,-2.4688,-3.9457,4.3388,-1.4455,0.4415,-1.0038,
18.030733,0.1514,0.1294,-0.0754,-2.2962,-4.2385,2.0627,-1.4455,0.4415,-1.0038,
18.035265,0.0483,0.2456,-0.1885,-2.2962,-4.2385,2.0627,-1.4455,0.4415,-1.0038,
18.036967,0.0962,0.3809,-0.2266,-2.2962,-4.2385,2.0627,-1.4455,0.4415,-1.0038,
18.039624,0.2129,0.4544,-0.2915,-2.2962,-4.2385,2.0627,-1.4455,0.4415,-1.0038,
18.042161,0.2129,0.4544,-0.2915,-2.2962,-4.2385,2.0627,-2.8153,0.0676,-2.7061,
18.088008,0.2066,0.5440,-0.2735,-2.2962,-4.2385,2.0627,-2.8153,0.0676,-2.7061,
18.092137,0.1533,0.6170,-0.2212,-2.2962,-4.2385,2.0627,-2.8153,0.0676,-2.7061,
18.094176,0.1214,0.7899,-0.2395,-2.2962,-4.2385,2.0627,-2.8153,0.0676,-2.7061,
18.096641,0.1214,0.7899,-0.2395,-2.2962,-4.2385,2.0627,-4.1694,-0.7275,-3.8702,
18.099050,0.1214,0.7899,-0.2395,0.1718,-2.7345,-0.0056,-4.1694,-0.7275,-3.8702,
18.151075,0.0874,1.0824,-0.3157,0.1718,-2.7345,-0.0056,-4.1694,-0.7275,-3.8702,
18.155036,0.2500,1.5551,-0.5726,0.1718,-2.7345,-0.0056,-4.1694,-0.7275,-3.8702,
