
time,gFx,gFy,gFz,ax,ay,az,wx,wy,wz,
0.058813,-0.1460,0.8702,0.4480,0.0000,0.0000,0.0000,0.0000,0.0000,0.0000,
0.059433,-0.1460,0.8702,0.4480,0.0000,0.0000,0.0000,0.0000,0.0000,0.0000,
0.059690,-0.1460,0.8702,0.4480,0.0000,0.0000,0.0000,0.0000,0.0000,0.0000,
0.059953,-0.1460,0.8702,0.4480,0.1581,0.0883,-0.0954,0.0000,0.0000,0.0000,
0.060396,-0.1460,0.8702,0.4480,0.1581,0.0883,-0.0954,-0.0996,-0.7269,-0.7976,
0.116574,-0.1460,0.8702,0.4480,0.0105,0.0779,-0.1065,-0.0996,-0.7269,-0.7976,
0.117721,-0.1445,0.8766,0.4366,0.0105,0.0779,-0.1065,-0.0996,-0.7269,-0.7976,
0.118486,-0.1582,0.8812,0.4295,0.0105,0.0779,-0.1065,-0.0996,-0.7269,-0.7976,
0.119005,-0.1770,0.8753,0.4329,0.0105,0.0779,-0.1065,-0.0996,-0.7269,-0.7976,
0.119678,-0.1770,0.8753,0.4329,0.0105,0.0779,-0.1065,0.1932,-0.1293,-0.0572,
0.174947,-0.1770,0.8753,0.4329,-0.1733,-0.1686,-0.0808,0.1932,-0.1293,-0.0572,
0.175944,-0.1787,0.8624,0.4344,-0.1733,-0.1686,-0.0808,0.1932,-0.1293,-0.0572,
0.176450,-0.1804,0.8526,0.4202,-0.1733,-0.1686,-0.0808,0.1932,-0.1293,-0.0572,
0.177025,-0.1892,0.8407,0.4156,-0.1733,-0.1686,-0.0808,0.1932,-0.1293,-0.0572,
0.177683,-0.1892,0.8407,0.4156,-0.1733,-0.1686,-0.0808,0.2246,-0.2087,-0.0702,
0.233733,-0.1892,0.8407,0.4156,0.0138,-0.4511,-0.1988,0.2246,-0.2087,-0.0702,
0.234624,-0.1704,0.8311,0.4087,0.0138,-0.4511,-0.1988,0.2246,-0.2087,-0.0702,
0.235132,-0.1543,0.8236,0.3941,0.0138,-0.4511,-0.1988,0.2246,-0.2087,-0.0702,
0.235633,-0.1553,0.7982,0.3826,0.0138,-0.4511,-0.1988,0.2246,-0.2087,-0.0702,
0.236284,-0.1553,0.7982,0.3826,0.0138,-0.4511,-0.1988,0.2720,-0.2840,-0.0729,
0.291684,-0.1553,0.7982,0.3826,-0.0705,-0.9488,-0.1512,0.2720,-0.2840,-0.0729,
0.292730,-0.1731,0.7655,0.3846,-0.0705,-0.9488,-0.1512,0.2720,-0.2840,-0.0729,
0.293361,-0.1641,0.7452,0.3872,-0.0705,-0.9488,-0.1512,0.2720,-0.2840,-0.0729,
0.293996,-0.1502,0.7584,0.3711,-0.0705,-0.9488,-0.1512,0.2720,-0.2840,-0.0729,
0.294564,-0.1502,0.7584,0.3711,-0.0705,-0.9488,-0.1512,0.3920,-0.4256,-0.0497,
0.349545,-0.1563,0.7789,0.3514,-0.0705,-0.9488,-0.1512,0.3920,-0.4256,-0.0497,
0.350252,-0.1543,0.7967,0.3465,-0.0705,-0.9488,-0.1512,0.3920,-0.4256,-0.0497,
0.350626,-0.1340,0.8040,0.3404,-0.0705,-0.9488,-0.1512,0.3920,-0.4256,-0.0497,
0.351042,-0.1340,0.8040,0.3404,-0.0705,-0.9488,-0.1512,0.5779,-0.5685,0.0558,
0.352288,-0.1340,0.8040,0.3404,-0.0715,-0.6163,-0.2206,0.5779,-0.5685,0.0558,
0.408722,-0.0952,0.8104,0.3291,-0.0715,-0.6163,-0.2206,0.5779,-0.5685,0.0558,
0.409421,-0.0818,0.8407,0.3189,-0.0715,-0.6163,-0.2206,0.5779,-0.5685,0.0558,
0.409893,-0.0850,0.8661,0.3006,-0.0715,-0.6163,-0.2206,0.5779,-0.5685,0.0558,
0.410313,-0.0850,0.8661,0.3006,-0.0715,-0.6163,-0.2206,0.7507,-0.4972,0.1425,
0.410718,-0.0850,0.8661,0.3006,0.3100,-0.2879,-0.1575,0.7507,-0.4972,0.1425,
0.466693,-0.0850,0.8661,0.3006,0.0401,-0.1474,0.1095,0.7507,-0.4972,0.1425,
0.467472,-0.1040,0.8651,0.2971,0.0401,-0.1474,0.1095,0.7507,-0.4972,0.1425,
0.467848,-0.1072,0.8626,0.3052,0.0401,-0.1474,0.1095,0.7507,-0.4972,0.1425,
0.468250,-0.0845,0.8783,0.3037,0.0401,-0.1474,0.1095,0.7507,-0.4972,0.1425,
0.468555,-0.0845,0.8783,0.3037,0.0401,-0.1474,0.1095,0.8886,-0.4088,0.1633,
0.525996,-0.0845,0.8783,0.3037,0.3543,-0.0264,0.0616,0.8886,-0.4088,0.1633,
0.527667,-0.0537,0.8871,0.2715,0.3543,-0.0264,0.0616,0.8886,-0.4088,0.1633,
0.528459,-0.0452,0.8963,0.2493,0.3543,-0.0264,0.0616,0.8886,-0.4088,0.1633,
0.529128,-0.0366,0.9071,0.2295,0.3543,-0.0264,0.0616,0.8886,-0.4088,0.1633,
0.529867,-0.0366,0.9071,0.2295,0.3543,-0.0264,0.0616,0.9786,-0.5866,0.1574,
0.583171,-0.0230,0.9176,0.2173,0.3543,-0.0264,0.0616,0.9786,-0.5866,0.1574,
0.584837,-0.0210,0.9361,0.1997,0.3543,-0.0264,0.0616,0.9786,-0.5866,0.1574,
0.585802,-0.0383,0.9498,0.2058,0.3543,-0.0264,0.0616,0.9786,-0.5866,0.1574,
0.587277,-0.0383,0.9498,0.2058,0.3543,-0.0264,0.0616,0.9920,-0.4050,0.0528,
0.588741,-0.0383,0.9498,0.2058,0.4090,0.1968,0.1284,0.9920,-0.4050,0.0528,
0.641580,-0.0217,0.9742,0.2034,0.4090,0.1968,0.1284,0.9920,-0.4050,0.0528,
0.643191,0.0076,1.0069,0.1677,0.4090,0.1968,0.1284,0.9920,-0.4050,0.0528,
0.644284,0.0125,1.0389,0.1384,0.4090,0.1968,0.1284,0.9920,-0.4050,0.0528,
0.645208,0.0125,1.0389,0.1384,0.4090,0.1968,0.1284,0.9163,-0.1773,-0.0407,
0.646109,0.0125,1.0389,0.1384,0.6195,0.7486,0.2133,0.9163,-0.1773,-0.0407,
0.700773,-0.0046,1.0609,0.1443,0.6195,0.7486,0.2133,0.9163,-0.1773,-0.0407,
0.703389,-0.0139,1.0653,0.1582,0.6195,0.7486,0.2133,0.9163,-0.1773,-0.0407,
0.705242,-0.0156,1.0589,0.1633,0.6195,0.7486,0.2133,0.9163,-0.1773,-0.0407,
0.710758,-0.0156,1.0589,0.1633,0.4881,1.1359,0.4632,0.9163,-0.1773,-0.0407,
0.713056,-0.0156,1.0589,0.1633,0.4881,1.1359,0.4632,0.8014,0.1004,-0.0163,
0.759258,-0.0085,1.0775,0.1477,0.4881,1.1359,0.4632,0.8014,0.1004,-0.0163,
0.761774,-0.0044,1.1051,0.1287,0.4881,1.1359,0.4632,0.8014,0.1004,-0.0163,
0.763363,0.0051,1.0941,0.1001,0.4881,1.1359,0.4632,0.8014,0.1004,-0.0163,
0.765114,0.0051,1.0941,0.1001,0.4881,1.1359,0.4632,0.6544,0.0882,0.1737,
0.767147,0.0051,1.0941,0.1001,0.4500,1.2961,0.4909,0.6544,0.0882,0.1737,
0.816558,-0.0354,1.0790,0.0852,0.4500,1.2961,0.4909,0.6544,0.0882,0.1737,
0.819000,-0.0960,1.0472,0.1172,0.4500,1.2961,0.4909,0.6544,0.0882,0.1737,
0.821138,-0.0916,1.0082,0.1157,0.4500,1.2961,0.4909,0.6544,0.0882,0.1737,
0.822906,-0.0916,1.0082,0.1157,0.4500,1.2961,0.4909,0.3763,-0.1266,0.3928,
0.825326,-0.0916,1.0082,0.1157,-0.4415,0.7548,0.4709,0.3763,-0.1266,0.3928,
0.876461,-0.0652,0.9652,0.0645,-0.4415,0.7548,0.4709,0.3763,-0.1266,0.3928,
0.879786,-0.0439,0.9149,0.0325,-0.4415,0.7548,0.4709,0.3763,-0.1266,0.3928,
0.880931,0.0728,0.9369,0.2185,-0.4415,0.7548,0.4709,0.3763,-0.1266,0.3928,
0.882194,0.0728,0.9369,0.2185,-0.4415,0.7548,0.4709,0.1645,-0.6546,0.7015,
0.883282,0.0728,0.9369,0.2185,-0.2249,-0.2723,0.5161,0.1645,-0.6546,0.7015,
0.932952,0.3912,1.5385,-0.1597,-0.2249,-0.2723,0.5161,0.1645,-0.6546,0.7015,
0.934283,-0.1433,2.3372,-0.1504,-0.2249,-0.2723,0.5161,0.1645,-0.6546,0.7015,
0.935087,-0.3694,1.8894,0.2022,-0.2249,-0.2723,0.5161,0.1645,-0.6546,0.7015,
0.935813,-0.3694,1.8894,0.2022,-0.2249,-0.2723,0.5161,0.2067,-0.3854,0.8587,
0.936455,-0.3694,1.8894,0.2022,-0.9298,8.8188,-0.7019,0.2067,-0.3854,0.8587,
0.993207,-0.1091,0.9151,0.1609,-0.9298,8.8188,-0.7019,0.2067,-0.3854,0.8587,
0.995073,0.2107,0.4686,0.0002,-0.9298,8.8188,-0.7019,0.2067,-0.3854,0.8587,
0.997072,0.3704,0.4432,-0.0820,-0.9298,8.8188,-0.7019,0.2067,-0.3854,0.8587,
0.999074,0.3704,0.4432,-0.0820,0.5838,-3.7993,0.3540,0.2067,-0.3854,0.8587,
0.999922,0.3704,0.4432,-0.0820,0.5838,-3.7993,0.3540,0.7980,-0.0222,0.6685,
1.050534,0.1382,0.8468,-0.0466,0.5838,-3.7993,0.3540,0.7980,-0.0222,0.6685,
1.052719,-0.0259,1.3007,-0.0230,0.5838,-3.7993,0.3540,0.7980,-0.0222,0.6685,
1.054731,0.0095,1.3222,-0.1228,0.5838,-3.7993,0.3540,0.7980,-0.0222,0.6685,
1.056449,0.0095,1.3222,-0.1228,0.5838,-3.7993,0.3540,0.5498,0.1159,0.6982,
1.058790,0.0095,1.3222,-0.1228,-0.9082,1.5368,-0.2166,0.5498,0.1159,0.6982,
1.110098,0.1453,1.1063,-0.1687,-0.9082,1.5368,-0.2166,0.5498,0.1159,0.6982,
1.112757,0.3516,0.9618,-0.1697,-0.9082,1.5368,-0.2166,0.5498,0.1159,0.6982,
1.114518,0.4346,0.9037,-0.1394,-0.9082,1.5368,-0.2166,0.5498,0.1159,0.6982,
1.116295,0.4346,0.9037,-0.1394,-0.9082,1.5368,-0.2166,0.5090,-0.5831,0.6915,
1.118422,0.4346,0.9037,-0.1394,1.2955,-0.0115,-0.7665,0.5090,-0.5831,0.6915,
1.166527,0.3655,0.9347,-0.1668,1.2955,-0.0115,-0.7665,0.5090,-0.5831,0.6915,
1.168399,0.2486,0.9979,-0.1453,1.2955,-0.0115,-0.7665,0.5090,-0.5831,0.6915,
1.169429,0.1660,1.0170,-0.0396,1.2955,-0.0115,-0.7665,0.5090,-0.5831,0.6915,
1.170419,0.1660,1.0170,-0.0396,0.6484,-0.0401,-0.1372,0.5090,-0.5831,0.6915,
1.171500,0.1660,1.0170,-0.0396,0.6484,-0.0401,-0.1372,0.3895,0.0906,0.2026,
1.228111,0.1243,1.0494,-0.0073,0.6484,-0.0401,-0.1372,0.3895,0.0906,0.2026,
1.230670,0.1240,1.0712,-0.0344,0.6484,-0.0401,-0.1372,0.3895,0.0906,0.2026,
1.232658,0.0891,1.1803,-0.0745,0.6484,-0.0401,-0.1372,0.3895,0.0906,0.2026,
1.234747,0.0891,1.1803,-0.0745,-0.8435,1.1014,0.8381,0.3895,0.0906,0.2026,
1.237741,0.0891,1.1803,-0.0745,-0.8435,1.1014,0.8381,0.4585,0.1057,0.1403,
1.284049,0.1509,1.3126,-0.2356,-0.8435,1.1014,0.8381,0.4585,0.1057,0.1403,
1.286726,0.1289,1.3947,-0.5330,-0.8435,1.1014,0.8381,0.4585,0.1057,0.1403,
1.289063,-0.1426,1.5893,-0.6578,-0.8435,1.1014,0.8381,0.4585,0.1057,0.1403,
1.291319,-0.1426,1.5893,-0.6578,-0.8435,1.1014,0.8381,0.7304,0.7893,0.1759,
1.293644,-0.1426,1.5893,-0.6578,-1.5885,4.2409,-2.9888,0.7304,0.7893,0.1759,
1.344500,-0.4119,1.3952,-0.4849,-1.5885,4.2409,-2.9888,0.7304,0.7893,0.1759,
1.347491,-0.1968,1.0731,-0.2429,-1.5885,4.2409,-2.9888,0.7304,0.7893,0.1759,
1.350047,0.0107,0.8165,-0.2141,-1.5885,4.2409,-2.9888,0.7304,0.7893,0.1759,
1.352316,0.0107,0.8165,-0.2141,-1.5885,4.2409,-2.9888,0.4634,0.7302,0.4293,
1.354925,0.0107,0.8165,-0.2141,-4.1296,0.9950,-1.1843,0.4634,0.7302,0.4293,
1.400654,0.1243,0.8106,-0.1961,-4.1296,0.9950,-1.1843,0.4634,0.7302,0.4293,
1.403040,-0.0457,0.8531,-0.1282,-4.1296,0.9950,-1.1843,0.4634,0.7302,0.4293,
1.404885,-0.3130,0.7813,-0.0017,-4.1296,0.9950,-1.1843,0.4634,0.7302,0.4293,
1.407100,-0.3130,0.7813,-0.0017,-4.1296,0.9950,-1.1843,-0.0552,-0.0731,0.4120,
1.410433,-0.3130,0.7813,-0.0017,-3.0406,-1.6309,0.7753,-0.0552,-0.0731,0.4120,
1.460313,-0.6021,0.6375,0.2100,-3.0406,-1.6309,0.7753,-0.0552,-0.0731,0.4120,
1.463556,-0.6053,0.7340,-0.0220,-3.0406,-1.6309,0.7753,-0.0552,-0.0731,0.4120,
1.467541,-0.2718,0.8575,-0.1738,-3.0406,-1.6309,0.7753,-0.0552,-0.0731,0.4120,
1.469840,-0.2718,0.8575,-0.1738,-3.0406,-1.6309,0.7753,-1.0517,-2.9482,-0.4225,
1.472474,-0.2718,0.8575,-0.1738,-6.3185,-2.3955,1.5767,-1.0517,-2.9482,-0.4225,
1.516828,-0.1494,0.7845,-0.1345,-6.3185,-2.3955,1.5767,-1.0517,-2.9482,-0.4225,
1.519602,-0.1248,0.7806,-0.1438,-6.3185,-2.3955,1.5767,-1.0517,-2.9482,-0.4225,
1.521975,-0.1223,0.9002,-0.1829,-6.3185,-2.3955,1.5767,-1.0517,-2.9482,-0.4225,
1.524077,-0.1223,0.9002,-0.1829,-6.3185,-2.3955,1.5767,-1.7528,-4.0790,-1.1215,
1.528046,-0.1223,0.9002,-0.1829,-1.7917,-1.7421,-0.7037,-1.7528,-4.0790,-1.1215,
1.575923,-0.0711,0.9466,-0.2237,-1.7917,-1.7421,-0.7037,-1.7528,-4.0790,-1.1215,
1.579072,-0.0105,0.9483,-0.2764,-1.7917,-1.7421,-0.7037,-1.7528,-4.0790,-1.1215,
1.580835,0.0908,0.9945,-0.3428,-1.7917,-1.7421,-0.7037,-1.7528,-4.0790,-1.1215,
1.582555,0.0908,0.9945,-0.3428,-1.7917,-1.7421,-0.7037,-1.7711,-3.6118,-1.6797,
1.584231,0.0908,0.9945,-0.3428,0.5450,-0.3715,-2.8595,-1.7711,-3.6118,-1.6797,
1.635887,0.1118,0.9640,-0.3289,0.5450,-0.3715,-2.8595,-1.7711,-3.6118,-1.6797,
1.640064,0.1538,0.8968,-0.2437,0.5450,-0.3715,-2.8595,-1.7711,-3.6118,-1.6797,
1.642807,0.1902,0.8917,-0.2715,0.5450,-0.3715,-2.8595,-1.7711,-3.6118,-1.6797,
1.645542,0.1902,0.8917,-0.2715,0.5450,-0.3715,-2.8595,-1.3372,-2.4451,-1.5111,
1.648215,0.1902,0.8917,-0.2715,2.6919,-0.6719,-3.6225,-1.3372,-2.4451,-1.5111,
1.692523,0.1570,0.9063,-0.2932,2.6919,-0.6719,-3.6225,-1.3372,-2.4451,-1.5111,
1.695240,0.2583,0.9469,-0.2783,2.6919,-0.6719,-3.6225,-1.3372,-2.4451,-1.5111,
1.697019,0.5149,0.9146,-0.3389,2.6919,-0.6719,-3.6225,-1.3372,-2.4451,-1.5111,
1.699348,0.5149,0.9146,-0.3389,2.6919,-0.6719,-3.6225,-0.3221,-2.1315,-0.4408,
1.701106,0.5149,0.9146,-0.3389,4.2098,-0.5507,-4.0442,-0.3221,-2.1315,-0.4408,
1.751007,0.8070,1.2240,-0.7596,4.2098,-0.5507,-4.0442,-0.3221,-2.1315,-0.4408,
1.753901,1.3869,1.9187,-0.1572,4.2098,-0.5507,-4.0442,-0.3221,-2.1315,-0.4408,
1.756421,-0.1279,1.3886,1.3544,4.2098,-0.5507,-4.0442,-0.3221,-2.1315,-0.4408,
1.758538,-0.1279,1.3886,1.3544,4.2098,-0.5507,-4.0442,0.4046,-0.2421,1.3352,
1.760589,-0.1279,1.3886,1.3544,6.9220,4.9607,0.5494,0.4046,-0.2421,1.3352,
1.808586,-0.9124,0.7159,-0.0400,6.9220,4.9607,0.5494,0.4046,-0.2421,1.3352,
1.809690,-0.6744,0.9632,-1.1551,6.9220,4.9607,0.5494,0.4046,-0.2421,1.3352,
1.810401,0.1975,1.1505,-0.4671,6.9220,4.9607,0.5494,0.4046,-0.2421,1.3352,
1.811038,0.1975,1.1505,-0.4671,6.9220,4.9607,0.5494,1.2759,1.0354,1.4789,
1.811908,0.1975,1.1505,-0.4671,-5.0239,-0.5968,-5.4205,1.2759,1.0354,1.4789,
1.866386,0.4126,0.9942,-0.0029,-5.0239,-0.5968,-5.4205,1.2759,1.0354,1.4789,
1.868036,0.5577,1.0231,-0.0510,-5.0239,-0.5968,-5.4205,1.2759,1.0354,1.4789,
1.868896,0.5535,0.9525,-0.0884,-5.0239,-0.5968,-5.4205,1.2759,1.0354,1.4789,
1.869590,0.5535,0.9525,-0.0884,-5.0239,-0.5968,-5.4205,0.2625,-0.8611,1.6194,
1.870456,0.5535,0.9525,-0.0884,3.4675,-0.0468,-0.2417,0.2625,-0.8611,1.6194,
1.927118,0.2981,0.9906,-0.0283,3.4675,-0.0468,-0.2417,0.2625,-0.8611,1.6194,
1.930357,0.2603,1.0477,-0.0225,3.4675,-0.0468,-0.2417,0.2625,-0.8611,1.6194,
1.932423,0.1751,0.9427,-0.0049,3.4675,-0.0468,-0.2417,0.2625,-0.8611,1.6194,
1.934135,0.1751,0.9427,-0.0049,3.4675,-0.0468,-0.2417,0.3463,0.1662,0.8448,
1.936039,0.1751,0.9427,-0.0049,0.3917,0.0801,0.2112,0.3463,0.1662,0.8448,
1.983191,0.2127,0.9745,-0.0537,0.3917,0.0801,0.2112,0.3463,0.1662,0.8448,
1.986009,0.3140,1.0165,-0.1206,0.3917,0.0801,0.2112,0.3463,0.1662,0.8448,
1.987654,0.2466,0.9720,-0.0547,0.3917,0.0801,0.2112,0.3463,0.1662,0.8448,
1.988795,0.2466,0.9720,-0.0547,0.3917,0.0801,0.2112,0.2971,-0.3820,0.7359,
1.989699,0.2466,0.9720,-0.0547,0.1173,0.1209,-0.1342,0.2971,-0.3820,0.7359,
2.042994,0.2466,0.9720,-0.0547,-0.3204,0.1467,0.7904,0.2971,-0.3820,0.7359,
2.045165,0.1704,0.9940,-0.0120,-0.3204,0.1467,0.7904,0.2971,-0.3820,0.7359,
2.046194,0.2425,0.9786,-0.0012,-0.3204,0.1467,0.7904,0.2971,-0.3820,0.7359,
2.047547,0.3321,0.9632,-0.0112,-0.3204,0.1467,0.7904,0.2971,-0.3820,0.7359,
2.048971,0.3321,0.9632,-0.0112,-0.3204,0.1467,0.7904,0.3903,-0.4139,0.6722,
2.099397,0.2581,0.9671,-0.0625,-0.3204,0.1467,0.7904,0.3903,-0.4139,0.6722,
2.100465,0.2327,0.9645,-0.1333,-0.3204,0.1467,0.7904,0.3903,-0.4139,0.6722,
2.101054,0.3399,0.9674,-0.1814,-0.3204,0.1467,0.7904,0.3903,-0.4139,0.6722,
2.101586,0.3399,0.9674,-0.1814,-0.3204,0.1467,0.7904,0.4478,-0.5058,0.6667,
2.102837,0.3399,0.9674,-0.1814,-0.3644,0.1625,-0.0300,0.4478,-0.5058,0.6667,
2.161898,0.3931,0.9459,-0.1963,-0.3644,0.1625,-0.0300,0.4478,-0.5058,0.6667,
2.163265,0.3912,0.9442,-0.1839,-0.3644,0.1625,-0.0300,0.4478,-0.5058,0.6667,
2.164043,0.3296,0.9762,-0.1799,-0.3644,0.1625,-0.0300,0.4478,-0.5058,0.6667,
2.164866,0.3296,0.9762,-0.1799,-0.3644,0.1625,-0.0300,0.3755,-0.4950,0.5710,
2.165714,0.3296,0.9762,-0.1799,0.2845,0.1871,-0.3235,0.3755,-0.4950,0.5710,
2.217666,0.2437,1.0365,-0.1724,0.2845,0.1871,-0.3235,0.3755,-0.4950,0.5710,
2.220284,0.1275,1.0743,-0.1392,0.2845,0.1871,-0.3235,0.3755,-0.4950,0.5710,
2.222241,0.0789,1.0148,-0.0669,0.2845,0.1871,-0.3235,0.3755,-0.4950,0.5710,
2.223901,0.0789,1.0148,-0.0669,0.2845,0.1871,-0.3235,0.2967,-0.4950,0.6074,
2.226015,0.0789,1.0148,-0.0669,-2.1040,1.1557,0.5147,0.2967,-0.4950,0.6074,
2.276800,0.0891,1.0108,0.0305,-2.1040,1.1557,0.5147,0.2967,-0.4950,0.6074,
2.280362,0.0234,1.1263,0.0347,-2.1040,1.1557,0.5147,0.2967,-0.4950,0.6074,
2.282159,-0.0735,1.2406,0.0281,-2.1040,1.1557,0.5147,0.2967,-0.4950,0.6074,
2.284067,-0.0735,1.2406,0.0281,-2.1040,1.1557,0.5147,0.7947,-0.5939,1.1588,
2.286131,-0.0735,1.2406,0.0281,-3.8780,2.2751,2.5351,0.7947,-0.5939,1.1588,
2.333884,-0.1680,1.2875,0.0535,-3.8780,2.2751,2.5351,0.7947,-0.5939,1.1588,
2.336462,-0.2342,1.3776,0.0146,-3.8780,2.2751,2.5351,0.7947,-0.5939,1.1588,
2.338948,-0.4429,1.6166,0.1565,-3.8780,2.2751,2.5351,0.7947,-0.5939,1.1588,
2.341007,-0.4429,1.6166,0.1565,-3.8780,2.2751,2.5351,1.6540,-0.7941,1.9976,
2.343176,-0.4429,1.6166,0.1565,-7.4313,5.8634,3.8806,1.6540,-0.7941,1.9976,
2.395338,-0.9234,1.9064,0.0305,-7.4313,5.8634,3.8806,1.6540,-0.7941,1.9976,
2.397837,-1.0006,1.9392,-0.0772,-7.4313,5.8634,3.8806,1.6540,-0.7941,1.9976,
2.399094,-0.2820,1.5800,-0.1782,-7.4313,5.8634,3.8806,1.6540,-0.7941,1.9976,
2.400086,-0.2820,1.5800,-0.1782,-7.4313,5.8634,3.8806,1.8609,-1.8100,2.6899,
2.401102,-0.2820,1.5800,-0.1782,-12.3503,10.5556,3.6817,1.8609,-1.8100,2.6899,
2.450457,0.8900,1.5729,-0.4332,-12.3503,10.5556,3.6817,1.8609,-1.8100,2.6899,
2.452917,1.5456,1.3607,-0.3084,-12.3503,10.5556,3.6817,1.8609,-1.8100,2.6899,
2.454450,0.9632,1.0025,-0.4378,-12.3503,10.5556,3.6817,1.8609,-1.8100,2.6899,
2.455750,0.9632,1.0025,-0.4378,-12.3503,10.5556,3.6817,2.0503,-1.9189,3.2916,
2.457547,0.9632,1.0025,-0.4378,5.1878,7.1869,1.8947,2.0503,-1.9189,3.2916,
2.508766,0.7027,0.6524,-0.8800,5.1878,7.1869,1.8947,2.0503,-1.9189,3.2916,
2.510497,0.5579,0.5359,-0.8993,5.1878,7.1869,1.8947,2.0503,-1.9189,3.2916,
2.511501,0.3460,0.2989,-0.5728,5.1878,7.1869,1.8947,2.0503,-1.9189,3.2916,
2.512468,0.3460,0.2989,-0.5728,5.1878,7.1869,1.8947,0.0024,-0.1057,0.6575,
2.513497,0.3460,0.2989,-0.5728,-0.8225,-0.5707,-1.8544,0.0024,-0.1057,0.6575,
2.567538,0.1235,0.0908,-0.0737,-0.8225,-0.5707,-1.8544,0.0024,-0.1057,0.6575,
2.570567,0.0068,-0.0237,-0.0286,-0.8225,-0.5707,-1.8544,0.0024,-0.1057,0.6575,
2.572253,-0.0740,0.0706,-0.2486,-0.8225,-0.5707,-1.8544,0.0024,-0.1057,0.6575,
2.574015,-0.0740,0.0706,-0.2486,-0.8225,-0.5707,-1.8544,-2.5832,0.1845,-2.0105,
2.577618,-0.0740,0.0706,-0.2486,-5.0992,-6.3169,3.6089,-2.5832,0.1845,-2.0105,
2.627062,-0.0596,0.3076,-0.3601,-5.0992,-6.3169,3.6089,-2.5832,0.1845,-2.0105,
2.629545,0.0327,0.4351,-0.5071,-5.0992,-6.3169,3.6089,-2.5832,0.1845,-2.0105,
2.630869,0.1148,0.5105,-0.5159,-5.0992,-6.3169,3.6089,-2.5832,0.1845,-2.0105,
2.632377,0.1148,0.5105,-0.5159,-5.0992,-6.3169,3.6089,-3.3138,-0.8084,-3.5404,
2.633759,0.1148,0.5105,-0.5159,-3.1490,-4.2912,-1.0174,-3.3138,-0.8084,-3.5404,
2.684185,0.1148,0.5105,-0.5159,0.7948,-1.5427,-4.2305,-3.3138,-0.8084,-3.5404,
2.687938,0.0398,0.5398,-0.4544,0.7948,-1.5427,-4.2305,-3.3138,-0.8084,-3.5404,
2.690347,0.0938,0.7909,-0.5506,0.7948,-1.5427,-4.2305,-3.3138,-0.8084,-3.5404,
2.692986,0.3711,1.1151,-0.7691,0.7948,-1.5427,-4.2305,-3.3138,-0.8084,-3.5404,
2.695613,0.3711,1.1151,-0.7691,0.7948,-1.5427,-4.2305,-4.1531,-1.3752,-4.5353,
2.744359,0.8035,1.2003,-0.9029,0.7948,-1.5427,-4.2305,-4.1531,-1.3752,-4.5353,
2.747879,0.9720,1.2235,-0.9835,0.7948,-1.5427,-4.2305,-4.1531,-1.3752,-4.5353,
2.750453,1.0487,1.3034,-0.9383,0.7948,-1.5427,-4.2305,-4.1531,-1.3752,-4.5353,
2.753204,1.0487,1.3034,-0.9383,0.7948,-1.5427,-4.2305,-4.1839,-0.3351,-4.5210,
2.755764,1.0487,1.3034,-0.9383,10.7021,2.6053,-9.7985,-4.1839,-0.3351,-4.5210,
2.801784,1.0062,1.2660,-0.8609,10.7021,2.6053,-9.7985,-4.1839,-0.3351,-4.5210,
2.805264,1.0204,1.0367,-0.6258,10.7021,2.6053,-9.7985,-4.1839,-0.3351,-4.5210,
2.808331,1.0257,0.8436,-0.4830,10.7021,2.6053,-9.7985,-4.1839,-0.3351,-4.5210,
2.811188,1.0257,0.8436,-0.4830,12.7468,1.1829,-7.8731,-4.1839,-0.3351,-4.5210,
2.814736,1.0257,0.8436,-0.4830,12.7468,1.1829,-7.8731,-2.3394,1.6889,-2.6310,
2.862052,0.6983,0.8621,-0.4319,12.7468,1.1829,-7.8731,-2.3394,1.6889,-2.6310,
2.867534,0.4642,0.8646,-0.7169,12.7468,1.1829,-7.8731,-2.3394,1.6889,-2.6310,
2.870227,-0.1243,1.4252,-0.6131,12.7468,1.1829,-7.8731,-2.3394,1.6889,-2.6310,
2.872838,-0.1243,1.4252,-0.6131,12.7468,1.1829,-7.8731,0.1686,2.5174,1.1275,
2.877728,-0.1243,1.4252,-0.6131,5.6394,1.0013,-6.5679,0.1686,2.5174,1.1275,
2.916695,-2.1347,2.2275,1.1210,5.6394,1.0013,-6.5679,0.1686,2.5174,1.1275,
2.919555,-1.1334,2.0434,0.1707,5.6394,1.0013,-6.5679,0.1686,2.5174,1.1275,
2.920757,0.5987,0.9105,-1.3766,5.6394,1.0013,-6.5679,0.1686,2.5174,1.1275,
2.921869,0.5987,0.9105,-1.3766,5.6394,1.0013,-6.5679,0.7243,2.0487,1.1006,
2.922995,0.5987,0.9105,-1.3766,-6.8742,7.3369,-0.4460,0.7243,2.0487,1.1006,
2.983364,0.5987,0.9105,-1.3766,2.8817,-2.3026,2.8536,0.7243,2.0487,1.1006,
2.984830,0.4222,0.5782,-0.0295,2.8817,-2.3026,2.8536,0.7243,2.0487,1.1006,
2.985549,0.1751,0.6087,0.6729,2.8817,-2.3026,2.8536,0.7243,2.0487,1.1006,
2.986227,0.0933,1.0768,0.2210,2.8817,-2.3026,2.8536,0.7243,2.0487,1.1006,
2.987063,0.0933,1.0768,0.2210,2.8817,-2.3026,2.8536,0.4386,-0.0613,2.0656,
3.033694,0.2544,1.1783,-0.4446,2.8817,-2.3026,2.8536,0.4386,-0.0613,2.0656,
3.036397,0.5350,0.9889,-0.3091,2.8817,-2.3026,2.8536,0.4386,-0.0613,2.0656,
3.038962,0.0618,1.0050,-0.1746,2.8817,-2.3026,2.8536,0.4386,-0.0613,2.0656,
3.040987,0.0618,1.0050,-0.1746,2.8817,-2.3026,2.8536,0.5870,-0.0981,1.0774,
3.042964,0.0618,1.0050,-0.1746,2.7449,0.6395,-2.6211,0.5870,-0.0981,1.0774,
3.092308,-0.2256,1.0116,-0.0925,2.7449,0.6395,-2.6211,0.5870,-0.0981,1.0774,
3.095080,-0.1763,1.0267,0.0801,2.7449,0.6395,-2.6211,0.5870,-0.0981,1.0774,
3.097506,-0.0862,0.9964,0.1040,2.7449,0.6395,-2.6211,0.5870,-0.0981,1.0774,
3.099548,-0.0862,0.9964,0.1040,-2.0438,0.2135,0.9592,0.5870,-0.0981,1.0774,
3.101548,-0.0862,0.9964,0.1040,-2.0438,0.2135,0.9592,0.4931,0.6889,0.7573,
3.149941,0.0200,0.9190,0.0801,-2.0438,0.2135,0.9592,0.4931,0.6889,0.7573,
3.151254,0.1336,0.9325,-0.0400,-2.0438,0.2135,0.9592,0.4931,0.6889,0.7573,
3.152259,0.1826,0.9710,-0.1778,-2.0438,0.2135,0.9592,0.4931,0.6889,0.7573,
3.153036,0.1826,0.9710,-0.1778,-2.0438,0.2135,0.9592,0.7092,-0.0071,1.1145,
3.154017,0.1826,0.9710,-0.1778,0.0222,-0.3871,0.6011,0.7092,-0.0071,1.1145,
3.212326,0.1065,0.9974,-0.1870,0.0222,-0.3871,0.6011,0.7092,-0.0071,1.1145,
3.215171,0.1348,0.9779,-0.1577,0.0222,-0.3871,0.6011,0.7092,-0.0071,1.1145,
3.217448,0.1988,0.9664,-0.1707,0.0222,-0.3871,0.6011,0.7092,-0.0071,1.1145,
3.218683,0.1988,0.9664,-0.1707,0.0222,-0.3871,0.6011,0.7182,-0.0627,1.0377,
3.219686,0.1988,0.9664,-0.1707,-0.2079,0.1347,-0.2238,0.7182,-0.0627,1.0377,
3.267713,0.1787,0.9947,-0.1528,-0.2079,0.1347,-0.2238,0.7182,-0.0627,1.0377,
3.272139,0.1392,1.0089,-0.1856,-0.2079,0.1347,-0.2238,0.7182,-0.0627,1.0377,
3.274196,0.0808,1.0148,-0.1975,-0.2079,0.1347,-0.2238,0.7182,-0.0627,1.0377,
3.275577,0.0808,1.0148,-0.1975,-0.2079,0.1347,-0.2238,0.7617,-0.2352,0.9984,
3.278387,0.0808,1.0148,-0.1975,-0.8507,0.5609,0.1501,0.7617,-0.2352,0.9984,
3.325945,0.0420,1.0082,-0.2215,-0.8507,0.5609,0.1501,0.7617,-0.2352,0.9984,
3.328925,0.0991,1.0392,-0.2354,-0.8507,0.5609,0.1501,0.7617,-0.2352,0.9984,
3.331116,0.1865,1.0802,-0.1812,-0.8507,0.5609,0.1501,0.7617,-0.2352,0.9984,
3.333034,0.1865,1.0802,-0.1812,-0.8507,0.5609,0.1501,0.9792,-0.6738,1.1949,
3.334969,0.1865,1.0802,-0.1812,-1.6052,1.1923,0.4286,0.9792,-0.6738,1.1949,
3.384320,0.2451,1.0460,-0.1936,-1.6052,1.1923,0.4286,0.9792,-0.6738,1.1949,
3.387971,0.1560,1.0841,-0.1470,-1.6052,1.1923,0.4286,0.9792,-0.6738,1.1949,
3.389975,0.0332,1.1774,-0.1155,-1.6052,1.1923,0.4286,0.9792,-0.6738,1.1949,
3.391895,0.0332,1.1774,-0.1155,-1.6052,1.1923,0.4286,1.4290,-0.3584,1.3559,
3.393875,0.0332,1.1774,-0.1155,-1.8613,2.2220,1.7865,1.4290,-0.3584,1.3559,
3.442723,-0.0554,1.2658,-0.1099,-1.8613,2.2220,1.7865,1.4290,-0.3584,1.3559,
3.446218,-0.2461,1.6562,0.0198,-1.8613,2.2220,1.7865,1.4290,-0.3584,1.3559,
3.448634,-0.8446,2.1743,0.1804,-1.8613,2.2220,1.7865,1.4290,-0.3584,1.3559,
3.450605,-0.8446,2.1743,0.1804,-1.8613,2.2220,1.7865,2.0666,-0.9419,1.6040,
3.452560,-0.8446,2.1743,0.1804,-7.4511,8.7184,4.6774,2.0666,-0.9419,1.6040,
3.501267,-1.1222,1.9985,0.1829,-7.4511,8.7184,4.6774,2.0666,-0.9419,1.6040,
3.504384,-0.5267,1.5717,0.0088,-7.4511,8.7184,4.6774,2.0666,-0.9419,1.6040,
3.506177,0.4183,1.1698,-0.3736,-7.4511,8.7184,4.6774,2.0666,-0.9419,1.6040,
3.509903,0.4183,1.1698,-0.3736,-7.4511,8.7184,4.6774,2.3559,-1.8971,2.5315,
3.511955,0.4183,1.1698,-0.3736,-8.0967,8.6983,5.1491,2.3559,-1.8971,2.5315,
3.559777,1.3441,1.2426,-0.5396,-8.0967,8.6983,5.1491,2.3559,-1.8971,2.5315,
3.563064,1.2911,1.0597,-0.6834,-8.0967,8.6983,5.1491,2.3559,-1.8971,2.5315,
3.565056,0.5916,0.7374,-0.8580,-8.0967,8.6983,5.1491,2.3559,-1.8971,2.5315,
3.567127,0.5916,0.7374,-0.8580,-8.0967,8.6983,5.1491,2.2191,-0.8841,2.3197,
3.569147,0.5916,0.7374,-0.8580,5.8583,4.4657,-0.0437,2.2191,-0.8841,2.3197,
3.617057,0.3213,0.4781,-0.7921,5.8583,4.4657,-0.0437,2.2191,-0.8841,2.3197,
3.619954,0.3489,0.3482,-0.4625,5.8583,4.4657,-0.0437,2.2191,-0.8841,2.3197,
3.621931,0.2473,0.2481,-0.2268,5.8583,4.4657,-0.0437,2.2191,-0.8841,2.3197,
3.623893,0.2473,0.2481,-0.2268,5.8583,4.4657,-0.0437,-0.8269,0.4547,0.1550,
3.626126,0.2473,0.2481,-0.2268,-1.8745,-2.1919,1.4937,-0.8269,0.4547,0.1550,
3.674539,0.1126,0.1433,-0.0933,-1.8745,-2.1919,1.4937,-0.8269,0.4547,0.1550,
3.677173,0.0330,0.1482,-0.1604,-1.8745,-2.1919,1.4937,-0.8269,0.4547,0.1550,
3.679430,0.0335,0.2334,-0.3228,-1.8745,-2.1919,1.4937,-0.8269,0.4547,0.1550,
3.681685,0.0335,0.2334,-0.3228,-1.8745,-2.1919,1.4937,-2.5752,0.4914,-1.7389,
3.683996,0.0335,0.2334,-0.3228,-3.7401,-5.2411,3.3011,-2.5752,0.4914,-1.7389,
3.733467,0.0669,0.3277,-0.3743,-3.7401,-5.2411,3.3011,-2.5752,0.4914,-1.7389,
3.737251,0.0772,0.4322,-0.3921,-3.7401,-5.2411,3.3011,-2.5752,0.4914,-1.7389,
3.739488,0.1106,0.5272,-0.2400,-3.7401,-5.2411,3.3011,-2.5752,0.4914,-1.7389,
3.741872,0.1106,0.5272,-0.2400,-1.9634,-4.2981,0.2340,-2.5752,0.4914,-1.7389,
3.744265,0.1106,0.5272,-0.2400,-1.9634,-4.2981,0.2340,-3.8851,-0.5595,-2.9810,
3.792059,0.0359,0.6199,-0.3311,-1.9634,-4.2981,0.2340,-3.8851,-0.5595,-2.9810,
3.795830,0.0796,0.9037,-0.6907,-1.9634,-4.2981,0.2340,-3.8851,-0.5595,-2.9810,
3.798143,0.3477,1.2794,-0.6531,-1.9634,-4.2981,0.2340,-3.8851,-0.5595,-2.9810,
3.800679,0.3477,1.2794,-0.6531,-1.9634,-4.2981,0.2340,-4.7821,-1.8029,-3.6939,
3.803058,0.3477,1.2794,-0.6531,0.9051,-0.3678,-4.2505,-4.7821,-1.8029,-3.6939,
3.850604,0.4666,1.5497,-0.7865,0.9051,-0.3678,-4.2505,-4.7821,-1.8029,-3.6939,
3.854334,0.4466,1.5907,-0.9432,0.9051,-0.3678,-4.2505,-4.7821,-1.8029,-3.6939,
3.856706,0.6114,1.3651,-0.7594,0.9051,-0.3678,-4.2505,-4.7821,-1.8029,-3.6939,
3.859816,0.6114,1.3651,-0.7594,0.9051,-0.3678,-4.2505,-4.9768,-1.2203,-3.4308,
3.862139,0.6114,1.3651,-0.7594,6.1772,5.2278,-9.5443,-4.9768,-1.2203,-3.4308,
3.908932,0.5582,1.1134,-0.5171,6.1772,5.2278,-9.5443,-4.9768,-1.2203,-3.4308,
3.912324,0.5379,0.9640,-0.5272,6.1772,5.2278,-9.5443,-4.9768,-1.2203,-3.4308,
3.914517,0.5875,0.7970,-0.6861,6.1772,5.2278,-9.5443,-4.9768,-1.2203,-3.4308,
3.916421,0.5875,0.7970,-0.6861,6.1772,5.2278,-9.5443,-2.6823,0.1149,-1.7973,
3.917988,0.5875,0.7970,-0.6861,7.5636,0.4046,-8.3550,-2.6823,0.1149,-1.7973,
3.978607,0.5367,0.7535,-0.5982,7.5636,0.4046,-8.3550,-2.6823,0.1149,-1.7973,
3.981709,0.4124,0.8192,-0.5604,7.5636,0.4046,-8.3550,-2.6823,0.1149,-1.7973,
3.983090,0.2498,1.2035,-0.9266,7.5636,0.4046,-8.3550,-2.6823,0.1149,-1.7973,
3.984302,0.2498,1.2035,-0.9266,7.5636,0.4046,-8.3550,0.5353,1.7616,0.9206,
3.985234,0.2498,1.2035,-0.9266,5.6624,-0.0959,-8.8695,0.5353,1.7616,0.9206,
4.024736,-1.0875,1.7971,0.8084,5.6624,-0.0959,-8.8695,0.5353,1.7616,0.9206,
4.027961,-1.5636,1.8100,1.0765,5.6624,-0.0959,-8.8695,0.5353,1.7616,0.9206,
4.029612,0.2632,1.2159,-0.8739,5.6624,-0.0959,-8.8695,0.5353,1.7616,0.9206,
4.031120,0.2632,1.2159,-0.8739,5.6624,-0.0959,-8.8695,0.6941,3.4211,0.8229,
4.032404,0.2632,1.2159,-0.8739,-6.0573,6.3329,1.9224,0.6941,3.4211,0.8229,
4.084092,0.0794,1.1439,-0.5809,-6.0573,6.3329,1.9224,0.6941,3.4211,0.8229,
4.087304,-0.5843,0.8307,0.2825,-6.0573,6.3329,1.9224,0.6941,3.4211,0.8229,
4.089693,-0.0164,0.9295,-0.2317,-6.0573,6.3329,1.9224,0.6941,3.4211,0.8229,
4.091274,-0.0164,0.9295,-0.2317,-6.0573,6.3329,1.9224,0.9711,0.1621,1.8051,
4.093283,-0.0164,0.9295,-0.2317,-0.9284,-0.1281,-2.5019,0.9711,0.1621,1.8051,
4.142179,0.7655,1.0936,-0.1963,-0.9284,-0.1281,-2.5019,0.9711,0.1621,1.8051,
4.145164,0.5604,0.9984,-0.1907,-0.9284,-0.1281,-2.5019,0.9711,0.1621,1.8051,
4.146816,-0.0264,0.9640,0.1135,-0.9284,-0.1281,-2.5019,0.9711,0.1621,1.8051,
4.149400,-0.0264,0.9640,0.1135,-0.9284,-0.1281,-2.5019,0.4178,-0.2694,1.1289,
4.152026,-0.0264,0.9640,0.1135,4.3022,0.3168,-1.4101,0.4178,-0.2694,1.1289,
4.200493,-0.2632,1.0799,0.0901,4.3022,0.3168,-1.4101,0.4178,-0.2694,1.1289,
4.203486,-0.0693,1.0638,0.1211,4.3022,0.3168,-1.4101,0.4178,-0.2694,1.1289,
4.205454,0.0535,0.9669,0.1448,4.3022,0.3168,-1.4101,0.4178,-0.2694,1.1289,
4.207400,0.0535,0.9669,0.1448,4.3022,0.3168,-1.4101,0.3909,0.1342,0.7070,
4.209236,0.0535,0.9669,0.1448,-1.2294,0.4838,0.8502,0.3909,0.1342,0.7070,
4.259086,0.1047,0.9737,0.0754,-1.2294,0.4838,0.8502,0.3909,0.1342,0.7070,
4.262305,0.0530,0.9625,0.0376,-1.2294,0.4838,0.8502,0.3909,0.1342,0.7070,
4.263710,0.0095,0.9417,0.0969,-1.2294,0.4838,0.8502,0.3909,0.1342,0.7070,
4.265567,0.0095,0.9417,0.0969,-1.2294,0.4838,0.8502,0.5976,-0.0289,0.8054,
4.267731,0.0095,0.9417,0.0969,-0.2220,-0.2515,0.6998,0.5976,-0.0289,0.8054,
4.317202,0.1223,0.9579,0.0256,-0.2220,-0.2515,0.6998,0.5976,-0.0289,0.8054,
4.319493,0.1721,0.9864,-0.0374,-0.2220,-0.2515,0.6998,0.5976,-0.0289,0.8054,
4.321544,0.1743,0.9864,-0.0764,-0.2220,-0.2515,0.6998,0.5976,-0.0289,0.8054,
4.323105,0.1743,0.9864,-0.0764,-0.2220,-0.2515,0.6998,0.6422,-0.2030,0.8186,
4.325047,0.1743,0.9864,-0.0764,0.3009,-0.0237,0.0970,0.6422,-0.2030,0.8186,
4.375585,0.1714,0.9784,-0.0933,0.3009,-0.0237,0.0970,0.6422,-0.2030,0.8186,
4.379101,0.1883,0.9371,-0.1389,0.3009,-0.0237,0.0970,0.6422,-0.2030,0.8186,
4.381131,0.1485,0.9664,-0.1275,0.3009,-0.0237,0.0970,0.6422,-0.2030,0.8186,
4.382898,0.1485,0.9664,-0.1275,0.3009,-0.0237,0.0970,0.5689,-0.2849,0.6445,
4.384820,0.1485,0.9664,-0.1275,0.0779,-0.1101,-0.4415,0.5689,-0.2849,0.6445,
4.433971,0.1318,1.0077,-0.1096,0.0779,-0.1101,-0.4415,0.5689,-0.2849,0.6445,
4.437551,0.1272,1.0174,-0.1306,0.0779,-0.1101,-0.4415,0.5689,-0.2849,0.6445,
4.439626,0.1118,0.9808,-0.1055,0.0779,-0.1101,-0.4415,0.5689,-0.2849,0.6445,
4.441408,0.1118,0.9808,-0.1055,0.0779,-0.1101,-0.4415,0.4783,-0.4838,0.6103,
4.443468,0.1118,0.9808,-0.1055,-0.6710,0.3754,-0.0807,0.4783,-0.4838,0.6103,
4.492128,0.1782,0.9076,-0.1043,-0.6710,0.3754,-0.0807,0.4783,-0.4838,0.6103,
4.495259,0.2129,0.8734,-0.0606,-0.6710,0.3754,-0.0807,0.4783,-0.4838,0.6103,
4.496634,0.1956,0.9041,-0.0090,-0.6710,0.3754,-0.0807,0.4783,-0.4838,0.6103,
4.498766,0.1956,0.9041,-0.0090,-0.6710,0.3754,-0.0807,0.4496,-0.9114,0.7384,
4.500717,0.1956,0.9041,-0.0090,-0.2992,-0.5429,0.8227,0.4496,-0.9114,0.7384,
4.551037,0.1511,0.9796,-0.0645,-0.2992,-0.5429,0.8227,0.4496,-0.9114,0.7384,
4.554189,0.0598,1.0922,-0.0415,-0.2992,-0.5429,0.8227,0.4496,-0.9114,0.7384,
4.555794,-0.1130,1.2816,0.1057,-0.2992,-0.5429,0.8227,0.4496,-0.9114,0.7384,
4.557707,-0.1130,1.2816,0.1057,-2.2436,1.8082,1.9007,0.4496,-0.9114,0.7384,
4.559726,-0.1130,1.2816,0.1057,-2.2436,1.8082,1.9007,0.6577,-1.3412,0.9581,
4.608315,-0.3733,1.4560,0.1773,-2.2436,1.8082,1.9007,0.6577,-1.3412,0.9581,
4.611097,-0.4781,1.7924,-0.0203,-2.2436,1.8082,1.9007,0.6577,-1.3412,0.9581,
4.612892,-0.3435,2.0195,-0.4651,-2.2436,1.8082,1.9007,0.6577,-1.3412,0.9581,
4.614920,-0.3435,2.0195,-0.4651,-2.2436,1.8082,1.9007,0.9483,-2.4243,2.2657,
4.616691,-0.3435,2.0195,-0.4651,-7.1870,8.4450,1.7797,0.9483,-2.4243,2.2657,
4.667802,-0.0015,1.5578,-0.7598,-7.1870,8.4450,1.7797,0.9483,-2.4243,2.2657,
4.670684,0.4251,0.9889,-0.7877,-7.1870,8.4450,1.7797,0.9483,-2.4243,2.2657,
4.672323,0.8643,0.6524,-0.5853,-7.1870,8.4450,1.7797,0.9483,-2.4243,2.2657,
4.673841,0.8643,0.6524,-0.5853,-7.1870,8.4450,1.7797,0.0674,-3.8926,3.3728,
4.675762,0.8643,0.6524,-0.5853,0.0121,2.3969,-3.2327,0.0674,-3.8926,3.3728,
4.725320,1.0018,0.4436,-0.5584,0.0121,2.3969,-3.2327,0.0674,-3.8926,3.3728,
4.728634,0.5901,0.4095,-0.6419,0.0121,2.3969,-3.2327,0.0674,-3.8926,3.3728,
4.730672,0.2385,0.2752,-0.6326,0.0121,2.3969,-3.2327,0.0674,-3.8926,3.3728,
4.732651,0.2385,0.2752,-0.6326,0.0121,2.3969,-3.2327,-1.7304,-3.5599,2.8839,
4.735109,0.2385,0.2752,-0.6326,1.2474,-3.9412,-2.0778,-1.7304,-3.5599,2.8839,
4.789119,0.2385,0.2752,-0.6326,-7.0141,-5.1713,-3.5347,-1.7304,-3.5599,2.8839,
4.793470,-0.0520,0.2080,-0.6773,-7.0141,-5.1713,-3.5347,-1.7304,-3.5599,2.8839,
4.796222,-0.2808,0.2324,-0.7738,-7.0141,-5.1713,-3.5347,-1.7304,-3.5599,2.8839,
4.799058,-0.4153,0.3211,-0.7887,-7.0141,-5.1713,-3.5347,-1.7304,-3.5599,2.8839,
4.801531,-0.4153,0.3211,-0.7887,-7.0141,-5.1713,-3.5347,-2.9758,-4.1140,1.9762,
4.843123,-0.2263,0.3443,-0.8643,-7.0141,-5.1713,-3.5347,-2.9758,-4.1140,1.9762,
4.846760,-0.1389,0.4007,-0.9913,-7.0141,-5.1713,-3.5347,-2.9758,-4.1140,1.9762,
4.849329,-0.1919,0.5025,-0.9820,-7.0141,-5.1713,-3.5347,-2.9758,-4.1140,1.9762,
4.851691,-0.1919,0.5025,-0.9820,-7.0141,-5.1713,-3.5347,-3.1032,-5.1189,1.2802,
4.853934,-0.1919,0.5025,-0.9820,-5.7635,-3.8662,-5.5145,-3.1032,-5.1189,1.2802,
4.900164,-0.1768,0.5577,-0.9488,-5.7635,-3.8662,-5.5145,-3.1032,-5.1189,1.2802,
4.903232,-0.1367,0.6146,-0.8805,-5.7635,-3.8662,-5.5145,-3.1032,-5.1189,1.2802,
4.905329,-0.0791,0.6822,-0.7530,-5.7635,-3.8662,-5.5145,-3.1032,-5.1189,1.2802,
4.907516,-0.0791,0.6822,-0.7530,-5.7635,-3.8662,-5.5145,-2.9122,-4.8574,0.0410,
4.909763,-0.0791,0.6822,-0.7530,-4.1571,-2.4359,-5.0051,-2.9122,-4.8574,0.0410,
4.958017,-0.0649,0.7818,-0.6028,-4.1571,-2.4359,-5.0051,-2.9122,-4.8574,0.0410,
4.959622,-0.0415,0.9149,-0.5630,-4.1571,-2.4359,-5.0051,-2.9122,-4.8574,0.0410,
4.960209,0.0327,1.0084,-0.5538,-4.1571,-2.4359,-5.0051,-2.9122,-4.8574,0.0410,
4.960808,0.0327,1.0084,-0.5538,-4.1571,-2.4359,-5.0051,-2.5809,-4.5589,-1.0706,
4.961456,0.0327,1.0084,-0.5538,-1.7108,-0.2501,-2.8710,-2.5809,-4.5589,-1.0706,
5.015613,0.0662,1.0431,-0.5010,-1.7108,-0.2501,-2.8710,-2.5809,-4.5589,-1.0706,
5.017706,0.0828,1.1378,-0.4737,-1.7108,-0.2501,-2.8710,-2.5809,-4.5589,-1.0706,
5.018906,0.0947,1.1696,-0.4388,-1.7108,-0.2501,-2.8710,-2.5809,-4.5589,-1.0706,
5.019756,0.0947,1.1696,-0.4388,-1.7108,-0.2501,-2.8710,-2.2380,-4.1838,-1.4789,
5.020779,0.0947,1.1696,-0.4388,0.6689,1.4716,-2.8396,-2.2380,-4.1838,-1.4789,
5.075336,0.2095,1.1105,-0.3291,0.6689,1.4716,-2.8396,-2.2380,-4.1838,-1.4789,
5.079249,0.2708,1.0885,-0.2688,0.6689,1.4716,-2.8396,-2.2380,-4.1838,-1.4789,
5.081642,0.3125,1.0509,-0.2263,0.6689,1.4716,-2.8396,-2.2380,-4.1838,-1.4789,
5.083662,0.3125,1.0509,-0.2263,0.6689,1.4716,-2.8396,-1.4938,-3.0955,-1.3372,
5.085864,0.3125,1.0509,-0.2263,3.3898,1.0380,-1.7806,-1.4938,-3.0955,-1.3372,
5.133713,0.3499,1.0135,-0.0820,3.3898,1.0380,-1.7806,-1.4938,-3.0955,-1.3372,
5.137374,0.3272,0.9273,0.0066,3.3898,1.0380,-1.7806,-1.4938,-3.0955,-1.3372,
5.140022,0.2947,0.8223,-0.0049,3.3898,1.0380,-1.7806,-1.4938,-3.0955,-1.3372,
5.142147,0.2947,0.8223,-0.0049,3.3898,1.0380,-1.7806,-0.7719,-2.4862,-0.5738,
5.144380,0.2947,0.8223,-0.0049,4.3092,-0.5375,0.0663,-0.7719,-2.4862,-0.5738,
5.192054,0.3892,0.8553,-0.1301,4.3092,-0.5375,0.0663,-0.7719,-2.4862,-0.5738,
5.195590,0.6055,0.8263,-0.4598,4.3092,-0.5375,0.0663,-0.7719,-2.4862,-0.5738,
5.197990,0.4334,0.9837,-0.3863,4.3092,-0.5375,0.0663,-0.7719,-2.4862,-0.5738,
5.200308,0.4334,0.9837,-0.3863,4.3092,-0.5375,0.0663,0.0273,-2.4145,0.8312,
5.202413,0.4334,0.9837,-0.3863,5.2773,-0.8873,-2.9339,0.0273,-2.4145,0.8312,
5.250111,-0.1411,1.4408,0.5044,5.2773,-0.8873,-2.9339,0.0273,-2.4145,0.8312,
5.251848,-0.3892,1.6730,0.5257,5.2773,-0.8873,-2.9339,0.0273,-2.4145,0.8312,
5.252923,-0.1624,1.2518,-0.3526,5.2773,-0.8873,-2.9339,0.0273,-2.4145,0.8312,
5.254019,-0.1624,1.2518,-0.3526,5.2773,-0.8873,-2.9339,-0.0690,1.1985,0.4755,
5.255439,-0.1624,1.2518,-0.3526,-1.9019,4.5755,2.4158,-0.0690,1.1985,0.4755,
5.308665,-0.2373,0.8656,-0.3736,-1.9019,4.5755,2.4158,-0.0690,1.1985,0.4755,
5.311822,-0.1272,0.8612,-0.0007,-1.9019,4.5755,2.4158,-0.0690,1.1985,0.4755,
5.313832,0.0703,1.0082,0.1104,-1.9019,4.5755,2.4158,-0.0690,1.1985,0.4755,
5.315793,0.0703,1.0082,0.1104,-1.9019,4.5755,2.4158,0.1667,0.5209,0.9837,
5.319025,0.0703,1.0082,0.1104,-1.1437,-0.7412,-0.5513,0.1667,0.5209,0.9837,
5.368615,0.2410,1.0565,0.0737,-1.1437,-0.7412,-0.5513,0.1667,0.5209,0.9837,
5.371017,0.2361,0.9513,-0.0042,-1.1437,-0.7412,-0.5513,0.1667,0.5209,0.9837,
5.372193,0.1367,0.9979,-0.0281,-1.1437,-0.7412,-0.5513,0.1667,0.5209,0.9837,
5.373201,0.1367,0.9979,-0.0281,-1.1437,-0.7412,-0.5513,-0.0145,-0.4545,0.8840,
5.374838,0.1367,0.9979,-0.0281,1.3105,0.1625,0.4447,-0.0145,-0.4545,0.8840,
5.425865,0.1367,1.0946,-0.0132,1.3105,0.1625,0.4447,-0.0145,-0.4545,0.8840,
5.429922,0.1235,1.0321,0.0352,1.3105,0.1625,0.4447,-0.0145,-0.4545,0.8840,
5.432150,0.0220,0.9742,0.0894,1.3105,0.1625,0.4447,-0.0145,-0.4545,0.8840,
5.434158,0.0220,0.9742,0.0894,1.3105,0.1625,0.4447,-0.0143,0.0874,0.5382,
5.436565,0.0220,0.9742,0.0894,-0.0759,0.4915,0.6486,-0.0143,0.0874,0.5382,
5.484213,0.0315,0.9972,0.0608,-0.0759,0.4915,0.6486,-0.0143,0.0874,0.5382,
5.487675,0.0879,1.0201,0.0786,-0.0759,0.4915,0.6486,-0.0143,0.0874,0.5382,
5.490228,0.0371,1.0079,0.0579,-0.0759,0.4915,0.6486,-0.0143,0.0874,0.5382,
5.492299,0.0371,1.0079,0.0579,-0.0759,0.4915,0.6486,0.1651,0.0556,0.5099,
5.494321,0.0371,1.0079,0.0579,-0.7608,0.2767,1.0013,0.1651,0.0556,0.5099,
5.541548,-0.0818,1.0450,0.1423,-0.7608,0.2767,1.0013,0.1651,0.0556,0.5099,
5.543961,-0.0986,0.9989,0.1521,-0.7608,0.2767,1.0013,0.1651,0.0556,0.5099,
5.545980,0.0576,0.9500,0.0317,-0.7608,0.2767,1.0013,0.1651,0.0556,0.5099,
5.549594,0.0576,0.9500,0.0317,-0.7608,0.2767,1.0013,0.5131,-0.1596,0.6872,
5.551634,0.0576,0.9500,0.0317,-2.0178,0.2442,1.6940,0.5131,-0.1596,0.6872,
5.600301,0.1836,0.9637,-0.0513,-2.0178,0.2442,1.6940,0.5131,-0.1596,0.6872,
5.603500,0.2530,0.9767,-0.0674,-2.0178,0.2442,1.6940,0.5131,-0.1596,0.6872,
5.605308,0.1836,0.9991,-0.1160,-2.0178,0.2442,1.6940,0.5131,-0.1596,0.6872,
5.607504,0.1836,0.9991,-0.1160,-2.0178,0.2442,1.6940,0.6394,-0.3679,0.8852,
5.609500,0.1836,0.9991,-0.1160,-0.0609,0.1896,0.2511,0.6394,-0.3679,0.8852,
5.659008,0.1748,1.0082,-0.1123,-0.0609,0.1896,0.2511,0.6394,-0.3679,0.8852,
5.662170,0.2102,1.0094,-0.1358,-0.0609,0.1896,0.2511,0.6394,-0.3679,0.8852,
5.664159,0.1531,1.0045,-0.0901,-0.0609,0.1896,0.2511,0.6394,-0.3679,0.8852,
5.666164,0.1531,1.0045,-0.0901,-0.0609,0.1896,0.2511,0.6188,-0.4099,0.8330,
5.668558,0.1531,1.0045,-0.0901,-0.7412,0.6045,0.3001,0.6188,-0.4099,0.8330,
5.717711,0.1126,0.9872,-0.0635,-0.7412,0.6045,0.3001,0.6188,-0.4099,0.8330,
5.719903,0.1616,0.9928,-0.0750,-0.7412,0.6045,0.3001,0.6188,-0.4099,0.8330,
5.720950,0.2344,1.0165,-0.1121,-0.7412,0.6045,0.3001,0.6188,-0.4099,0.8330,
5.721779,0.2344,1.0165,-0.1121,-0.7412,0.6045,0.3001,0.6923,-0.6129,1.0065,
5.722610,0.2344,1.0165,-0.1121,-1.2945,0.7353,1.0369,0.6923,-0.6129,1.0065,
5.773978,0.2085,1.0382,-0.1343,-1.2945,0.7353,1.0369,0.6923,-0.6129,1.0065,
5.775705,0.1804,1.0751,-0.1336,-1.2945,0.7353,1.0369,0.6923,-0.6129,1.0065,
5.776528,0.1091,1.1290,-0.1426,-1.2945,0.7353,1.0369,0.6923,-0.6129,1.0065,
5.778394,0.1091,1.1290,-0.1426,-1.2945,0.7353,1.0369,0.8326,-0.7147,1.2405,
5.780251,0.1091,1.1290,-0.1426,-1.8514,1.8452,1.0629,0.8326,-0.7147,1.2405,
5.833897,-0.0222,1.1766,-0.1257,-1.8514,1.8452,1.0629,0.8326,-0.7147,1.2405,
5.837007,-0.0291,1.2084,-0.0923,-1.8514,1.8452,1.0629,0.8326,-0.7147,1.2405,
5.838736,-0.0146,1.2362,-0.1152,-1.8514,1.8452,1.0629,0.8326,-0.7147,1.2405,
5.840523,-0.0146,1.2362,-0.1152,-1.8514,1.8452,1.0629,1.3376,-0.8293,1.6872,
5.842491,-0.0146,1.2362,-0.1152,-4.3171,3.6198,2.1236,1.3376,-0.8293,1.6872,
5.892028,-0.1467,1.5495,-0.0125,-4.3171,3.6198,2.1236,1.3376,-0.8293,1.6872,
5.895054,-0.6729,2.0466,0.1047,-4.3171,3.6198,2.1236,1.3376,-0.8293,1.6872,
5.897023,-1.2008,2.0642,0.0933,-4.3171,3.6198,2.1236,1.3376,-0.8293,1.6872,
5.899114,-1.2008,2.0642,0.0933,-4.3171,3.6198,2.1236,1.9906,-1.1588,2.1873,
5.901250,-1.2008,2.0642,0.0933,-11.2391,11.1077,4.9339,1.9906,-1.1588,2.1873,
5.949225,-1.0646,1.7350,0.0386,-11.2391,11.1077,4.9339,1.9906,-1.1588,2.1873,
5.952564,-0.0217,1.1974,-0.3384,-11.2391,11.1077,4.9339,1.9906,-1.1588,2.1873,
5.953544,1.3280,1.2794,-0.6729,-11.2391,11.1077,4.9339,1.9906,-1.1588,2.1873,
5.954354,1.3280,1.2794,-0.6729,-11.2391,11.1077,4.9339,2.0749,-2.5754,3.2749,
5.955393,1.3280,1.2794,-0.6729,-4.2670,7.8034,2.6540,2.0749,-2.5754,3.2749,
6.008127,1.6452,1.1051,-0.4981,-4.2670,7.8034,2.6540,2.0749,-2.5754,3.2749,
6.010010,0.8617,0.7564,-0.8150,-4.2670,7.8034,2.6540,2.0749,-2.5754,3.2749,
6.010803,0.4793,0.4693,-1.0528,-4.2670,7.8034,2.6540,2.0749,-2.5754,3.2749,
6.011841,0.4793,0.4693,-1.0528,-4.2670,7.8034,2.6540,1.6740,-0.4078,1.7905,
6.012685,0.4793,0.4693,-1.0528,4.2025,2.7642,-1.2323,1.6740,-0.4078,1.7905,
6.066318,0.3597,0.3638,-0.6224,4.2025,2.7642,-1.2323,1.6740,-0.4078,1.7905,
6.068403,0.1756,0.1624,-0.2027,4.2025,2.7642,-1.2323,1.6740,-0.4078,1.7905,
6.069510,0.0227,-0.0164,0.0156,4.2025,2.7642,-1.2323,1.6740,-0.4078,1.7905,
6.070387,0.0227,-0.0164,0.0156,4.2025,2.7642,-1.2323,-1.8267,0.6410,-0.6493,
6.071928,0.0227,-0.0164,0.0156,-3.6923,-3.9807,3.0316,-1.8267,0.6410,-0.6493,
6.124060,-0.1643,0.0120,-0.0767,-3.6923,-3.9807,3.0316,-1.8267,0.6410,-0.6493,
6.126199,-0.1245,0.1665,-0.2427,-3.6923,-3.9807,3.0316,-1.8267,0.6410,-0.6493,
6.127747,0.0903,0.3382,-0.3445,-3.6923,-3.9807,3.0316,-1.8267,0.6410,-0.6493,
6.129037,0.0903,0.3382,-0.3445,-3.6923,-3.9807,3.0316,-2.7383,-0.4329,-2.6367,
6.130761,0.0903,0.3382,-0.3445,-4.9518,-5.4669,2.5560,-2.7383,-0.4329,-2.6367,
6.183892,0.1402,0.5147,-0.4112,-4.9518,-5.4669,2.5560,-2.7383,-0.4329,-2.6367,
6.187567,0.0667,0.6634,-0.3465,-4.9518,-5.4669,2.5560,-2.7383,-0.4329,-2.6367,
6.189876,0.0117,0.7340,-0.2578,-4.9518,-5.4669,2.5560,-2.7383,-0.4329,-2.6367,
6.192265,0.0117,0.7340,-0.2578,-4.9518,-5.4669,2.5560,-4.0741,-1.7585,-3.7291,
6.194533,0.0117,0.7340,-0.2578,-1.4139,-2.5179,-0.1771,-4.0741,-1.7585,-3.7291,
6.242442,0.0244,0.8993,-0.3924,-1.4139,-2.5179,-0.1771,-4.0741,-1.7585,-3.7291,
6.245925,0.2471,1.2824,-0.7117,-1.4139,-2.5179,-0.1771,-4.0741,-1.7585,-3.7291,
6.249026,0.7437,1.7175,-0.9725,-1.4139,-2.5179,-0.1771,-4.0741,-1.7585,-3.7291,
6.251255,0.7437,1.7175,-0.9725,-1.4139,-2.5179,-0.1771,-4.7870,-2.2470,-4.0517,
6.253535,0.7437,1.7175,-0.9725,3.5684,3.1627,-6.0119,-4.7870,-2.2470,-4.0517,
6.300397,0.8753,1.6835,-0.9713,3.5684,3.1627,-6.0119,-4.7870,-2.2470,-4.0517,
6.304406,0.9366,1.2550,-0.8834,3.5684,3.1627,-6.0119,-4.7870,-2.2470,-4.0517,
6.306705,0.9146,1.1215,-0.5113,3.5684,3.1627,-6.0119,-4.7870,-2.2470,-4.0517,
6.309071,0.9146,1.1215,-0.5113,3.5684,3.1627,-6.0119,-4.3958,0.3409,-3.8069,
6.311375,0.9146,1.1215,-0.5113,11.1102,4.0269,-9.1740,-4.3958,0.3409,-3.8069,
6.358858,0.7525,1.0228,-0.5650,11.1102,4.0269,-9.1740,-4.3958,0.3409,-3.8069,
6.362835,0.8116,0.8573,-0.6544,11.1102,4.0269,-9.1740,-4.3958,0.3409,-3.8069,
6.364786,0.7191,0.8194,-0.4766,11.1102,4.0269,-9.1740,-4.3958,0.3409,-3.8069,
6.367048,0.7191,0.8194,-0.4766,11.1102,4.0269,-9.1740,-1.0053,2.4227,-0.5243,
6.369468,0.7191,0.8194,-0.4766,10.0160,-0.2447,-7.0302,-1.0053,2.4227,-0.5243,
6.417570,0.6133,1.0187,-0.7303,10.0160,-0.2447,-7.0302,-1.0053,2.4227,-0.5243,
6.421404,-0.4119,1.5336,-0.0366,10.0160,-0.2447,-7.0302,-1.0053,2.4227,-0.5243,
6.423799,-2.0742,1.7824,0.8111,10.0160,-0.2447,-7.0302,-1.0053,2.4227,-0.5243,
6.425866,-2.0742,1.7824,0.8111,10.0160,-0.2447,-7.0302,0.5164,3.6551,1.0823,
6.428178,-2.0742,1.7824,0.8111,-3.8291,4.8324,-0.5356,0.5164,3.6551,1.0823,
6.479668,-0.5010,1.4928,-0.5997,-3.8291,4.8324,-0.5356,0.5164,3.6551,1.0823,
6.484555,0.4102,1.2155,-1.2040,-3.8291,4.8324,-0.5356,0.5164,3.6551,1.0823,
6.488784,-0.0635,0.8607,0.2644,-3.8291,4.8324,-0.5356,0.5164,3.6551,1.0823,
6.492526,-0.0635,0.8607,0.2644,-3.8291,4.8324,-0.5356,1.2525,1.5708,2.1483,
6.495183,-0.0635,0.8607,0.2644,0.6208,2.0644,-4.7621,1.2525,1.5708,2.1483,
6.533129,-0.1419,0.7247,0.2119,0.6208,2.0644,-4.7621,1.2525,1.5708,2.1483,
6.536700,0.2722,1.0106,-0.0828,0.6208,2.0644,-4.7621,1.2525,1.5708,2.1483,
6.538847,0.5269,1.0570,-0.2217,0.6208,2.0644,-4.7621,1.2525,1.5708,2.1483,
6.540650,0.5269,1.0570,-0.2217,0.6208,2.0644,-4.7621,0.5656,-0.4777,1.6978,
6.542577,0.5269,1.0570,-0.2217,2.2952,-0.5145,0.2686,0.5656,-0.4777,1.6978,
6.591940,0.3894,0.9774,-0.1419,2.2952,-0.5145,0.2686,0.5656,-0.4777,1.6978,
6.595056,-0.0510,1.0035,-0.0371,2.2952,-0.5145,0.2686,0.5656,-0.4777,1.6978,
6.596657,-0.2278,1.0909,-0.0315,2.2952,-0.5145,0.2686,0.5656,-0.4777,1.6978,
6.599967,-0.2278,1.0909,-0.0315,2.2952,-0.5145,0.2686,0.3681,0.7204,0.8654,
6.602345,-0.2278,1.0909,-0.0315,-0.0064,0.4114,0.0796,0.3681,0.7204,0.8654,
6.650241,-0.1414,1.0316,0.0725,-0.0064,0.4114,0.0796,0.3681,0.7204,0.8654,
6.653625,-0.0176,0.9635,0.0696,-0.0064,0.4114,0.0796,0.3681,0.7204,0.8654,
6.655240,0.0823,0.9615,-0.0352,-0.0064,0.4114,0.0796,0.3681,0.7204,0.8654,
6.656802,0.0823,0.9615,-0.0352,-0.0064,0.4114,0.0796,0.5461,0.2600,1.0267,
6.659580,0.0823,0.9615,-0.0352,-1.1855,0.1021,1.3898,0.5461,0.2600,1.0267,
6.708780,0.1443,0.9581,-0.1155,-1.1855,0.1021,1.3898,0.5461,0.2600,1.0267,
6.711282,0.1099,0.9730,-0.0676,-1.1855,0.1021,1.3898,0.5461,0.2600,1.0267,
6.713504,0.0601,1.0170,-0.0288,-1.1855,0.1021,1.3898,0.5461,0.2600,1.0267,
6.715324,0.0601,1.0170,-0.0288,-0.4941,0.1968,0.7132,0.5461,0.2600,1.0267,
6.717289,0.0601,1.0170,-0.0288,-0.4941,0.1968,0.7132,0.6677,-0.0885,1.0847,
6.767278,0.1533,0.9820,-0.0750,-0.4941,0.1968,0.7132,0.6677,-0.0885,1.0847,
6.770598,0.2544,0.9584,-0.1489,-0.4941,0.1968,0.7132,0.6677,-0.0885,1.0847,
6.772513,0.2459,0.9784,-0.1995,-0.4941,0.1968,0.7132,0.6677,-0.0885,1.0847,
6.774273,0.2459,0.9784,-0.1995,-0.4941,0.1968,0.7132,0.7652,-0.1026,1.1187,
6.776208,0.2459,0.9784,-0.1995,0.0145,0.2873,0.4428,0.7652,-0.1026,1.1187,
6.824801,0.2674,0.9886,-0.2298,0.0145,0.2873,0.4428,0.7652,-0.1026,1.1187,
6.827750,0.2644,1.0218,-0.2156,0.0145,0.2873,0.4428,0.7652,-0.1026,1.1187,
6.829552,0.1685,1.0277,-0.1875,0.0145,0.2873,0.4428,0.7652,-0.1026,1.1187,
6.831456,0.1685,1.0277,-0.1875,0.0145,0.2873,0.4428,0.6375,-0.3060,0.9689,
6.833287,0.1685,1.0277,-0.1875,-0.3086,0.8712,0.1392,0.6375,-0.3060,0.9689,
6.883559,0.0601,1.0316,-0.1568,-0.3086,0.8712,0.1392,0.6375,-0.3060,0.9689,
6.886490,0.0469,1.0260,-0.1790,-0.3086,0.8712,0.1392,0.6375,-0.3060,0.9689,
6.888822,0.0872,1.0494,-0.1555,-0.3086,0.8712,0.1392,0.6375,-0.3060,0.9689,
6.890687,0.0872,1.0494,-0.1555,-2.4463,1.3715,1.0568,0.6375,-0.3060,0.9689,
6.892587,0.0872,1.0494,-0.1555,-2.4463,1.3715,1.0568,0.7650,-0.4508,1.1358,
6.941878,0.0977,1.1542,-0.0757,-2.4463,1.3715,1.0568,0.7650,-0.4508,1.1358,
6.945066,-0.0015,1.2521,-0.0083,-2.4463,1.3715,1.0568,0.7650,-0.4508,1.1358,
6.946707,-0.1834,1.4198,0.0281,-2.4463,1.3715,1.0568,0.7650,-0.4508,1.1358,
6.948751,-0.1834,1.4198,0.0281,-2.4463,1.3715,1.0568,1.5457,-0.3060,1.5089,
6.950602,-0.1834,1.4198,0.0281,-3.9921,4.2285,3.2499,1.5457,-0.3060,1.5089,
7.000696,-0.4268,1.7736,0.1504,-3.9921,4.2285,3.2499,1.5457,-0.3060,1.5089,
7.003675,-0.8819,1.9965,0.1270,-3.9921,4.2285,3.2499,1.5457,-0.3060,1.5089,
7.005616,-1.1107,1.9257,-0.0059,-3.9921,4.2285,3.2499,1.5457,-0.3060,1.5089,
7.007499,-1.1107,1.9257,-0.0059,-3.9921,4.2285,3.2499,2.3087,-1.4602,2.0246,
7.009473,-1.1107,1.9257,-0.0059,-11.9709,11.1774,5.6157,2.3087,-1.4602,2.0246,
7.058564,-0.6024,1.3864,-0.1492,-11.9709,11.1774,5.6157,2.3087,-1.4602,2.0246,
7.062184,0.3841,1.0792,-0.5872,-11.9709,11.1774,5.6157,2.3087,-1.4602,2.0246,
7.064510,1.2687,1.1844,-0.6072,-11.9709,11.1774,5.6157,2.3087,-1.4602,2.0246,
7.066825,1.2687,1.1844,-0.6072,-11.9709,11.1774,5.6157,2.1891,-2.8493,3.1600,
7.069712,1.2687,1.1844,-0.6072,-0.9272,5.8846,1.8789,2.1891,-2.8493,3.1600,
7.117347,1.0145,0.9850,-0.6558,-0.9272,5.8846,1.8789,2.1891,-2.8493,3.1600,
7.120923,0.5401,0.6588,-0.7987,-0.9272,5.8846,1.8789,2.1891,-2.8493,3.1600,
7.122921,0.4639,0.4554,-0.8253,-0.9272,5.8846,1.8789,2.1891,-2.8493,3.1600,
7.125012,0.4639,0.4554,-0.8253,-0.9272,5.8846,1.8789,1.3602,-0.8132,1.5333,
7.127227,0.4639,0.4554,-0.8253,2.0098,1.7115,-0.5194,1.3602,-0.8132,1.5333,
7.174596,0.4686,0.4075,-0.4854,2.0098,1.7115,-0.5194,1.3602,-0.8132,1.5333,
7.177260,0.3008,0.2815,-0.2466,2.0098,1.7115,-0.5194,1.3602,-0.8132,1.5333,
7.179357,0.0684,0.1428,-0.0867,2.0098,1.7115,-0.5194,1.3602,-0.8132,1.5333,
7.181168,0.0684,0.1428,-0.0867,-1.9541,-3.1418,3.4489,1.3602,-0.8132,1.5333,
7.183134,0.0684,0.1428,-0.0867,-1.9541,-3.1418,3.4489,-1.7312,0.6956,-0.3771,
7.233423,-0.0671,0.1284,-0.1714,-1.9541,-3.1418,3.4489,-1.7312,0.6956,-0.3771,
7.236424,-0.0632,0.2305,-0.2757,-1.9541,-3.1418,3.4489,-1.7312,0.6956,-0.3771,
7.240297,0.0908,0.3369,-0.3052,-1.9541,-3.1418,3.4489,-1.7312,0.6956,-0.3771,
7.242957,0.0908,0.3369,-0.3052,-1.9541,-3.1418,3.4489,-2.9892,0.2584,-2.2903,
7.245302,0.0908,0.3369,-0.3052,-3.9460,-5.0405,2.4006,-2.9892,0.2584,-2.2903,
7.291703,0.2117,0.4388,-0.3404,-3.9460,-5.0405,2.4006,-2.9892,0.2584,-2.2903,
7.295678,0.2173,0.5071,-0.3181,-3.9460,-5.0405,2.4006,-2.9892,0.2584,-2.2903,
7.297999,0.2119,0.5652,-0.1765,-3.9460,-5.0405,2.4006,-2.9892,0.2584,-2.2903,
7.300298,0.2119,0.5652,-0.1765,-3.9460,-5.0405,2.4006,-4.0914,-0.7159,-3.6241,
7.302624,0.2119,0.5652,-0.1765,0.1600,-3.8732,0.2935,-4.0914,-0.7159,-3.6241,
7.350925,0.1477,0.8187,-0.3030,0.1600,-3.8732,0.2935,-4.0914,-0.7159,-3.6241,
7.354996,0.2061,1.3107,-0.5870,0.1600,-3.8732,0.2935,-4.0914,-0.7159,-3.6241,
7.357450,0.5689,1.7929,-0.8346,0.1600,-3.8732,0.2935,-4.0914,-0.7159,-3.6241,
7.358715,0.5689,1.7929,-0.8346,0.1600,-3.8732,0.2935,-4.7793,-1.0645,-4.4634,
7.360994,0.5689,1.7929,-0.8346,3.5388,3.2757,-5.0663,-4.7793,-1.0645,-4.4634,
7.407401,0.7076,1.7519,-0.9520,3.5388,3.2757,-5.0663,-4.7793,-1.0645,-4.4634,
7.409129,0.8231,1.4186,-0.6829,3.5388,3.2757,-5.0663,-4.7793,-1.0645,-4.4634,
7.410071,0.7508,1.1207,-0.2459,3.5388,3.2757,-5.0663,-4.7793,-1.0645,-4.4634,
7.410948,0.7508,1.1207,-0.2459,3.5388,3.2757,-5.0663,-4.6326,0.8127,-3.8574,
7.411789,0.7508,1.1207,-0.2459,9.9705,4.9424,-7.8754,-4.6326,0.8127,-3.8574,
7.469087,0.6146,1.0006,-0.5030,9.9705,4.9424,-7.8754,-4.6326,0.8127,-3.8574,
7.472771,0.5652,0.7435,-0.6214,9.9705,4.9424,-7.8754,-4.6326,0.8127,-3.8574,
7.475572,0.5870,0.6734,-0.4322,9.9705,4.9424,-7.8754,-4.6326,0.8127,-3.8574,
7.478012,0.5870,0.6734,-0.4322,9.9705,4.9424,-7.8754,-1.2749,2.4441,-0.5575,
7.479464,0.5870,0.6734,-0.4322,8.7253,-0.9297,-6.9401,-1.2749,2.4441,-0.5575,
7.524982,0.4690,0.9762,-0.8065,8.7253,-0.9297,-6.9401,-1.2749,2.4441,-0.5575,
7.529063,-0.6903,1.6181,0.1192,8.7253,-0.9297,-6.9401,-1.2749,2.4441,-0.5575,
7.531459,-2.6797,1.7414,1.2565,8.7253,-0.9297,-6.9401,-1.2749,2.4441,-0.5575,
7.533733,-2.6797,1.7414,1.2565,8.7253,-0.9297,-6.9401,0.3687,3.4863,1.0328,
7.535764,-2.6797,1.7414,1.2565,-6.6372,5.0499,0.7754,0.3687,3.4863,1.0328,
7.583026,-0.8775,1.8464,0.0178,-6.6372,5.0499,0.7754,0.3687,3.4863,1.0328,
7.586221,0.7677,1.0987,-1.5724,-6.6372,5.0499,0.7754,0.3687,3.4863,1.0328,
7.588964,0.6412,0.6583,0.0706,-6.6372,5.0499,0.7754,0.3687,3.4863,1.0328,
7.591073,0.6412,0.6583,0.0706,-6.6372,5.0499,0.7754,1.4982,0.4671,2.6345,
7.593662,0.6412,0.6583,0.0706,3.1192,2.2365,-4.9509,1.4982,0.4671,2.6345,
7.642377,0.0886,0.7591,0.0164,3.1192,2.2365,-4.9509,1.4982,0.4671,2.6345,
7.645769,0.2447,1.0382,0.0513,3.1192,2.2365,-4.9509,1.4982,0.4671,2.6345,
7.647654,0.3797,1.1144,-0.1455,3.1192,2.2365,-4.9509,1.4982,0.4671,2.6345,
7.649722,0.3797,1.1144,-0.1455,3.1192,2.2365,-4.9509,0.6931,-0.0244,1.5388,
7.651497,0.3797,1.1144,-0.1455,2.8062,-0.1033,0.0301,0.6931,-0.0244,1.5388,
7.700726,0.1587,0.9886,-0.0510,2.8062,-0.1033,0.0301,0.6931,-0.0244,1.5388,
7.703722,-0.1526,1.0016,-0.0337,2.8062,-0.1033,0.0301,0.6931,-0.0244,1.5388,
7.705578,-0.1135,1.0519,-0.0708,2.8062,-0.1033,0.0301,0.6931,-0.0244,1.5388,
7.712309,-0.1135,1.0519,-0.0708,2.8062,-0.1033,0.0301,0.5282,0.4016,0.8518,
7.714626,-0.1135,1.0519,-0.0708,-0.3567,0.3190,0.0753,0.5282,0.4016,0.8518,
7.757110,0.0520,1.0204,-0.0447,-0.3567,0.3190,0.0753,0.5282,0.4016,0.8518,
7.758330,0.0859,0.9769,-0.0413,-0.3567,0.3190,0.0753,0.5282,0.4016,0.8518,
7.758900,0.0889,0.9837,-0.0344,-0.3567,0.3190,0.0753,0.5282,0.4016,0.8518,
7.759376,0.0889,0.9837,-0.0344,-0.3567,0.3190,0.0753,0.4492,0.0446,0.8267,
7.759991,0.0889,0.9837,-0.0344,0.2662,0.1472,0.4346,0.4492,0.0446,0.8267,
7.816505,0.0845,0.9549,-0.0066,0.2662,0.1472,0.4346,0.4492,0.0446,0.8267,
7.819417,0.0471,0.9488,0.0337,0.2662,0.1472,0.4346,0.4492,0.0446,0.8267,
7.821086,0.0254,0.9837,-0.0090,0.2662,0.1472,0.4346,0.4492,0.0446,0.8267,
7.822465,0.0254,0.9837,-0.0090,0.2662,0.1472,0.4346,0.4728,-0.0721,0.7390,
7.824446,0.0254,0.9837,-0.0090,-0.3638,-0.1008,1.1344,0.4728,-0.0721,0.7390,
7.874754,0.1294,0.9713,-0.0962,-0.3638,-0.1008,1.1344,0.4728,-0.0721,0.7390,
7.878093,0.1929,0.9598,-0.1123,-0.3638,-0.1008,1.1344,0.4728,-0.0721,0.7390,
7.879855,0.1670,0.9781,-0.0877,-0.3638,-0.1008,1.1344,0.4728,-0.0721,0.7390,
7.881635,0.1670,0.9781,-0.0877,-0.3638,-0.1008,1.1344,0.5227,-0.1759,0.7536,
7.883539,0.1670,0.9781,-0.0877,0.3119,0.0541,0.4017,0.5227,-0.1759,0.7536,
7.932672,0.1360,0.9559,-0.0762,0.3119,0.0541,0.4017,0.5227,-0.1759,0.7536,
7.935331,0.1314,0.9364,-0.0725,0.3119,0.0541,0.4017,0.5227,-0.1759,0.7536,
7.936636,0.1140,0.9386,-0.0603,0.3119,0.0541,0.4017,0.5227,-0.1759,0.7536,
7.938206,0.1140,0.9386,-0.0603,0.3119,0.0541,0.4017,0.5726,-0.1384,0.6899,
7.939221,0.1140,0.9386,-0.0603,-0.3999,-0.0901,0.9953,0.5726,-0.1384,0.6899,
7.990583,0.1365,0.9393,-0.0962,-0.3999,-0.0901,0.9953,0.5726,-0.1384,0.6899,
7.992202,0.1392,0.9737,-0.1445,-0.3999,-0.0901,0.9953,0.5726,-0.1384,0.6899,
7.992778,0.1929,0.9654,-0.1809,-0.3999,-0.0901,0.9953,0.5726,-0.1384,0.6899,
7.993535,0.1929,0.9654,-0.1809,-0.3999,-0.0901,0.9953,0.6504,-0.4286,0.8107,
7.994321,0.1929,0.9654,-0.1809,-0.4974,0.2201,0.6870,0.6504,-0.4286,0.8107,
8.048778,0.1799,0.9398,-0.1162,-0.4974,0.2201,0.6870,0.6504,-0.4286,0.8107,
8.049963,0.1314,0.9249,-0.1099,-0.4974,0.2201,0.6870,0.6504,-0.4286,0.8107,
8.050434,0.1743,0.9596,-0.1450,-0.4974,0.2201,0.6870,0.6504,-0.4286,0.8107,
8.050934,0.1743,0.9596,-0.1450,-0.4974,0.2201,0.6870,0.7811,-0.6029,0.9342,
8.051443,0.1743,0.9596,-0.1450,-0.8403,0.2657,1.3218,0.7811,-0.6029,0.9342,
8.108114,0.1250,1.0152,-0.1638,-0.8403,0.2657,1.3218,0.7811,-0.6029,0.9342,
8.109598,0.0623,1.1390,-0.0315,-0.8403,0.2657,1.3218,0.7811,-0.6029,0.9342,
8.110348,-0.0984,1.3798,0.2359,-0.8403,0.2657,1.3218,0.7811,-0.6029,0.9342,
8.111223,-0.0984,1.3798,0.2359,-0.8403,0.2657,1.3218,1.0488,-1.0309,1.3256,
8.112043,-0.0984,1.3798,0.2359,-2.5970,2.9188,3.3091,1.0488,-1.0309,1.3256,
8.165255,-0.2957,1.7248,0.1839,-2.5970,2.9188,3.3091,1.0488,-1.0309,1.3256,
8.166799,-0.2354,2.0412,-0.2168,-2.5970,2.9188,3.3091,1.0488,-1.0309,1.3256,
8.167687,-0.0220,1.8229,-0.5030,-2.5970,2.9188,3.3091,1.0488,-1.0309,1.3256,
8.168356,-0.0220,1.8229,-0.5030,-5.3902,10.2607,2.4658,1.0488,-1.0309,1.3256,
8.169169,-0.0220,1.8229,-0.5030,-5.3902,10.2607,2.4658,1.3665,-2.1983,2.6361,
8.223904,0.2530,1.2438,-0.4920,-5.3902,10.2607,2.4658,1.3665,-2.1983,2.6361,
8.225700,0.5652,0.7616,-0.5670,-5.3902,10.2607,2.4658,1.3665,-2.1983,2.6361,
8.226962,1.0331,0.5589,-0.6619,-5.3902,10.2607,2.4658,1.3665,-2.1983,2.6361,
8.228187,1.0331,0.5589,-0.6619,-5.3902,10.2607,2.4658,0.5777,-3.5434,3.3857,
8.229322,1.0331,0.5589,-0.6619,1.9325,1.2800,-0.3387,0.5777,-3.5434,3.3857,
8.282750,1.0326,0.4319,-0.7032,1.9325,1.2800,-0.3387,0.5777,-3.5434,3.3857,
8.284240,0.4703,0.2705,-0.6436,1.9325,1.2800,-0.3387,0.5777,-3.5434,3.3857,
8.285034,0.0015,0.1079,-0.6634,1.9325,1.2800,-0.3387,0.5777,-3.5434,3.3857,
8.285696,0.0015,0.1079,-0.6634,1.9325,1.2800,-0.3387,-1.6070,-3.0077,2.6974,
8.286549,0.0015,0.1079,-0.6634,0.6426,-4.2250,-1.1772,-1.6070,-3.0077,2.6974,
8.340004,-0.2942,0.0982,-0.7491,0.6426,-4.2250,-1.1772,-1.6070,-3.0077,2.6974,
8.341490,-0.2835,0.2266,-0.9532,0.6426,-4.2250,-1.1772,-1.6070,-3.0077,2.6974,
8.342451,-0.2190,0.3413,-0.8775,0.6426,-4.2250,-1.1772,-1.6070,-3.0077,2.6974,
8.343366,-0.2190,0.3413,-0.8775,0.6426,-4.2250,-1.1772,-3.1949,-1.8764,1.8575,
8.344873,-0.2190,0.3413,-0.8775,-6.9617,-5.0733,-3.8164,-3.1949,-1.8764,1.8575,
8.398660,-0.1453,0.3772,-0.7926,-6.9617,-5.0733,-3.8164,-3.1949,-1.8764,1.8575,
8.400304,-0.2232,0.4605,-0.9095,-6.9617,-5.0733,-3.8164,-3.1949,-1.8764,1.8575,
8.401018,-0.4427,0.5306,-0.9977,-6.9617,-5.0733,-3.8164,-3.1949,-1.8764,1.8575,
8.401733,-0.4427,0.5306,-0.9977,-6.9617,-5.0733,-3.8164,-3.6115,-3.0016,0.8868,
8.402762,-0.4427,0.5306,-0.9977,-6.5566,-3.3828,-4.9793,-3.6115,-3.0016,0.8868,
8.458838,-0.4708,0.5401,-1.0265,-6.5566,-3.3828,-4.9793,-3.6115,-3.0016,0.8868,
8.462616,-0.1953,0.6143,-1.0853,-6.5566,-3.3828,-4.9793,-3.6115,-3.0016,0.8868,
8.465100,-0.0103,0.7247,-1.0279,-6.5566,-3.3828,-4.9793,-3.6115,-3.0016,0.8868,
8.467174,-0.0103,0.7247,-1.0279,-6.5566,-3.3828,-4.9793,-2.8638,-5.2671,0.3093,
8.470258,-0.0103,0.7247,-1.0279,-5.0563,-2.2225,-6.6043,-2.8638,-5.2671,0.3093,
8.516125,-0.0120,0.7808,-0.8741,-5.0563,-2.2225,-6.6043,-2.8638,-5.2671,0.3093,
8.519561,-0.0862,0.8744,-0.7865,-5.0563,-2.2225,-6.6043,-2.8638,-5.2671,0.3093,
8.521327,-0.1140,1.0167,-0.7662,-5.0563,-2.2225,-6.6043,-2.8638,-5.2671,0.3093,
8.523451,-0.1140,1.0167,-0.7662,-5.0563,-2.2225,-6.6043,-2.4973,-4.9525,-0.5754,
8.525745,-0.1140,1.0167,-0.7662,-2.2349,-0.1909,-4.8058,-2.4973,-4.9525,-0.5754,
8.574810,-0.0530,1.0797,-0.7559,-2.2349,-0.1909,-4.8058,-2.4973,-4.9525,-0.5754,
8.578651,-0.0076,1.0726,-0.6512,-2.2349,-0.1909,-4.8058,-2.4973,-4.9525,-0.5754,
8.580871,0.0405,1.0792,-0.5767,-2.2349,-0.1909,-4.8058,-2.4973,-4.9525,-0.5754,
8.582758,0.0405,1.0792,-0.5767,-2.2349,-0.1909,-4.8058,-2.1336,-4.1071,-1.0299,
8.585019,0.0405,1.0792,-0.5767,-0.4038,1.2271,-4.1947,-2.1336,-4.1071,-1.0299,
8.633286,0.1318,1.0773,-0.5230,-0.4038,1.2271,-4.1947,-2.1336,-4.1071,-1.0299,
8.637100,0.1438,1.0333,-0.4229,-0.4038,1.2271,-4.1947,-2.1336,-4.1071,-1.0299,
8.640030,0.0874,1.0047,-0.3440,-0.4038,1.2271,-4.1947,-2.1336,-4.1071,-1.0299,
8.642167,0.0874,1.0047,-0.3440,-0.4038,1.2271,-4.1947,-1.7874,-3.3589,-1.0360,
8.644457,0.0874,1.0047,-0.3440,1.7409,0.6576,-2.8871,-1.7874,-3.3589,-1.0360,
8.691670,0.0842,1.0104,-0.3101,1.7409,0.6576,-2.8871,-1.7874,-3.3589,-1.0360,
8.696112,0.1631,0.9725,-0.2644,1.7409,0.6576,-2.8871,-1.7874,-3.3589,-1.0360,
8.699175,0.1946,0.8687,-0.1892,1.7409,0.6576,-2.8871,-1.7874,-3.3589,-1.0360,
8.701155,0.1946,0.8687,-0.1892,1.7409,0.6576,-2.8871,-1.2498,-3.3264,-0.7829,
8.703405,0.1946,0.8687,-0.1892,2.5615,-0.2266,-2.0016,-1.2498,-3.3264,-0.7829,
8.749561,0.2398,0.8377,-0.1953,2.5615,-0.2266,-2.0016,-1.2498,-3.3264,-0.7829,
8.752409,0.3164,0.8333,-0.2493,2.5615,-0.2266,-2.0016,-1.2498,-3.3264,-0.7829,
8.754370,0.4791,0.7952,-0.2683,2.5615,-0.2266,-2.0016,-1.2498,-3.3264,-0.7829,
8.756136,0.4791,0.7952,-0.2683,2.5615,-0.2266,-2.0016,-0.5761,-3.8882,-0.1814,
8.762463,0.4791,0.7952,-0.2683,4.5599,-1.4556,-2.3938,-0.5761,-3.8882,-0.1814,
8.808795,0.7008,0.8658,-0.3399,4.5599,-1.4556,-2.3938,-0.5761,-3.8882,-0.1814,
8.812247,0.8280,0.9442,-0.3570,4.5599,-1.4556,-2.3938,-0.5761,-3.8882,-0.1814,
8.814134,0.5130,1.1913,0.3120,4.5599,-1.4556,-2.3938,-0.5761,-3.8882,-0.1814,
8.816372,0.5130,1.1913,0.3120,4.5599,-1.4556,-2.3938,-0.1177,-2.3046,0.8524,
8.819314,0.5130,1.1913,0.3120,7.2256,0.2427,-1.4970,-0.1177,-2.3046,0.8524,
8.865739,0.1865,1.5365,1.1200,7.2256,0.2427,-1.4970,-0.1177,-2.3046,0.8524,
8.868921,-0.1311,1.3981,-0.0833,7.2256,0.2427,-1.4970,-0.1177,-2.3046,0.8524,
8.870240,-0.6256,1.1996,-0.6158,7.2256,0.2427,-1.4970,-0.1177,-2.3046,0.8524,
8.871299,-0.6256,1.1996,-0.6158,7.2256,0.2427,-1.4970,-0.0430,1.0847,0.4598,
8.872200,-0.6256,1.1996,-0.6158,-1.5214,3.8671,1.1144,-0.0430,1.0847,0.4598,
8.925083,-0.3814,0.7891,0.0088,-1.5214,3.8671,1.1144,-0.0430,1.0847,0.4598,
8.930924,-0.0378,0.8778,-0.0620,-1.5214,3.8671,1.1144,-0.0430,1.0847,0.4598,
8.933531,0.3035,1.1493,0.0689,-1.5214,3.8671,1.1144,-0.0430,1.0847,0.4598,
8.936095,0.3035,1.1493,0.0689,-1.5214,3.8671,1.1144,-0.1892,-0.2331,1.0743,
8.938100,0.3035,1.1493,0.0689,-0.6352,-0.4300,-0.3078,-0.1892,-0.2331,1.0743,
8.982213,0.3623,1.0392,0.1990,-0.6352,-0.4300,-0.3078,-0.1892,-0.2331,1.0743,
8.983910,0.0986,0.9627,0.1431,-0.6352,-0.4300,-0.3078,-0.1892,-0.2331,1.0743,
8.984808,-0.0356,1.0548,0.0708,-0.6352,-0.4300,-0.3078,-0.1892,-0.2331,1.0743,
8.985691,-0.0356,1.0548,0.0708,-0.6352,-0.4300,-0.3078,-0.0925,-0.4683,0.7255,
8.986464,-0.0356,1.0548,0.0708,0.7028,0.3710,0.9358,-0.0925,-0.4683,0.7255,
9.042089,0.1482,1.0294,-0.0381,0.7028,0.3710,0.9358,-0.0925,-0.4683,0.7255,
9.045396,0.2400,0.9964,0.0432,0.7028,0.3710,0.9358,-0.0925,-0.4683,0.7255,
9.047502,0.1880,1.0016,0.1494,0.7028,0.3710,0.9358,-0.0925,-0.4683,0.7255,
9.049473,0.1880,1.0016,0.1494,0.7028,0.3710,0.9358,-0.0715,-0.7805,0.5091,
9.051479,0.1880,1.0016,0.1494,0.8768,0.2969,0.0895,-0.0715,-0.7805,0.5091,
9.101016,0.0803,1.0221,0.1731,0.8768,0.2969,0.0895,-0.0715,-0.7805,0.5091,
9.104765,-0.0166,0.9913,0.2085,0.8768,0.2969,0.0895,-0.0715,-0.7805,0.5091,
9.106771,0.0581,0.9327,0.1917,0.8768,0.2969,0.0895,-0.0715,-0.7805,0.5091,
9.109312,0.0581,0.9327,0.1917,0.8768,0.2969,0.0895,0.1319,-0.5439,0.3230,
9.111375,0.0581,0.9327,0.1917,-0.7867,0.0485,1.5400,0.1319,-0.5439,0.3230,
9.159938,0.1284,0.9947,0.1463,-0.7867,0.0485,1.5400,0.1319,-0.5439,0.3230,
9.163258,0.0474,1.0362,0.1084,-0.7867,0.0485,1.5400,0.1319,-0.5439,0.3230,
9.165192,0.0347,0.9654,0.1216,-0.7867,0.0485,1.5400,0.1319,-0.5439,0.3230,
9.166749,0.0347,0.9654,0.1216,-0.7867,0.0485,1.5400,0.3089,-0.6876,0.4755,
9.169142,0.0347,0.9654,0.1216,-0.7584,0.2414,1.1028,0.3089,-0.6876,0.4755,
9.217180,0.0645,0.9447,0.1343,-0.7584,0.2414,1.1028,0.3089,-0.6876,0.4755,
9.220426,0.0576,0.9879,0.0940,-0.7584,0.2414,1.1028,0.3089,-0.6876,0.4755,
9.222359,0.1028,0.9801,0.0002,-0.7584,0.2414,1.1028,0.3089,-0.6876,0.4755,
9.224159,0.1028,0.9801,0.0002,-1.0873,0.0371,0.9517,0.3089,-0.6876,0.4755,
9.226006,0.1028,0.9801,0.0002,-1.0873,0.0371,0.9517,0.5426,-0.4917,0.7121,
9.275306,0.1470,0.9730,-0.0027,-1.0873,0.0371,0.9517,0.5426,-0.4917,0.7121,
9.278238,0.1731,0.9820,-0.0339,-1.0873,0.0371,0.9517,0.5426,-0.4917,0.7121,
9.280113,0.2827,0.9864,-0.0798,-1.0873,0.0371,0.9517,0.5426,-0.4917,0.7121,
9.282777,0.2827,0.9864,-0.0798,-1.0873,0.0371,0.9517,0.6369,-0.5052,0.9007,
9.284754,0.2827,0.9864,-0.0798,-0.3298,0.2506,0.2312,0.6369,-0.5052,0.9007,
9.333970,0.2964,0.9679,-0.1174,-0.3298,0.2506,0.2312,0.6369,-0.5052,0.9007,
9.337508,0.2154,1.0018,-0.0847,-0.3298,0.2506,0.2312,0.6369,-0.5052,0.9007,
9.339501,0.1568,0.9986,-0.0752,-0.3298,0.2506,0.2312,0.6369,-0.5052,0.9007,
9.341485,0.1568,0.9986,-0.0752,-0.3298,0.2506,0.2312,0.5826,-0.3539,0.8544,
9.343753,0.1568,0.9986,-0.0752,-0.5523,0.4830,0.0716,0.5826,-0.3539,0.8544,
9.391907,0.1821,0.9962,-0.0967,-0.5523,0.4830,0.0716,0.5826,-0.3539,0.8544,
9.395020,0.1614,1.0421,-0.1038,-0.5523,0.4830,0.0716,0.5826,-0.3539,0.8544,
9.397120,0.1099,1.0694,-0.1067,-0.5523,0.4830,0.0716,0.5826,-0.3539,0.8544,
9.398977,0.1099,1.0694,-0.1067,-0.5523,0.4830,0.0716,0.6339,-0.4958,1.0471,
9.400796,0.1099,1.0694,-0.1067,-1.7470,1.1462,0.3913,0.6339,-0.4958,1.0471,
9.450354,0.1355,1.0951,-0.1033,-1.7470,1.1462,0.3913,0.6339,-0.4958,1.0471,
9.453463,0.1470,1.1063,-0.1028,-1.7470,1.1462,0.3913,0.6339,-0.4958,1.0471,
9.455218,0.1360,1.1088,-0.1223,-1.7470,1.1462,0.3913,0.6339,-0.4958,1.0471,
9.456837,0.1360,1.1088,-0.1223,-2.5015,2.1605,0.8965,0.6339,-0.4958,1.0471,
9.459072,0.1360,1.1088,-0.1223,-2.5015,2.1605,0.8965,0.8760,-0.6685,1.4557,
9.508522,0.0640,1.1493,-0.1069,-2.5015,2.1605,0.8965,0.8760,-0.6685,1.4557,
9.511897,-0.0144,1.2814,-0.0859,-2.5015,2.1605,0.8965,0.8760,-0.6685,1.4557,
9.513733,-0.1839,1.6264,-0.0044,-2.5015,2.1605,0.8965,0.8760,-0.6685,1.4557,
9.517679,-0.1839,1.6264,-0.0044,-5.0108,5.1536,2.1181,0.8760,-0.6685,1.4557,
9.519052,-0.1839,1.6264,-0.0044,-5.0108,5.1536,2.1181,1.1443,-1.0896,1.9324,
9.567587,-0.6466,1.8911,0.0408,-5.0108,5.1536,2.1181,1.1443,-1.0896,1.9324,
9.570567,-1.0799,1.9555,0.1226,-5.0108,5.1536,2.1181,1.1443,-1.0896,1.9324,
9.572645,-0.8560,1.6340,-0.0806,-5.0108,5.1536,2.1181,1.1443,-1.0896,1.9324,
9.574605,-0.8560,1.6340,-0.0806,-5.0108,5.1536,2.1181,1.5329,-1.7340,2.5380,
9.576528,-0.8560,1.6340,-0.0806,-13.5636,10.6619,4.1481,1.5329,-1.7340,2.5380,
9.625218,0.2605,1.1732,-0.5213,-13.5636,10.6619,4.1481,1.5329,-1.7340,2.5380,
9.627854,1.3773,1.4137,-0.5789,-13.5636,10.6619,4.1481,1.5329,-1.7340,2.5380,
9.629640,1.4938,1.2428,-0.6712,-13.5636,10.6619,4.1481,1.5329,-1.7340,2.5380,
9.630937,1.4938,1.2428,-0.6712,-13.5636,10.6619,4.1481,1.9682,-2.2347,3.8457,
9.632084,1.4938,1.2428,-0.6712,4.2037,6.9340,-0.4411,1.9682,-2.2347,3.8457,
9.683662,0.8109,0.9405,-0.7906,4.2037,6.9340,-0.4411,1.9682,-2.2347,3.8457,
9.686701,0.5030,0.7100,-0.6617,4.2037,6.9340,-0.4411,1.9682,-2.2347,3.8457,
9.689021,0.2998,0.3238,-0.1709,4.2037,6.9340,-0.4411,1.9682,-2.2347,3.8457,
9.691205,0.2998,0.3238,-0.1709,4.2037,6.9340,-0.4411,0.0120,-0.3441,1.5329,
9.693637,0.2998,0.3238,-0.1709,-1.0965,1.4041,0.1707,0.0120,-0.3441,1.5329,
9.742277,0.0339,-0.0269,-0.0803,-1.0965,1.4041,0.1707,0.0120,-0.3441,1.5329,
9.745198,-0.2635,-0.1546,-0.1267,-1.0965,1.4041,0.1707,0.0120,-0.3441,1.5329,
9.747385,-0.0603,0.0256,-0.3677,-1.0965,1.4041,0.1707,0.0120,-0.3441,1.5329,
9.749020,-0.0603,0.0256,-0.3677,-1.0965,1.4041,0.1707,-1.4577,-0.7226,-1.1215,
9.751547,-0.0603,0.0256,-0.3677,-6.6135,-6.3009,3.3357,-1.4577,-0.7226,-1.1215,
9.801017,0.1587,0.2774,-0.4769,-6.6135,-6.3009,3.3357,-1.4577,-0.7226,-1.1215,
9.804572,0.1631,0.3782,-0.4292,-6.6135,-6.3009,3.3357,-1.4577,-0.7226,-1.1215,
9.807113,0.1118,0.3846,-0.3714,-6.6135,-6.3009,3.3357,-1.4577,-0.7226,-1.1215,
9.809735,0.1118,0.3846,-0.3714,-6.6135,-6.3009,3.3357,-2.2851,-1.5294,-2.9136,
9.812580,0.1118,0.3846,-0.3714,-2.6397,-3.8303,0.5949,-2.2851,-1.5294,-2.9136,
9.857911,0.1734,0.4507,-0.3355,-2.6397,-3.8303,0.5949,-2.2851,-1.5294,-2.9136,
9.861553,0.2566,0.6077,-0.3816,-2.6397,-3.8303,0.5949,-2.2851,-1.5294,-2.9136,
9.863939,0.2981,0.7515,-0.3262,-2.6397,-3.8303,0.5949,-2.2851,-1.5294,-2.9136,
9.866180,0.2981,0.7515,-0.3262,-2.6397,-3.8303,0.5949,-3.8025,-1.5304,-4.0875,
9.868925,0.2981,0.7515,-0.3262,0.6072,-2.8626,-0.1693,-3.8025,-1.5304,-4.0875,
9.918331,0.2981,0.7515,-0.3262,5.7123,2.9383,-4.7751,-3.8025,-1.5304,-4.0875,
9.921040,0.3619,0.9032,-0.4165,5.7123,2.9383,-4.7751,-3.8025,-1.5304,-4.0875,
9.922161,0.5462,1.2594,-0.6170,5.7123,2.9383,-4.7751,-3.8025,-1.5304,-4.0875,
9.923241,0.6607,1.6520,-0.6522,5.7123,2.9383,-4.7751,-3.8025,-1.5304,-4.0875,
9.924299,0.6607,1.6520,-0.6522,5.7123,2.9383,-4.7751,-4.8361,0.0245,-4.5298,
9.978102,0.6719,1.6972,-0.5635,5.7123,2.9383,-4.7751,-4.8361,0.0245,-4.5298,
9.986343,0.9190,1.5141,-0.6778,5.7123,2.9383,-4.7751,-4.8361,0.0245,-4.5298,
9.990791,1.0113,1.2982,-0.3533,5.7123,2.9383,-4.7751,-4.8361,0.0245,-4.5298,
9.994389,1.0113,1.2982,-0.3533,11.1761,5.6448,-6.6846,-4.8361,0.0245,-4.5298,
9.997439,1.0113,1.2982,-0.3533,11.1761,5.6448,-6.6846,-4.5901,1.6408,-4.0539,
10.033825,0.5901,0.9764,-0.2310,11.1761,5.6448,-6.6846,-4.5901,1.6408,-4.0539,
10.037391,0.5423,0.7681,-0.5557,11.1761,5.6448,-6.6846,-4.5901,1.6408,-4.0539,
10.040771,0.6917,0.6839,-0.5154,11.1761,5.6448,-6.6846,-4.5901,1.6408,-4.0539,
10.043063,0.6917,0.6839,-0.5154,11.1761,5.6448,-6.6846,-1.5547,2.0652,-0.6953,
10.045370,0.6917,0.6839,-0.5154,9.0674,-0.8619,-6.0599,-1.5547,2.0652,-0.6953,
10.091489,0.5369,0.9029,-0.8922,9.0674,-0.8619,-6.0599,-1.5547,2.0652,-0.6953,
10.094905,-0.5569,1.7116,-0.1067,9.0674,-0.8619,-6.0599,-1.5547,2.0652,-0.6953,
10.098302,-2.6250,1.6852,1.0463,9.0674,-0.8619,-6.0599,-1.5547,2.0652,-0.6953,
10.100744,-2.6250,1.6852,1.0463,9.0674,-0.8619,-6.0599,0.4649,3.7487,1.0601,
10.102806,-2.6250,1.6852,1.0463,-5.6745,4.9487,-0.7272,0.4649,3.7487,1.0601,
10.149906,-1.4665,1.3336,-0.0151,-5.6745,4.9487,-0.7272,0.4649,3.7487,1.0601,
10.152412,0.5130,1.3038,-0.9383,-5.6745,4.9487,-0.7272,0.4649,3.7487,1.0601,
10.153535,1.1310,0.9376,-0.6448,-5.6745,4.9487,-0.7272,0.4649,3.7487,1.0601,
10.154877,1.1310,0.9376,-0.6448,-5.6745,4.9487,-0.7272,1.5147,0.7506,2.6435,
10.156290,1.1310,0.9376,-0.6448,2.1061,2.1610,-5.0706,1.5147,0.7506,2.6435,
10.208248,0.3577,0.5523,0.4854,2.1061,2.1610,-5.0706,1.5147,0.7506,2.6435,
10.211175,0.1055,0.7945,0.2737,2.1061,2.1610,-5.0706,1.5147,0.7506,2.6435,
10.212992,0.0527,1.1322,-0.1824,2.1061,2.1610,-5.0706,1.5147,0.7506,2.6435,
10.214776,0.0527,1.1322,-0.1824,2.1061,2.1610,-5.0706,0.7259,-0.2826,1.6693,
10.216555,0.0527,1.1322,-0.1824,2.2501,-1.4829,2.3869,0.7259,-0.2826,1.6693,
10.267635,0.2576,1.1168,-0.3677,2.2501,-1.4829,2.3869,0.7259,-0.2826,1.6693,
10.270827,0.1590,1.0453,-0.2700,2.2501,-1.4829,2.3869,0.7259,-0.2826,1.6693,
10.272821,-0.1118,1.0106,-0.1939,2.2501,-1.4829,2.3869,0.7259,-0.2826,1.6693,
10.274580,-0.1118,1.0106,-0.1939,2.2501,-1.4829,2.3869,0.5990,0.1674,0.9972,
10.276361,-0.1118,1.0106,-0.1939,0.9787,0.7768,-1.8462,0.5990,0.1674,0.9972,
10.324563,-0.0359,0.9984,-0.1155,0.9787,0.7768,-1.8462,0.5990,0.1674,0.9972,
10.327627,0.0386,1.0233,-0.0413,0.9787,0.7768,-1.8462,0.5990,0.1674,0.9972,
10.329429,0.0278,1.0375,-0.0220,0.9787,0.7768,-1.8462,0.5990,0.1674,0.9972,
10.330957,0.0278,1.0375,-0.0220,0.9787,0.7768,-1.8462,0.3857,0.0786,0.7530,
10.332681,0.0278,1.0375,-0.0220,-0.3363,0.4307,0.4927,0.3857,0.0786,0.7530,
10.383454,0.0132,0.9803,-0.0049,-0.3363,0.4307,0.4927,0.3857,0.0786,0.7530,
10.386240,0.0432,0.9535,-0.0430,-0.3363,0.4307,0.4927,0.3857,0.0786,0.7530,
10.389087,0.0801,0.9762,-0.0654,-0.3363,0.4307,0.4927,0.3857,0.0786,0.7530,
10.390748,0.0801,0.9762,-0.0654,-0.3363,0.4307,0.4927,0.5245,-0.2085,0.7854,
10.392704,0.0801,0.9762,-0.0654,-0.4047,0.0104,0.9897,0.5245,-0.2085,0.7854,
10.441512,0.0896,0.9833,-0.0823,-0.4047,0.0104,0.9897,0.5245,-0.2085,0.7854,
10.444847,0.1331,0.9659,-0.0781,-0.4047,0.0104,0.9897,0.5245,-0.2085,0.7854,
10.446843,0.1084,0.9481,-0.1489,-0.4047,0.0104,0.9897,0.5245,-0.2085,0.7854,
10.449714,0.1084,0.9481,-0.1489,-0.4047,0.0104,0.9897,0.6754,-0.1761,0.8172,
10.451347,0.1084,0.9481,-0.1489,-0.1998,0.0796,0.7198,0.6754,-0.1761,0.8172,
10.499980,0.0911,0.9647,-0.1763,-0.1998,0.0796,0.7198,0.6754,-0.1761,0.8172,
10.503232,0.1172,0.9725,-0.1721,-0.1998,0.0796,0.7198,0.6754,-0.1761,0.8172,
10.504860,0.1492,0.9845,-0.1861,-0.1998,0.0796,0.7198,0.6754,-0.1761,0.8172,
10.506874,0.1492,0.9845,-0.1861,-0.1998,0.0796,0.7198,0.7265,-0.3207,0.8528,
10.509106,0.1492,0.9845,-0.1861,-0.5312,0.3108,0.4004,0.7265,-0.3207,0.8528,
10.558307,0.1453,1.0138,-0.1904,-0.5312,0.3108,0.4004,0.7265,-0.3207,0.8528,
10.561184,0.0847,1.0104,-0.1843,-0.5312,0.3108,0.4004,0.7265,-0.3207,0.8528,
10.562946,0.0891,0.9698,-0.1843,-0.5312,0.3108,0.4004,0.7265,-0.3207,0.8528,
10.564521,0.0891,0.9698,-0.1843,-0.5312,0.3108,0.4004,0.8326,-0.3594,0.9489,
10.566315,0.0891,0.9698,-0.1843,-1.0931,0.7569,0.7902,0.8326,-0.3594,0.9489,
10.616418,0.1414,0.9879,-0.1616,-1.0931,0.7569,0.7902,0.8326,-0.3594,0.9489,
10.620002,0.1641,1.0926,-0.1411,-1.0931,0.7569,0.7902,0.8326,-0.3594,0.9489,
10.621664,0.1343,1.1556,-0.1226,-1.0931,0.7569,0.7902,0.8326,-0.3594,0.9489,
10.623513,0.1343,1.1556,-0.1226,-1.0931,0.7569,0.7902,1.2914,-0.0603,1.1173,
10.625305,0.1343,1.1556,-0.1226,-1.2449,1.8963,1.8688,1.2914,-0.0603,1.1173,
10.674887,0.0837,1.1349,-0.1455,-1.2449,1.8963,1.8688,1.2914,-0.0603,1.1173,
10.677912,0.0322,1.2391,-0.1614,-1.2449,1.8963,1.8688,1.2914,-0.0603,1.1173,
10.678968,-0.0913,1.5531,-0.0159,-1.2449,1.8963,1.8688,1.2914,-0.0603,1.1173,
10.679899,-0.0913,1.5531,-0.0159,-3.1394,4.7001,3.0844,1.2914,-0.0603,1.1173,
10.680756,-0.0913,1.5531,-0.0159,-3.1394,4.7001,3.0844,1.8151,-0.2655,1.3305,
10.733587,-0.4751,1.8244,0.0859,-3.1394,4.7001,3.0844,1.8151,-0.2655,1.3305,
10.737100,-0.8792,1.9243,0.0623,-3.1394,4.7001,3.0844,1.8151,-0.2655,1.3305,
10.739063,-0.9557,1.8474,0.0654,-3.1394,4.7001,3.0844,1.8151,-0.2655,1.3305,
10.740993,-0.9557,1.8474,0.0654,-11.1587,10.9982,5.9606,1.8151,-0.2655,1.3305,
10.743448,-0.9557,1.8474,0.0654,-11.1587,10.9982,5.9606,2.4893,-0.5677,1.6620,
10.792694,-0.9557,1.8474,0.0654,2.9370,5.9290,2.4608,2.4893,-0.5677,1.6620,
10.794658,-0.1990,1.3121,-0.1253,2.9370,5.9290,2.4608,2.4893,-0.5677,1.6620,
10.796284,0.9471,1.1486,-0.5889,2.9370,5.9290,2.4608,2.4893,-0.5677,1.6620,
10.798031,1.4489,1.1588,-0.5189,2.9370,5.9290,2.4608,2.4893,-0.5677,1.6620,
10.799222,1.4489,1.1588,-0.5189,2.9370,5.9290,2.4608,2.5204,-1.3062,2.7062,
10.849121,0.8895,0.9215,-0.7962,2.9370,5.9290,2.4608,2.5204,-1.3062,2.7062,
10.851190,0.4205,0.5601,-0.8626,2.9370,5.9290,2.4608,2.5204,-1.3062,2.7062,
10.852398,0.4024,0.4224,-0.5867,2.9370,5.9290,2.4608,2.5204,-1.3062,2.7062,
10.853573,0.4024,0.4224,-0.5867,2.9370,5.9290,2.4608,1.1851,0.5563,0.7325,
10.854723,0.4024,0.4224,-0.5867,0.8788,0.9562,-0.6020,1.1851,0.5563,0.7325,
10.908814,0.3379,0.3033,-0.1450,0.8788,0.9562,-0.6020,1.1851,0.5563,0.7325,
10.911698,0.2530,0.1243,0.0562,0.8788,0.9562,-0.6020,1.1851,0.5563,0.7325,
10.913065,0.1560,0.0408,-0.1023,0.8788,0.9562,-0.6020,1.1851,0.5563,0.7325,
10.914649,0.1560,0.0408,-0.1023,0.8788,0.9562,-0.6020,-1.5192,1.0607,-1.1838,
10.917631,0.1560,0.0408,-0.1023,-2.2386,-4.5444,5.2195,-1.5192,1.0607,-1.1838,
10.966281,0.1130,0.1338,-0.2083,-2.2386,-4.5444,5.2195,-1.5192,1.0607,-1.1838,
10.980094,0.1802,0.2649,-0.2171,-2.2386,-4.5444,5.2195,-1.5192,1.0607,-1.1838,
10.981962,0.3228,0.3792,-0.2451,-2.2386,-4.5444,5.2195,-1.5192,1.0607,-1.1838,
10.983355,0.3228,0.3792,-0.2451,-2.2386,-4.5444,5.2195,-2.7155,0.0888,-2.7723,
10.984628,0.3228,0.3792,-0.2451,-1.5618,-4.9631,2.4990,-2.7155,0.0888,-2.7723,
11.024311,0.3489,0.5245,-0.2976,-1.5618,-4.9631,2.4990,-2.7155,0.0888,-2.7723,
11.026146,0.2566,0.6321,-0.1655,-1.5618,-4.9631,2.4990,-2.7155,0.0888,-2.7723,
11.027164,0.2202,0.7633,-0.2591,-1.5618,-4.9631,2.4990,-2.7155,0.0888,-2.7723,
11.028235,0.2202,0.7633,-0.2591,-1.5618,-4.9631,2.4990,-3.8974,-0.5852,-3.8295,
11.029288,0.2202,0.7633,-0.2591,1.0841,-2.6391,0.5186,-3.8974,-0.5852,-3.8295,
11.082174,0.3343,1.0279,-0.4395,1.0841,-2.6391,0.5186,-3.8974,-0.5852,-3.8295,
11.083212,0.4805,1.3864,-0.5145,1.0841,-2.6391,0.5186,-3.8974,-0.5852,-3.8295,
11.083606,0.3850,1.6396,-0.5438,1.0841,-2.6391,0.5186,-3.8974,-0.5852,-3.8295,
11.084087,0.3850,1.6396,-0.5438,1.0841,-2.6391,0.5186,-4.6807,-0.5860,-4.2435,
11.084552,0.3850,1.6396,-0.5438,4.5846,3.7138,-4.4603,-4.6807,-0.5860,-4.2435,
11.142072,0.3850,1.6396,-0.5438,5.7546,5.2868,-4.7788,-4.6807,-0.5860,-4.2435,
11.144131,0.2737,1.6384,-0.4866,5.7546,5.2868,-4.7788,-4.6807,-0.5860,-4.2435,
11.144952,0.4058,1.4608,-0.2603,5.7546,5.2868,-4.7788,-4.6807,-0.5860,-4.2435,
11.145848,0.3367,1.2973,-0.1077,5.7546,5.2868,-4.7788,-4.6807,-0.5860,-4.2435,
11.146781,0.3367,1.2973,-0.1077,5.7546,5.2868,-4.7788,-4.5797,-0.1002,-3.4219,
11.199037,0.2410,1.0946,-0.2427,5.7546,5.2868,-4.7788,-4.5797,-0.1002,-3.4219,
11.201500,0.3560,0.8253,-0.3606,5.7546,5.2868,-4.7788,-4.5797,-0.1002,-3.4219,
11.203887,0.4385,0.7115,-0.3748,5.7546,5.2868,-4.7788,-4.5797,-0.1002,-3.4219,
11.206191,0.4385,0.7115,-0.3748,5.7546,5.2868,-4.7788,-2.2108,-0.4952,-1.0515,
11.208901,0.4385,0.7115,-0.3748,6.1771,0.0197,-6.2952,-2.2108,-0.4952,-1.0515,
11.258616,0.2886,0.7366,-0.2525,6.1771,0.0197,-6.2952,-2.2108,-0.4952,-1.0515,
11.262371,0.2678,0.8228,-0.5186,6.1771,0.0197,-6.2952,-2.2108,-0.4952,-1.0515,
11.265089,0.2100,1.1471,-1.0213,6.1771,0.0197,-6.2952,-2.2108,-0.4952,-1.0515,
11.267358,0.2100,1.1471,-1.0213,6.1771,0.0197,-6.2952,0.7518,0.8227,1.2091,
11.269084,0.2100,1.1471,-1.0213,4.7435,-0.0385,-8.3067,0.7518,0.8227,1.2091,
11.315855,-1.0802,1.8649,0.6041,4.7435,-0.0385,-8.3067,0.7518,0.8227,1.2091,
11.319057,-1.7944,1.5712,0.8844,4.7435,-0.0385,-8.3067,0.7518,0.8227,1.2091,
11.321038,-0.1340,1.4069,-0.4900,4.7435,-0.0385,-8.3067,0.7518,0.8227,1.2091,
11.322831,-0.1340,1.4069,-0.4900,4.7435,-0.0385,-8.3067,0.8574,3.2160,0.8919,
11.324750,-0.1340,1.4069,-0.4900,-7.5527,6.6132,1.6381,0.8574,3.2160,0.8919,
11.374989,0.2561,1.3361,-0.7703,-7.5527,6.6132,1.6381,0.8574,3.2160,0.8919,
11.378989,0.0374,0.7264,0.3557,-7.5527,6.6132,1.6381,0.8574,3.2160,0.8919,
11.380971,0.0713,0.6788,0.2869,-7.5527,6.6132,1.6381,0.8574,3.2160,0.8919,
11.382729,0.0713,0.6788,0.2869,-7.5527,6.6132,1.6381,1.4247,0.6604,2.0929,
11.384691,0.0713,0.6788,0.2869,2.3389,-0.5542,-1.1585,1.4247,0.6604,2.0929,
11.433069,0.1926,0.9825,-0.1697,2.3389,-0.5542,-1.1585,1.4247,0.6604,2.0929,
11.436202,0.3045,1.1385,-0.2027,2.3389,-0.5542,-1.1585,1.4247,0.6604,2.0929,
11.438740,0.2483,1.0179,-0.1607,2.3389,-0.5542,-1.1585,1.4247,0.6604,2.0929,
11.440797,0.2483,1.0179,-0.1607,2.3389,-0.5542,-1.1585,0.8564,-0.4758,1.3063,
11.442794,0.2483,1.0179,-0.1607,2.7956,0.6492,-1.9877,0.8564,-0.4758,1.3063,
11.491825,-0.0032,0.9996,-0.0972,2.7956,0.6492,-1.9877,0.8564,-0.4758,1.3063,
11.494877,-0.1160,1.0712,-0.0967,2.7956,0.6492,-1.9877,0.8564,-0.4758,1.3063,
11.496272,-0.0198,1.0221,0.0501,2.7956,0.6492,-1.9877,0.8564,-0.4758,1.3063,
11.497822,-0.0198,1.0221,0.0501,2.7956,0.6492,-1.9877,0.4382,0.3226,0.7178,
11.498786,-0.0198,1.0221,0.0501,-0.4865,0.4805,-0.4620,0.4382,0.3226,0.7178,
11.549967,0.0540,0.9886,0.0767,-0.4865,0.4805,-0.4620,0.4382,0.3226,0.7178,
11.552915,0.0877,0.9852,0.0042,-0.4865,0.4805,-0.4620,0.4382,0.3226,0.7178,
11.554743,0.1321,0.9688,-0.0105,-0.4865,0.4805,-0.4620,0.4382,0.3226,0.7178,
11.556492,0.1321,0.9688,-0.0105,-0.4865,0.4805,-0.4620,0.3810,-0.0768,0.6706,
11.558768,0.1321,0.9688,-0.0105,0.4782,0.0011,0.4454,0.3810,-0.0768,0.6706,
11.608540,0.1126,1.0013,-0.0083,0.4782,0.0011,0.4454,0.3810,-0.0768,0.6706,
11.610855,0.0305,1.0292,-0.0027,0.4782,0.0011,0.4454,0.3810,-0.0768,0.6706,
11.612760,-0.0103,0.9857,0.0579,0.4782,0.0011,0.4454,0.3810,-0.0768,0.6706,
11.614364,-0.0103,0.9857,0.0579,0.4782,0.0011,0.4454,0.3748,-0.1189,0.4889,
11.616297,-0.0103,0.9857,0.0579,-0.2493,0.2596,0.5730,0.3748,-0.1189,0.4889,
11.666733,0.0418,0.9625,0.0313,-0.2493,0.2596,0.5730,0.3748,-0.1189,0.4889,
11.669978,0.0979,0.9549,-0.0117,-0.2493,0.2596,0.5730,0.3748,-0.1189,0.4889,
11.671788,0.1204,0.9554,-0.0337,-0.2493,0.2596,0.5730,0.3748,-0.1189,0.4889,
11.673859,0.1204,0.9554,-0.0337,-0.2493,0.2596,0.5730,0.5158,-0.2199,0.5419,
11.675829,0.1204,0.9554,-0.0337,-0.1268,-0.1625,0.6611,0.5158,-0.2199,0.5419,
11.725463,0.1074,0.9632,-0.0471,-0.1268,-0.1625,0.6611,0.5158,-0.2199,0.5419,
11.728651,0.0886,0.9645,-0.0640,-0.1268,-0.1625,0.6611,0.5158,-0.2199,0.5419,
11.730022,0.0796,0.9776,-0.0212,-0.1268,-0.1625,0.6611,0.5158,-0.2199,0.5419,
11.731633,0.0796,0.9776,-0.0212,-0.3553,0.0071,0.5931,0.5158,-0.2199,0.5419,
11.733397,0.0796,0.9776,-0.0212,-0.3553,0.0071,0.5931,0.5553,-0.3013,0.5421,
11.783854,0.0376,0.9718,0.0220,-0.3553,0.0071,0.5931,0.5553,-0.3013,0.5421,
11.787145,0.0408,0.9386,-0.0227,-0.3553,0.0071,0.5931,0.5553,-0.3013,0.5421,
11.788919,0.0811,0.9554,-0.0745,-0.3553,0.0071,0.5931,0.5553,-0.3013,0.5421,
11.790618,0.0811,0.9554,-0.0745,-0.3553,0.0071,0.5931,0.7357,-0.4359,0.7204,
11.792243,0.0811,0.9554,-0.0745,-1.0811,-0.0080,1.2006,0.7357,-0.4359,0.7204,
11.841350,0.0879,1.0189,-0.1177,-1.0811,-0.0080,1.2006,0.7357,-0.4359,0.7204,
11.844315,0.0745,1.0436,-0.1235,-1.0811,-0.0080,1.2006,0.7357,-0.4359,0.7204,
11.846130,0.1282,1.0633,-0.1211,-1.0811,-0.0080,1.2006,0.7357,-0.4359,0.7204,
11.848312,0.1282,1.0633,-0.1211,-1.0811,-0.0080,1.2006,0.9460,-0.8935,0.9805,
11.850275,0.1282,1.0633,-0.1211,-1.0731,1.0249,0.8555,0.9460,-0.8935,0.9805,
11.900466,0.0383,1.1068,-0.0923,-1.0731,1.0249,0.8555,0.9460,-0.8935,0.9805,
11.903318,-0.1375,1.2684,-0.0757,-1.0731,1.0249,0.8555,0.9460,-0.8935,0.9805,
11.905004,-0.1011,1.6269,-0.0330,-1.0731,1.0249,0.8555,0.9460,-0.8935,0.9805,
11.906853,-0.1011,1.6269,-0.0330,-1.0731,1.0249,0.8555,1.1639,-1.5225,1.4034,
11.909232,-0.1011,1.6269,-0.0330,-3.1428,4.1702,2.1622,1.1639,-1.5225,1.4034,
11.957049,0.1375,1.9377,0.0037,-3.1428,4.1702,2.1622,1.1639,-1.5225,1.4034,
11.958230,-0.0322,1.7692,-0.1831,-3.1428,4.1702,2.1622,1.1639,-1.5225,1.4034,
11.958773,-0.1470,1.3331,-0.3670,-3.1428,4.1702,2.1622,1.1639,-1.5225,1.4034,
11.959355,-0.1470,1.3331,-0.3670,-3.1428,4.1702,2.1622,0.3445,-3.4204,2.6622,
11.959970,-0.1470,1.3331,-0.3670,-3.2692,7.9321,1.7522,0.3445,-3.4204,2.6622,
12.014794,0.1165,0.8756,-0.4375,-3.2692,7.9321,1.7522,0.3445,-3.4204,2.6622,
12.016302,0.4607,0.6236,-0.6219,-3.2692,7.9321,1.7522,0.3445,-3.4204,2.6622,
12.017165,0.4937,0.4524,-0.7305,-3.2692,7.9321,1.7522,0.3445,-3.4204,2.6622,
12.018050,0.4937,0.4524,-0.7305,-3.2692,7.9321,1.7522,-1.3844,-5.8601,3.8340,
12.019242,0.4937,0.4524,-0.7305,-0.1783,-1.6700,-1.7682,-1.3844,-5.8601,3.8340,
12.072961,0.2259,0.4009,-0.7874,-0.1783,-1.6700,-1.7682,-1.3844,-5.8601,3.8340,
12.075128,-0.0706,0.3384,-0.7222,-0.1783,-1.6700,-1.7682,-1.3844,-5.8601,3.8340,
12.076007,-0.2823,0.3411,-0.7542,-0.1783,-1.6700,-1.7682,-1.3844,-5.8601,3.8340,
12.076978,-0.2823,0.3411,-0.7542,-4.2064,-4.4581,-3.4709,-1.3844,-5.8601,3.8340,
12.077904,-0.2823,0.3411,-0.7542,-4.2064,-4.4581,-3.4709,-2.6178,-4.5844,2.7127,
12.131241,-0.3247,0.3811,-0.8595,-4.2064,-4.4581,-3.4709,-2.6178,-4.5844,2.7127,
12.132613,-0.3931,0.4646,-0.8412,-4.2064,-4.4581,-3.4709,-2.6178,-4.5844,2.7127,
12.133314,-0.2593,0.5203,-0.7047,-4.2064,-4.4581,-3.4709,-2.6178,-4.5844,2.7127,
12.133933,-0.2593,0.5203,-0.7047,-4.2064,-4.4581,-3.4709,-2.9073,-3.9865,1.4482,
12.134582,-0.2593,0.5203,-0.7047,-6.6925,-3.7715,-4.3683,-2.9073,-3.9865,1.4482,
12.190254,-0.2674,0.5943,-0.6636,-6.6925,-3.7715,-4.3683,-2.9073,-3.9865,1.4482,
12.192642,-0.4034,0.6815,-0.6561,-6.6925,-3.7715,-4.3683,-2.9073,-3.9865,1.4482,
12.194234,-0.4283,0.8150,-0.7191,-6.6925,-3.7715,-4.3683,-2.9073,-3.9865,1.4482,
12.195800,-0.4283,0.8150,-0.7191,-6.6925,-3.7715,-4.3683,-3.0309,-4.5958,-0.0173,
12.197387,-0.4283,0.8150,-0.7191,-6.1242,-1.9298,-3.7749,-3.0309,-4.5958,-0.0173,
12.248231,-0.3184,0.9124,-0.7659,-6.1242,-1.9298,-3.7749,-3.0309,-4.5958,-0.0173,
12.250249,-0.1358,0.9554,-0.7992,-6.1242,-1.9298,-3.7749,-3.0309,-4.5958,-0.0173,
12.251118,-0.0481,1.0155,-0.7083,-6.1242,-1.9298,-3.7749,-3.0309,-4.5958,-0.0173,
12.252011,-0.0481,1.0155,-0.7083,-6.1242,-1.9298,-3.7749,-2.6086,-4.9578,-0.9081,
12.252961,-0.0481,1.0155,-0.7083,-2.9253,0.1762,-5.2581,-2.6086,-4.9578,-0.9081,
12.307849,-0.0940,1.0668,-0.6033,-2.9253,0.1762,-5.2581,-2.6086,-4.9578,-0.9081,
12.311327,-0.0520,1.1337,-0.5623,-2.9253,0.1762,-5.2581,-2.6086,-4.9578,-0.9081,
12.313658,0.0523,1.1852,-0.4627,-2.9253,0.1762,-5.2581,-2.6086,-4.9578,-0.9081,
12.315770,0.0523,1.1852,-0.4627,-2.9253,0.1762,-5.2581,-2.1869,-3.5740,-1.5638,
12.317919,0.0523,1.1852,-0.4627,-0.3746,1.5197,-4.1288,-2.1869,-3.5740,-1.5638,
12.366674,0.0425,1.1505,-0.3069,-0.3746,1.5197,-4.1288,-2.1869,-3.5740,-1.5638,
12.370787,-0.0693,1.0917,-0.1926,-0.3746,1.5197,-4.1288,-2.1869,-3.5740,-1.5638,
12.372976,-0.0911,1.0887,-0.1416,-0.3746,1.5197,-4.1288,-2.1869,-3.5740,-1.5638,
12.375246,-0.0911,1.0887,-0.1416,-0.3746,1.5197,-4.1288,-1.3735,-2.4278,-1.4984,
12.377668,-0.0911,1.0887,-0.1416,0.4853,1.2923,-1.6961,-1.3735,-2.4278,-1.4984,
12.424728,-0.0264,1.0692,-0.1682,0.4853,1.2923,-1.6961,-1.3735,-2.4278,-1.4984,
12.427786,0.0491,0.9706,-0.2046,0.4853,1.2923,-1.6961,-1.3735,-2.4278,-1.4984,
12.430057,0.1863,0.9168,-0.1875,0.4853,1.2923,-1.6961,-1.3735,-2.4278,-1.4984,
12.432070,0.1863,0.9168,-0.1875,0.4853,1.2923,-1.6961,-0.4443,-3.0346,-0.6564,
12.434256,0.1863,0.9168,-0.1875,1.9111,0.1031,-1.8467,-0.4443,-3.0346,-0.6564,
12.483121,0.3001,0.8936,-0.1768,1.9111,0.1031,-1.8467,-0.4443,-3.0346,-0.6564,
12.486253,0.2906,0.8502,-0.1861,1.9111,0.1031,-1.8467,-0.4443,-3.0346,-0.6564,
12.488604,0.2639,0.8722,-0.1121,1.9111,0.1031,-1.8467,-0.4443,-3.0346,-0.6564,
12.490697,0.2639,0.8722,-0.1121,1.9111,0.1031,-1.8467,0.4225,-2.5131,-0.0026,
12.492758,0.2639,0.8722,-0.1121,3.9493,-0.9932,-1.4911,0.4225,-2.5131,-0.0026,
12.541067,0.3091,0.8292,-0.0393,3.9493,-0.9932,-1.4911,0.4225,-2.5131,-0.0026,
12.544217,0.4610,0.7872,-0.0642,3.9493,-0.9932,-1.4911,0.4225,-2.5131,-0.0026,
12.546348,0.4896,0.8971,0.0757,3.9493,-0.9932,-1.4911,0.4225,-2.5131,-0.0026,
12.548755,0.4896,0.8971,0.0757,3.9493,-0.9932,-1.4911,0.6878,-1.9804,0.7382,
12.550723,0.4896,0.8971,0.0757,4.7991,-1.3395,0.2330,0.6878,-1.9804,0.7382,
12.599626,0.4922,1.1986,0.6839,4.7991,-1.3395,0.2330,0.6878,-1.9804,0.7382,
12.602528,0.3699,1.3476,0.4541,4.7991,-1.3395,0.2330,0.6878,-1.9804,0.7382,
12.604454,-0.5049,1.5534,-0.5447,4.7991,-1.3395,0.2330,0.6878,-1.9804,0.7382,
12.607005,-0.5049,1.5534,-0.5447,1.3742,3.7562,2.2202,0.6878,-1.9804,0.7382,
12.609207,-0.5049,1.5534,-0.5447,1.3742,3.7562,2.2202,0.0057,-0.1232,0.8182,
12.656829,-0.6234,1.2023,-0.2950,1.3742,3.7562,2.2202,0.0057,-0.1232,0.8182,
12.660373,-0.2119,0.7872,-0.2202,1.3742,3.7562,2.2202,0.0057,-0.1232,0.8182,
12.662247,0.0142,1.0707,-0.3733,1.3742,3.7562,2.2202,0.0057,-0.1232,0.8182,
12.663818,0.0142,1.0707,-0.3733,1.3742,3.7562,2.2202,0.3641,0.0261,1.1548,
12.665789,0.0142,1.0707,-0.3733,-3.0724,0.3706,-2.3764,0.3641,0.0261,1.1548,
12.715509,0.3999,1.1295,-0.0298,-3.0724,0.3706,-2.3764,0.3641,0.0261,1.1548,
12.718007,0.3504,0.9007,0.1328,-3.0724,0.3706,-2.3764,0.3641,0.0261,1.1548,
12.719304,0.0950,0.8998,0.1006,-3.0724,0.3706,-2.3764,0.3641,0.0261,1.1548,
12.720942,0.0950,0.8998,0.1006,-3.0724,0.3706,-2.3764,0.0334,-0.3052,0.9911,
12.722141,0.0950,0.8998,0.1006,1.7955,-0.0149,1.2025,0.0334,-0.3052,0.9911,
12.774784,0.0754,1.0587,-0.0056,1.7955,-0.0149,1.2025,0.0334,-0.3052,0.9911,
12.778305,0.2100,1.0619,-0.0740,1.7955,-0.0149,1.2025,0.0334,-0.3052,0.9911,
12.780041,0.2381,0.9923,-0.0342,1.7955,-0.0149,1.2025,0.0334,-0.3052,0.9911,
12.782388,0.2381,0.9923,-0.0342,1.7955,-0.0149,1.2025,0.0596,-0.6398,0.6864,
12.784179,0.2381,0.9923,-0.0342,0.3764,0.6200,0.2388,0.0596,-0.6398,0.6864,
12.833923,0.1546,0.9789,0.0654,0.3764,0.6200,0.2388,0.0596,-0.6398,0.6864,
12.837462,0.0769,0.9898,0.0613,0.3764,0.6200,0.2388,0.0596,-0.6398,0.6864,
12.839614,0.0835,0.9962,0.0112,0.3764,0.6200,0.2388,0.0596,-0.6398,0.6864,
12.841931,0.0835,0.9962,0.0112,0.3764,0.6200,0.2388,0.2081,-0.2360,0.5130,
12.843700,0.0835,0.9962,0.0112,-0.5712,0.1859,1.1767,0.2081,-0.2360,0.5130,
12.891281,0.1294,0.9823,-0.0012,-0.5712,0.1859,1.1767,0.2081,-0.2360,0.5130,
12.894467,0.0796,0.9874,-0.0288,-0.5712,0.1859,1.1767,0.2081,-0.2360,0.5130,
12.896094,0.1580,0.9759,-0.0342,-0.5712,0.1859,1.1767,0.2081,-0.2360,0.5130,
12.898078,0.1580,0.9759,-0.0342,-0.5712,0.1859,1.1767,0.3858,-0.4551,0.6461,
12.899852,0.1580,0.9759,-0.0342,-0.7228,0.2052,0.7633,0.3858,-0.4551,0.6461,
12.950801,0.2427,0.9938,-0.0554,-0.7228,0.2052,0.7633,0.3858,-0.4551,0.6461,
12.953660,0.1995,0.9867,-0.0925,-0.7228,0.2052,0.7633,0.3858,-0.4551,0.6461,
12.955414,0.1934,0.9618,-0.1218,-0.7228,0.2052,0.7633,0.3858,-0.4551,0.6461,
12.957295,0.1934,0.9618,-0.1218,-0.7228,0.2052,0.7633,0.4889,-0.3366,0.7135,
12.959123,0.1934,0.9618,-0.1218,-0.2095,0.3086,0.3929,0.4889,-0.3366,0.7135,
13.007577,0.2215,0.9767,-0.1255,-0.2095,0.3086,0.3929,0.4889,-0.3366,0.7135,
13.010556,0.2476,0.9972,-0.1235,-0.2095,0.3086,0.3929,0.4889,-0.3366,0.7135,
13.012260,0.2068,1.0052,-0.1358,-0.2095,0.3086,0.3929,0.4889,-0.3366,0.7135,
13.013861,0.2068,1.0052,-0.1358,-0.2095,0.3086,0.3929,0.4763,-0.3205,0.7115,
13.015367,0.2068,1.0052,-0.1358,-0.4271,0.5614,0.3144,0.4763,-0.3205,0.7115,
13.067099,0.2041,1.0067,-0.1497,-0.4271,0.5614,0.3144,0.4763,-0.3205,0.7115,
13.070326,0.2241,1.0001,-0.1380,-0.4271,0.5614,0.3144,0.4763,-0.3205,0.7115,
13.072290,0.2056,0.9901,-0.1279,-0.4271,0.5614,0.3144,0.4763,-0.3205,0.7115,
13.074356,0.2056,0.9901,-0.1279,-0.9417,0.7931,0.5400,0.4763,-0.3205,0.7115,
13.077038,0.2056,0.9901,-0.1279,-0.9417,0.7931,0.5400,0.5182,-0.3683,0.8135,
13.124769,0.1797,1.0003,-0.1187,-0.9417,0.7931,0.5400,0.5182,-0.3683,0.8135,
13.128482,0.1519,1.0360,-0.1392,-0.9417,0.7931,0.5400,0.5182,-0.3683,0.8135,
13.130176,0.1145,1.1029,-0.1275,-0.9417,0.7931,0.5400,0.5182,-0.3683,0.8135,
13.131916,0.1145,1.1029,-0.1275,-0.9417,0.7931,0.5400,0.6664,-0.5432,1.0356,
13.133868,0.1145,1.1029,-0.1275,-1.9895,1.5113,1.0685,0.6664,-0.5432,1.0356,
13.182863,0.0757,1.1508,-0.1304,-1.9895,1.5113,1.0685,0.6664,-0.5432,1.0356,
13.186032,0.0962,1.1417,-0.1331,-1.9895,1.5113,1.0685,0.6664,-0.5432,1.0356,
13.188312,0.0891,1.1551,-0.1611,-1.9895,1.5113,1.0685,0.6664,-0.5432,1.0356,
13.190254,0.0891,1.1551,-0.1611,-3.1791,2.9662,1.5958,0.6664,-0.5432,1.0356,
13.192221,0.0891,1.1551,-0.1611,-3.1791,2.9662,1.5958,1.1242,-0.5728,1.4669,
13.240571,0.0535,1.3519,-0.1265,-3.1791,2.9662,1.5958,1.1242,-0.5728,1.4669,
13.242861,-0.2110,1.7668,0.1487,-3.1791,2.9662,1.5958,1.1242,-0.5728,1.4669,
13.244548,-0.7691,1.8454,0.1643,-3.1791,2.9662,1.5958,1.1242,-0.5728,1.4669,
13.246093,-0.7691,1.8454,0.1643,-7.5124,8.5426,4.5345,1.1242,-0.5728,1.4669,
13.247947,-0.7691,1.8454,0.1643,-7.5124,8.5426,4.5345,1.6365,-1.0372,1.7147,
13.298787,-0.7691,1.8454,0.1643,-8.2923,7.6255,3.0723,1.6365,-1.0372,1.7147,
13.300547,-0.9845,1.7558,0.0271,-8.2923,7.6255,3.0723,1.6365,-1.0372,1.7147,
13.301403,-0.5298,1.4125,-0.1243,-8.2923,7.6255,3.0723,1.6365,-1.0372,1.7147,
13.302267,0.4610,1.1766,-0.5672,-8.2923,7.6255,3.0723,1.6365,-1.0372,1.7147,
13.302952,0.4610,1.1766,-0.5672,-8.2923,7.6255,3.0723,1.7744,-2.2767,2.7265,
13.358264,1.2640,1.2733,-0.5228,-8.2923,7.6255,3.0723,1.7744,-2.2767,2.7265,
13.361964,0.8509,1.0753,-0.4060,-8.2923,7.6255,3.0723,1.7744,-2.2767,2.7265,
13.364095,0.5767,0.6453,-0.6016,-8.2923,7.6255,3.0723,1.7744,-2.2767,2.7265,
13.365958,0.5767,0.6453,-0.6016,-8.2923,7.6255,3.0723,1.6424,-1.7226,2.5622,
13.368106,0.5767,0.6453,-0.6016,3.5752,4.4419,1.2925,1.6424,-1.7226,2.5622,
13.416027,0.5301,0.4918,-0.9461,3.5752,4.4419,1.2925,1.6424,-1.7226,2.5622,
13.419709,0.4075,0.4605,-0.5875,3.5752,4.4419,1.2925,1.6424,-1.7226,2.5622,
13.421393,0.1958,0.2732,-0.1807,3.5752,4.4419,1.2925,1.6424,-1.7226,2.5622,
13.423500,0.1958,0.2732,-0.1807,-1.6041,-1.4843,0.4317,1.6424,-1.7226,2.5622,
13.425499,0.1958,0.2732,-0.1807,-1.6041,-1.4843,0.4317,-0.9082,-0.1006,0.5070,
13.474017,-0.0935,0.1028,-0.0488,-1.6041,-1.4843,0.4317,-0.9082,-0.1006,0.5070,
13.476596,-0.2383,0.1292,-0.1958,-1.6041,-1.4843,0.4317,-0.9082,-0.1006,0.5070,
13.479070,-0.0520,0.3440,-0.3943,-1.6041,-1.4843,0.4317,-0.9082,-0.1006,0.5070,
13.482140,-0.0520,0.3440,-0.3943,-1.6041,-1.4843,0.4317,-2.4573,0.2181,-1.8334,
13.485025,-0.0520,0.3440,-0.3943,-5.8666,-4.8600,2.9502,-2.4573,0.2181,-1.8334,
13.532768,0.1228,0.5169,-0.4476,-5.8666,-4.8600,2.9502,-2.4573,0.2181,-1.8334,
13.536694,0.0750,0.5855,-0.4353,-5.8666,-4.8600,2.9502,-2.4573,0.2181,-1.8334,
13.539379,0.0281,0.5916,-0.3460,-5.8666,-4.8600,2.9502,-2.4573,0.2181,-1.8334,
13.541403,0.0281,0.5916,-0.3460,-5.8666,-4.8600,2.9502,-3.4871,-0.7306,-3.1164,
13.543672,0.0281,0.5916,-0.3460,-2.2754,-2.7514,-0.3519,-3.4871,-0.7306,-3.1164,
13.590975,0.0381,0.6942,-0.3001,-2.2754,-2.7514,-0.3519,-3.4871,-0.7306,-3.1164,
13.594676,0.0266,0.9239,-0.4095,-2.2754,-2.7514,-0.3519,-3.4871,-0.7306,-3.1164,
13.597488,0.1189,1.2145,-0.7059,-2.2754,-2.7514,-0.3519,-3.4871,-0.7306,-3.1164,
13.598628,0.1189,1.2145,-0.7059,-2.2754,-2.7514,-0.3519,-4.2392,-1.7505,-4.1881,
13.599734,0.1189,1.2145,-0.7059,0.0360,-0.1338,-2.9420,-4.2392,-1.7505,-4.1881,
13.648125,0.4888,1.5180,-0.7652,0.0360,-0.1338,-2.9420,-4.2392,-1.7505,-4.1881,
13.649973,0.6956,1.7565,-0.8177,0.0360,-0.1338,-2.9420,-4.2392,-1.7505,-4.1881,
13.651013,0.6268,1.6347,-0.7943,0.0360,-0.1338,-2.9420,-4.2392,-1.7505,-4.1881,
13.652009,0.6268,1.6347,-0.7943,0.0360,-0.1338,-2.9420,-4.6571,0.0186,-4.3158,
13.653087,0.6268,1.6347,-0.7943,7.6279,6.5915,-8.4898,-4.6571,0.0186,-4.3158,
13.707045,0.8119,1.1810,-0.5059,7.6279,6.5915,-8.4898,-4.6571,0.0186,-4.3158,
13.709320,0.8492,1.0287,-0.2315,7.6279,6.5915,-8.4898,-4.6571,0.0186,-4.3158,
13.710355,0.6290,1.0045,-0.3362,7.6279,6.5915,-8.4898,-4.6571,0.0186,-4.3158,
13.711189,0.6290,1.0045,-0.3362,7.6279,6.5915,-8.4898,-2.9876,1.8257,-2.6118,
13.712155,0.6290,1.0045,-0.3362,10.5819,1.6538,-5.4512,-2.9876,1.8257,-2.6118,
13.765498,0.6898,0.8263,-0.5963,10.5819,1.6538,-5.4512,-2.9876,1.8257,-2.6118,
13.768843,0.7747,0.7252,-0.5218,10.5819,1.6538,-5.4512,-2.9876,1.8257,-2.6118,
13.771039,0.5035,1.1652,-0.8665,10.5819,1.6538,-5.4512,-2.9876,1.8257,-2.6118,
13.773309,0.5035,1.1652,-0.8665,9.0227,-0.1737,-7.8280,-2.9876,1.8257,-2.6118,
13.775594,0.5035,1.1652,-0.8665,9.0227,-0.1737,-7.8280,0.2665,1.8053,1.0540,
13.823301,-1.2372,1.7353,0.4671,9.0227,-0.1737,-7.8280,0.2665,1.8053,1.0540,
13.825008,-2.3467,1.6354,0.6639,9.0227,-0.1737,-7.8280,0.2665,1.8053,1.0540,
13.826108,-0.1785,1.2968,-0.4388,9.0227,-0.1737,-7.8280,0.2665,1.8053,1.0540,
13.827232,-0.1785,1.2968,-0.4388,-9.8090,5.9420,1.6652,0.2665,1.8053,1.0540,
13.828322,-0.1785,1.2968,-0.4388,-9.8090,5.9420,1.6652,0.6870,2.8860,0.8277,
13.882606,0.6536,1.1012,-1.0299,-9.8090,5.9420,1.6652,0.6870,2.8860,0.8277,
13.885348,0.3453,0.8441,-0.0432,-9.8090,5.9420,1.6652,0.6870,2.8860,0.8277,
13.887492,0.2005,0.7083,0.4136,-9.8090,5.9420,1.6652,0.6870,2.8860,0.8277,
13.889506,0.2005,0.7083,0.4136,-9.8090,5.9420,1.6652,0.7373,0.3997,2.4932,
13.891426,0.2005,0.7083,0.4136,4.9527,-0.8991,-2.2455,0.7373,0.3997,2.4932,
13.940838,0.0796,0.9933,0.2757,4.9527,-0.8991,-2.2455,0.7373,0.3997,2.4932,
13.943700,0.0266,1.0770,-0.0286,4.9527,-0.8991,-2.2455,0.7373,0.3997,2.4932,
13.945279,0.0586,1.0174,-0.1917,4.9527,-0.8991,-2.2455,0.7373,0.3997,2.4932,
13.947286,0.0586,1.0174,-0.1917,4.9527,-0.8991,-2.2455,0.6868,-0.4803,1.2947,
13.949197,0.0586,1.0174,-0.1917,0.8387,0.4642,0.4525,0.6868,-0.4803,1.2947,
14.002182,0.0188,1.0738,-0.1087,0.8387,0.4642,0.4525,0.6868,-0.4803,1.2947,
14.005486,0.0300,0.9874,-0.0166,0.8387,0.4642,0.4525,0.6868,-0.4803,1.2947,
14.007039,0.1174,0.9266,-0.1553,0.8387,0.4642,0.4525,0.6868,-0.4803,1.2947,
14.008858,0.1174,0.9266,-0.1553,0.8387,0.4642,0.4525,0.6084,0.3557,0.9937,
14.010605,0.1174,0.9266,-0.1553,0.2705,0.1500,-0.3006,0.6084,0.3557,0.9937,
14.058185,0.0542,1.0272,-0.0877,0.2705,0.1500,-0.3006,0.6084,0.3557,0.9937,
14.061866,-0.1548,1.0626,-0.0632,0.2705,0.1500,-0.3006,0.6084,0.3557,0.9937,
14.063742,-0.1497,0.9762,-0.0269,0.2705,0.1500,-0.3006,0.6084,0.3557,0.9937,
14.065122,-0.1497,0.9762,-0.0269,0.2705,0.1500,-0.3006,0.5581,0.3942,0.8302,
14.067307,-0.1497,0.9762,-0.0269,-1.5460,0.4475,0.3296,0.5581,0.3942,0.8302,
14.116755,0.0479,1.0040,-0.0855,-1.5460,0.4475,0.3296,0.5581,0.3942,0.8302,
14.121122,0.2547,0.9960,-0.0967,-1.5460,0.4475,0.3296,0.5581,0.3942,0.8302,
14.123024,0.2229,0.9605,-0.0706,-1.5460,0.4475,0.3296,0.5581,0.3942,0.8302,
14.124893,0.2229,0.9605,-0.0706,0.4376,0.1951,0.4168,0.5581,0.3942,0.8302,
14.126868,0.2229,0.9605,-0.0706,0.4376,0.1951,0.4168,0.5693,-0.3598,1.0206,
14.175357,0.0850,0.9774,-0.0496,0.4376,0.1951,0.4168,0.5693,-0.3598,1.0206,
14.179977,0.0366,0.9933,-0.0706,0.4376,0.1951,0.4168,0.5693,-0.3598,1.0206,
14.181441,0.0628,0.9999,-0.1084,0.4376,0.1951,0.4168,0.5693,-0.3598,1.0206,
14.184020,0.0628,0.9999,-0.1084,0.4376,0.1951,0.4168,0.6945,-0.1152,0.9059,
14.185908,0.0628,0.9999,-0.1084,-1.1454,0.3604,0.8717,0.6945,-0.1152,0.9059,
14.234752,0.0960,0.9950,-0.1450,-1.1454,0.3604,0.8717,0.6945,-0.1152,0.9059,
14.238248,0.1636,0.9877,-0.1675,-1.1454,0.3604,0.8717,0.6945,-0.1152,0.9059,
14.240378,0.2012,1.0099,-0.1675,-1.1454,0.3604,0.8717,0.6945,-0.1152,0.9059,
14.242156,0.2012,1.0099,-0.1675,-1.1454,0.3604,0.8717,0.7886,-0.4284,1.1369,
14.244079,0.2012,1.0099,-0.1675,-0.7945,0.6415,0.5178,0.7886,-0.4284,1.1369,
14.291807,0.1724,1.0233,-0.1653,-0.7945,0.6415,0.5178,0.7886,-0.4284,1.1369,
14.294962,0.0830,1.0270,-0.1394,-0.7945,0.6415,0.5178,0.7886,-0.4284,1.1369,
14.296773,0.0623,1.0895,-0.1370,-0.7945,0.6415,0.5178,0.7886,-0.4284,1.1369,
14.298908,0.0623,1.0895,-0.1370,-0.7945,0.6415,0.5178,1.0222,-0.2307,1.2694,
14.301150,0.0623,1.0895,-0.1370,-1.8638,1.4336,1.1924,1.0222,-0.2307,1.2694,
14.351051,0.1113,1.1737,-0.1428,-1.8638,1.4336,1.1924,1.0222,-0.2307,1.2694,
14.355202,0.0991,1.1915,-0.1453,-1.8638,1.4336,1.1924,1.0222,-0.2307,1.2694,
14.357579,0.0093,1.3187,-0.1135,-1.8638,1.4336,1.1924,1.0222,-0.2307,1.2694,
14.359514,0.0093,1.3187,-0.1135,-1.8638,1.4336,1.1924,1.5178,-0.4695,1.6131,
14.361529,0.0093,1.3187,-0.1135,-2.8553,3.7267,2.1332,1.5178,-0.4695,1.6131,
14.406296,-0.1944,1.6110,-0.0789,-2.8553,3.7267,2.1332,1.5178,-0.4695,1.6131,
14.408011,-0.4937,1.8129,-0.0518,-2.8553,3.7267,2.1332,1.5178,-0.4695,1.6131,
14.408833,-1.0362,1.9880,0.0203,-2.8553,3.7267,2.1332,1.5178,-0.4695,1.6131,
14.409631,-1.0362,1.9880,0.0203,-2.8553,3.7267,2.1332,2.1181,-0.9075,1.8701,
14.410333,-1.0362,1.9880,0.0203,-9.6851,10.1255,4.1924,2.1181,-0.9075,1.8701,
14.465357,-0.9835,1.7265,0.0352,-9.6851,10.1255,4.1924,2.1181,-0.9075,1.8701,
14.467299,-0.0466,1.1412,-0.2779,-9.6851,10.1255,4.1924,2.1181,-0.9075,1.8701,
14.468351,1.0416,1.1283,-0.5699,-9.6851,10.1255,4.1924,2.1181,-0.9075,1.8701,
14.469224,1.0416,1.1283,-0.5699,-9.6851,10.1255,4.1924,2.1441,-2.0118,2.7799,
14.470079,1.0416,1.1283,-0.5699,-4.4346,6.7443,3.2198,2.1441,-2.0118,2.7799,
14.524385,1.4374,1.1493,-0.3340,-4.4346,6.7443,3.2198,2.1441,-2.0118,2.7799,
14.527842,0.9076,0.7928,-0.5858,-4.4346,6.7443,3.2198,2.1441,-2.0118,2.7799,
14.530237,0.6094,0.4356,-0.8949,-4.4346,6.7443,3.2198,2.1441,-2.0118,2.7799,
14.532282,0.6094,0.4356,-0.8949,-4.4346,6.7443,3.2198,1.6615,-0.3284,1.5942,
14.534287,0.6094,0.4356,-0.8949,4.6730,2.4534,0.5830,1.6615,-0.3284,1.5942,
14.582804,0.4827,0.4393,-0.6859,4.6730,2.4534,0.5830,1.6615,-0.3284,1.5942,
14.586153,0.2950,0.3123,-0.2346,4.6730,2.4534,0.5830,1.6615,-0.3284,1.5942,
14.588680,0.0977,0.1314,0.1255,4.6730,2.4534,0.5830,1.6615,-0.3284,1.5942,
14.590324,0.0977,0.1314,0.1255,4.6730,2.4534,0.5830,-1.3042,1.1401,-0.6098,
14.592859,0.0977,0.1314,0.1255,-2.2875,-3.0266,3.0925,-1.3042,1.1401,-0.6098,
14.641441,-0.1094,0.0466,0.1082,-2.2875,-3.0266,3.0925,-1.3042,1.1401,-0.6098,
14.646356,-0.1072,0.1509,-0.1402,-2.2875,-3.0266,3.0925,-1.3042,1.1401,-0.6098,
14.648814,0.0659,0.3553,-0.2881,-2.2875,-3.0266,3.0925,-1.3042,1.1401,-0.6098,
14.651737,0.0659,0.3553,-0.2881,-2.2875,-3.0266,3.0925,-2.3299,0.2287,-2.5023,
14.655262,0.0659,0.3553,-0.2881,-4.6635,-5.4119,3.6159,-2.3299,0.2287,-2.5023,
14.700102,0.1477,0.5247,-0.3230,-4.6635,-5.4119,3.6159,-2.3299,0.2287,-2.5023,
14.704154,0.1380,0.6632,-0.2820,-4.6635,-5.4119,3.6159,-2.3299,0.2287,-2.5023,
14.706275,0.1651,0.7034,-0.2771,-4.6635,-5.4119,3.6159,-2.3299,0.2287,-2.5023,
14.708614,0.1651,0.7034,-0.2771,-0.7854,-2.4856,0.3179,-2.3299,0.2287,-2.5023,
14.710965,0.1651,0.7034,-0.2771,-0.7854,-2.4856,0.3179,-3.5286,-1.0700,-3.5512,
14.758470,0.1904,0.8214,-0.2854,-0.7854,-2.4856,0.3179,-3.5286,-1.0700,-3.5512,
14.763590,0.1526,1.1117,-0.4229,-0.7854,-2.4856,0.3179,-3.5286,-1.0700,-3.5512,
14.766372,0.2649,1.5636,-0.6492,-0.7854,-2.4856,0.3179,-3.5286,-1.0700,-3.5512,
14.769025,0.2649,1.5636,-0.6492,2.1730,1.9245,-3.5089,-3.5286,-1.0700,-3.5512,
14.773146,0.2649,1.5636,-0.6492,2.1730,1.9245,-3.5089,-4.5384,-1.6247,-4.2805,
14.814609,0.4324,1.8730,-0.8253,2.1730,1.9245,-3.5089,-4.5384,-1.6247,-4.2805,
14.816350,0.4920,1.7260,-0.6463,2.1730,1.9245,-3.5089,-4.5384,-1.6247,-4.2805,
14.818505,0.8377,1.2286,-0.6265,2.1730,1.9245,-3.5089,-4.5384,-1.6247,-4.2805,
14.820943,0.8377,1.2286,-0.6265,2.1730,1.9245,-3.5089,-4.6927,-0.1020,-3.8175,
14.823616,0.8377,1.2286,-0.6265,7.9211,6.5421,-8.3527,-4.6927,-0.1020,-3.8175,
14.873292,0.9596,1.0841,-0.4493,7.9211,6.5421,-8.3527,-4.6927,-0.1020,-3.8175,
14.874992,0.5567,1.0299,-0.4288,7.9211,6.5421,-8.3527,-4.6927,-0.1020,-3.8175,
14.876214,0.6024,0.7889,-0.6888,7.9211,6.5421,-8.3527,-4.6927,-0.1020,-3.8175,
14.877294,0.6024,0.7889,-0.6888,7.9211,6.5421,-8.3527,-2.0619,1.4449,-1.4147,
14.878665,0.6024,0.7889,-0.6888,9.8442,0.6940,-7.3405,-2.0619,1.4449,-1.4147,
14.933119,0.7996,0.7479,-0.7713,9.8442,0.6940,-7.3405,-2.0619,1.4449,-1.4147,
14.937896,0.5064,1.4354,-1.0062,9.8442,0.6940,-7.3405,-2.0619,1.4449,-1.4147,
14.940477,-1.4950,1.8999,0.9969,9.8442,0.6940,-7.3405,-2.0619,1.4449,-1.4147,
14.942735,-1.4950,1.8999,0.9969,9.8442,0.6940,-7.3405,0.4080,3.1405,1.1175,
14.944788,-1.4950,1.8999,0.9969,2.0479,4.2520,-3.9593,0.4080,3.1405,1.1175,
14.991200,-1.4950,1.8999,0.9969,-3.7992,2.0901,-2.1763,0.4080,3.1405,1.1175,
14.993163,-2.2932,1.4079,0.5171,-3.7992,2.0901,-2.1763,0.4080,3.1405,1.1175,
14.994166,-0.1455,1.0404,-0.4690,-3.7992,2.0901,-2.1763,0.4080,3.1405,1.1175,
14.995125,0.6646,1.0707,-0.6148,-3.7992,2.0901,-2.1763,0.4080,3.1405,1.1175,
14.995940,0.6646,1.0707,-0.6148,-3.7992,2.0901,-2.1763,1.4437,1.9410,1.5647,
15.049597,0.2696,0.9464,0.0596,-3.7992,2.0901,-2.1763,1.4437,1.9410,1.5647,
15.052859,0.0764,0.8702,-0.0481,-3.7992,2.0901,-2.1763,1.4437,1.9410,1.5647,
15.054490,0.1023,0.9972,-0.1668,-3.7992,2.0901,-2.1763,1.4437,1.9410,1.5647,
15.056060,0.1023,0.9972,-0.1668,-3.7992,2.0901,-2.1763,0.7780,-0.0700,1.6877,
15.058247,0.1023,0.9972,-0.1668,2.4881,-0.3624,-0.3927,0.7780,-0.0700,1.6877,
15.107301,0.2366,1.0651,-0.1016,2.4881,-0.3624,-0.3927,0.7780,-0.0700,1.6877,
15.110092,0.0559,0.9845,-0.0173,2.4881,-0.3624,-0.3927,0.7780,-0.0700,1.6877,
15.111671,-0.1751,0.9791,-0.0364,2.4881,-0.3624,-0.3927,0.7780,-0.0700,1.6877,
15.113614,-0.1751,0.9791,-0.0364,2.4881,-0.3624,-0.3927,0.4818,0.3704,1.0743,
15.115136,-0.1751,0.9791,-0.0364,0.7872,0.2964,-0.1079,0.4818,0.3704,1.0743,
15.165698,-0.0996,1.0343,-0.0454,0.7872,0.2964,-0.1079,0.4818,0.3704,1.0743,
15.168776,0.0408,1.0096,0.0095,0.7872,0.2964,-0.1079,0.4818,0.3704,1.0743,
15.170330,0.1006,0.9732,0.0276,0.7872,0.2964,-0.1079,0.4818,0.3704,1.0743,
15.172085,0.1006,0.9732,0.0276,0.7872,0.2964,-0.1079,0.3763,-0.1008,0.9735,
15.173680,0.1006,0.9732,0.0276,-0.0015,0.2581,0.5736,0.3763,-0.1008,0.9735,
15.224896,0.1006,0.9732,0.0276,0.7692,-0.1257,0.6282,0.3763,-0.1008,0.9735,
15.228704,0.1880,0.9496,-0.0247,0.7692,-0.1257,0.6282,0.3763,-0.1008,0.9735,
15.230474,0.1748,0.9615,0.0002,0.7692,-0.1257,0.6282,0.3763,-0.1008,0.9735,
15.231888,0.0535,0.9779,-0.0313,0.7692,-0.1257,0.6282,0.3763,-0.1008,0.9735,
15.233842,0.0535,0.9779,-0.0313,0.7692,-0.1257,0.6282,0.3936,-0.0055,0.7866,
15.284594,-0.0032,1.0314,-0.0615,0.7692,-0.1257,0.6282,0.3936,-0.0055,0.7866,
15.289964,-0.0054,1.0065,-0.0144,0.7692,-0.1257,0.6282,0.3936,-0.0055,0.7866,
15.291574,0.0066,0.9911,0.0024,0.7692,-0.1257,0.6282,0.3936,-0.0055,0.7866,
15.292947,0.0066,0.9911,0.0024,0.7692,-0.1257,0.6282,0.5160,0.0774,0.7080,
15.294901,0.0066,0.9911,0.0024,-0.9786,0.3860,0.8389,0.5160,0.0774,0.7080,
15.341302,0.0637,0.9703,-0.0435,-0.9786,0.3860,0.8389,0.5160,0.0774,0.7080,
15.344635,0.1729,0.9339,-0.1218,-0.9786,0.3860,0.8389,0.5160,0.0774,0.7080,
15.346427,0.1721,0.9547,-0.1314,-0.9786,0.3860,0.8389,0.5160,0.0774,0.7080,
15.349065,0.1721,0.9547,-0.1314,-0.9786,0.3860,0.8389,0.7015,-0.1498,0.8257,
15.350931,0.1721,0.9547,-0.1314,-0.0796,-0.0583,0.4992,0.7015,-0.1498,0.8257,
15.400512,0.1272,0.9732,-0.1345,-0.0796,-0.0583,0.4992,0.7015,-0.1498,0.8257,
15.403750,0.0669,0.9855,-0.1248,-0.0796,-0.0583,0.4992,0.7015,-0.1498,0.8257,
15.405860,0.0166,1.0001,-0.0806,-0.0796,-0.0583,0.4992,0.7015,-0.1498,0.8257,
15.408082,0.0166,1.0001,-0.0806,-0.0796,-0.0583,0.4992,0.7208,-0.2598,0.8351,
15.410355,0.0166,1.0001,-0.0806,-1.1360,0.4109,0.7622,0.7208,-0.2598,0.8351,
15.458398,0.1008,0.9205,-0.1211,-1.1360,0.4109,0.7622,0.7208,-0.2598,0.8351,
15.462321,0.1546,0.8790,-0.0669,-1.1360,0.4109,0.7622,0.7208,-0.2598,0.8351,
15.464036,0.0435,0.9874,-0.0342,-1.1360,0.4109,0.7622,0.7208,-0.2598,0.8351,
15.465698,0.0435,0.9874,-0.0342,-1.1360,0.4109,0.7622,0.9147,-0.7522,1.2171,
15.468246,0.0435,0.9874,-0.0342,-1.3769,0.1122,1.6980,0.9147,-0.7522,1.2171,
15.516119,0.0107,1.2321,-0.0298,-1.3769,0.1122,1.6980,0.9147,-0.7522,1.2171,
15.519332,-0.1851,1.5732,0.1018,-1.3769,0.1122,1.6980,0.9147,-0.7522,1.2171,
15.521530,-0.3846,1.5824,-0.0291,-1.3769,0.1122,1.6980,0.9147,-0.7522,1.2171,
15.523438,-0.3846,1.5824,-0.0291,-1.3769,0.1122,1.6980,1.1156,-1.7982,2.0230,
15.525445,-0.3846,1.5824,-0.0291,-4.8282,5.7513,3.3649,1.1156,-1.7982,2.0230,
15.572898,-0.2158,1.6816,-0.4163,-4.8282,5.7513,3.3649,1.1156,-1.7982,2.0230,
15.574521,0.2222,1.6007,-0.5975,-4.8282,5.7513,3.3649,1.1156,-1.7982,2.0230,
15.575451,0.5154,1.1044,-0.4905,-4.8282,5.7513,3.3649,1.1156,-1.7982,2.0230,
15.576391,0.5154,1.1044,-0.4905,-4.8282,5.7513,3.3649,0.5764,-3.8841,3.5249,
15.578930,0.5154,1.1044,-0.4905,-2.0863,6.4716,-0.6167,0.5764,-3.8841,3.5249,
15.631887,0.6258,0.8089,-0.6036,-2.0863,6.4716,-0.6167,0.5764,-3.8841,3.5249,
15.634041,0.8045,0.5022,-0.7430,-2.0863,6.4716,-0.6167,0.5764,-3.8841,3.5249,
15.634863,0.5123,0.3335,-0.8001,-2.0863,6.4716,-0.6167,0.5764,-3.8841,3.5249,
15.635725,0.5123,0.3335,-0.8001,-2.0863,6.4716,-0.6167,-1.0560,-3.9395,3.3417,
15.637146,0.5123,0.3335,-0.8001,2.0949,-1.9533,-2.2146,-1.0560,-3.9395,3.3417,
15.693163,0.5123,0.3335,-0.8001,-6.6458,-5.2893,-4.5966,-1.0560,-3.9395,3.3417,
15.697480,0.0496,0.2075,-0.7699,-6.6458,-5.2893,-4.5966,-1.0560,-3.9395,3.3417,
15.700472,-0.3130,0.1731,-0.8744,-6.6458,-5.2893,-4.5966,-1.0560,-3.9395,3.3417,
15.703146,-0.5037,0.2732,-1.1627,-6.6458,-5.2893,-4.5966,-1.0560,-3.9395,3.3417,
15.705720,-0.5037,0.2732,-1.1627,-6.6458,-5.2893,-4.5966,-2.5818,-3.2380,2.0833,
15.750014,-0.3079,0.3352,-0.9789,-6.6458,-5.2893,-4.5966,-2.5818,-3.2380,2.0833,
15.754743,-0.0852,0.3128,-0.9278,-6.6458,-5.2893,-4.5966,-2.5818,-3.2380,2.0833,
15.757962,-0.3076,0.3809,-0.8775,-6.6458,-5.2893,-4.5966,-2.5818,-3.2380,2.0833,
15.760162,-0.3076,0.3809,-0.8775,-6.6458,-5.2893,-4.5966,-2.7746,-2.9425,0.9446,
15.762413,-0.3076,0.3809,-0.8775,-6.0031,-4.4650,-4.9876,-2.7746,-2.9425,0.9446,
15.806841,-0.4786,0.4485,-0.8560,-6.0031,-4.4650,-4.9876,-2.7746,-2.9425,0.9446,
15.809064,-0.4512,0.5694,-0.8993,-6.0031,-4.4650,-4.9876,-2.7746,-2.9425,0.9446,
15.810323,-0.2683,0.7227,-0.9837,-6.0031,-4.4650,-4.9876,-2.7746,-2.9425,0.9446,
15.811509,-0.2683,0.7227,-0.9837,-6.0031,-4.4650,-4.9876,-2.5315,-4.8210,-0.4748,
15.812702,-0.2683,0.7227,-0.9837,-6.1875,-2.7531,-5.0873,-2.5315,-4.8210,-0.4748,
15.865677,-0.0544,0.8607,-1.0060,-6.1875,-2.7531,-5.0873,-2.5315,-4.8210,-0.4748,
15.869261,0.0732,0.9200,-0.8827,-6.1875,-2.7531,-5.0873,-2.5315,-4.8210,-0.4748,
15.871691,0.0359,0.9855,-0.8446,-6.1875,-2.7531,-5.0873,-2.5315,-4.8210,-0.4748,
15.873448,0.0359,0.9855,-0.8446,-6.1875,-2.7531,-5.0873,-2.4229,-5.3954,-0.7833,
15.875903,0.0359,0.9855,-0.8446,-0.5803,0.0314,-5.7291,-2.4229,-5.3954,-0.7833,
15.923882,-0.0049,1.0304,-0.8355,-0.5803,0.0314,-5.7291,-2.4229,-5.3954,-0.7833,
15.927140,0.0220,1.0189,-0.7249,-0.5803,0.0314,-5.7291,-2.4229,-5.3954,-0.7833,
15.929565,0.0911,1.0077,-0.6234,-0.5803,0.0314,-5.7291,-2.4229,-5.3954,-0.7833,
15.931276,0.0911,1.0077,-0.6234,0.8615,0.6502,-4.8899,-2.4229,-5.3954,-0.7833,
15.933492,0.0911,1.0077,-0.6234,0.8615,0.6502,-4.8899,-1.9986,-4.1771,-1.1561,
15.983039,0.0606,1.0333,-0.5137,0.8615,0.6502,-4.8899,-1.9986,-4.1771,-1.1561,
15.987663,-0.0166,1.0038,-0.4302,0.8615,0.6502,-4.8899,-1.9986,-4.1771,-1.1561,
15.990307,-0.0029,0.9674,-0.3965,0.8615,0.6502,-4.8899,-1.9986,-4.1771,-1.1561,
15.992325,-0.0029,0.9674,-0.3965,0.8615,0.6502,-4.8899,-1.1096,-3.3864,-0.9578,
15.994574,-0.0029,0.9674,-0.3965,1.5030,0.4048,-2.8837,-1.1096,-3.3864,-0.9578,
16.041692,0.1270,0.9269,-0.3670,1.5030,0.4048,-2.8837,-1.1096,-3.3864,-0.9578,
16.045566,0.3003,0.8419,-0.3057,1.5030,0.4048,-2.8837,-1.1096,-3.3864,-0.9578,
16.048788,0.3987,0.7843,-0.2307,1.5030,0.4048,-2.8837,-1.1096,-3.3864,-0.9578,
16.050960,0.3987,0.7843,-0.2307,1.5030,0.4048,-2.8837,-0.4492,-3.5986,0.0090,
16.053335,0.3987,0.7843,-0.2307,4.2385,-1.0864,-1.9932,-0.4492,-3.5986,0.0090,
16.099658,0.5084,0.7457,-0.2078,4.2385,-1.0864,-1.9932,-0.4492,-3.5986,0.0090,
16.102255,0.5870,0.7501,-0.2092,4.2385,-1.0864,-1.9932,-0.4492,-3.5986,0.0090,
16.102985,0.5638,0.7108,-0.2124,4.2385,-1.0864,-1.9932,-0.4492,-3.5986,0.0090,
16.103718,0.5638,0.7108,-0.2124,6.5129,-2.2581,-1.4308,-0.4492,-3.5986,0.0090,
16.104511,0.5638,0.7108,-0.2124,6.5129,-2.2581,-1.4308,-0.1582,-3.2484,0.8707,
16.158125,0.4060,0.9012,-0.3094,6.5129,-2.2581,-1.4308,-0.1582,-3.2484,0.8707,
16.160547,0.0220,1.5732,0.3181,6.5129,-2.2581,-1.4308,-0.1582,-3.2484,0.8707,
16.161444,-0.2266,2.2051,0.9789,6.5129,-2.2581,-1.4308,-0.1582,-3.2484,0.8707,
16.162268,-0.2266,2.2051,0.9789,6.5129,-2.2581,-1.4308,-0.8548,-1.1920,0.9509,
16.163226,-0.2266,2.2051,0.9789,1.2348,5.6598,3.2581,-0.8548,-1.1920,0.9509,
16.214873,0.0940,1.1942,0.1011,1.2348,5.6598,3.2581,-0.8548,-1.1920,0.9509,
16.217583,0.0806,0.4654,-0.3579,1.2348,5.6598,3.2581,-0.8548,-1.1920,0.9509,
16.220160,0.1633,0.8822,-0.3543,1.2348,5.6598,3.2581,-0.8548,-1.1920,0.9509,
16.229589,0.1633,0.8822,-0.3543,1.2348,5.6598,3.2581,0.3402,0.3997,1.0067,
16.231495,0.1633,0.8822,-0.3543,1.0931,-1.3156,-1.7413,0.3402,0.3997,1.0067,
16.273903,0.1760,1.1256,0.1060,1.0931,-1.3156,-1.7413,0.3402,0.3997,1.0067,
16.276127,0.1924,1.0853,0.2432,1.0931,-1.3156,-1.7413,0.3402,0.3997,1.0067,
16.277890,0.0750,1.0089,0.1509,1.0931,-1.3156,-1.7413,0.3402,0.3997,1.0067,
16.279342,0.0750,1.0089,0.1509,1.0931,-1.3156,-1.7413,-0.3010,-0.0537,0.7080,
16.281936,0.0750,1.0089,0.1509,1.0233,0.8899,1.6927,-0.3010,-0.0537,0.7080,
16.331685,0.0249,1.0069,-0.0608,1.0233,0.8899,1.6927,-0.3010,-0.0537,0.7080,
16.334580,0.0535,1.1007,-0.1228,1.0233,0.8899,1.6927,-0.3010,-0.0537,0.7080,
16.336003,0.0310,1.0340,0.0439,1.0233,0.8899,1.6927,-0.3010,-0.0537,0.7080,
16.338601,0.0310,1.0340,0.0439,1.0233,0.8899,1.6927,-0.0078,0.1098,0.5052,
16.342176,0.0310,1.0340,0.0439,-0.3456,0.6405,-0.3986,-0.0078,0.1098,0.5052,
16.389140,0.0146,0.9654,0.1050,-0.3456,0.6405,-0.3986,-0.0078,0.1098,0.5052,
16.390449,0.0750,1.0028,0.0474,-0.3456,0.6405,-0.3986,-0.0078,0.1098,0.5052,
16.391027,0.0486,1.0194,0.0718,-0.3456,0.6405,-0.3986,-0.0078,0.1098,0.5052,
16.391703,0.0486,1.0194,0.0718,-0.3456,0.6405,-0.3986,0.0370,-0.0012,0.4077,
16.392249,0.0486,1.0194,0.0718,-0.4721,0.1542,0.7973,0.0370,-0.0012,0.4077,
16.447990,-0.0178,0.9901,0.1238,-0.4721,0.1542,0.7973,0.0370,-0.0012,0.4077,
16.449586,-0.0535,1.0123,0.0740,-0.4721,0.1542,0.7973,0.0370,-0.0012,0.4077,
16.450442,-0.0090,1.0209,0.0960,-0.4721,0.1542,0.7973,0.0370,-0.0012,0.4077,
16.451135,-0.0090,1.0209,0.0960,-0.4721,0.1542,0.7973,0.2374,-0.2468,0.5307,
16.452007,-0.0090,1.0209,0.0960,-1.4560,0.3006,1.1535,0.2374,-0.2468,0.5307,
16.507784,0.0134,1.0060,0.1277,-1.4560,0.3006,1.1535,0.2374,-0.2468,0.5307,
16.511153,0.1052,0.9740,-0.0061,-1.4560,0.3006,1.1535,0.2374,-0.2468,0.5307,
16.513168,0.2344,0.9679,-0.0476,-1.4560,0.3006,1.1535,0.2374,-0.2468,0.5307,
16.514826,0.2344,0.9679,-0.0476,-1.4560,0.3006,1.1535,0.4779,-0.3101,0.8112,
16.516560,0.2344,0.9679,-0.0476,-0.4774,0.1285,0.7149,0.4779,-0.3101,0.8112,
16.566259,0.1521,1.0040,-0.0381,-0.4774,0.1285,0.7149,0.4779,-0.3101,0.8112,
16.569447,0.1187,1.0304,-0.0369,-0.4774,0.1285,0.7149,0.4779,-0.3101,0.8112,
16.571653,0.0969,1.0260,-0.0420,-0.4774,0.1285,0.7149,0.4779,-0.3101,0.8112,
16.573267,0.0969,1.0260,-0.0420,-0.4774,0.1285,0.7149,0.4726,-0.3058,0.8341,
16.575294,0.0969,1.0260,-0.0420,-0.8638,0.5935,0.3784,0.4726,-0.3058,0.8341,
16.625022,0.1106,0.9972,-0.0300,-0.8638,0.5935,0.3784,0.4726,-0.3058,0.8341,
16.628675,0.1436,0.9833,-0.0151,-0.8638,0.5935,0.3784,0.4726,-0.3058,0.8341,
16.630717,0.2176,1.0096,-0.0576,-0.8638,0.5935,0.3784,0.4726,-0.3058,0.8341,
16.632587,0.2176,1.0096,-0.0576,-1.0545,0.5301,0.7820,0.4726,-0.3058,0.8341,
16.634377,0.2176,1.0096,-0.0576,-1.0545,0.5301,0.7820,0.5712,-0.4392,1.0536,
16.684527,0.2505,1.0218,-0.1001,-1.0545,0.5301,0.7820,0.5712,-0.4392,1.0536,
16.688989,0.2351,0.9884,-0.1299,-1.0545,0.5301,0.7820,0.5712,-0.4392,1.0536,
16.691443,0.2009,1.0257,-0.1409,-1.0545,0.5301,0.7820,0.5712,-0.4392,1.0536,
16.693284,0.2009,1.0257,-0.1409,-0.9536,0.9217,0.3163,0.5712,-0.4392,1.0536,
16.695240,0.2009,1.0257,-0.1409,-0.9536,0.9217,0.3163,0.6318,-0.4706,1.2297,
16.743339,0.2009,1.0257,-0.1409,-2.7991,2.5052,0.6317,0.6318,-0.4706,1.2297,
16.747932,0.1897,1.1095,-0.1541,-2.7991,2.5052,0.6317,0.6318,-0.4706,1.2297,
16.750098,0.0989,1.1537,-0.1533,-2.7991,2.5052,0.6317,0.6318,-0.4706,1.2297,
16.752072,0.0264,1.1556,-0.1192,-2.7991,2.5052,0.6317,0.6318,-0.4706,1.2297,
16.754411,0.0264,1.1556,-0.1192,-2.7991,2.5052,0.6317,0.7951,-0.4818,1.4176,
16.803385,0.0264,1.1556,-0.1192,-4.3644,4.3104,1.4503,0.7951,-0.4818,1.4176,
16.806664,0.0251,1.1774,-0.1275,-4.3644,4.3104,1.4503,0.7951,-0.4818,1.4176,
16.808246,0.0508,1.2208,-0.1658,-4.3644,4.3104,1.4503,0.7951,-0.4818,1.4176,
16.810005,-0.0418,1.4103,-0.1304,-4.3644,4.3104,1.4503,0.7951,-0.4818,1.4176,
16.811586,-0.0418,1.4103,-0.1304,-4.3644,4.3104,1.4503,1.1395,-1.1262,1.8088,
16.857144,-0.4761,1.7509,0.1382,-4.3644,4.3104,1.4503,1.1395,-1.1262,1.8088,
16.859899,-1.2318,1.7934,0.1099,-4.3644,4.3104,1.4503,1.1395,-1.1262,1.8088,
16.861678,-1.0480,1.5544,-0.0359,-4.3644,4.3104,1.4503,1.1395,-1.1262,1.8088,
16.863427,-1.0480,1.5544,-0.0359,-4.3644,4.3104,1.4503,1.4614,-2.0028,2.1091,
16.865444,-1.0480,1.5544,-0.0359,-13.7897,9.2496,4.6655,1.4614,-2.0028,2.1091,
16.914555,-0.0483,1.1659,-0.3677,-13.7897,9.2496,4.6655,1.4614,-2.0028,2.1091,
16.916236,1.1095,1.2863,-0.6822,-13.7897,9.2496,4.6655,1.4614,-2.0028,2.1091,
16.917071,1.4652,1.3156,-0.5757,-13.7897,9.2496,4.6655,1.4614,-2.0028,2.1091,
16.918421,1.4652,1.3156,-0.5757,-13.7897,9.2496,4.6655,1.7450,-3.0553,3.7056,
16.919773,1.4652,1.3156,-0.5757,2.8384,6.3849,0.2474,1.7450,-3.0553,3.7056,
16.973373,0.7288,0.9789,-0.6473,2.8384,6.3849,0.2474,1.7450,-3.0553,3.7056,
16.975586,0.4966,0.5972,-0.6304,2.8384,6.3849,0.2474,1.7450,-3.0553,3.7056,
16.977364,0.5569,0.5296,-0.6448,2.8384,6.3849,0.2474,1.7450,-3.0553,3.7056,
16.979178,0.5569,0.5296,-0.6448,2.8384,6.3849,0.2474,0.6027,-0.6208,1.4472,
16.981100,0.5569,0.5296,-0.6448,0.1415,1.5972,-0.3224,0.6027,-0.6208,1.4472,
17.032768,0.3829,0.3404,-0.3699,0.1415,1.5972,-0.3224,0.6027,-0.6208,1.4472,
17.035762,0.1116,0.1126,-0.0979,0.1415,1.5972,-0.3224,0.6027,-0.6208,1.4472,
17.037756,-0.1934,0.0364,-0.1284,0.1415,1.5972,-0.3224,0.6027,-0.6208,1.4472,
17.039778,-0.1934,0.0364,-0.1284,0.1415,1.5972,-0.3224,-1.7797,0.5738,-0.4901,
17.042276,-0.1934,0.0364,-0.1284,-4.6390,-4.3529,3.1811,-1.7797,0.5738,-0.4901,
17.092381,-0.1934,0.0364,-0.1284,-5.2430,-4.0054,0.8224,-1.7797,0.5738,-0.4901,
17.094839,-0.2383,0.1428,-0.2749,-5.2430,-4.0054,0.8224,-1.7797,0.5738,-0.4901,
17.095962,-0.0808,0.3631,-0.3953,-5.2430,-4.0054,0.8224,-1.7797,0.5738,-0.4901,
17.097222,0.0488,0.5022,-0.4178,-5.2430,-4.0054,0.8224,-1.7797,0.5738,-0.4901,
17.098856,0.0488,0.5022,-0.4178,-5.2430,-4.0054,0.8224,-2.5659,-0.8849,-2.3828,
17.150078,0.0588,0.5484,-0.3704,-5.2430,-4.0054,0.8224,-2.5659,-0.8849,-2.3828,
17.153589,0.0386,0.6089,-0.3941,-5.2430,-4.0054,0.8224,-2.5659,-0.8849,-2.3828,
17.155729,0.0667,0.7335,-0.4788,-5.2430,-4.0054,0.8224,-2.5659,-0.8849,-2.3828,
17.158035,0.0667,0.7335,-0.4788,-5.2430,-4.0054,0.8224,-3.8312,-2.1248,-3.7291,
17.159066,0.0667,0.7335,-0.4788,-1.5705,-2.6181,-1.0847,-3.8312,-2.1248,-3.7291,
17.208166,0.1253,0.8724,-0.4739,-1.5705,-2.6181,-1.0847,-3.8312,-2.1248,-3.7291,
17.212159,0.1253,1.1234,-0.5040,-1.5705,-2.6181,-1.0847,-3.8312,-2.1248,-3.7291,
17.214528,0.2044,1.6420,-0.7467,-1.5705,-2.6181,-1.0847,-3.8312,-2.1248,-3.7291,
17.217275,0.2044,1.6420,-0.7467,-1.5705,-2.6181,-1.0847,-4.6589,-1.5017,-4.3628,
17.218636,0.2044,1.6420,-0.7467,1.8697,2.3479,-5.0027,-4.6589,-1.5017,-4.3628,
17.265459,0.5716,1.8527,-0.9498,1.8697,2.3479,-5.0027,-4.6589,-1.5017,-4.3628,
17.269190,0.7796,1.3805,-0.7567,1.8697,2.3479,-5.0027,-4.6589,-1.5017,-4.3628,
17.271950,0.9542,1.1644,-0.5372,1.8697,2.3479,-5.0027,-4.6589,-1.5017,-4.3628,
17.274531,0.9542,1.1644,-0.5372,1.8697,2.3479,-5.0027,-4.7019,0.3173,-3.9928,
17.277510,0.9542,1.1644,-0.5372,9.9630,5.2691,-9.0662,-4.7019,0.3173,-3.9928,
17.323602,0.6556,1.1791,-0.3599,9.9630,5.2691,-9.0662,-4.7019,0.3173,-3.9928,
17.326851,0.6268,0.8639,-0.4444,9.9630,5.2691,-9.0662,-4.7019,0.3173,-3.9928,
17.329409,0.8563,0.6302,-0.7135,9.9630,5.2691,-9.0662,-4.7019,0.3173,-3.9928,
17.331664,0.8563,0.6302,-0.7135,9.9630,5.2691,-9.0662,-1.2916,1.4985,-0.9837,
17.333697,0.8563,0.6302,-0.7135,9.9507,-0.0548,-6.9926,-1.2916,1.4985,-0.9837,
17.382355,0.5941,1.1276,-0.9186,9.9507,-0.0548,-6.9926,-1.2916,1.4985,-0.9837,
17.386130,-1.1835,2.0810,1.0353,9.9507,-0.0548,-6.9926,-1.2916,1.4985,-0.9837,
17.388741,-2.3506,1.9047,1.1031,9.9507,-0.0548,-6.9926,-1.2916,1.4985,-0.9837,
17.390960,-2.3506,1.9047,1.1031,9.9507,-0.0548,-6.9926,0.5164,2.5919,0.9599,
17.392746,-2.3506,1.9047,1.1031,-6.7587,7.5790,2.6162,0.5164,2.5919,0.9599,
17.442014,0.0510,1.2233,-0.6805,-6.7587,7.5790,2.6162,0.5164,2.5919,0.9599,
17.443764,0.8480,0.8433,-1.3659,-6.7587,7.5790,2.6162,0.5164,2.5919,0.9599,
17.444747,0.6783,0.7398,0.2073,-6.7587,7.5790,2.6162,0.5164,2.5919,0.9599,
17.445660,0.6783,0.7398,0.2073,-6.7587,7.5790,2.6162,1.7055,0.2456,2.9772,
17.446523,0.6783,0.7398,0.2073,6.2863,-0.3932,-6.2871,1.7055,0.2456,2.9772,
17.497840,0.2705,0.7552,0.5015,6.2863,-0.3932,-6.2871,1.7055,0.2456,2.9772,
17.498886,-0.0711,1.0990,-0.0615,6.2863,-0.3932,-6.2871,1.7055,0.2456,2.9772,
17.499363,0.0818,1.0953,-0.2368,6.2863,-0.3932,-6.2871,1.7055,0.2456,2.9772,
17.499971,0.0818,1.0953,-0.2368,6.2863,-0.3932,-6.2871,0.8540,0.0035,1.3684,
17.500544,0.0818,1.0953,-0.2368,1.2657,0.0121,0.8488,0.8540,0.0035,1.3684,
17.556175,0.1494,1.0343,-0.1543,1.2657,0.0121,0.8488,0.8540,0.0035,1.3684,
17.557645,-0.0244,1.0453,-0.0637,1.2657,0.0121,0.8488,0.8540,0.0035,1.3684,
17.558464,0.0491,0.9764,-0.0276,1.2657,0.0121,0.8488,0.8540,0.0035,1.3684,
17.559163,0.0491,0.9764,-0.0276,1.2657,0.0121,0.8488,0.5439,0.0242,0.9501,
17.559988,0.0491,0.9764,-0.0276,0.3754,0.3600,-0.3067,0.5439,0.0242,0.9501,
17.616982,0.2171,0.9640,-0.0164,0.3754,0.3600,-0.3067,0.5439,0.0242,0.9501,
17.621147,0.0967,0.9898,-0.0330,0.3754,0.3600,-0.3067,0.5439,0.0242,0.9501,
17.623065,-0.0940,0.9977,0.0044,0.3754,0.3600,-0.3067,0.5439,0.0242,0.9501,
17.624879,-0.0940,0.9977,0.0044,0.3754,0.3600,-0.3067,0.4372,0.3816,0.7123,
17.626816,-0.0940,0.9977,0.0044,0.1094,0.0500,0.5743,0.4372,0.3816,0.7123,
17.672838,-0.0940,0.9977,0.0044,-1.2851,0.3501,1.1201,0.4372,0.3816,0.7123,
17.674186,-0.0940,0.9977,0.0044,-1.2851,0.3501,1.1201,0.6017,-0.0816,0.8622,
17.711805,0.0783,0.9774,-0.0081,-1.2851,0.3501,1.1201,0.6017,-0.0816,0.8622,
17.731871,0.0783,0.9774,-0.0081,-0.6679,0.1109,1.1019,0.6017,-0.0816,0.8622,
17.734634,0.0783,0.9774,-0.0081,-0.6679,0.1109,1.1019,0.8764,-0.2455,1.0350,
17.771720,0.1361,0.9881,-0.1659,-0.6679,0.1109,1.1019,0.8764,-0.2455,1.0350,
17.797753,0.1361,0.9881,-0.1659,-0.6679,0.1109,1.1019,0.9688,-0.3922,1.1087,
17.800267,0.1361,0.9881,-0.1659,-0.6093,0.6503,0.0900,0.9688,-0.3922,1.1087,
17.828718,0.1909,1.0121,-0.2178,-0.6093,0.6503,0.0900,0.9688,-0.3922,1.1087,
17.848279,0.1909,1.0121,-0.2178,-0.6093,0.6503,0.0900,1.0672,-0.2144,1.1320,
17.850231,0.1909,1.0121,-0.2178,-0.8803,1.0983,0.7222,1.0672,-0.2144,1.1320,
17.886706,0.1246,1.0830,-0.1375,-0.8803,1.0983,0.7222,1.0672,-0.2144,1.1320,
17.906109,0.1246,1.0830,-0.1375,-0.8803,1.0983,0.7222,1.4811,-0.0757,1.3144,
17.907457,0.1246,1.0830,-0.1375,-2.4579,2.5953,2.1228,1.4811,-0.0757,1.3144,
17.944728,-0.0356,1.2745,-0.1527,-2.4579,2.5953,2.1228,1.4811,-0.0757,1.3144,
17.964373,-0.0356,1.2745,-0.1527,-2.4579,2.5953,2.1228,1.9765,-0.8067,1.5830,
17.965891,-0.0356,1.2745,-0.1527,-5.9979,7.1494,3.4111,1.9765,-0.8067,1.5830,
18.003908,-0.8053,1.8184,0.0323,-5.9979,7.1494,3.4111,1.9765,-0.8067,1.5830,
18.025115,-0.8053,1.8184,0.0323,-10.0532,9.0666,5.0976,1.9765,-0.8067,1.5830,
18.028943,-0.8053,1.8184,0.0323,-10.0532,9.0666,5.0976,2.3190,-1.2333,2.0682,
18.065456,0.8788,1.2866,-0.3566,-10.0532,9.0666,5.0976,2.3190,-1.2333,2.0682,
18.081519,0.8788,1.2866,-0.3566,-10.0532,9.0666,5.0976,2.1753,-0.6220,2.2934,
18.083854,0.8788,1.2866,-0.3566,6.2836,5.5924,1.5673,2.1753,-0.6220,2.2934,
18.120221,0.6347,0.6124,-0.6609,6.2836,5.5924,1.5673,2.1753,-0.6220,2.2934,
18.146289,0.6347,0.6124,-0.6609,-0.5746,-1.1658,1.3564,2.1753,-0.6220,2.2934,
18.150408,0.6347,0.6124,-0.6609,-0.5746,-1.1658,1.3564,-0.1307,1.2470,-0.1036,
18.183526,0.1087,0.1417,0.0199,-0.5746,-1.1658,1.3564,-0.1307,1.2470,-0.1036,
18.201159,0.1087,0.1417,0.0199,-4.4210,-5.5686,5.3980,-0.1307,1.2470,-0.1036,
18.203680,0.1087,0.1417,0.0199,-4.4210,-5.5686,5.3980,-1.7811,0.6563,-2.2447,
18.237498,0.1573,0.3798,-0.2412,-4.4210,-5.5686,5.3980,-1.7811,0.6563,-2.2447,
18.262826,0.1573,0.3798,-0.2412,-4.4210,-5.5686,5.3980,-3.0183,-1.0659,-3.3097,
18.268450,0.1573,0.3798,-0.2412,-0.7670,-3.0531,1.1938,-3.0183,-1.0659,-3.3097,
18.295261,0.2403,0.7328,-0.2946,-0.7670,-3.0531,1.1938,-3.0183,-1.0659,-3.3097,
18.316205,0.2403,0.7328,-0.2946,-0.7670,-3.0531,1.1938,-4.4871,-1.5202,-4.0456,
18.320614,0.2403,0.7328,-0.2946,2.2355,-0.3749,-1.6035,-4.4871,-1.5202,-4.0456,
18.358166,0.3677,1.5369,-0.6054,2.2355,-0.3749,-1.6035,-4.4871,-1.5202,-4.0456,
18.373590,0.3677,1.5369,-0.6054,2.2355,-0.3749,-1.6035,-5.1462,-0.4785,-4.1417,
18.375366,0.3677,1.5369,-0.6054,5.8187,7.2171,-7.2427,-5.1462,-0.4785,-4.1417,
18.411471,0.7177,1.3380,-0.5237,5.8187,7.2171,-7.2427,-5.1462,-0.4785,-4.1417,
18.432670,0.7177,1.3380,-0.5237,10.0310,2.2159,-7.1672,-5.1462,-0.4785,-4.1417,
18.434894,0.7177,1.3380,-0.5237,10.0310,2.2159,-7.1672,-3.4510,0.4346,-2.3742,
