time,gFx,gFy,gFz,ax,ay,az,wx,wy,wz,P
0.021,-0.05,1.00,0.10,-0.11,0.01,0.33,-0.01,0.07,-0.01,1005.91
0.022,-0.02,1.00,0.17,-0.11,0.01,0.33,-0.01,0.07,-0.01,1005.91
0.022,-0.07,1.00,0.18,-0.11,0.01,0.33,-0.01,0.07,-0.01,1005.91
0.022,-0.07,1.00,0.18,-0.11,0.01,0.33,0.04,-0.03,0.01,1005.91
0.023,-0.07,1.00,0.18,0.04,0.02,0.03,0.04,-0.03,0.01,1005.91
0.068,-0.07,1.00,0.18,0.04,0.02,0.03,0.04,-0.03,0.01,1005.92
0.079,-0.06,1.00,0.17,0.04,0.02,0.03,0.04,-0.03,0.01,1005.92
0.08,-0.03,1.00,0.15,0.04,0.02,0.03,0.04,-0.03,0.01,1005.92
0.08,-0.02,0.99,0.15,0.04,0.02,0.03,0.04,-0.03,0.01,1005.92
0.08,-0.02,0.99,0.15,0.04,0.02,0.03,0.07,0.01,0.02,1005.92
0.08,-0.02,0.99,0.15,0.12,-0.02,0.12,0.07,0.01,0.02,1005.92
0.107,-0.02,0.99,0.15,0.12,-0.02,0.12,0.07,0.01,0.02,1005.91
0.137,-0.02,0.99,0.16,0.12,-0.02,0.12,0.07,0.01,0.02,1005.91
0.137,-0.06,1.00,0.16,0.12,-0.02,0.12,0.07,0.01,0.02,1005.91
0.138,-0.07,1.01,0.14,0.12,-0.02,0.12,0.07,0.01,0.02,1005.91
0.138,-0.07,1.01,0.14,0.12,-0.02,0.12,0.09,0.05,-0.03,1005.91
0.138,-0.07,1.01,0.14,0.03,-0.00,0.15,0.09,0.05,-0.03,1005.91
0.189,-0.07,1.01,0.14,0.03,-0.00,0.15,0.09,0.05,-0.03,1005.92
0.195,-0.05,1.00,0.12,0.03,-0.00,0.15,0.09,0.05,-0.03,1005.92
0.196,-0.04,0.99,0.11,0.03,-0.00,0.15,0.09,0.05,-0.03,1005.92
0.196,-0.03,0.97,0.11,0.03,-0.00,0.15,0.09,0.05,-0.03,1005.92
0.197,-0.03,0.97,0.11,0.03,-0.00,0.15,0.10,0.05,-0.03,1005.92
0.197,-0.03,0.97,0.11,0.09,-0.12,-0.15,0.10,0.05,-0.03,1005.92
0.254,-0.03,0.97,0.13,0.09,-0.12,-0.15,0.10,0.05,-0.03,1005.92
0.254,-0.04,0.99,0.13,0.09,-0.12,-0.15,0.10,0.05,-0.03,1005.92
0.254,-0.04,0.98,0.11,0.09,-0.12,-0.15,0.10,0.05,-0.03,1005.92
0.255,-0.04,0.98,0.11,0.18,-0.17,-0.04,0.10,0.05,-0.03,1005.92
0.255,-0.04,0.98,0.11,0.18,-0.17,-0.04,0.06,0.09,-0.03,1005.92
0.267,-0.04,0.98,0.11,0.18,-0.17,-0.04,0.06,0.09,-0.03,1005.92
0.308,-0.04,0.98,0.11,0.18,-0.17,-0.04,0.06,0.09,-0.03,1005.92
0.312,0.00,0.93,0.10,0.18,-0.17,-0.04,0.06,0.09,-0.03,1005.92
0.313,0.04,0.90,0.12,0.18,-0.17,-0.04,0.06,0.09,-0.03,1005.92
0.313,-0.02,0.97,0.14,0.18,-0.17,-0.04,0.06,0.09,-0.03,1005.92
0.313,-0.02,0.97,0.14,0.18,-0.17,-0.04,0.04,0.12,0.01,1005.92
0.313,-0.02,0.97,0.14,0.58,-0.60,-0.05,0.04,0.12,0.01,1005.92
0.371,-0.08,1.06,0.18,0.58,-0.60,-0.05,0.04,0.12,0.01,1005.92
0.372,-0.11,1.10,0.17,0.58,-0.60,-0.05,0.04,0.12,0.01,1005.92
0.372,-0.11,1.08,0.13,0.58,-0.60,-0.05,0.04,0.12,0.01,1005.92
0.372,-0.11,1.08,0.13,0.58,-0.60,-0.05,0.03,0.07,-0.06,1005.92
0.373,-0.11,1.08,0.13,-0.42,0.78,0.34,0.03,0.07,-0.06,1005.92
0.39,-0.11,1.08,0.13,-0.42,0.78,0.34,0.03,0.07,-0.06,1005.91
0.429,-0.11,1.08,0.13,0.16,0.04,-0.16,0.03,0.07,-0.06,1005.91
0.43,-0.07,1.03,0.10,0.16,0.04,-0.16,0.03,0.07,-0.06,1005.91
0.431,-0.05,1.00,0.09,0.16,0.04,-0.16,0.03,0.07,-0.06,1005.91
0.431,-0.01,0.98,0.10,0.16,0.04,-0.16,0.03,0.07,-0.06,1005.91
0.431,-0.01,0.98,0.10,0.16,0.04,-0.16,0.12,-0.00,-0.08,1005.91
0.468,-0.01,0.98,0.10,0.16,0.04,-0.16,0.12,-0.00,-0.08,1005.90
0.489,-0.02,0.97,0.10,0.16,0.04,-0.16,0.12,-0.00,-0.08,1005.90
0.491,-0.07,0.98,0.10,0.16,0.04,-0.16,0.12,-0.00,-0.08,1005.90
0.492,-0.11,0.99,0.13,0.16,0.04,-0.16,0.12,-0.00,-0.08,1005.90
0.493,-0.11,0.99,0.13,0.16,0.04,-0.16,0.07,0.10,-0.15,1005.90
0.496,-0.11,0.99,0.13,0.02,-0.18,-0.01,0.07,0.10,-0.15,1005.90
0.515,-0.11,0.99,0.13,0.02,-0.18,-0.01,0.07,0.10,-0.15,1005.88
0.547,-0.15,1.01,0.15,0.02,-0.18,-0.01,0.07,0.10,-0.15,1005.88
0.549,-0.15,1.01,0.16,0.02,-0.18,-0.01,0.07,0.10,-0.15,1005.88
0.55,-0.12,1.01,0.15,0.02,-0.18,-0.01,0.07,0.10,-0.15,1005.88
0.551,-0.12,1.01,0.15,0.02,-0.18,-0.01,0.16,0.03,-0.06,1005.88
0.552,-0.12,1.01,0.15,-0.62,0.11,0.47,0.16,0.03,-0.06,1005.88
0.589,-0.12,1.01,0.15,-0.62,0.11,0.47,0.16,0.03,-0.06,1005.89
0.604,-0.11,1.00,0.16,-0.62,0.11,0.47,0.16,0.03,-0.06,1005.89
0.606,-0.09,0.99,0.18,-0.62,0.11,0.47,0.16,0.03,-0.06,1005.89
0.606,-0.09,0.99,0.13,-0.62,0.11,0.47,0.16,0.03,-0.06,1005.89
0.606,-0.09,0.99,0.13,-0.62,0.11,0.47,0.38,0.18,0.11,1005.89
0.607,-0.09,0.99,0.13,-0.24,-0.09,0.70,0.38,0.18,0.11,1005.89
0.669,-0.16,1.00,0.14,-0.24,-0.09,0.70,0.38,0.18,0.11,1005.89
0.67,-0.20,0.99,0.25,-0.24,-0.09,0.70,0.38,0.18,0.11,1005.89
0.671,-0.15,0.96,0.28,-0.24,-0.09,0.70,0.38,0.18,0.11,1005.89
0.672,-0.15,0.96,0.28,-1.08,-0.21,1.60,0.38,0.18,0.11,1005.89
0.673,-0.15,0.96,0.28,-1.08,-0.21,1.60,0.51,0.41,0.34,1005.89
0.674,-0.15,0.96,0.28,-1.08,-0.21,1.60,0.51,0.41,0.34,1005.90
0.708,-0.15,0.96,0.28,-1.08,-0.21,1.60,0.51,0.41,0.34,1005.90
0.722,-0.05,0.95,0.20,-1.08,-0.21,1.60,0.51,0.41,0.34,1005.90
0.723,0.04,0.94,0.04,-1.08,-0.21,1.60,0.51,0.41,0.34,1005.90
0.724,0.00,0.97,-0.05,-1.08,-0.21,1.60,0.51,0.41,0.34,1005.90
0.725,0.00,0.97,-0.05,-1.08,-0.21,1.60,0.74,0.24,0.58,1005.90
0.726,0.00,0.97,-0.05,0.19,-0.51,0.43,0.74,0.24,0.58,1005.90
0.78,-0.14,0.98,0.03,0.19,-0.51,0.43,0.74,0.24,0.58,1005.90
0.783,-0.12,0.98,0.07,0.19,-0.51,0.43,0.74,0.24,0.58,1005.90
0.784,0.08,0.98,-0.17,0.19,-0.51,0.43,0.74,0.24,0.58,1005.90
0.785,0.08,0.98,-0.17,0.19,-0.51,0.43,0.65,0.15,0.48,1005.90
0.786,0.08,0.98,-0.17,-0.62,-0.26,-0.02,0.65,0.15,0.48,1005.90
0.789,0.08,0.98,-0.17,-0.62,-0.26,-0.02,0.65,0.15,0.48,1005.91
0.838,0.15,1.03,-0.24,-0.62,-0.26,-0.02,0.65,0.15,0.48,1005.91
0.84,0.07,1.09,-0.24,-0.62,-0.26,-0.02,0.65,0.15,0.48,1005.91
0.841,0.02,1.05,-0.28,-0.62,-0.26,-0.02,0.65,0.15,0.48,1005.91
0.842,0.02,1.05,-0.28,-0.62,-0.26,-0.02,0.52,-0.06,0.40,1005.91
0.843,0.02,1.05,-0.28,0.54,0.49,-1.93,0.52,-0.06,0.40,1005.91
0.87,0.02,1.05,-0.28,0.54,0.49,-1.93,0.52,-0.06,0.40,1005.90
0.898,0.08,1.05,-0.17,0.54,0.49,-1.93,0.52,-0.06,0.40,1005.90
0.9,0.13,1.03,-0.09,0.54,0.49,-1.93,0.52,-0.06,0.40,1005.90
0.9,0.07,1.02,-0.11,0.54,0.49,-1.93,0.52,-0.06,0.40,1005.90
0.901,0.07,1.02,-0.11,0.51,0.28,-0.47,0.52,-0.06,0.40,1005.90
0.902,0.07,1.02,-0.11,0.51,0.28,-0.47,0.22,0.03,0.20,1005.90
0.908,0.07,1.02,-0.11,0.51,0.28,-0.47,0.22,0.03,0.20,1005.90
0.955,-0.23,1.12,-0.12,0.51,0.28,-0.47,0.22,0.03,0.20,1005.90
0.956,-0.41,1.28,-0.25,0.51,0.28,-0.47,0.22,0.03,0.20,1005.90
0.957,-0.32,1.41,-0.45,0.51,0.28,-0.47,0.22,0.03,0.20,1005.90
0.958,-0.32,1.41,-0.45,0.51,0.28,-0.47,0.20,-0.15,0.08,1005.90
0.959,-0.32,1.41,-0.45,-3.42,2.51,-1.76,0.20,-0.15,0.08,1005.90
0.988,-0.32,1.41,-0.45,-3.42,2.51,-1.76,0.20,-0.15,0.08,1005.89
1.014,-0.15,1.55,-0.44,-3.42,2.51,-1.76,0.20,-0.15,0.08,1005.89
1.015,-0.39,1.77,-0.51,-3.42,2.51,-1.76,0.20,-0.15,0.08,1005.89
1.016,-0.58,1.47,-0.40,-3.42,2.51,-1.76,0.20,-0.15,0.08,1005.89
1.017,-0.58,1.47,-0.40,-3.42,2.51,-1.76,0.01,-0.10,0.29,1005.89
1.018,-0.58,1.47,-0.40,-3.98,5.53,-3.40,0.01,-0.10,0.29,1005.89
1.068,-0.58,1.47,-0.40,-3.98,5.53,-3.40,0.01,-0.10,0.29,1005.88
1.074,-0.39,0.93,-0.28,-3.98,5.53,-3.40,0.01,-0.10,0.29,1005.88
1.075,-0.07,0.61,-0.19,-3.98,5.53,-3.40,0.01,-0.10,0.29,1005.88
1.075,0.02,0.61,-0.21,-3.98,5.53,-3.40,0.01,-0.10,0.29,1005.88
1.076,0.02,0.61,-0.21,-3.98,5.53,-3.40,0.11,-0.35,0.72,1005.88
1.077,0.02,0.61,-0.21,-2.10,-2.97,-1.09,0.11,-0.35,0.72,1005.88
1.108,0.02,0.61,-0.21,-2.10,-2.97,-1.09,0.11,-0.35,0.72,1005.87
1.132,0.02,0.61,-0.21,-3.28,-4.07,-0.03,0.11,-0.35,0.72,1005.87
1.134,-0.02,0.65,-0.36,-3.28,-4.07,-0.03,0.11,-0.35,0.72,1005.87
1.134,-0.14,0.60,0.04,-3.28,-4.07,-0.03,0.11,-0.35,0.72,1005.87
1.135,-0.64,0.52,-0.06,-3.28,-4.07,-0.03,0.11,-0.35,0.72,1005.87
1.135,-0.64,0.52,-0.06,-3.28,-4.07,-0.03,0.10,-1.22,0.28,1005.87
1.188,-0.93,0.47,-0.07,-3.28,-4.07,-0.03,0.10,-1.22,0.28,1005.87
1.191,-0.65,0.43,-0.10,-3.28,-4.07,-0.03,0.10,-1.22,0.28,1005.87
1.192,-0.37,0.55,-0.11,-3.28,-4.07,-0.03,0.10,-1.22,0.28,1005.87
1.192,-0.37,0.55,-0.11,-3.28,-4.07,-0.03,0.03,-3.35,-0.80,1005.87
1.193,-0.37,0.55,-0.11,-6.16,-4.95,0.39,0.03,-3.35,-0.80,1005.87
1.193,-0.37,0.55,-0.11,-6.16,-4.95,0.39,0.03,-3.35,-0.80,1005.88
1.247,-0.17,0.76,-0.19,-6.16,-4.95,0.39,0.03,-3.35,-0.80,1005.88
1.249,-0.10,1.03,-0.14,-6.16,-4.95,0.39,0.03,-3.35,-0.80,1005.88
1.25,-0.07,1.13,-0.22,-6.16,-4.95,0.39,0.03,-3.35,-0.80,1005.88
1.251,-0.07,1.13,-0.22,-6.16,-4.95,0.39,-0.42,-3.55,-1.65,1005.88
1.252,-0.07,1.13,-0.22,0.29,-0.12,-0.89,-0.42,-3.55,-1.65,1005.88
1.273,-0.07,1.13,-0.22,0.29,-0.12,-0.89,-0.42,-3.55,-1.65,1005.90
1.305,-0.00,1.00,-0.28,0.29,-0.12,-0.89,-0.42,-3.55,-1.65,1005.90
1.306,-0.02,0.91,-0.31,0.29,-0.12,-0.89,-0.42,-3.55,-1.65,1005.90
1.307,0.11,0.85,-0.39,0.29,-0.12,-0.89,-0.42,-3.55,-1.65,1005.90
1.307,0.11,0.85,-0.39,0.29,-0.12,-0.89,-0.38,-3.71,-1.39,1005.90
1.308,0.11,0.85,-0.39,2.54,-0.45,-2.80,-0.38,-3.71,-1.39,1005.90
1.309,0.11,0.85,-0.39,2.54,-0.45,-2.80,-0.38,-3.71,-1.39,1005.89
1.364,0.35,0.86,-0.50,2.54,-0.45,-2.80,-0.38,-3.71,-1.39,1005.89
1.365,0.70,0.73,-0.57,2.54,-0.45,-2.80,-0.38,-3.71,-1.39,1005.89
1.366,1.02,0.42,-0.66,2.54,-0.45,-2.80,-0.38,-3.71,-1.39,1005.89
1.367,1.02,0.42,-0.66,2.54,-0.45,-2.80,-0.05,-2.53,0.30,1005.89
1.368,1.02,0.42,-0.66,8.64,-2.89,-5.47,-0.05,-2.53,0.30,1005.89
1.389,1.02,0.42,-0.66,8.64,-2.89,-5.47,-0.05,-2.53,0.30,1005.88
1.421,1.20,0.95,-0.83,8.64,-2.89,-5.47,-0.05,-2.53,0.30,1005.88
1.422,1.25,2.75,1.04,8.64,-2.89,-5.47,-0.05,-2.53,0.30,1005.88
1.423,-0.58,3.02,1.34,8.64,-2.89,-5.47,-0.05,-2.53,0.30,1005.88
1.423,-0.58,3.02,1.34,8.64,-2.89,-5.47,-0.76,1.08,1.51,1005.88
1.424,-0.58,3.02,1.34,6.96,12.06,4.77,-0.76,1.08,1.51,1005.88
1.472,-0.58,3.02,1.34,6.96,12.06,4.77,-0.76,1.08,1.51,1005.86
1.483,-1.18,0.72,-0.39,6.96,12.06,4.77,-0.76,1.08,1.51,1005.86
1.484,-0.93,-0.16,-1.12,6.96,12.06,4.77,-0.76,1.08,1.51,1005.86
1.485,0.30,0.85,-0.65,6.96,12.06,4.77,-0.76,1.08,1.51,1005.86
1.486,0.30,0.85,-0.65,6.96,12.06,4.77,1.42,-0.20,1.72,1005.86
1.487,0.30,0.85,-0.65,-5.90,-5.17,-6.33,1.42,-0.20,1.72,1005.86
1.511,0.30,0.85,-0.65,-5.90,-5.17,-6.33,1.42,-0.20,1.72,1005.84
1.539,0.76,1.31,-0.18,-5.90,-5.17,-6.33,1.42,-0.20,1.72,1005.84
1.541,0.99,1.33,-0.23,-5.90,-5.17,-6.33,1.42,-0.20,1.72,1005.84
1.542,0.54,0.93,-0.23,-5.90,-5.17,-6.33,1.42,-0.20,1.72,1005.84
1.543,0.54,0.93,-0.23,-5.90,-5.17,-6.33,-0.16,-1.03,1.87,1005.84
1.544,0.54,0.93,-0.23,6.33,1.84,-1.43,-0.16,-1.03,1.87,1005.84
1.588,0.54,0.93,-0.23,6.33,1.84,-1.43,-0.16,-1.03,1.87,1005.85
1.596,0.06,0.94,-0.06,6.33,1.84,-1.43,-0.16,-1.03,1.87,1005.85
1.598,-0.02,1.10,0.03,6.33,1.84,-1.43,-0.16,-1.03,1.87,1005.85
1.599,0.03,1.00,-0.02,6.33,1.84,-1.43,-0.16,-1.03,1.87,1005.85
1.6,0.03,1.00,-0.02,6.33,1.84,-1.43,-0.02,-0.19,0.73,1005.85
1.601,0.03,1.00,-0.02,-1.35,0.17,0.53,-0.02,-0.19,0.73,1005.85
1.655,0.23,0.96,0.02,-1.35,0.17,0.53,-0.02,-0.19,0.73,1005.85
1.657,0.32,0.97,0.04,-1.35,0.17,0.53,-0.02,-0.19,0.73,1005.85
1.658,0.35,0.99,0.05,-1.35,0.17,0.53,-0.02,-0.19,0.73,1005.85
1.659,0.35,0.99,0.05,-1.35,0.17,0.53,0.11,-1.03,0.82,1005.85
1.66,0.35,0.99,0.05,0.94,-0.09,1.18,0.11,-1.03,0.82,1005.85
1.673,0.35,0.99,0.05,0.94,-0.09,1.18,0.11,-1.03,0.82,1005.88
1.708,0.35,0.99,0.05,0.94,-0.09,1.18,0.11,-1.03,0.82,1005.89
1.712,0.30,0.91,0.06,0.94,-0.09,1.18,0.11,-1.03,0.82,1005.89
1.713,0.24,0.92,0.11,0.94,-0.09,1.18,0.11,-1.03,0.82,1005.89
1.714,0.18,1.00,0.07,0.94,-0.09,1.18,0.11,-1.03,0.82,1005.89
1.714,0.18,1.00,0.07,0.94,-0.09,1.18,0.28,-0.54,0.59,1005.89
1.714,0.18,1.00,0.07,0.04,-0.31,1.77,0.28,-0.54,0.59,1005.89
1.773,0.18,1.00,0.07,-1.01,0.01,1.14,0.28,-0.54,0.59,1005.89
1.778,0.13,0.95,0.05,-1.01,0.01,1.14,0.28,-0.54,0.59,1005.89
1.78,0.18,0.96,-0.03,-1.01,0.01,1.14,0.28,-0.54,0.59,1005.89
1.781,0.19,0.98,-0.07,-1.01,0.01,1.14,0.28,-0.54,0.59,1005.89
1.782,0.19,0.98,-0.07,-1.01,0.01,1.14,0.45,-0.66,0.76,1005.89
1.795,0.19,0.98,-0.07,-1.01,0.01,1.14,0.45,-0.66,0.76,1005.89
1.829,0.18,0.93,-0.11,-1.01,0.01,1.14,0.45,-0.66,0.76,1005.89
1.83,0.23,0.92,-0.18,-1.01,0.01,1.14,0.45,-0.66,0.76,1005.89
1.83,0.35,0.93,-0.19,-1.01,0.01,1.14,0.45,-0.66,0.76,1005.89
1.831,0.35,0.93,-0.19,-1.01,0.01,1.14,0.60,-0.57,1.01,1005.89
1.832,0.35,0.93,-0.19,-0.66,-0.11,0.20,0.60,-0.57,1.01,1005.89
1.871,0.35,0.93,-0.19,-0.66,-0.11,0.20,0.60,-0.57,1.01,1005.90
1.89,0.42,0.97,-0.23,-0.66,-0.11,0.20,0.60,-0.57,1.01,1005.90
1.891,0.30,1.02,-0.26,-0.66,-0.11,0.20,0.60,-0.57,1.01,1005.90
1.892,0.23,1.02,-0.23,-0.66,-0.11,0.20,0.60,-0.57,1.01,1005.90
1.892,0.23,1.02,-0.23,-0.66,-0.11,0.20,0.58,-0.33,0.98,1005.90
1.893,0.23,1.02,-0.23,-0.50,0.89,-0.26,0.58,-0.33,0.98,1005.90
1.909,0.23,1.02,-0.23,-0.50,0.89,-0.26,0.58,-0.33,0.98,1005.90
1.947,0.20,1.00,-0.18,-0.50,0.89,-0.26,0.58,-0.33,0.98,1005.90
1.948,0.13,1.11,-0.14,-0.50,0.89,-0.26,0.58,-0.33,0.98,1005.90
1.949,0.08,1.28,-0.17,-0.50,0.89,-0.26,0.58,-0.33,0.98,1005.90
1.949,0.08,1.28,-0.17,-0.50,0.89,-0.26,0.66,-0.50,1.14,1005.90
1.95,0.08,1.28,-0.17,-2.73,2.42,0.96,0.66,-0.50,1.14,1005.90
1.996,0.08,1.28,-0.17,-2.73,2.42,0.96,0.66,-0.50,1.14,1005.90
2.006,0.05,1.40,-0.23,-2.73,2.42,0.96,0.66,-0.50,1.14,1005.90
2.007,-0.11,1.45,-0.11,-2.73,2.42,0.96,0.66,-0.50,1.14,1005.90
2.007,-0.40,1.41,0.02,-2.73,2.42,0.96,0.66,-0.50,1.14,1005.90
2.007,-0.40,1.41,0.02,-2.73,2.42,0.96,1.01,-0.80,1.52,1005.90
2.008,-0.40,1.41,0.02,-6.07,5.72,2.14,1.01,-0.80,1.52,1005.90
2.063,-0.63,1.60,0.16,-6.07,5.72,2.14,1.01,-0.80,1.52,1005.90
2.064,-0.88,1.97,0.31,-6.07,5.72,2.14,1.01,-0.80,1.52,1005.90
2.065,-0.75,1.77,0.23,-6.07,5.72,2.14,1.01,-0.80,1.52,1005.90
2.065,-0.75,1.77,0.23,-12.29,9.95,6.42,1.01,-0.80,1.52,1005.90
2.066,-0.75,1.77,0.23,-12.29,9.95,6.42,1.45,-1.40,2.12,1005.90
2.075,-0.75,1.77,0.23,-12.29,9.95,6.42,1.45,-1.40,2.12,1005.91
2.108,-0.75,1.77,0.23,-12.29,9.95,6.42,1.45,-1.40,2.12,1005.91
2.122,-0.75,1.77,0.23,0.47,9.79,1.25,1.45,-1.40,2.12,1005.91
2.138,0.18,1.48,-0.28,0.47,9.79,1.25,1.45,-1.40,2.12,1005.91
2.14,0.86,1.65,-0.48,0.47,9.79,1.25,1.45,-1.40,2.12,1005.91
2.142,1.02,1.65,-0.44,0.47,9.79,1.25,1.45,-1.40,2.12,1005.91
2.144,1.02,1.65,-0.44,0.47,9.79,1.25,1.93,-1.03,4.13,1005.91
2.182,0.67,1.16,-0.55,0.47,9.79,1.25,1.93,-1.03,4.13,1005.91
2.184,0.47,1.07,-0.61,0.47,9.79,1.25,1.93,-1.03,4.13,1005.91
2.185,0.06,0.70,-0.30,0.47,9.79,1.25,1.93,-1.03,4.13,1005.91
2.186,0.06,0.70,-0.30,0.47,9.79,1.25,0.14,-0.78,2.30,1005.91
2.187,0.06,0.70,-0.30,-2.74,4.57,0.74,0.14,-0.78,2.30,1005.91
2.189,0.06,0.70,-0.30,-2.74,4.57,0.74,0.14,-0.78,2.30,1005.87
2.239,-0.17,0.21,-0.24,-2.74,4.57,0.74,0.14,-0.78,2.30,1005.87
2.241,-0.08,0.05,-0.44,-2.74,4.57,0.74,0.14,-0.78,2.30,1005.87
2.242,0.13,0.15,-0.51,-2.74,4.57,0.74,0.14,-0.78,2.30,1005.87
2.244,0.13,0.15,-0.51,-2.74,4.57,0.74,-1.48,-1.16,-0.33,1005.87
2.245,0.13,0.15,-0.51,-6.41,-4.17,1.55,-1.48,-1.16,-0.33,1005.87
2.269,0.13,0.15,-0.51,-6.41,-4.17,1.55,-1.48,-1.16,-0.33,1005.87
2.296,0.30,0.25,-0.50,-6.41,-4.17,1.55,-1.48,-1.16,-0.33,1005.87
2.299,0.35,0.30,-0.61,-6.41,-4.17,1.55,-1.48,-1.16,-0.33,1005.87
2.299,0.30,0.27,-0.60,-6.41,-4.17,1.55,-1.48,-1.16,-0.33,1005.87
2.299,0.30,0.27,-0.60,-6.41,-4.17,1.55,-2.81,-0.63,-2.85,1005.87
2.3,0.30,0.27,-0.60,-1.68,-4.50,-0.95,-2.81,-0.63,-2.85,1005.87
2.309,0.30,0.27,-0.60,-1.68,-4.50,-0.95,-2.81,-0.63,-2.85,1005.91
2.356,0.21,0.26,-0.40,-1.68,-4.50,-0.95,-2.81,-0.63,-2.85,1005.91
2.358,0.14,0.36,-0.23,-1.68,-4.50,-0.95,-2.81,-0.63,-2.85,1005.91
2.359,0.11,0.57,-0.21,-1.68,-4.50,-0.95,-2.81,-0.63,-2.85,1005.91
2.36,0.11,0.57,-0.21,-1.68,-4.50,-0.95,-4.21,-0.45,-5.18,1005.91
2.362,0.11,0.57,-0.21,-0.67,-5.16,-0.01,-4.21,-0.45,-5.18,1005.91
2.39,0.11,0.57,-0.21,-0.67,-5.16,-0.01,-4.21,-0.45,-5.18,1005.90
2.413,0.21,0.87,-0.60,-0.67,-5.16,-0.01,-4.21,-0.45,-5.18,1005.90
2.414,0.61,1.27,-0.89,-0.67,-5.16,-0.01,-4.21,-0.45,-5.18,1005.90
2.415,0.92,1.39,-0.90,-0.67,-5.16,-0.01,-4.21,-0.45,-5.18,1005.90
2.415,0.92,1.39,-0.90,-0.67,-5.16,-0.01,-4.17,0.12,-5.45,1005.90
2.416,0.92,1.39,-0.90,6.42,1.86,-7.27,-4.17,0.12,-5.45,1005.90
2.475,0.92,1.39,-0.90,6.42,1.86,-7.27,-4.17,0.12,-5.45,1005.91
2.477,1.08,1.30,-1.06,6.42,1.86,-7.27,-4.17,0.12,-5.45,1005.91
2.478,1.22,1.30,-0.91,6.42,1.86,-7.27,-4.17,0.12,-5.45,1005.91
2.479,1.30,1.08,-0.46,6.42,1.86,-7.27,-4.17,0.12,-5.45,1005.91
2.48,1.30,1.08,-0.46,6.42,1.86,-7.27,-3.43,1.50,-3.79,1005.91
2.483,1.30,1.08,-0.46,14.40,2.75,-8.95,-3.43,1.50,-3.79,1005.91
2.509,1.30,1.08,-0.46,14.40,2.75,-8.95,-3.43,1.50,-3.79,1005.87
2.529,1.07,0.71,-0.43,14.40,2.75,-8.95,-3.43,1.50,-3.79,1005.87
2.53,0.59,0.66,-0.60,14.40,2.75,-8.95,-3.43,1.50,-3.79,1005.87
2.531,0.66,0.94,-1.03,14.40,2.75,-8.95,-3.43,1.50,-3.79,1005.87
2.532,0.66,0.94,-1.03,14.40,2.75,-8.95,-0.50,1.97,0.03,1005.87
2.532,0.66,0.94,-1.03,10.13,-1.64,-7.54,-0.50,1.97,0.03,1005.87
2.587,0.29,2.14,-0.45,10.13,-1.64,-7.54,-0.50,1.97,0.03,1005.87
2.588,-1.52,2.88,1.76,10.13,-1.64,-7.54,-0.50,1.97,0.03,1005.87
2.588,-1.09,1.76,-0.99,10.13,-1.64,-7.54,-0.50,1.97,0.03,1005.87
2.589,-1.09,1.76,-0.99,10.13,-1.64,-7.54,0.72,2.34,0.79,1005.87
2.59,-1.09,1.76,-0.99,-5.33,12.60,0.94,0.72,2.34,0.79,1005.87
2.59,-1.09,1.76,-0.99,-5.33,12.60,0.94,0.72,2.34,0.79,1005.87
2.646,0.27,0.44,-1.31,-5.33,12.60,0.94,0.72,2.34,0.79,1005.87
2.647,0.71,0.30,0.43,-5.33,12.60,0.94,0.72,2.34,0.79,1005.87
2.648,0.41,0.64,0.23,-5.33,12.60,0.94,0.72,2.34,0.79,1005.87
2.649,0.41,0.64,0.23,-5.33,12.60,0.94,1.00,-0.51,3.16,1005.87
2.649,0.41,0.64,0.23,4.97,-5.21,-1.66,1.00,-0.51,3.16,1005.87
2.669,0.41,0.64,0.23,4.97,-5.21,-1.66,1.00,-0.51,3.16,1005.91
2.704,0.51,1.24,-0.33,4.97,-5.21,-1.66,1.00,-0.51,3.16,1005.91
2.706,0.62,1.31,-0.25,4.97,-5.21,-1.66,1.00,-0.51,3.16,1005.91
2.707,0.10,1.02,-0.16,4.97,-5.21,-1.66,1.00,-0.51,3.16,1005.91
2.708,0.10,1.02,-0.16,4.97,-5.21,-1.66,0.63,-0.26,1.15,1005.91
2.709,0.10,1.02,-0.16,3.72,1.93,-1.57,0.63,-0.26,1.15,1005.91
2.71,0.10,1.02,-0.16,3.72,1.93,-1.57,0.63,-0.26,1.15,1005.97
2.764,-0.31,0.98,-0.12,3.72,1.93,-1.57,0.63,-0.26,1.15,1005.97
2.766,-0.26,0.99,-0.02,3.72,1.93,-1.57,0.63,-0.26,1.15,1005.97
2.767,0.04,1.01,0.07,3.72,1.93,-1.57,0.63,-0.26,1.15,1005.97
2.768,0.04,1.01,0.07,3.72,1.93,-1.57,0.66,0.44,0.75,1005.97
2.769,0.04,1.01,0.07,-2.42,0.09,0.96,0.66,0.44,0.75,1005.97
2.789,0.04,1.01,0.07,-2.42,0.09,0.96,0.66,0.44,0.75,1005.96
2.821,0.22,0.98,-0.06,-2.42,0.09,0.96,0.66,0.44,0.75,1005.96
2.823,0.16,0.95,-0.13,-2.42,0.09,0.96,0.66,0.44,0.75,1005.96
2.823,0.06,0.96,-0.17,-2.42,0.09,0.96,0.66,0.44,0.75,1005.96
2.824,0.06,0.96,-0.17,-2.42,0.09,0.96,0.72,-0.17,1.04,1005.96
2.825,0.06,0.96,-0.17,0.19,-0.07,0.42,0.72,-0.17,1.04,1005.96
2.87,0.06,0.96,-0.17,0.19,-0.07,0.42,0.72,-0.17,1.04,1005.95
2.88,0.09,0.98,-0.18,0.19,-0.07,0.42,0.72,-0.17,1.04,1005.95
2.882,0.17,0.97,-0.17,0.19,-0.07,0.42,0.72,-0.17,1.04,1005.95
2.882,0.26,0.94,-0.16,0.19,-0.07,0.42,0.72,-0.17,1.04,1005.95
2.883,0.26,0.94,-0.16,-0.16,0.07,0.33,0.72,-0.17,1.04,1005.95
2.884,0.26,0.94,-0.16,-0.16,0.07,0.33,0.74,-0.07,1.08,1005.95
2.908,0.26,0.94,-0.16,-0.16,0.07,0.33,0.74,-0.07,1.08,1005.94
2.938,0.27,0.95,-0.17,-0.16,0.07,0.33,0.74,-0.07,1.08,1005.94
2.94,0.25,0.97,-0.21,-0.16,0.07,0.33,0.74,-0.07,1.08,1005.94
2.941,0.11,0.98,-0.22,-0.16,0.07,0.33,0.74,-0.07,1.08,1005.94
2.942,0.11,0.98,-0.22,-0.16,0.07,0.33,0.78,-0.11,0.97,1005.94
2.942,0.11,0.98,-0.22,-0.29,0.34,0.43,0.78,-0.11,0.97,1005.94
2.99,0.11,0.98,-0.22,-0.29,0.34,0.43,0.78,-0.11,0.97,1005.92
2.996,-0.02,1.01,-0.22,-0.29,0.34,0.43,0.78,-0.11,0.97,1005.92
2.997,0.06,1.03,-0.26,-0.29,0.34,0.43,0.78,-0.11,0.97,1005.92
2.998,0.20,1.08,-0.28,-0.29,0.34,0.43,0.78,-0.11,0.97,1005.92
2.998,0.20,1.08,-0.28,-0.29,0.34,0.43,1.06,-0.05,1.13,1005.92
2.999,0.20,1.08,-0.28,-2.11,1.36,0.48,1.06,-0.05,1.13,1005.92
3.056,0.21,1.14,-0.27,-2.11,1.36,0.48,1.06,-0.05,1.13,1005.92
3.058,0.07,1.14,-0.19,-2.11,1.36,0.48,1.06,-0.05,1.13,1005.92
3.059,-0.04,1.12,-0.14,-2.11,1.36,0.48,1.06,-0.05,1.13,1005.92
3.06,-0.04,1.12,-0.14,-2.11,1.36,0.48,1.48,0.06,1.22,1005.92
3.061,-0.04,1.12,-0.14,-2.70,2.74,1.73,1.48,0.06,1.22,1005.92
3.069,-0.04,1.12,-0.14,-2.70,2.74,1.73,1.48,0.06,1.22,1005.91
3.109,-0.04,1.12,-0.14,-2.70,2.74,1.73,1.48,0.06,1.22,1005.92
3.113,-0.13,1.18,-0.08,-2.70,2.74,1.73,1.48,0.06,1.22,1005.92
3.114,-0.41,1.59,0.08,-2.70,2.74,1.73,1.48,0.06,1.22,1005.92
3.115,-0.98,2.10,0.34,-2.70,2.74,1.73,1.48,0.06,1.22,1005.92
3.115,-0.98,2.10,0.34,-2.70,2.74,1.73,1.92,-0.66,1.48,1005.92
3.116,-0.98,2.10,0.34,-8.84,8.21,5.72,1.92,-0.66,1.48,1005.92
3.177,-0.93,1.86,0.25,-8.84,8.21,5.72,1.92,-0.66,1.48,1005.92
3.179,-0.01,1.49,-0.09,-8.84,8.21,5.72,1.92,-0.66,1.48,1005.92
3.18,0.74,1.48,-0.56,-8.84,8.21,5.72,1.92,-0.66,1.48,1005.92
3.181,0.74,1.48,-0.56,-8.84,8.21,5.72,2.47,-1.56,2.91,1005.92
3.182,0.74,1.48,-0.56,-5.12,9.38,4.63,2.47,-1.56,2.91,1005.92
3.2,0.74,1.48,-0.56,-5.12,9.38,4.63,2.47,-1.56,2.91,1005.92
3.23,1.20,1.37,-0.40,-5.12,9.38,4.63,2.47,-1.56,2.91,1005.92
3.232,1.05,1.00,-0.57,-5.12,9.38,4.63,2.47,-1.56,2.91,1005.92
3.232,0.67,0.78,-0.73,-5.12,9.38,4.63,2.47,-1.56,2.91,1005.92
3.233,0.67,0.78,-0.73,-5.12,9.38,4.63,1.90,-0.15,2.22,1005.92
3.234,0.67,0.78,-0.73,4.31,5.14,1.00,1.90,-0.15,2.22,1005.92
3.277,0.67,0.78,-0.73,4.31,5.14,1.00,1.90,-0.15,2.22,1005.91
3.302,0.67,0.78,-0.73,-1.18,-1.37,0.98,1.90,-0.15,2.22,1005.91
3.304,0.64,0.62,-0.70,-1.18,-1.37,0.98,1.90,-0.15,2.22,1005.91
3.305,0.46,0.40,-0.60,-1.18,-1.37,0.98,1.90,-0.15,2.22,1005.91
3.306,0.22,0.19,-0.28,-1.18,-1.37,0.98,1.90,-0.15,2.22,1005.91
3.307,0.22,0.19,-0.28,-1.18,-1.37,0.98,-0.43,0.93,-0.14,1005.91
3.309,0.22,0.19,-0.28,-1.18,-1.37,0.98,-0.43,0.93,-0.14,1005.87
3.347,0.24,0.06,-0.10,-1.18,-1.37,0.98,-0.43,0.93,-0.14,1005.87
3.348,0.26,0.08,-0.19,-1.18,-1.37,0.98,-0.43,0.93,-0.14,1005.87
3.348,0.19,0.14,-0.38,-1.18,-1.37,0.98,-0.43,0.93,-0.14,1005.87
3.349,0.19,0.14,-0.38,-1.18,-1.37,0.98,-2.19,0.24,-2.04,1005.87
3.349,0.19,0.14,-0.38,-2.54,-5.68,3.06,-2.19,0.24,-2.04,1005.87
3.39,0.19,0.14,-0.38,-2.54,-5.68,3.06,-2.19,0.24,-2.04,1005.88
3.405,0.05,0.21,-0.45,-2.54,-5.68,3.06,-2.19,0.24,-2.04,1005.88
3.406,0.01,0.28,-0.38,-2.54,-5.68,3.06,-2.19,0.24,-2.04,1005.88
3.407,0.05,0.38,-0.34,-2.54,-5.68,3.06,-2.19,0.24,-2.04,1005.88
3.407,0.05,0.38,-0.34,-2.54,-5.68,3.06,-3.69,-1.18,-3.34,1005.88
3.408,0.05,0.38,-0.34,-2.67,-5.44,0.08,-3.69,-1.18,-3.34,1005.88
3.464,0.11,0.51,-0.34,-2.67,-5.44,0.08,-3.69,-1.18,-3.34,1005.88
3.465,0.15,0.68,-0.47,-2.67,-5.44,0.08,-3.69,-1.18,-3.34,1005.88
3.466,0.26,1.05,-0.77,-2.67,-5.44,0.08,-3.69,-1.18,-3.34,1005.88
3.467,0.26,1.05,-0.77,-2.67,-5.44,0.08,-4.74,-1.78,-3.93,1005.88
3.468,0.26,1.05,-0.77,1.00,-2.08,-3.47,-4.74,-1.78,-3.93,1005.88
3.469,0.26,1.05,-0.77,1.00,-2.08,-3.47,-4.74,-1.78,-3.93,1005.92
3.51,0.26,1.05,-0.77,1.00,-2.08,-3.47,-4.74,-1.78,-3.93,1005.92
3.523,0.26,1.05,-0.77,8.95,4.78,-11.79,-4.74,-1.78,-3.93,1005.92
3.525,0.63,1.49,-1.00,8.95,4.78,-11.79,-4.74,-1.78,-3.93,1005.92
3.527,0.90,1.48,-1.25,8.95,4.78,-11.79,-4.74,-1.78,-3.93,1005.92
3.528,0.90,1.42,-1.14,8.95,4.78,-11.79,-4.74,-1.78,-3.93,1005.92
3.529,0.90,1.42,-1.14,8.95,4.78,-11.79,-4.62,-0.74,-3.23,1005.92
3.579,0.92,1.24,-0.84,8.95,4.78,-11.79,-4.62,-0.74,-3.23,1005.92
3.58,0.69,0.62,-0.94,8.95,4.78,-11.79,-4.62,-0.74,-3.23,1005.92
3.581,0.42,0.53,-1.14,8.95,4.78,-11.79,-4.62,-0.74,-3.23,1005.92
3.582,0.42,0.53,-1.14,7.30,-1.61,-11.23,-4.62,-0.74,-3.23,1005.92
3.583,0.42,0.53,-1.14,7.30,-1.61,-11.23,-1.90,-2.09,0.01,1005.92
3.591,0.42,0.53,-1.14,7.30,-1.61,-11.23,-1.90,-2.09,0.01,1005.88
3.639,0.42,0.53,-1.14,2.27,6.62,-2.92,-1.90,-2.09,0.01,1005.88
3.642,0.46,1.01,-1.00,2.27,6.62,-2.92,-1.90,-2.09,0.01,1005.88
3.643,0.15,2.35,0.74,2.27,6.62,-2.92,-1.90,-2.09,0.01,1005.88
3.644,-0.02,1.61,-0.26,2.27,6.62,-2.92,-1.90,-2.09,0.01,1005.88
3.645,-0.02,1.61,-0.26,2.27,6.62,-2.92,0.71,1.45,0.75,1005.88
3.678,-0.02,1.61,-0.26,2.27,6.62,-2.92,0.71,1.45,0.75,1005.85
3.709,-0.41,1.12,-0.67,2.27,6.62,-2.92,0.71,1.45,0.75,1005.85
3.711,-1.02,1.05,-0.01,2.27,6.62,-2.92,0.71,1.45,0.75,1005.85
3.712,-0.06,0.75,0.01,2.27,6.62,-2.92,0.71,1.45,0.75,1005.85
3.713,-0.06,0.75,0.01,2.27,6.62,-2.92,1.03,0.98,0.69,1005.85
3.713,-0.06,0.75,0.01,-4.77,-0.08,-2.79,1.03,0.98,0.69,1005.85
3.714,-0.06,0.75,0.01,-4.77,-0.08,-2.79,1.03,0.98,0.69,1005.88
3.756,0.56,1.01,-0.01,-4.77,-0.08,-2.79,1.03,0.98,0.69,1005.88
3.758,0.50,1.23,-0.18,-4.77,-0.08,-2.79,1.03,0.98,0.69,1005.88
3.759,0.28,0.99,-0.02,-4.77,-0.08,-2.79,1.03,0.98,0.69,1005.88
3.76,0.28,0.99,-0.02,-4.77,-0.08,-2.79,0.37,-0.71,0.94,1005.88
3.762,0.28,0.99,-0.02,3.87,0.86,-1.03,0.37,-0.71,0.94,1005.88
3.79,0.28,0.99,-0.02,3.87,0.86,-1.03,0.37,-0.71,0.94,1005.92
3.817,0.10,0.92,0.09,3.87,0.86,-1.03,0.37,-0.71,0.94,1005.92
3.823,0.04,1.04,0.01,3.87,0.86,-1.03,0.37,-0.71,0.94,1005.92
3.824,0.15,1.00,-0.02,3.87,0.86,-1.03,0.37,-0.71,0.94,1005.92
3.825,0.15,1.00,-0.02,3.87,0.86,-1.03,0.25,0.08,0.22,1005.92
3.826,0.15,1.00,-0.02,0.30,-0.01,0.04,0.25,0.08,0.22,1005.92
3.877,0.15,1.00,-0.02,0.30,-0.01,0.04,0.25,0.08,0.22,1005.93
3.879,0.09,0.99,0.07,0.30,-0.01,0.04,0.25,0.08,0.22,1005.93
3.88,0.00,0.99,0.09,0.30,-0.01,0.04,0.25,0.08,0.22,1005.93
3.881,0.06,0.96,0.09,0.30,-0.01,0.04,0.25,0.08,0.22,1005.93
3.882,0.06,0.96,0.09,0.30,-0.01,0.04,0.24,-0.09,0.10,1005.93
3.883,0.06,0.96,0.09,-0.21,-0.04,0.74,0.24,-0.09,0.10,1005.93
3.909,0.06,0.96,0.09,-0.21,-0.04,0.74,0.24,-0.09,0.10,1005.91
3.93,0.03,0.97,0.14,-0.21,-0.04,0.74,0.24,-0.09,0.10,1005.91
3.931,-0.00,0.98,0.04,-0.21,-0.04,0.74,0.24,-0.09,0.10,1005.91
3.931,0.04,1.00,0.01,-0.21,-0.04,0.74,0.24,-0.09,0.10,1005.91
3.932,0.04,1.00,0.01,-0.21,-0.04,0.74,0.43,-0.26,0.19,1005.91
3.932,0.04,1.00,0.01,-0.58,-0.01,0.76,0.43,-0.26,0.19,1005.91
3.988,0.10,0.99,-0.00,-0.58,-0.01,0.76,0.43,-0.26,0.19,1005.91
3.992,0.15,0.97,-0.03,-0.58,-0.01,0.76,0.43,-0.26,0.19,1005.91
3.992,0.20,0.93,-0.14,-0.58,-0.01,0.76,0.43,-0.26,0.19,1005.91
3.992,0.20,0.93,-0.14,-0.58,-0.01,0.76,0.52,-0.38,0.22,1005.91
3.993,0.20,0.93,-0.14,0.55,-0.15,-0.08,0.52,-0.38,0.22,1005.91
3.993,0.20,0.93,-0.14,0.55,-0.15,-0.08,0.52,-0.38,0.22,1005.90
4.047,0.22,0.96,-0.19,0.55,-0.15,-0.08,0.52,-0.38,0.22,1005.90
4.049,0.21,0.99,-0.14,0.55,-0.15,-0.08,0.52,-0.38,0.22,1005.90
4.05,0.16,0.98,-0.03,0.55,-0.15,-0.08,0.52,-0.38,0.22,1005.90
4.051,0.16,0.98,-0.03,0.55,-0.15,-0.08,0.32,-0.39,-0.10,1005.90
4.052,0.16,0.98,-0.03,1.07,-0.06,-0.45,0.32,-0.39,-0.10,1005.90
4.071,0.16,0.98,-0.03,1.07,-0.06,-0.45,0.32,-0.39,-0.10,1005.90
4.105,-0.04,1.00,0.06,1.07,-0.06,-0.45,0.32,-0.39,-0.10,1005.90
4.107,-0.24,1.09,0.07,1.07,-0.06,-0.45,0.32,-0.39,-0.10,1005.90
4.108,-0.32,1.14,-0.00,1.07,-0.06,-0.45,0.32,-0.39,-0.10,1005.90
4.109,-0.32,1.14,-0.00,1.07,-0.06,-0.45,0.52,-0.95,-0.14,1005.90
4.11,-0.32,1.14,-0.00,-2.62,0.93,1.43,0.52,-0.95,-0.14,1005.90
4.112,-0.32,1.14,-0.00,-2.62,0.93,1.43,0.52,-0.95,-0.14,1005.91
4.163,-0.41,1.16,-0.08,-2.62,0.93,1.43,0.52,-0.95,-0.14,1005.91
4.164,-0.49,1.28,-0.10,-2.62,0.93,1.43,0.52,-0.95,-0.14,1005.91
4.165,-0.16,1.31,-0.31,-2.62,0.93,1.43,0.52,-0.95,-0.14,1005.91
4.166,-0.16,1.31,-0.31,-2.62,0.93,1.43,1.09,-2.21,0.83,1005.91
4.166,-0.16,1.31,-0.31,-4.36,2.72,0.12,1.09,-2.21,0.83,1005.91
4.19,-0.16,1.31,-0.31,-4.36,2.72,0.12,1.09,-2.21,0.83,1005.91
4.222,-0.16,1.31,-0.31,-0.34,1.80,-0.57,1.09,-2.21,0.83,1005.91
4.223,0.29,1.33,-0.46,-0.34,1.80,-0.57,1.09,-2.21,0.83,1005.91
4.223,0.22,1.22,-0.31,-0.34,1.80,-0.57,1.09,-2.21,0.83,1005.91
4.224,-0.29,0.92,0.01,-0.34,1.80,-0.57,1.09,-2.21,0.83,1005.91
4.224,-0.29,0.92,0.01,-0.34,1.80,-0.57,-0.10,-4.28,1.12,1005.91
4.269,-0.29,0.92,0.01,-0.34,1.80,-0.57,-0.10,-4.28,1.12,1005.90
4.278,-0.77,0.79,-0.48,-0.34,1.80,-0.57,-0.10,-4.28,1.12,1005.90
4.279,-0.88,0.77,-1.07,-0.34,1.80,-0.57,-0.10,-4.28,1.12,1005.90
4.28,-0.35,0.72,-1.40,-0.34,1.80,-0.57,-0.10,-4.28,1.12,1005.90
4.28,-0.35,0.72,-1.40,-7.03,-2.10,-7.65,-0.10,-4.28,1.12,1005.90
4.281,-0.35,0.72,-1.40,-7.03,-2.10,-7.65,-0.98,-8.94,1.03,1005.90
4.31,-0.35,0.72,-1.40,-7.03,-2.10,-7.65,-0.98,-8.94,1.03,1005.89
4.34,-0.35,0.72,-1.40,-0.11,-2.88,-9.43,-0.98,-8.94,1.03,1005.89
4.343,0.06,0.67,-1.33,-0.11,-2.88,-9.43,-0.98,-8.94,1.03,1005.89
4.343,0.09,0.69,-1.15,-0.11,-2.88,-9.43,-0.98,-8.94,1.03,1005.89
4.344,-0.11,0.70,-0.89,-0.11,-2.88,-9.43,-0.98,-8.94,1.03,1005.89
4.344,-0.11,0.70,-0.89,-0.11,-2.88,-9.43,-1.21,-7.09,0.81,1005.89
4.391,-0.11,0.70,-0.89,-0.11,-2.88,-9.43,-1.21,-7.09,0.81,1005.87
4.396,-0.27,0.67,-0.70,-0.11,-2.88,-9.43,-1.21,-7.09,0.81,1005.87
4.397,-0.36,0.71,-0.63,-0.11,-2.88,-9.43,-1.21,-7.09,0.81,1005.87
4.397,-0.34,0.77,-0.58,-0.11,-2.88,-9.43,-1.21,-7.09,0.81,1005.87
4.398,-0.34,0.77,-0.58,-0.11,-2.88,-9.43,-0.69,-4.55,-0.52,1005.87
4.399,-0.34,0.77,-0.58,-2.73,-2.57,-4.94,-0.69,-4.55,-0.52,1005.87
4.456,-0.16,0.77,-0.50,-2.73,-2.57,-4.94,-0.69,-4.55,-0.52,1005.87
4.457,0.07,0.79,-0.45,-2.73,-2.57,-4.94,-0.69,-4.55,-0.52,1005.87
4.458,0.14,0.88,-0.36,-2.73,-2.57,-4.94,-0.69,-4.55,-0.52,1005.87
4.458,0.14,0.88,-0.36,-2.73,-2.57,-4.94,-0.34,-4.01,-0.75,1005.87
4.459,0.14,0.88,-0.36,1.27,-1.59,-3.31,-0.34,-4.01,-0.75,1005.87
4.47,0.14,0.88,-0.36,1.27,-1.59,-3.31,-0.34,-4.01,-0.75,1005.88
4.509,0.14,0.88,-0.36,1.27,-1.59,-3.31,-0.34,-4.01,-0.75,1005.90
4.512,0.10,0.90,-0.25,1.27,-1.59,-3.31,-0.34,-4.01,-0.75,1005.90
4.512,-0.02,0.97,-0.18,1.27,-1.59,-3.31,-0.34,-4.01,-0.75,1005.90
4.513,-0.06,1.03,-0.11,1.27,-1.59,-3.31,-0.34,-4.01,-0.75,1005.90
4.513,-0.06,1.03,-0.11,1.27,-1.59,-3.31,0.10,-2.62,-0.99,1005.90
4.513,-0.06,1.03,-0.11,1.83,0.02,-0.92,0.10,-2.62,-0.99,1005.90
4.57,-0.00,1.02,-0.12,1.83,0.02,-0.92,0.10,-2.62,-0.99,1005.90
4.571,0.11,0.95,-0.13,1.83,0.02,-0.92,0.10,-2.62,-0.99,1005.90
4.572,0.27,0.87,-0.06,1.83,0.02,-0.92,0.10,-2.62,-0.99,1005.90
4.572,0.27,0.87,-0.06,2.99,-0.18,-0.07,0.10,-2.62,-0.99,1005.90
4.573,0.27,0.87,-0.06,2.99,-0.18,-0.07,0.81,-3.07,0.17,1005.90
4.59,0.27,0.87,-0.06,2.99,-0.18,-0.07,0.81,-3.07,0.17,1005.91
4.63,0.48,0.84,-0.11,2.99,-0.18,-0.07,0.81,-3.07,0.17,1005.91
4.631,0.72,0.83,-0.14,2.99,-0.18,-0.07,0.81,-3.07,0.17,1005.91
4.631,0.84,0.87,0.28,2.99,-0.18,-0.07,0.81,-3.07,0.17,1005.91
4.632,0.84,0.87,0.28,7.74,-1.19,1.11,0.81,-3.07,0.17,1005.91
4.633,0.84,0.87,0.28,7.74,-1.19,1.11,0.78,-3.52,1.35,1005.91
4.671,0.84,0.87,0.28,7.74,-1.19,1.11,0.78,-3.52,1.35,1005.91
4.688,0.25,1.29,0.52,7.74,-1.19,1.11,0.78,-3.52,1.35,1005.91
4.688,-0.50,2.11,0.59,7.74,-1.19,1.11,0.78,-3.52,1.35,1005.91
4.689,-0.22,1.58,-0.30,7.74,-1.19,1.11,0.78,-3.52,1.35,1005.91
4.689,-0.22,1.58,-0.30,7.74,-1.19,1.11,-0.34,-0.44,1.24,1005.91
4.689,-0.22,1.58,-0.30,-1.07,6.56,3.43,-0.34,-0.44,1.24,1005.91
4.71,-0.22,1.58,-0.30,-1.07,6.56,3.43,-0.34,-0.44,1.24,1005.91
4.746,0.04,0.82,-0.62,-1.07,6.56,3.43,-0.34,-0.44,1.24,1005.91
4.747,0.56,0.69,-0.34,-1.07,6.56,3.43,-0.34,-0.44,1.24,1005.91
4.747,0.40,1.03,-0.13,-1.07,6.56,3.43,-0.34,-0.44,1.24,1005.91
4.747,0.40,1.03,-0.13,-1.07,6.56,3.43,0.33,0.00,1.76,1005.91
4.748,0.40,1.03,-0.13,2.66,-1.34,-2.55,0.33,0.00,1.76,1005.91
4.792,0.40,1.03,-0.13,2.66,-1.34,-2.55,0.33,0.00,1.76,1005.89
4.816,0.40,1.03,-0.13,1.40,0.51,0.75,0.33,0.00,1.76,1005.89
4.817,0.34,1.07,0.16,1.40,0.51,0.75,0.33,0.00,1.76,1005.89
4.818,0.27,1.00,-0.08,1.40,0.51,0.75,0.33,0.00,1.76,1005.89
4.818,0.15,1.03,-0.14,1.40,0.51,0.75,0.33,0.00,1.76,1005.89
4.818,0.15,1.03,-0.14,1.40,0.51,0.75,-0.03,-0.04,0.83,1005.89
4.865,0.09,1.05,-0.15,1.40,0.51,0.75,-0.03,-0.04,0.83,1005.89
4.866,0.07,1.02,-0.08,1.40,0.51,0.75,-0.03,-0.04,0.83,1005.89
4.866,0.15,0.99,0.01,1.40,0.51,0.75,-0.03,-0.04,0.83,1005.89
4.867,0.15,0.99,0.01,1.40,0.51,0.75,-0.06,-0.01,0.63,1005.89
4.867,0.15,0.99,0.01,-0.42,0.38,0.22,-0.06,-0.01,0.63,1005.89
4.871,0.15,0.99,0.01,-0.42,0.38,0.22,-0.06,-0.01,0.63,1005.90
4.909,0.15,0.99,0.01,-0.42,0.38,0.22,-0.06,-0.01,0.63,1005.91
4.922,0.20,0.98,0.03,-0.42,0.38,0.22,-0.06,-0.01,0.63,1005.91
4.924,0.16,1.01,-0.03,-0.42,0.38,0.22,-0.06,-0.01,0.63,1005.91
4.925,0.10,1.00,0.00,-0.42,0.38,0.22,-0.06,-0.01,0.63,1005.91
4.925,0.10,1.00,0.00,-0.42,0.38,0.22,0.06,-0.11,0.59,1005.91
4.926,0.10,1.00,0.00,-0.24,0.24,0.95,0.06,-0.11,0.59,1005.91
4.98,0.10,1.00,0.01,-0.24,0.24,0.95,0.06,-0.11,0.59,1005.91
4.982,0.16,1.02,-0.02,-0.24,0.24,0.95,0.06,-0.11,0.59,1005.91
4.983,0.17,1.00,-0.04,-0.24,0.24,0.95,0.06,-0.11,0.59,1005.91
4.984,0.17,1.00,-0.04,-0.24,0.24,0.95,0.24,-0.40,0.67,1005.91
4.985,0.17,1.00,-0.04,-0.69,0.43,0.92,0.24,-0.40,0.67,1005.91
4.994,0.17,1.00,-0.04,-0.69,0.43,0.92,0.24,-0.40,0.67,1005.91
5.039,0.12,0.97,-0.06,-0.69,0.43,0.92,0.24,-0.40,0.67,1005.91
5.04,0.13,1.01,-0.11,-0.69,0.43,0.92,0.24,-0.40,0.67,1005.91
5.041,0.13,0.97,-0.10,-0.69,0.43,0.92,0.24,-0.40,0.67,1005.91
5.041,0.13,0.97,-0.10,-0.69,0.43,0.92,0.37,-0.35,0.80,1005.91
5.042,0.13,0.97,-0.10,-1.26,0.33,0.46,0.37,-0.35,0.80,1005.91
5.074,0.13,0.97,-0.10,-1.26,0.33,0.46,0.37,-0.35,0.80,1005.90
5.097,0.13,0.97,-0.10,-0.82,0.72,1.15,0.37,-0.35,0.80,1005.90
5.099,0.18,1.00,-0.05,-0.82,0.72,1.15,0.37,-0.35,0.80,1005.90
5.1,0.25,1.03,-0.05,-0.82,0.72,1.15,0.37,-0.35,0.80,1005.90
5.102,0.22,0.99,-0.06,-0.82,0.72,1.15,0.37,-0.35,0.80,1005.90
5.103,0.22,0.99,-0.06,-0.82,0.72,1.15,0.49,-0.63,0.96,1005.90
5.114,0.22,0.99,-0.06,-0.82,0.72,1.15,0.49,-0.63,0.96,1005.89
5.155,0.17,0.97,-0.11,-0.82,0.72,1.15,0.49,-0.63,0.96,1005.89
5.156,0.25,0.98,-0.17,-0.82,0.72,1.15,0.49,-0.63,0.96,1005.89
5.156,0.25,1.01,-0.18,-0.82,0.72,1.15,0.49,-0.63,0.96,1005.89
5.157,0.25,1.01,-0.18,-0.82,0.72,1.15,0.66,-0.62,1.14,1005.89
5.157,0.25,1.01,-0.18,-1.24,0.82,0.67,0.66,-0.62,1.14,1005.89
5.195,0.25,1.01,-0.18,-1.24,0.82,0.67,0.66,-0.62,1.14,1005.91
5.227,0.16,1.11,-0.14,-1.24,0.82,0.67,0.66,-0.62,1.14,1005.91
5.229,0.06,1.26,-0.12,-1.24,0.82,0.67,0.66,-0.62,1.14,1005.91
5.23,-0.04,1.30,-0.10,-1.24,0.82,0.67,0.66,-0.62,1.14,1005.91
5.231,-0.04,1.30,-0.10,-1.24,0.82,0.67,0.91,-0.56,1.32,1005.91
5.231,-0.04,1.30,-0.10,-3.36,3.47,1.54,0.91,-0.56,1.32,1005.91
5.269,-0.04,1.30,-0.10,-3.36,3.47,1.54,0.91,-0.56,1.32,1005.92
5.274,-0.14,1.25,-0.05,-3.36,3.47,1.54,0.91,-0.56,1.32,1005.92
5.275,-0.28,1.33,-0.05,-3.36,3.47,1.54,0.91,-0.56,1.32,1005.92
5.277,-0.48,1.60,0.00,-3.36,3.47,1.54,0.91,-0.56,1.32,1005.92
5.278,-0.48,1.60,0.00,-3.36,3.47,1.54,1.53,-0.91,1.93,1005.92
5.279,-0.48,1.60,0.00,-7.50,5.82,3.29,1.53,-0.91,1.93,1005.92
5.319,-0.48,1.60,0.00,-7.50,5.82,3.29,1.53,-0.91,1.93,1005.92
5.33,-0.80,1.88,-0.03,-7.50,5.82,3.29,1.53,-0.91,1.93,1005.92
5.332,-1.05,1.80,0.11,-7.50,5.82,3.29,1.53,-0.91,1.93,1005.92
5.332,-0.34,1.45,0.10,-7.50,5.82,3.29,1.53,-0.91,1.93,1005.92
5.333,-0.34,1.45,0.10,-7.50,5.82,3.29,1.75,-1.53,2.46,1005.92
5.333,-0.34,1.45,0.10,-12.19,9.90,5.28,1.75,-1.53,2.46,1005.92
5.389,0.66,1.54,-0.39,-12.19,9.90,5.28,1.75,-1.53,2.46,1005.92
5.39,1.31,1.60,-0.42,-12.19,9.90,5.28,1.75,-1.53,2.46,1005.92
5.39,1.22,1.13,-0.55,-12.19,9.90,5.28,1.75,-1.53,2.46,1005.92
5.39,1.22,1.13,-0.55,-12.19,9.90,5.28,2.02,-1.27,3.72,1005.92
5.391,1.22,1.13,-0.55,4.41,8.74,1.33,2.02,-1.27,3.72,1005.92
5.392,1.22,1.13,-0.55,4.41,8.74,1.33,2.02,-1.27,3.72,1005.91
5.446,0.73,0.81,-0.62,4.41,8.74,1.33,2.02,-1.27,3.72,1005.91
5.448,0.53,0.69,-0.58,4.41,8.74,1.33,2.02,-1.27,3.72,1005.91
5.449,0.24,0.37,-0.36,4.41,8.74,1.33,2.02,-1.27,3.72,1005.91
5.449,0.24,0.37,-0.36,4.41,8.74,1.33,-0.04,-0.08,0.76,1005.91
5.45,0.24,0.37,-0.36,-1.29,1.18,0.73,-0.04,-0.08,0.76,1005.91
5.47,0.24,0.37,-0.36,-1.29,1.18,0.73,-0.04,-0.08,0.76,1005.89
5.504,0.03,0.12,-0.02,-1.29,1.18,0.73,-0.04,-0.08,0.76,1005.89
5.505,0.10,0.02,-0.04,-1.29,1.18,0.73,-0.04,-0.08,0.76,1005.89
5.506,0.22,0.17,-0.20,-1.29,1.18,0.73,-0.04,-0.08,0.76,1005.89
5.506,0.22,0.17,-0.20,-1.29,1.18,0.73,-1.95,-0.35,-1.75,1005.89
5.512,0.22,0.17,-0.20,-4.30,-5.07,4.34,-1.95,-0.35,-1.75,1005.89
5.514,0.22,0.17,-0.20,-4.30,-5.07,4.34,-1.95,-0.35,-1.75,1005.86
5.562,0.31,0.30,-0.41,-4.30,-5.07,4.34,-1.95,-0.35,-1.75,1005.86
5.563,0.29,0.38,-0.50,-4.30,-5.07,4.34,-1.95,-0.35,-1.75,1005.86
5.563,0.21,0.43,-0.33,-4.30,-5.07,4.34,-1.95,-0.35,-1.75,1005.86
5.564,0.21,0.43,-0.33,-4.30,-5.07,4.34,-3.06,-0.35,-3.57,1005.86
5.565,0.21,0.43,-0.33,-1.18,-4.19,0.00,-3.06,-0.35,-3.57,1005.86
5.592,0.21,0.43,-0.33,-1.18,-4.19,0.00,-3.06,-0.35,-3.57,1005.93
5.621,0.21,0.49,-0.22,-1.18,-4.19,0.00,-3.06,-0.35,-3.57,1005.93
5.622,0.18,0.62,-0.28,-1.18,-4.19,0.00,-3.06,-0.35,-3.57,1005.93
5.622,0.16,0.84,-0.24,-1.18,-4.19,0.00,-3.06,-0.35,-3.57,1005.93
5.623,0.16,0.84,-0.24,-1.18,-4.19,0.00,-4.41,-0.81,-4.91,1005.93
5.623,0.16,0.84,-0.24,0.56,-2.89,-0.47,-4.41,-0.81,-4.91,1005.93
5.669,0.16,0.84,-0.24,0.56,-2.89,-0.47,-4.41,-0.81,-4.91,1005.93
5.679,0.27,1.32,-0.49,0.56,-2.89,-0.47,-4.41,-0.81,-4.91,1005.93
5.68,0.68,1.88,-0.82,0.56,-2.89,-0.47,-4.41,-0.81,-4.91,1005.93
5.68,0.84,1.80,-0.97,0.56,-2.89,-0.47,-4.41,-0.81,-4.91,1005.93
5.681,0.84,1.80,-0.97,0.56,-2.89,-0.47,-4.65,-0.34,-5.18,1005.93
5.682,0.84,1.80,-0.97,7.35,6.81,-7.94,-4.65,-0.34,-5.18,1005.93
5.716,0.84,1.80,-0.97,7.35,6.81,-7.94,-4.65,-0.34,-5.18,1005.93
5.743,0.98,1.54,-0.92,7.35,6.81,-7.94,-4.65,-0.34,-5.18,1005.93
5.744,1.06,1.15,-0.55,7.35,6.81,-7.94,-4.65,-0.34,-5.18,1005.93
5.745,1.13,0.73,-0.66,7.35,6.81,-7.94,-4.65,-0.34,-5.18,1005.93
5.745,1.13,0.73,-0.66,7.35,6.81,-7.94,-3.36,1.10,-2.91,1005.93
5.746,1.13,0.73,-0.66,13.30,2.29,-8.94,-3.36,1.10,-2.91,1005.93
5.794,1.13,0.73,-0.66,13.30,2.29,-8.94,-3.36,1.10,-2.91,1005.87
5.796,1.10,0.45,-0.76,13.30,2.29,-8.94,-3.36,1.10,-2.91,1005.87
5.797,0.73,0.70,-0.55,13.30,2.29,-8.94,-3.36,1.10,-2.91,1005.87
5.797,0.38,1.26,-0.75,13.30,2.29,-8.94,-3.36,1.10,-2.91,1005.87
5.797,0.38,1.26,-0.75,13.30,2.29,-8.94,0.45,2.21,1.38,1005.87
5.798,0.38,1.26,-0.75,9.55,-1.27,-7.96,0.45,2.21,1.38,1005.87
5.856,-1.03,1.81,1.28,9.55,-1.27,-7.96,0.45,2.21,1.38,1005.87
5.857,-1.73,2.55,0.57,9.55,-1.27,-7.96,0.45,2.21,1.38,1005.87
5.857,-0.07,2.05,-1.67,9.55,-1.27,-7.96,0.45,2.21,1.38,1005.87
5.858,-0.07,2.05,-1.67,9.55,-1.27,-7.96,0.79,1.67,0.52,1005.87
5.858,-0.07,2.05,-1.67,-7.02,11.53,-0.00,0.79,1.67,0.52,1005.87
5.871,-0.07,2.05,-1.67,-7.02,11.53,-0.00,0.79,1.67,0.52,1005.87
5.91,-0.07,2.05,-1.67,-7.02,11.53,-0.00,0.79,1.67,0.52,1005.89
5.914,-0.07,2.05,-1.67,2.46,-4.24,-0.82,0.79,1.67,0.52,1005.89
5.915,-0.27,0.58,-0.92,2.46,-4.24,-0.82,0.79,1.67,0.52,1005.89
5.915,0.30,0.36,0.55,2.46,-4.24,-0.82,0.79,1.67,0.52,1005.89
5.916,0.50,0.71,0.15,2.46,-4.24,-0.82,0.79,1.67,0.52,1005.89
5.916,0.50,0.71,0.15,2.46,-4.24,-0.82,0.90,-0.19,2.62,1005.89
5.971,0.62,1.12,0.06,2.46,-4.24,-0.82,0.90,-0.19,2.62,1005.89
5.975,0.40,1.17,-0.19,2.46,-4.24,-0.82,0.90,-0.19,2.62,1005.89
5.976,-0.02,1.06,-0.06,2.46,-4.24,-0.82,0.90,-0.19,2.62,1005.89
5.977,-0.02,1.06,-0.06,2.46,-4.24,-0.82,0.53,-0.19,0.91,1005.89
5.978,-0.02,1.06,-0.06,3.42,1.27,-0.40,0.53,-0.19,0.91,1005.89
5.992,-0.02,1.06,-0.06,3.42,1.27,-0.40,0.53,-0.19,0.91,1005.92
6.029,-0.26,1.03,-0.03,3.42,1.27,-0.40,0.53,-0.19,0.91,1005.92
6.03,-0.15,1.01,-0.02,3.42,1.27,-0.40,0.53,-0.19,0.91,1005.92
6.032,0.09,1.02,0.07,3.42,1.27,-0.40,0.53,-0.19,0.91,1005.92
6.033,0.09,1.02,0.07,-1.17,0.32,0.53,0.53,-0.19,0.91,1005.92
6.033,0.09,1.02,0.07,-1.17,0.32,0.53,0.40,0.25,0.54,1005.92
6.069,0.09,1.02,0.07,-1.17,0.32,0.53,0.40,0.25,0.54,1005.94
6.097,0.01,0.99,0.03,-1.17,0.32,0.53,0.40,0.25,0.54,1005.94
6.098,-0.16,0.94,0.02,-1.17,0.32,0.53,0.40,0.25,0.54,1005.94
6.098,-0.09,0.98,0.06,-1.17,0.32,0.53,0.40,0.25,0.54,1005.94
6.099,-0.09,0.98,0.06,-1.17,0.32,0.53,0.49,0.13,0.69,1005.94
6.099,-0.09,0.98,0.06,-1.27,-0.15,1.04,0.49,0.13,0.69,1005.94
6.112,-0.09,0.98,0.06,-1.27,-0.15,1.04,0.49,0.13,0.69,1005.94
6.145,-0.01,1.00,0.06,-1.27,-0.15,1.04,0.49,0.13,0.69,1005.94
6.147,0.00,0.98,0.06,-1.27,-0.15,1.04,0.49,0.13,0.69,1005.94
6.147,0.05,0.98,-0.01,-1.27,-0.15,1.04,0.49,0.13,0.69,1005.94
6.148,0.05,0.98,-0.01,-1.27,-0.15,1.04,0.70,-0.34,1.03,1005.94
6.148,0.05,0.98,-0.01,-0.90,0.13,1.39,0.70,-0.34,1.03,1005.94
6.208,0.05,0.98,-0.01,-0.90,0.13,1.39,0.70,-0.34,1.03,1005.93
6.211,0.12,0.97,-0.11,-0.90,0.13,1.39,0.70,-0.34,1.03,1005.93
6.212,0.17,0.96,-0.13,-0.90,0.13,1.39,0.70,-0.34,1.03,1005.93
6.212,0.13,0.96,-0.17,-0.90,0.13,1.39,0.70,-0.34,1.03,1005.93
6.213,0.13,0.96,-0.17,-0.90,0.13,1.39,0.83,-0.28,1.10,1005.93
6.213,0.13,0.96,-0.17,-0.25,0.05,0.21,0.83,-0.28,1.10,1005.93
6.264,0.02,1.01,-0.19,-0.25,0.05,0.21,0.83,-0.28,1.10,1005.93
6.266,-0.03,1.06,-0.16,-0.25,0.05,0.21,0.83,-0.28,1.10,1005.93
6.267,0.08,1.06,-0.14,-0.25,0.05,0.21,0.83,-0.28,1.10,1005.93
6.269,0.08,1.06,-0.14,-1.92,1.04,0.49,0.83,-0.28,1.10,1005.93
6.27,0.08,1.06,-0.14,-1.92,1.04,0.49,0.91,-0.49,1.20,1005.93
6.271,0.08,1.06,-0.14,-1.92,1.04,0.49,0.91,-0.49,1.20,1005.93
6.309,0.08,1.06,-0.14,-1.92,1.04,0.49,0.91,-0.49,1.20,1005.93
6.321,0.18,1.07,-0.14,-1.92,1.04,0.49,0.91,-0.49,1.20,1005.93
6.323,0.14,1.12,-0.10,-1.92,1.04,0.49,0.91,-0.49,1.20,1005.93
6.323,0.08,1.15,-0.05,-1.92,1.04,0.49,0.91,-0.49,1.20,1005.93
6.324,0.08,1.15,-0.05,-1.92,1.04,0.49,1.33,-0.36,1.39,1005.93
6.324,0.08,1.15,-0.05,-1.53,2.10,1.86,1.33,-0.36,1.39,1005.93
6.379,0.04,1.19,-0.05,-1.53,2.10,1.86,1.33,-0.36,1.39,1005.93
6.382,-0.12,1.35,-0.03,-1.53,2.10,1.86,1.33,-0.36,1.39,1005.93
6.383,-0.37,1.68,0.09,-1.53,2.10,1.86,1.33,-0.36,1.39,1005.93
6.384,-0.37,1.68,0.09,-1.53,2.10,1.86,1.96,-0.61,1.60,1005.93
6.385,-0.37,1.68,0.09,-4.91,5.53,3.82,1.96,-0.61,1.60,1005.93
6.395,-0.37,1.68,0.09,-4.91,5.53,3.82,1.96,-0.61,1.60,1005.93
6.441,-0.73,1.88,0.03,-4.91,5.53,3.82,1.96,-0.61,1.60,1005.93
6.444,-1.13,1.88,0.01,-4.91,5.53,3.82,1.96,-0.61,1.60,1005.93
6.445,-0.79,1.58,0.08,-4.91,5.53,3.82,1.96,-0.61,1.60,1005.93
6.446,-0.79,1.58,0.08,-4.91,5.53,3.82,2.61,-0.94,2.15,1005.93
6.447,-0.79,1.58,0.08,-12.57,10.18,5.50,2.61,-0.94,2.15,1005.93
6.469,-0.79,1.58,0.08,-12.57,10.18,5.50,2.61,-0.94,2.15,1005.93
6.496,0.23,1.30,-0.28,-12.57,10.18,5.50,2.61,-0.94,2.15,1005.93
6.498,1.08,1.44,-0.51,-12.57,10.18,5.50,2.61,-0.94,2.15,1005.93
6.498,1.43,1.18,-0.36,-12.57,10.18,5.50,2.61,-0.94,2.15,1005.93
6.499,1.43,1.18,-0.36,4.05,7.28,2.66,2.61,-0.94,2.15,1005.93
6.5,1.43,1.18,-0.36,4.05,7.28,2.66,2.77,-1.14,3.45,1005.93
6.516,1.43,1.18,-0.36,4.05,7.28,2.66,2.77,-1.14,3.45,1005.91
6.555,0.96,0.83,-0.56,4.05,7.28,2.66,2.77,-1.14,3.45,1005.91
6.556,0.46,0.54,-0.60,4.05,7.28,2.66,2.77,-1.14,3.45,1005.91
6.557,0.37,0.45,-0.37,4.05,7.28,2.66,2.77,-1.14,3.45,1005.91
6.557,0.37,0.45,-0.37,4.05,7.28,2.66,0.87,0.36,0.59,1005.91
6.557,0.37,0.45,-0.37,0.61,0.86,1.50,0.87,0.36,0.59,1005.91
6.599,0.37,0.45,-0.37,0.61,0.86,1.50,0.87,0.36,0.59,1005.89
6.622,0.29,0.28,-0.12,0.61,0.86,1.50,0.87,0.36,0.59,1005.89
6.623,0.25,0.11,0.09,0.61,0.86,1.50,0.87,0.36,0.59,1005.89
6.624,0.28,0.07,0.04,0.61,0.86,1.50,0.87,0.36,0.59,1005.89
6.624,0.28,0.07,0.04,0.61,0.86,1.50,-1.55,0.64,-1.39,1005.89
6.625,0.28,0.07,0.04,-2.27,-4.48,5.77,-1.55,0.64,-1.39,1005.89
6.67,0.28,0.07,0.04,-2.27,-4.48,5.77,-1.55,0.64,-1.39,1005.87
6.671,0.35,0.15,-0.15,-2.27,-4.48,5.77,-1.55,0.64,-1.39,1005.87
6.672,0.38,0.23,-0.25,-2.27,-4.48,5.77,-1.55,0.64,-1.39,1005.87
6.672,0.31,0.33,-0.27,-2.27,-4.48,5.77,-1.55,0.64,-1.39,1005.87
6.672,0.31,0.33,-0.27,-0.36,-5.22,2.34,-1.55,0.64,-1.39,1005.87
6.672,0.31,0.33,-0.27,-0.36,-5.22,2.34,-2.69,0.42,-3.39,1005.87
6.714,0.31,0.33,-0.27,-0.36,-5.22,2.34,-2.69,0.42,-3.39,1005.95
6.73,0.24,0.46,-0.18,-0.36,-5.22,2.34,-2.69,0.42,-3.39,1005.95
6.731,0.27,0.61,0.03,-0.36,-5.22,2.34,-2.69,0.42,-3.39,1005.95
6.731,0.28,0.86,-0.19,-0.36,-5.22,2.34,-2.69,0.42,-3.39,1005.95
6.732,0.28,0.86,-0.19,-0.36,-5.22,2.34,-4.21,0.22,-4.99,1005.95
6.732,0.28,0.86,-0.19,1.22,-2.81,1.26,-4.21,0.22,-4.99,1005.95
6.788,0.34,1.41,-0.41,1.22,-2.81,1.26,-4.21,0.22,-4.99,1005.95
6.789,0.48,2.00,-0.52,1.22,-2.81,1.26,-4.21,0.22,-4.99,1005.95
6.79,0.48,1.93,-0.77,1.22,-2.81,1.26,-4.21,0.22,-4.99,1005.95
6.79,0.48,1.93,-0.77,1.22,-2.81,1.26,-5.02,-0.70,-5.17,1005.95
6.791,0.48,1.93,-0.77,5.66,7.95,-5.84,-5.02,-0.70,-5.17,1005.95
6.791,0.48,1.93,-0.77,5.66,7.95,-5.84,-5.02,-0.70,-5.17,1005.92
6.848,0.67,1.73,-0.93,5.66,7.95,-5.84,-5.02,-0.70,-5.17,1005.92
6.851,0.96,1.25,-0.76,5.66,7.95,-5.84,-5.02,-0.70,-5.17,1005.92
6.852,1.07,0.83,-0.97,5.66,7.95,-5.84,-5.02,-0.70,-5.17,1005.92
6.852,1.07,0.83,-0.97,5.66,7.95,-5.84,-3.80,-0.97,-2.12,1005.92
6.853,1.07,0.83,-0.97,11.10,3.46,-10.97,-3.80,-0.97,-2.12,1005.92
6.869,1.07,0.83,-0.97,11.10,3.46,-10.97,-3.80,-0.97,-2.12,1005.87
6.904,1.06,0.55,-0.96,11.10,3.46,-10.97,-3.80,-0.97,-2.12,1005.87
6.906,0.70,0.60,-0.56,11.10,3.46,-10.97,-3.80,-0.97,-2.12,1005.87
6.907,0.35,0.92,-0.83,11.10,3.46,-10.97,-3.80,-0.97,-2.12,1005.87
6.907,0.35,0.92,-0.83,11.10,3.46,-10.97,-0.04,0.89,0.82,1005.87
6.908,0.35,0.92,-0.83,8.74,-2.28,-9.68,-0.04,0.89,0.82,1005.87
6.918,0.35,0.92,-0.83,8.74,-2.28,-9.68,-0.04,0.89,0.82,1005.84
6.964,-0.36,1.50,-0.03,8.74,-2.28,-9.68,-0.04,0.89,0.82,1005.84
6.965,-1.84,1.53,1.58,8.74,-2.28,-9.68,-0.04,0.89,0.82,1005.84
6.966,-1.08,1.97,-0.67,8.74,-2.28,-9.68,-0.04,0.89,0.82,1005.84
6.966,-1.08,1.97,-0.67,8.74,-2.28,-9.68,0.44,2.74,-0.23,1005.84
6.967,-1.08,1.97,-0.67,-8.35,7.10,1.40,0.44,2.74,-0.23,1005.84
6.99,-1.08,1.97,-0.67,-8.35,7.10,1.40,0.44,2.74,-0.23,1005.87
7.021,0.28,1.74,-1.42,-8.35,7.10,1.40,0.44,2.74,-0.23,1005.87
7.022,-0.06,0.86,0.39,-8.35,7.10,1.40,0.44,2.74,-0.23,1005.87
7.023,-0.48,0.59,-0.08,-8.35,7.10,1.40,0.44,2.74,-0.23,1005.87
7.023,-0.48,0.59,-0.08,0.51,0.91,-4.40,0.44,2.74,-0.23,1005.87
7.024,-0.48,0.59,-0.08,0.51,0.91,-4.40,1.00,0.79,1.97,1005.87
7.069,-0.48,0.59,-0.08,0.51,0.91,-4.40,1.00,0.79,1.97,1005.97
7.08,0.34,0.92,0.10,0.51,0.91,-4.40,1.00,0.79,1.97,1005.97
7.081,0.60,1.07,0.09,0.51,0.91,-4.40,1.00,0.79,1.97,1005.97
7.082,0.11,1.04,0.01,0.51,0.91,-4.40,1.00,0.79,1.97,1005.97
7.083,0.11,1.04,0.01,0.51,0.91,-4.40,0.42,-0.22,1.25,1005.97
7.084,0.11,1.04,0.01,4.02,0.29,0.10,0.42,-0.22,1.25,1005.97
7.113,0.11,1.04,0.01,4.02,0.29,0.10,0.42,-0.22,1.25,1005.96
7.136,-0.26,1.00,0.09,4.02,0.29,0.10,0.42,-0.22,1.25,1005.96
7.137,-0.25,1.05,0.12,4.02,0.29,0.10,0.42,-0.22,1.25,1005.96
7.137,-0.02,1.02,0.17,4.02,0.29,0.10,0.42,-0.22,1.25,1005.96
7.138,-0.02,1.02,0.17,4.02,0.29,0.10,0.36,0.13,0.65,1005.96
7.138,-0.02,1.02,0.17,-1.49,0.39,0.91,0.36,0.13,0.65,1005.96
7.189,-0.02,1.02,0.17,-1.49,0.39,0.91,0.36,0.13,0.65,1005.94
7.195,0.08,0.92,0.16,-1.49,0.39,0.91,0.36,0.13,0.65,1005.94
7.195,0.04,0.95,0.13,-1.49,0.39,0.91,0.36,0.13,0.65,1005.94
7.195,-0.04,1.02,0.14,-1.49,0.39,0.91,0.36,0.13,0.65,1005.94
7.196,-0.04,1.02,0.14,-1.49,0.39,0.91,0.54,-0.07,0.72,1005.94
7.196,-0.04,1.02,0.14,0.14,-0.20,1.31,0.54,-0.07,0.72,1005.94
7.253,-0.05,0.99,0.11,0.14,-0.20,1.31,0.54,-0.07,0.72,1005.94
7.254,-0.00,0.94,-0.02,0.14,-0.20,1.31,0.54,-0.07,0.72,1005.94
7.254,0.16,0.94,-0.04,0.14,-0.20,1.31,0.54,-0.07,0.72,1005.94
7.254,0.16,0.94,-0.04,-0.21,-0.25,0.50,0.54,-0.07,0.72,1005.94
7.255,0.16,0.94,-0.04,-0.21,-0.25,0.50,0.74,-0.15,0.77,1005.94
7.27,0.16,0.94,-0.04,-0.21,-0.25,0.50,0.74,-0.15,0.77,1005.94
7.309,0.16,0.94,-0.04,-0.21,-0.25,0.50,0.74,-0.15,0.77,1005.94
7.313,0.27,0.95,0.10,-0.21,-0.25,0.50,0.74,-0.15,0.77,1005.94
7.313,0.10,0.97,0.13,-0.21,-0.25,0.50,0.74,-0.15,0.77,1005.94
7.314,0.04,1.01,0.02,-0.21,-0.25,0.50,0.74,-0.15,0.77,1005.94
7.314,0.04,1.01,0.02,-0.21,-0.25,0.50,0.79,0.00,0.61,1005.94
7.314,0.04,1.01,0.02,0.40,-0.01,1.54,0.79,0.00,0.61,1005.94
7.37,0.12,0.99,-0.12,0.40,-0.01,1.54,0.79,0.00,0.61,1005.94
7.371,0.14,0.98,-0.26,0.40,-0.01,1.54,0.79,0.00,0.61,1005.94
7.371,0.05,1.00,-0.25,0.40,-0.01,1.54,0.79,0.00,0.61,1005.94
7.371,0.05,1.00,-0.25,0.40,-0.01,1.54,0.74,-0.26,0.56,1005.94
7.373,0.05,1.00,-0.25,-0.24,0.20,-0.85,0.74,-0.26,0.56,1005.94
7.389,0.05,1.00,-0.25,-0.24,0.20,-0.85,0.74,-0.26,0.56,1005.92
7.428,0.12,0.95,-0.17,-0.24,0.20,-0.85,0.74,-0.26,0.56,1005.92
7.429,0.11,0.98,-0.07,-0.24,0.20,-0.85,0.74,-0.26,0.56,1005.92
7.429,-0.01,1.03,0.02,-0.24,0.20,-0.85,0.74,-0.26,0.56,1005.92
7.429,-0.01,1.03,0.02,-0.24,0.20,-0.85,0.60,-0.67,0.56,1005.92
7.429,-0.01,1.03,0.02,-0.73,0.25,0.86,0.60,-0.67,0.56,1005.92
7.471,-0.01,1.03,0.02,-0.73,0.25,0.86,0.60,-0.67,0.56,1005.94
7.487,-0.18,1.06,0.11,-0.73,0.25,0.86,0.60,-0.67,0.56,1005.94
7.487,-0.25,1.11,0.08,-0.73,0.25,0.86,0.60,-0.67,0.56,1005.94
7.487,-0.18,1.20,-0.08,-0.73,0.25,0.86,0.60,-0.67,0.56,1005.94
7.487,-0.18,1.20,-0.08,-3.94,1.81,2.49,0.60,-0.67,0.56,1005.94
7.488,-0.18,1.20,-0.08,-3.94,1.81,2.49,0.99,-1.06,1.17,1005.94
7.51,-0.18,1.20,-0.08,-3.94,1.81,2.49,0.99,-1.06,1.17,1005.95
7.545,-0.13,1.42,-0.22,-3.94,1.81,2.49,0.99,-1.06,1.17,1005.95
7.545,-0.08,1.75,-0.17,-3.94,1.81,2.49,0.99,-1.06,1.17,1005.95
7.545,0.23,1.58,-0.23,-3.94,1.81,2.49,0.99,-1.06,1.17,1005.95
7.545,0.23,1.58,-0.23,-3.94,1.81,2.49,0.77,-2.19,2.13,1005.95
7.546,0.23,1.58,-0.23,-2.59,6.60,0.84,0.77,-2.19,2.13,1005.95
7.589,0.23,1.58,-0.23,-2.59,6.60,0.84,0.77,-2.19,2.13,1005.94
7.603,0.23,1.16,-0.52,-2.59,6.60,0.84,0.77,-2.19,2.13,1005.94
7.603,0.21,0.88,-0.64,-2.59,6.60,0.84,0.77,-2.19,2.13,1005.94
7.604,0.37,0.65,-0.58,-2.59,6.60,0.84,0.77,-2.19,2.13,1005.94
7.604,0.37,0.65,-0.58,-2.59,6.60,0.84,-0.74,-4.19,2.75,1005.94
7.604,0.37,0.65,-0.58,-0.68,0.22,-2.41,-0.74,-4.19,2.75,1005.94
7.661,0.27,0.46,-0.61,-0.68,0.22,-2.41,-0.74,-4.19,2.75,1005.94
7.662,0.04,0.50,-0.68,-0.68,0.22,-2.41,-0.74,-4.19,2.75,1005.94
7.662,-0.04,0.56,-0.80,-0.68,0.22,-2.41,-0.74,-4.19,2.75,1005.94
7.663,-0.04,0.56,-0.80,-0.68,0.22,-2.41,-2.47,-5.44,2.28,1005.94
7.664,-0.04,0.56,-0.80,-2.50,-3.53,-3.64,-2.47,-5.44,2.28,1005.94
7.669,-0.04,0.56,-0.80,-2.50,-3.53,-3.64,-2.47,-5.44,2.28,1005.91
7.71,-0.04,0.56,-0.80,-2.50,-3.53,-3.64,-2.47,-5.44,2.28,1005.90
7.72,-0.18,0.55,-0.90,-2.50,-3.53,-3.64,-2.47,-5.44,2.28,1005.90
7.72,-0.42,0.53,-0.83,-2.50,-3.53,-3.64,-2.47,-5.44,2.28,1005.90
7.72,-0.51,0.61,-0.93,-2.50,-3.53,-3.64,-2.47,-5.44,2.28,1005.90
7.72,-0.51,0.61,-0.93,-2.50,-3.53,-3.64,-3.02,-6.40,1.15,1005.90
7.721,-0.51,0.61,-0.93,-6.33,-3.27,-5.78,-3.02,-6.40,1.15,1005.90
7.778,-0.44,0.67,-0.98,-6.33,-3.27,-5.78,-3.02,-6.40,1.15,1005.90
7.779,-0.33,0.70,-0.92,-6.33,-3.27,-5.78,-3.02,-6.40,1.15,1005.90
7.779,-0.31,0.77,-0.93,-6.33,-3.27,-5.78,-3.02,-6.40,1.15,1005.90
7.779,-0.31,0.77,-0.93,-6.33,-3.27,-5.78,-2.77,-6.37,-0.21,1005.90
7.782,-0.31,0.77,-0.93,-5.09,-2.21,-6.87,-2.77,-6.37,-0.21,1005.90
7.789,-0.31,0.77,-0.93,-5.09,-2.21,-6.87,-2.77,-6.37,-0.21,1005.88
7.836,-0.35,0.83,-0.83,-5.09,-2.21,-6.87,-2.77,-6.37,-0.21,1005.88
7.837,-0.35,0.87,-0.68,-5.09,-2.21,-6.87,-2.77,-6.37,-0.21,1005.88
7.837,-0.30,0.90,-0.58,-5.09,-2.21,-6.87,-2.77,-6.37,-0.21,1005.88
7.837,-0.30,0.90,-0.58,-5.09,-2.21,-6.87,-2.54,-5.16,-1.92,1005.88
7.838,-0.30,0.90,-0.58,-3.14,-1.04,-5.45,-2.54,-5.16,-1.92,1005.88
7.869,-0.30,0.90,-0.58,-3.14,-1.04,-5.45,-2.54,-5.16,-1.92,1005.89
7.897,-0.24,1.02,-0.51,-3.14,-1.04,-5.45,-2.54,-5.16,-1.92,1005.89
7.897,-0.14,1.30,-0.53,-3.14,-1.04,-5.45,-2.54,-5.16,-1.92,1005.89
7.897,0.09,1.44,-0.54,-3.14,-1.04,-5.45,-2.54,-5.16,-1.92,1005.89
7.897,0.09,1.44,-0.54,-3.14,-1.04,-5.45,-2.01,-3.85,-2.94,1005.89
7.898,0.09,1.44,-0.54,0.98,2.79,-5.05,-2.01,-3.85,-2.94,1005.89
7.911,0.09,1.44,-0.54,0.98,2.79,-5.05,-2.01,-3.85,-2.94,1005.89
7.953,0.06,1.20,-0.23,0.98,2.79,-5.05,-2.01,-3.85,-2.94,1005.89
7.955,-0.09,0.96,-0.00,0.98,2.79,-5.05,-2.01,-3.85,-2.94,1005.89
7.955,-0.16,0.98,-0.02,0.98,2.79,-5.05,-2.01,-3.85,-2.94,1005.89
7.955,-0.16,0.98,-0.02,0.98,2.79,-5.05,-1.07,-2.38,-2.65,1005.89
7.957,-0.16,0.98,-0.02,2.63,1.19,-1.62,-1.07,-2.38,-2.65,1005.89
7.989,-0.16,0.98,-0.02,2.63,1.19,-1.62,-1.07,-2.38,-2.65,1005.90
8.022,-0.19,1.08,-0.12,2.63,1.19,-1.62,-1.07,-2.38,-2.65,1005.90
8.023,0.04,0.96,-0.10,2.63,1.19,-1.62,-1.07,-2.38,-2.65,1005.90
8.024,0.14,0.88,0.04,2.63,1.19,-1.62,-1.07,-2.38,-2.65,1005.90
8.024,0.14,0.88,0.04,2.63,1.19,-1.62,0.40,-2.26,-0.80,1005.90
8.024,0.14,0.88,0.04,3.47,0.60,-1.59,0.40,-2.26,-0.80,1005.90
8.069,0.14,0.88,0.04,3.47,0.60,-1.59,0.40,-2.26,-0.80,1005.91
8.07,0.14,0.93,0.13,3.47,0.60,-1.59,0.40,-2.26,-0.80,1005.91
8.07,0.13,0.94,0.12,3.47,0.60,-1.59,0.40,-2.26,-0.80,1005.91
8.07,0.12,0.91,0.14,3.47,0.60,-1.59,0.40,-2.26,-0.80,1005.91
8.071,0.12,0.91,0.14,3.47,0.60,-1.59,1.23,-1.99,0.75,1005.91
8.071,0.12,0.91,0.14,4.18,-0.05,0.49,1.23,-1.99,0.75,1005.91
8.115,0.12,0.91,0.14,4.18,-0.05,0.49,1.23,-1.99,0.75,1005.92
8.13,0.18,0.92,0.16,4.18,-0.05,0.49,1.23,-1.99,0.75,1005.92
8.13,0.26,0.85,0.13,4.18,-0.05,0.49,1.23,-1.99,0.75,1005.92
8.131,0.40,0.71,-0.06,4.18,-0.05,0.49,1.23,-1.99,0.75,1005.92
8.131,0.40,0.71,-0.06,4.18,-0.05,0.49,1.16,-2.96,1.61,1005.92
8.131,0.40,0.71,-0.06,4.56,-1.28,0.17,1.16,-2.96,1.61,1005.92
8.186,0.44,0.65,-0.14,4.56,-1.28,0.17,1.16,-2.96,1.61,1005.92
8.187,0.03,0.92,0.12,4.56,-1.28,0.17,1.16,-2.96,1.61,1005.92
8.187,-0.57,1.86,0.60,4.56,-1.28,0.17,1.16,-2.96,1.61,1005.92
8.188,-0.57,1.86,0.60,4.56,-1.28,0.17,0.06,-1.49,0.84,1005.92
8.188,-0.57,1.86,0.60,1.01,1.69,1.18,0.06,-1.49,0.84,1005.92
8.189,-0.57,1.86,0.60,1.01,1.69,1.18,0.06,-1.49,0.84,1005.92
8.245,-0.05,2.34,0.22,1.01,1.69,1.18,0.06,-1.49,0.84,1005.92
8.246,0.00,1.06,-0.79,1.01,1.69,1.18,0.06,-1.49,0.84,1005.92
8.246,-0.70,0.60,-0.09,1.01,1.69,1.18,0.06,-1.49,0.84,1005.92
8.246,-0.70,0.60,-0.09,1.01,1.69,1.18,0.58,1.44,0.96,1005.92
8.246,-0.70,0.60,-0.09,-1.59,3.41,-2.39,0.58,1.44,0.96,1005.92
8.27,-0.70,0.60,-0.09,-1.59,3.41,-2.39,0.58,1.44,0.96,1005.90
8.303,-0.41,0.87,0.39,-1.59,3.41,-2.39,0.58,1.44,0.96,1005.90
8.304,0.18,1.06,0.37,-1.59,3.41,-2.39,0.58,1.44,0.96,1005.90
8.304,0.44,1.09,0.09,-1.59,3.41,-2.39,0.58,1.44,0.96,1005.90
8.305,0.44,1.09,0.09,-1.59,3.41,-2.39,0.20,-0.34,1.43,1005.90
8.305,0.44,1.09,0.09,0.73,0.17,2.59,0.20,-0.34,1.43,1005.90
8.309,0.44,1.09,0.09,0.73,0.17,2.59,0.20,-0.34,1.43,1005.87
8.362,0.34,0.91,-0.10,0.73,0.17,2.59,0.20,-0.34,1.43,1005.87
8.362,0.08,0.98,-0.11,0.73,0.17,2.59,0.20,-0.34,1.43,1005.87
8.362,0.08,1.12,-0.10,0.73,0.17,2.59,0.20,-0.34,1.43,1005.87
8.363,0.08,1.12,-0.10,1.14,0.16,-1.01,0.20,-0.34,1.43,1005.87
8.364,0.08,1.12,-0.10,1.14,0.16,-1.01,0.26,-0.74,0.86,1005.87
8.389,0.08,1.12,-0.10,1.14,0.16,-1.01,0.26,-0.74,0.86,1005.91
8.42,0.08,1.12,-0.10,-0.18,0.22,0.43,0.26,-0.74,0.86,1005.91
8.421,0.14,1.06,-0.04,-0.18,0.22,0.43,0.26,-0.74,0.86,1005.91
8.421,0.09,0.98,0.04,-0.18,0.22,0.43,0.26,-0.74,0.86,1005.91
8.421,-0.06,0.99,0.10,-0.18,0.22,0.43,0.26,-0.74,0.86,1005.91
8.421,-0.06,0.99,0.10,-0.18,0.22,0.43,0.18,-0.12,0.48,1005.91
8.469,-0.06,0.99,0.10,-0.18,0.22,0.43,0.18,-0.12,0.48,1005.91
8.479,-0.03,0.99,0.15,-0.18,0.22,0.43,0.18,-0.12,0.48,1005.91
8.48,0.06,0.99,0.11,-0.18,0.22,0.43,0.18,-0.12,0.48,1005.91
8.48,0.10,0.98,0.01,-0.18,0.22,0.43,0.18,-0.12,0.48,1005.91
8.48,0.10,0.98,0.01,-0.18,0.22,0.43,0.35,-0.30,0.62,1005.91
8.48,0.10,0.98,0.01,-0.67,0.04,1.14,0.35,-0.30,0.62,1005.91
8.509,0.10,0.98,0.01,-0.67,0.04,1.14,0.35,-0.30,0.62,1005.90
8.536,0.10,1.01,-0.03,-0.67,0.04,1.14,0.35,-0.30,0.62,1005.90
8.537,0.04,1.02,-0.03,-0.67,0.04,1.14,0.35,-0.30,0.62,1005.90
8.537,0.02,1.02,0.02,-0.67,0.04,1.14,0.35,-0.30,0.62,1005.90
8.537,0.02,1.02,0.02,-0.67,0.04,1.14,0.49,-0.14,0.71,1005.90
8.538,0.02,1.02,0.02,-0.97,0.38,0.45,0.49,-0.14,0.71,1005.90
8.59,0.02,1.02,0.02,-0.97,0.38,0.45,0.49,-0.14,0.71,1005.90
8.594,0.04,1.01,0.05,-0.97,0.38,0.45,0.49,-0.14,0.71,1005.90
8.595,0.13,1.00,-0.02,-0.97,0.38,0.45,0.49,-0.14,0.71,1005.90
8.595,0.19,0.99,-0.04,-0.97,0.38,0.45,0.49,-0.14,0.71,1005.90
8.595,0.19,0.99,-0.04,-0.97,0.38,0.45,0.63,-0.36,0.96,1005.90
8.595,0.19,0.99,-0.04,-0.77,0.37,0.89,0.63,-0.36,0.96,1005.90
8.653,0.13,0.99,-0.06,-0.77,0.37,0.89,0.63,-0.36,0.96,1005.90
8.653,0.13,1.01,-0.09,-0.77,0.37,0.89,0.63,-0.36,0.96,1005.90
8.653,0.24,1.02,-0.14,-0.77,0.37,0.89,0.63,-0.36,0.96,1005.90
8.654,0.24,1.02,-0.14,-0.77,0.37,0.89,0.70,-0.64,1.08,1005.90
8.654,0.24,1.02,-0.14,-0.86,0.61,0.45,0.70,-0.64,1.08,1005.90
8.669,0.24,1.02,-0.14,-0.86,0.61,0.45,0.70,-0.64,1.08,1005.91
8.709,0.24,1.02,-0.14,-0.86,0.61,0.45,0.70,-0.64,1.08,1005.92
8.714,0.23,1.03,-0.12,-0.86,0.61,0.45,0.70,-0.64,1.08,1005.92
8.714,0.05,1.08,-0.08,-0.86,0.61,0.45,0.70,-0.64,1.08,1005.92
8.715,-0.02,1.17,-0.06,-0.86,0.61,0.45,0.70,-0.64,1.08,1005.92
8.715,-0.02,1.17,-0.06,-0.86,0.61,0.45,0.84,-0.58,1.22,1005.92
8.715,-0.02,1.17,-0.06,-2.21,1.68,1.06,0.84,-0.58,1.22,1005.92
8.77,0.02,1.23,-0.09,-2.21,1.68,1.06,0.84,-0.58,1.22,1005.92
8.771,-0.01,1.23,-0.08,-2.21,1.68,1.06,0.84,-0.58,1.22,1005.92
8.771,-0.15,1.25,-0.11,-2.21,1.68,1.06,0.84,-0.58,1.22,1005.92
8.772,-0.15,1.25,-0.11,-2.21,1.68,1.06,1.36,-0.72,1.75,1005.92
8.772,-0.15,1.25,-0.11,-4.22,3.59,1.79,1.36,-0.72,1.75,1005.92
8.789,-0.15,1.25,-0.11,-4.22,3.59,1.79,1.36,-0.72,1.75,1005.92
8.829,-0.23,1.36,-0.07,-4.22,3.59,1.79,1.36,-0.72,1.75,1005.92
8.83,-0.23,1.55,-0.11,-4.22,3.59,1.79,1.36,-0.72,1.75,1005.92
8.83,-0.57,1.81,0.04,-4.22,3.59,1.79,1.36,-0.72,1.75,1005.92
8.83,-0.57,1.81,0.04,-4.22,3.59,1.79,1.88,-1.11,2.19,1005.92
8.831,-0.57,1.81,0.04,-7.83,7.62,3.40,1.88,-1.11,2.19,1005.92
8.869,-0.57,1.81,0.04,-7.83,7.62,3.40,1.88,-1.11,2.19,1005.92
8.886,-1.01,1.82,0.17,-7.83,7.62,3.40,1.88,-1.11,2.19,1005.92
8.887,-0.39,1.39,0.00,-7.83,7.62,3.40,1.88,-1.11,2.19,1005.92
8.887,0.54,1.30,-0.52,-7.83,7.62,3.40,1.88,-1.11,2.19,1005.92
8.888,0.54,1.30,-0.52,-7.83,7.62,3.40,1.91,-2.10,2.91,1005.92
8.888,0.54,1.30,-0.52,-7.79,8.15,4.03,1.91,-2.10,2.91,1005.92
8.909,0.54,1.30,-0.52,-7.79,8.15,4.03,1.91,-2.10,2.91,1005.91
8.944,1.15,1.30,-0.52,-7.79,8.15,4.03,1.91,-2.10,2.91,1005.91
8.945,1.04,1.01,-0.52,-7.79,8.15,4.03,1.91,-2.10,2.91,1005.91
8.945,0.68,0.64,-0.66,-7.79,8.15,4.03,1.91,-2.10,2.91,1005.91
8.946,0.68,0.64,-0.66,3.88,4.36,0.62,1.91,-2.10,2.91,1005.91
8.946,0.68,0.64,-0.66,3.88,4.36,0.62,1.76,-1.39,2.68,1005.91
8.99,0.68,0.64,-0.66,3.88,4.36,0.62,1.76,-1.39,2.68,1005.89
9.004,0.47,0.55,-0.85,3.88,4.36,0.62,1.76,-1.39,2.68,1005.89
9.005,0.22,0.38,-0.54,3.88,4.36,0.62,1.76,-1.39,2.68,1005.89
9.005,0.02,0.16,-0.06,3.88,4.36,0.62,1.76,-1.39,2.68,1005.89
9.005,0.02,0.16,-0.06,3.88,4.36,0.62,-1.32,-0.51,0.17,1005.89
9.006,0.02,0.16,-0.06,-2.99,-2.08,1.14,-1.32,-0.51,0.17,1005.89
9.061,-0.02,0.03,0.07,-2.99,-2.08,1.14,-1.32,-0.51,0.17,1005.89
9.062,-0.05,0.15,-0.19,-2.99,-2.08,1.14,-1.32,-0.51,0.17,1005.89
9.062,0.01,0.35,-0.45,-2.99,-2.08,1.14,-1.32,-0.51,0.17,1005.89
9.062,0.01,0.35,-0.45,-2.99,-2.08,1.14,-2.80,-0.21,-1.90,1005.89
9.063,0.01,0.35,-0.45,-4.65,-5.23,2.99,-2.80,-0.21,-1.90,1005.89
9.069,0.01,0.35,-0.45,-4.65,-5.23,2.99,-2.80,-0.21,-1.90,1005.85
9.109,0.01,0.35,-0.45,-4.65,-5.23,2.99,-2.80,-0.21,-1.90,1005.90
9.12,0.09,0.46,-0.41,-4.65,-5.23,2.99,-2.80,-0.21,-1.90,1005.90
9.121,0.10,0.52,-0.39,-4.65,-5.23,2.99,-2.80,-0.21,-1.90,1005.90
9.121,0.11,0.59,-0.34,-4.65,-5.23,2.99,-2.80,-0.21,-1.90,1005.90
9.121,0.11,0.59,-0.34,-4.65,-5.23,2.99,-3.85,-0.54,-3.36,1005.90
9.122,0.11,0.59,-0.34,-1.78,-3.43,-0.50,-3.85,-0.54,-3.36,1005.90
9.178,0.09,0.67,-0.25,-1.78,-3.43,-0.50,-3.85,-0.54,-3.36,1005.90
9.179,-0.00,0.89,-0.25,-1.78,-3.43,-0.50,-3.85,-0.54,-3.36,1005.90
9.179,0.07,1.38,-0.47,-1.78,-3.43,-0.50,-3.85,-0.54,-3.36,1005.90
9.179,0.07,1.38,-0.47,0.29,0.07,-2.26,-3.85,-0.54,-3.36,1005.90
9.179,0.07,1.38,-0.47,0.29,0.07,-2.26,-4.65,-1.61,-4.49,1005.90
9.189,0.07,1.38,-0.47,0.29,0.07,-2.26,-4.65,-1.61,-4.49,1005.94
9.236,0.41,2.07,-0.85,0.29,0.07,-2.26,-4.65,-1.61,-4.49,1005.94
9.237,0.77,2.05,-0.96,0.29,0.07,-2.26,-4.65,-1.61,-4.49,1005.94
9.237,0.94,1.45,-0.74,0.29,0.07,-2.26,-4.65,-1.61,-4.49,1005.94
9.237,0.94,1.45,-0.74,8.83,8.84,-9.91,-4.65,-1.61,-4.49,1005.94
9.238,0.94,1.45,-0.74,8.83,8.84,-9.91,-4.84,-0.46,-4.04,1005.94
9.27,0.94,1.45,-0.74,8.83,8.84,-9.91,-4.84,-0.46,-4.04,1005.93
9.294,1.16,0.99,-0.51,8.83,8.84,-9.91,-4.84,-0.46,-4.04,1005.93
9.295,1.13,0.90,-0.54,8.83,8.84,-9.91,-4.84,-0.46,-4.04,1005.93
9.295,0.79,0.72,-0.82,8.83,8.84,-9.91,-4.84,-0.46,-4.04,1005.93
9.295,0.79,0.72,-0.82,8.83,8.84,-9.91,-2.31,2.04,-1.21,1005.93
9.296,0.79,0.72,-0.82,12.67,-0.32,-8.46,-2.31,2.04,-1.21,1005.93
9.31,0.79,0.72,-0.82,12.67,-0.32,-8.46,-2.31,2.04,-1.21,1005.86
9.354,0.63,0.65,-0.65,12.67,-0.32,-8.46,-2.31,2.04,-1.21,1005.86
9.354,0.48,1.04,-0.88,12.67,-0.32,-8.46,-2.31,2.04,-1.21,1005.86
9.355,-0.43,1.60,0.16,12.67,-0.32,-8.46,-2.31,2.04,-1.21,1005.86
9.355,-0.43,1.60,0.16,12.67,-0.32,-8.46,0.59,3.27,1.48,1005.86
9.355,-0.43,1.60,0.16,4.39,1.58,-5.94,0.59,3.27,1.48,1005.86
9.39,-0.43,1.60,0.16,4.39,1.58,-5.94,0.59,3.27,1.48,1005.86
9.411,-2.14,1.44,1.05,4.39,1.58,-5.94,0.59,3.27,1.48,1005.86
9.413,-1.86,1.80,0.36,4.39,1.58,-5.94,0.59,3.27,1.48,1005.86
9.414,-0.79,1.65,-0.46,4.39,1.58,-5.94,0.59,3.27,1.48,1005.86
9.414,-0.79,1.65,-0.46,-13.35,6.56,2.31,0.59,3.27,1.48,1005.86
9.415,-0.79,1.65,-0.46,-13.35,6.56,2.31,1.00,1.71,0.36,1005.86
9.471,-0.15,1.13,-0.27,-13.35,6.56,2.31,1.00,1.71,0.36,1005.86
9.471,0.12,0.79,0.17,-13.35,6.56,2.31,1.00,1.71,0.36,1005.86
9.472,0.17,0.83,0.18,-13.35,6.56,2.31,1.00,1.71,0.36,1005.86
9.472,0.17,0.83,0.18,-13.35,6.56,2.31,0.53,-0.40,2.23,1005.86
9.472,0.17,0.83,0.18,-13.35,6.56,2.31,0.53,-0.40,2.23,1005.89
9.472,0.17,0.83,0.18,1.47,-0.64,-0.27,0.53,-0.40,2.23,1005.89
9.51,0.17,0.83,0.18,1.47,-0.64,-0.27,0.53,-0.40,2.23,1005.90
9.529,0.15,1.02,0.04,1.47,-0.64,-0.27,0.53,-0.40,2.23,1005.90
9.529,0.16,1.10,-0.09,1.47,-0.64,-0.27,0.53,-0.40,2.23,1005.90
9.53,0.05,1.08,-0.08,1.47,-0.64,-0.27,0.53,-0.40,2.23,1005.90
9.53,0.05,1.08,-0.08,1.47,-0.64,-0.27,0.54,-0.17,0.96,1005.90
9.531,0.05,1.08,-0.08,1.63,0.75,-0.59,0.54,-0.17,0.96,1005.90
9.587,-0.04,1.03,0.01,1.63,0.75,-0.59,0.54,-0.17,0.96,1005.90
9.588,-0.02,1.00,0.03,1.63,0.75,-0.59,0.54,-0.17,0.96,1005.90
9.588,-0.01,1.01,0.09,1.63,0.75,-0.59,0.54,-0.17,0.96,1005.90
9.589,-0.01,1.01,0.09,-0.16,0.24,0.50,0.54,-0.17,0.96,1005.90
9.589,-0.01,1.01,0.09,-0.16,0.24,0.50,0.48,0.34,0.64,1005.90
9.59,-0.01,1.01,0.09,-0.16,0.24,0.50,0.48,0.34,0.64,1005.92
9.645,-0.08,1.00,0.11,-0.16,0.24,0.50,0.48,0.34,0.64,1005.92
9.647,-0.10,0.98,0.10,-0.16,0.24,0.50,0.48,0.34,0.64,1005.92
9.648,-0.05,0.98,0.04,-0.16,0.24,0.50,0.48,0.34,0.64,1005.92
9.648,-0.05,0.98,0.04,-0.16,0.24,0.50,0.66,-0.03,0.85,1005.92
9.649,-0.05,0.98,0.04,-1.13,-0.01,1.26,0.66,-0.03,0.85,1005.92
9.67,-0.05,0.98,0.04,-1.13,-0.01,1.26,0.66,-0.03,0.85,1005.91
9.704,-0.00,0.98,-0.01,-1.13,-0.01,1.26,0.66,-0.03,0.85,1005.91
9.705,0.06,0.98,-0.05,-1.13,-0.01,1.26,0.66,-0.03,0.85,1005.91
9.705,0.10,0.95,-0.07,-1.13,-0.01,1.26,0.66,-0.03,0.85,1005.91
9.709,0.10,0.95,-0.07,-0.44,-0.08,0.42,0.66,-0.03,0.85,1005.91
9.709,0.10,0.95,-0.07,-0.44,-0.08,0.42,0.77,-0.18,1.07,1005.91
9.712,0.10,0.95,-0.07,-0.44,-0.08,0.42,0.77,-0.18,1.07,1005.91
9.762,0.11,0.97,-0.07,-0.44,-0.08,0.42,0.77,-0.18,1.07,1005.91
9.762,0.07,0.96,-0.10,-0.44,-0.08,0.42,0.77,-0.18,1.07,1005.91
9.762,0.05,0.98,-0.16,-0.44,-0.08,0.42,0.77,-0.18,1.07,1005.91
9.763,0.05,0.98,-0.16,-0.83,0.03,0.21,0.77,-0.18,1.07,1005.91
9.763,0.05,0.98,-0.16,-0.83,0.03,0.21,0.79,-0.21,1.14,1005.91
9.79,0.05,0.98,-0.16,-0.83,0.03,0.21,0.79,-0.21,1.14,1005.91
9.822,0.05,0.98,-0.16,-1.52,1.06,0.66,0.79,-0.21,1.14,1005.91
9.823,0.06,1.02,-0.15,-1.52,1.06,0.66,0.79,-0.21,1.14,1005.91
9.823,0.06,1.05,-0.11,-1.52,1.06,0.66,0.79,-0.21,1.14,1005.91
9.824,0.11,1.09,-0.09,-1.52,1.06,0.66,0.79,-0.21,1.14,1005.91
9.824,0.11,1.09,-0.09,-1.52,1.06,0.66,0.94,-0.21,1.34,1005.91
9.869,0.11,1.09,-0.09,-1.52,1.06,0.66,0.94,-0.21,1.34,1005.91
9.878,0.14,1.11,-0.08,-1.52,1.06,0.66,0.94,-0.21,1.34,1005.91
9.878,0.08,1.13,-0.05,-1.52,1.06,0.66,0.94,-0.21,1.34,1005.91
9.878,0.10,1.15,-0.11,-1.52,1.06,0.66,0.94,-0.21,1.34,1005.91
9.878,0.10,1.15,-0.11,-2.01,2.20,1.76,0.94,-0.21,1.34,1005.91
9.88,0.10,1.15,-0.11,-2.01,2.20,1.76,1.38,-0.06,1.56,1005.91
9.915,0.10,1.15,-0.11,-2.01,2.20,1.76,1.38,-0.06,1.56,1005.91
9.936,0.10,1.16,-0.15,-2.01,2.20,1.76,1.38,-0.06,1.56,1005.91
9.937,0.04,1.28,-0.15,-2.01,2.20,1.76,1.38,-0.06,1.56,1005.91
9.937,-0.19,1.53,-0.06,-2.01,2.20,1.76,1.38,-0.06,1.56,1005.91
9.937,-0.19,1.53,-0.06,-2.01,2.20,1.76,1.77,-0.58,1.69,1005.91
9.938,-0.19,1.53,-0.06,-3.88,4.67,2.34,1.77,-0.58,1.69,1005.91
9.99,-0.19,1.53,-0.06,-3.88,4.67,2.34,1.77,-0.58,1.69,1005.92
9.994,-0.64,1.71,-0.00,-3.88,4.67,2.34,1.77,-0.58,1.69,1005.92
9.995,-1.01,1.73,0.01,-3.88,4.67,2.34,1.77,-0.58,1.69,1005.92
9.995,-0.80,1.56,0.01,-3.88,4.67,2.34,1.77,-0.58,1.69,1005.92
9.995,-0.80,1.56,0.01,-3.88,4.67,2.34,2.29,-1.08,2.22,1005.92
9.996,-0.80,1.56,0.01,-12.23,8.95,4.78,2.29,-1.08,2.22,1005.92
10.053,-0.18,1.49,-0.29,-12.23,8.95,4.78,2.29,-1.08,2.22,1005.92
10.053,0.56,1.45,-0.39,-12.23,8.95,4.78,2.29,-1.08,2.22,1005.92
10.053,1.02,1.19,-0.44,-12.23,8.95,4.78,2.29,-1.08,2.22,1005.92
10.054,1.02,1.19,-0.44,-12.23,8.95,4.78,2.55,-0.82,3.93,1005.92
10.054,1.02,1.19,-0.44,-0.86,7.91,2.25,2.55,-0.82,3.93,1005.92
10.07,1.02,1.19,-0.44,-0.86,7.91,2.25,2.55,-0.82,3.93,1005.91
10.109,1.02,1.19,-0.44,-0.86,7.91,2.25,2.55,-0.82,3.93,1005.87
10.111,0.84,0.93,-0.50,-0.86,7.91,2.25,2.55,-0.82,3.93,1005.87
10.111,0.58,0.71,-0.59,-0.86,7.91,2.25,2.55,-0.82,3.93,1005.87
10.111,0.37,0.53,-0.49,-0.86,7.91,2.25,2.55,-0.82,3.93,1005.87
10.111,0.37,0.53,-0.49,-0.86,7.91,2.25,0.16,0.02,0.51,1005.87
10.112,0.37,0.53,-0.49,0.26,1.67,0.77,0.16,0.02,0.51,1005.87
10.169,0.23,0.34,-0.21,0.26,1.67,0.77,0.16,0.02,0.51,1005.87
10.17,0.18,0.22,-0.03,0.26,1.67,0.77,0.16,0.02,0.51,1005.87
10.17,0.10,0.20,-0.12,0.26,1.67,0.77,0.16,0.02,0.51,1005.87
10.17,0.10,0.20,-0.12,0.26,1.67,0.77,-2.04,-0.10,-1.65,1005.87
10.171,0.10,0.20,-0.12,-3.28,-4.03,3.97,-2.04,-0.10,-1.65,1005.87
10.19,0.10,0.20,-0.12,-3.28,-4.03,3.97,-2.04,-0.10,-1.65,1005.87
10.228,0.13,0.34,-0.28,-3.28,-4.03,3.97,-2.04,-0.10,-1.65,1005.87
10.228,0.20,0.46,-0.32,-3.28,-4.03,3.97,-2.04,-0.10,-1.65,1005.87
10.228,0.15,0.55,-0.32,-3.28,-4.03,3.97,-2.04,-0.10,-1.65,1005.87
10.229,0.15,0.55,-0.32,-3.28,-4.03,3.97,-2.89,-0.60,-3.27,1005.87
10.229,0.15,0.55,-0.32,-1.78,-3.61,1.02,-2.89,-0.60,-3.27,1005.87
10.27,0.15,0.55,-0.32,-1.78,-3.61,1.02,-2.89,-0.60,-3.27,1005.96
10.286,0.15,0.63,-0.16,-1.78,-3.61,1.02,-2.89,-0.60,-3.27,1005.96
10.287,0.21,0.75,-0.16,-1.78,-3.61,1.02,-2.89,-0.60,-3.27,1005.96
10.287,0.15,0.99,-0.27,-1.78,-3.61,1.02,-2.89,-0.60,-3.27,1005.96
10.287,0.15,0.99,-0.27,-1.78,-3.61,1.02,-4.40,-1.63,-4.39,1005.96
10.287,0.15,0.99,-0.27,0.84,-1.59,0.04,-4.40,-1.63,-4.39,1005.96
10.31,0.15,0.99,-0.27,0.84,-1.59,0.04,-4.40,-1.63,-4.39,1005.93
10.347,0.12,1.45,-0.47,0.84,-1.59,0.04,-4.40,-1.63,-4.39,1005.93
10.348,0.42,1.86,-0.79,0.84,-1.59,0.04,-4.40,-1.63,-4.39,1005.93
10.348,0.77,1.74,-0.90,0.84,-1.59,0.04,-4.40,-1.63,-4.39,1005.93
10.348,0.77,1.74,-0.90,5.76,6.97,-7.73,-4.40,-1.63,-4.39,1005.93
10.349,0.77,1.74,-0.90,5.76,6.97,-7.73,-4.95,-1.58,-4.28,1005.93
10.391,0.77,1.74,-0.90,5.76,6.97,-7.73,-4.95,-1.58,-4.28,1005.91
10.403,0.99,1.45,-0.75,5.76,6.97,-7.73,-4.95,-1.58,-4.28,1005.91
10.403,1.13,1.15,-0.65,5.76,6.97,-7.73,-4.95,-1.58,-4.28,1005.91
10.403,1.07,0.89,-0.69,5.76,6.97,-7.73,-4.95,-1.58,-4.28,1005.91
10.404,1.07,0.89,-0.69,5.76,6.97,-7.73,-3.43,0.48,-2.30,1005.91
10.404,1.07,0.89,-0.69,13.02,2.44,-9.10,-3.43,0.48,-2.30,1005.91
10.462,0.97,0.60,-0.78,13.02,2.44,-9.10,-3.43,0.48,-2.30,1005.91
10.463,0.80,0.71,-0.80,13.02,2.44,-9.10,-3.43,0.48,-2.30,1005.91
10.463,0.44,1.38,-1.13,13.02,2.44,-9.10,-3.43,0.48,-2.30,1005.91
10.463,0.44,1.38,-1.13,13.02,2.44,-9.10,0.20,2.95,0.96,1005.91
10.463,0.44,1.38,-1.13,9.48,-0.36,-10.40,0.20,2.95,0.96,1005.91
10.47,0.44,1.38,-1.13,9.48,-0.36,-10.40,0.20,2.95,0.96,1005.86
10.51,0.44,1.38,-1.13,9.48,-0.36,-10.40,0.20,2.95,0.96,1005.86
10.519,-1.07,1.87,0.86,9.48,-0.36,-10.40,0.20,2.95,0.96,1005.86
10.52,-2.25,2.07,0.22,9.48,-0.36,-10.40,0.20,2.95,0.96,1005.86
10.52,-0.78,1.53,-1.30,9.48,-0.36,-10.40,0.20,2.95,0.96,1005.86
10.521,-0.78,1.53,-1.30,9.48,-0.36,-10.40,1.15,3.55,-0.14,1005.86
10.521,-0.78,1.53,-1.30,-10.62,8.54,-1.16,1.15,3.55,-0.14,1005.86
10.578,0.32,0.63,0.44,-10.62,8.54,-1.16,1.15,3.55,-0.14,1005.86
10.579,0.10,0.41,0.05,-10.62,8.54,-1.16,1.15,3.55,-0.14,1005.86
10.58,0.24,0.83,-0.15,-10.62,8.54,-1.16,1.15,3.55,-0.14,1005.86
10.58,0.24,0.83,-0.15,-10.62,8.54,-1.16,1.16,0.15,2.71,1005.86
10.58,0.24,0.83,-0.15,3.37,-3.45,1.35,1.16,0.15,2.71,1005.86
10.591,0.24,0.83,-0.15,3.37,-3.45,1.35,1.16,0.15,2.71,1005.92
10.636,0.44,1.24,-0.37,3.37,-3.45,1.35,1.16,0.15,2.71,1005.92
10.637,0.51,1.14,-0.28,3.37,-3.45,1.35,1.16,0.15,2.71,1005.92
10.637,0.10,0.96,-0.19,3.37,-3.45,1.35,1.16,0.15,2.71,1005.92
10.637,0.10,0.96,-0.19,3.37,-3.45,1.35,0.65,-0.06,1.38,1005.92
10.638,0.10,0.96,-0.19,3.80,1.28,-2.11,0.65,-0.06,1.38,1005.92
10.671,0.10,0.96,-0.19,3.80,1.28,-2.11,0.65,-0.06,1.38,1005.98
10.694,-0.11,0.99,-0.17,3.80,1.28,-2.11,0.65,-0.06,1.38,1005.98
10.695,-0.00,1.00,-0.04,3.80,1.28,-2.11,0.65,-0.06,1.38,1005.98
10.695,0.04,0.98,0.02,3.80,1.28,-2.11,0.65,-0.06,1.38,1005.98
10.696,0.04,0.98,0.02,3.80,1.28,-2.11,0.35,0.55,0.62,1005.98
10.696,0.04,0.98,0.02,-0.26,0.08,0.23,0.35,0.55,0.62,1005.98
10.71,0.04,0.98,0.02,-0.26,0.08,0.23,0.35,0.55,0.62,1005.94
10.753,0.02,0.97,-0.06,-0.26,0.08,0.23,0.35,0.55,0.62,1005.94
10.754,0.07,0.97,-0.10,-0.26,0.08,0.23,0.35,0.55,0.62,1005.94
10.754,0.07,0.97,-0.12,-0.26,0.08,0.23,0.35,0.55,0.62,1005.94
10.754,0.07,0.97,-0.12,-0.26,0.08,0.23,0.33,-0.02,0.58,1005.94
10.754,0.07,0.97,-0.12,0.22,-0.12,0.15,0.33,-0.02,0.58,1005.94
10.79,0.07,0.97,-0.12,0.22,-0.12,0.15,0.33,-0.02,0.58,1005.93
10.812,0.07,0.97,-0.12,-0.46,0.23,0.37,0.33,-0.02,0.58,1005.93
10.812,0.00,1.00,-0.15,-0.46,0.23,0.37,0.33,-0.02,0.58,1005.93
10.812,-0.01,1.02,-0.09,-0.46,0.23,0.37,0.33,-0.02,0.58,1005.93
10.813,0.05,0.98,-0.02,-0.46,0.23,0.37,0.33,-0.02,0.58,1005.93
10.813,0.05,0.98,-0.02,-0.46,0.23,0.37,0.36,0.01,0.51,1005.93
10.871,0.07,0.93,-0.07,-0.46,0.23,0.37,0.36,0.01,0.51,1005.93
10.871,0.08,0.93,-0.12,-0.46,0.23,0.37,0.36,0.01,0.51,1005.93
10.872,0.08,0.94,-0.12,-0.46,0.23,0.37,0.36,0.01,0.51,1005.93
10.872,0.08,0.94,-0.12,-0.17,-0.37,0.46,0.36,0.01,0.51,1005.93
10.872,0.08,0.94,-0.12,-0.17,-0.37,0.46,0.42,-0.28,0.59,1005.93
10.872,0.08,0.94,-0.12,-0.17,-0.37,0.46,0.42,-0.28,0.59,1005.93
10.91,0.08,0.94,-0.12,-0.17,-0.37,0.46,0.42,-0.28,0.59,1005.92
10.928,0.04,0.98,-0.11,-0.17,-0.37,0.46,0.42,-0.28,0.59,1005.92
10.928,0.03,1.03,-0.07,-0.17,-0.37,0.46,0.42,-0.28,0.59,1005.92
10.929,0.03,1.03,0.01,-0.17,-0.37,0.46,0.42,-0.28,0.59,1005.92
10.929,0.03,1.03,0.01,-0.17,-0.37,0.46,0.50,-0.48,0.71,1005.92
10.929,0.03,1.03,0.01,-0.91,0.52,1.22,0.50,-0.48,0.71,1005.92
10.987,-0.02,0.99,0.11,-0.91,0.52,1.22,0.50,-0.48,0.71,1005.92
10.988,-0.09,1.05,0.09,-0.91,0.52,1.22,0.50,-0.48,0.71,1005.92
10.988,-0.13,1.30,0.10,-0.91,0.52,1.22,0.50,-0.48,0.71,1005.92
10.988,-0.13,1.30,0.10,-0.91,0.52,1.22,1.03,-1.06,1.19,1005.92
10.99,-0.13,1.30,0.10,-2.48,1.68,3.33,1.03,-1.06,1.19,1005.92
10.99,-0.13,1.30,0.10,-2.48,1.68,3.33,1.03,-1.06,1.19,1005.92
11.045,-0.16,1.56,0.13,-2.48,1.68,3.33,1.03,-1.06,1.19,1005.92
11.045,-0.07,1.70,-0.03,-2.48,1.68,3.33,1.03,-1.06,1.19,1005.92
11.045,-0.01,1.62,-0.32,-2.48,1.68,3.33,1.03,-1.06,1.19,1005.92
11.045,-0.01,1.62,-0.32,-2.48,1.68,3.33,1.11,-2.32,2.11,1005.92
11.046,-0.01,1.62,-0.32,-3.17,7.03,2.44,1.11,-2.32,2.11,1005.92
11.07,-0.01,1.62,-0.32,-3.17,7.03,2.44,1.11,-2.32,2.11,1005.93
11.104,0.11,1.23,-0.42,-3.17,7.03,2.44,1.11,-2.32,2.11,1005.93
11.105,0.29,0.91,-0.25,-3.17,7.03,2.44,1.11,-2.32,2.11,1005.93
11.105,0.41,0.71,-0.44,-3.17,7.03,2.44,1.11,-2.32,2.11,1005.93
11.106,0.41,0.71,-0.44,-3.17,7.03,2.44,-0.02,-4.25,2.97,1005.93
11.106,0.41,0.71,-0.44,-0.37,0.84,0.24,-0.02,-4.25,2.97,1005.93
11.111,0.41,0.71,-0.44,-0.37,0.84,0.24,-0.02,-4.25,2.97,1005.92
11.162,0.33,0.61,-0.61,-0.37,0.84,0.24,-0.02,-4.25,2.97,1005.92
11.162,0.10,0.49,-0.61,-0.37,0.84,0.24,-0.02,-4.25,2.97,1005.92
11.163,-0.24,0.45,-0.77,-0.37,0.84,0.24,-0.02,-4.25,2.97,1005.92
11.163,-0.24,0.45,-0.77,-0.37,0.84,0.24,-2.10,-5.12,2.63,1005.92
11.163,-0.24,0.45,-0.77,-2.51,-3.32,-2.71,-2.10,-5.12,2.63,1005.92
11.191,-0.24,0.45,-0.77,-2.51,-3.32,-2.71,-2.10,-5.12,2.63,1005.89
11.22,-0.43,0.51,-0.85,-2.51,-3.32,-2.71,-2.10,-5.12,2.63,1005.89
11.221,-0.45,0.60,-1.02,-2.51,-3.32,-2.71,-2.10,-5.12,2.63,1005.89
11.221,-0.48,0.62,-0.95,-2.51,-3.32,-2.71,-2.10,-5.12,2.63,1005.89
11.222,-0.48,0.62,-0.95,-2.51,-3.32,-2.71,-3.17,-5.31,1.99,1005.89
11.222,-0.48,0.62,-0.95,-7.34,-2.98,-5.95,-3.17,-5.31,1.99,1005.89
11.271,-0.48,0.62,-0.95,-7.34,-2.98,-5.95,-3.17,-5.31,1.99,1005.89
11.278,-0.47,0.64,-0.89,-7.34,-2.98,-5.95,-3.17,-5.31,1.99,1005.89
11.279,-0.48,0.68,-0.84,-7.34,-2.98,-5.95,-3.17,-5.31,1.99,1005.89
11.279,-0.53,0.75,-0.83,-7.34,-2.98,-5.95,-3.17,-5.31,1.99,1005.89
11.28,-0.53,0.75,-0.83,-7.34,-2.98,-5.95,-3.06,-5.49,0.77,1005.89
11.28,-0.53,0.75,-0.83,-7.07,-2.25,-5.74,-3.06,-5.49,0.77,1005.89
11.311,-0.53,0.75,-0.83,-7.07,-2.25,-5.74,-3.06,-5.49,0.77,1005.88
11.338,-0.51,0.84,-0.83,-7.07,-2.25,-5.74,-3.06,-5.49,0.77,1005.88
11.339,-0.42,0.89,-0.84,-7.07,-2.25,-5.74,-3.06,-5.49,0.77,1005.88
11.34,-0.34,0.93,-0.85,-7.07,-2.25,-5.74,-3.06,-5.49,0.77,1005.88
11.34,-0.34,0.93,-0.85,-7.07,-2.25,-5.74,-2.56,-6.20,-0.32,1005.88
11.341,-0.34,0.93,-0.85,-5.31,-0.68,-6.24,-2.56,-6.20,-0.32,1005.88
11.391,-0.34,0.93,-0.85,-5.31,-0.68,-6.24,-2.56,-6.20,-0.32,1005.90
11.394,-0.21,1.00,-0.78,-5.31,-0.68,-6.24,-2.56,-6.20,-0.32,1005.90
11.395,-0.03,1.14,-0.68,-5.31,-0.68,-6.24,-2.56,-6.20,-0.32,1005.90
11.395,0.00,1.11,-0.64,-5.31,-0.68,-6.24,-2.56,-6.20,-0.32,1005.90
11.396,0.00,1.11,-0.64,-5.31,-0.68,-6.24,-2.10,-5.24,-1.07,1005.90
11.396,0.00,1.11,-0.64,-0.84,1.02,-5.74,-2.10,-5.24,-1.07,1005.90
11.454,0.00,1.11,-0.64,0.13,0.13,-4.44,-2.10,-5.24,-1.07,1005.90
11.455,-0.06,0.94,-0.56,0.13,0.13,-4.44,-2.10,-5.24,-1.07,1005.90
11.455,-0.10,0.96,-0.49,0.13,0.13,-4.44,-2.10,-5.24,-1.07,1005.90
11.455,-0.12,1.08,-0.45,0.13,0.13,-4.44,-2.10,-5.24,-1.07,1005.90
11.455,-0.12,1.08,-0.45,0.13,0.13,-4.44,-1.12,-3.55,-1.70,1005.90
11.47,-0.12,1.08,-0.45,0.13,0.13,-4.44,-1.12,-3.55,-1.70,1005.90
11.511,-0.12,1.08,-0.45,0.13,0.13,-4.44,-1.12,-3.55,-1.70,1005.90
11.512,-0.02,1.06,-0.40,0.13,0.13,-4.44,-1.12,-3.55,-1.70,1005.90
11.512,0.16,0.97,-0.36,0.13,0.13,-4.44,-1.12,-3.55,-1.70,1005.90
11.512,0.24,0.91,-0.29,0.13,0.13,-4.44,-1.12,-3.55,-1.70,1005.90
11.513,0.24,0.91,-0.29,0.13,0.13,-4.44,-0.31,-2.06,-1.16,1005.90
11.513,0.24,0.91,-0.29,2.91,0.08,-3.21,-0.31,-2.06,-1.16,1005.90
11.57,0.24,0.86,-0.16,2.91,0.08,-3.21,-0.31,-2.06,-1.16,1005.90
11.571,0.25,0.86,-0.07,2.91,0.08,-3.21,-0.31,-2.06,-1.16,1005.90
11.571,0.29,0.86,-0.01,2.91,0.08,-3.21,-0.31,-2.06,-1.16,1005.90
11.572,0.29,0.86,-0.01,2.91,0.08,-3.21,0.30,-1.15,-0.61,1005.90
11.572,0.29,0.86,-0.01,4.48,-1.01,-0.55,0.30,-1.15,-0.61,1005.90
11.59,0.29,0.86,-0.01,4.48,-1.01,-0.55,0.30,-1.15,-0.61,1005.90
11.631,0.39,0.84,0.03,4.48,-1.01,-0.55,0.30,-1.15,-0.61,1005.90
11.632,0.49,0.91,0.05,4.48,-1.01,-0.55,0.30,-1.15,-0.61,1005.90
11.632,0.47,1.01,0.23,4.48,-1.01,-0.55,0.30,-1.15,-0.61,1005.90
11.632,0.47,1.01,0.23,4.48,-1.01,-0.55,0.38,-1.20,0.36,1005.90
11.633,0.47,1.01,0.23,6.07,-0.47,1.33,0.38,-1.20,0.36,1005.90
11.67,0.47,1.01,0.23,6.07,-0.47,1.33,0.38,-1.20,0.36,1005.91
11.686,0.30,1.13,0.26,6.07,-0.47,1.33,0.38,-1.20,0.36,1005.91
11.687,-0.39,1.69,0.95,6.07,-0.47,1.33,0.38,-1.20,0.36,1005.91
11.687,-0.70,2.00,0.56,6.07,-0.47,1.33,0.38,-1.20,0.36,1005.91
11.687,-0.70,2.00,0.56,6.07,-0.47,1.33,-0.61,-0.96,1.00,1005.91
11.688,-0.70,2.00,0.56,-1.43,6.10,5.58,-0.61,-0.96,1.00,1005.91
11.711,-0.70,2.00,0.56,-1.43,6.10,5.58,-0.61,-0.96,1.00,1005.92
11.744,-0.43,0.82,-0.44,-1.43,6.10,5.58,-0.61,-0.96,1.00,1005.92
11.745,-0.09,0.52,-0.48,-1.43,6.10,5.58,-0.61,-0.96,1.00,1005.92
11.745,0.64,1.06,-0.31,-1.43,6.10,5.58,-0.61,-0.96,1.00,1005.92
11.746,0.64,1.06,-0.31,-1.43,6.10,5.58,0.66,-0.39,1.82,1005.92
11.746,0.64,1.06,-0.31,0.48,-1.85,-3.81,0.66,-0.39,1.82,1005.92
11.79,0.64,1.06,-0.31,0.48,-1.85,-3.81,0.66,-0.39,1.82,1005.91
11.803,0.69,1.25,0.16,0.48,-1.85,-3.81,0.66,-0.39,1.82,1005.91
11.804,-0.07,0.98,0.15,0.48,-1.85,-3.81,0.66,-0.39,1.82,1005.91
11.804,-0.05,0.91,-0.03,0.48,-1.85,-3.81,0.66,-0.39,1.82,1005.91
11.805,-0.05,0.91,-0.03,0.48,-1.85,-3.81,-0.04,0.03,0.96,1005.91
11.805,-0.05,0.91,-0.03,1.41,0.59,1.09,-0.04,0.03,0.96,1005.91
11.862,0.13,1.11,-0.18,1.41,0.59,1.09,-0.04,0.03,0.96,1005.91
11.863,0.16,1.13,-0.12,1.41,0.59,1.09,-0.04,0.03,0.96,1005.91
11.863,0.12,1.00,0.05,1.41,0.59,1.09,-0.04,0.03,0.96,1005.91
11.863,0.12,1.00,0.05,1.41,0.59,1.09,-0.07,-0.37,0.72,1005.91
11.863,0.12,1.00,0.05,0.48,0.91,-0.65,-0.07,-0.37,0.72,1005.91
11.87,0.12,1.00,0.05,0.48,0.91,-0.65,-0.07,-0.37,0.72,1005.90
11.911,0.12,1.00,0.05,0.48,0.91,-0.65,-0.07,-0.37,0.72,1005.90
11.919,0.10,1.01,0.07,0.48,0.91,-0.65,-0.07,-0.37,0.72,1005.90
11.922,0.11,0.97,0.09,0.48,0.91,-0.65,-0.07,-0.37,0.72,1005.90
11.922,0.13,0.93,0.09,0.48,0.91,-0.65,-0.07,-0.37,0.72,1005.90
11.923,0.13,0.93,0.09,-0.02,-0.12,1.01,-0.07,-0.37,0.72,1005.90
11.923,0.13,0.93,0.09,-0.02,-0.12,1.01,0.06,-0.20,0.46,1005.90
11.979,0.11,0.94,0.13,-0.02,-0.12,1.01,0.06,-0.20,0.46,1005.90
11.98,0.09,0.98,0.15,-0.02,-0.12,1.01,0.06,-0.20,0.46,1005.90
11.98,0.08,0.94,0.11,-0.02,-0.12,1.01,0.06,-0.20,0.46,1005.90
11.98,0.08,0.94,0.11,-0.02,-0.12,1.01,0.27,-0.18,0.49,1005.90
11.981,0.08,0.94,0.11,-0.47,-0.27,1.63,0.27,-0.18,0.49,1005.90
11.99,0.08,0.94,0.11,-0.47,-0.27,1.63,0.27,-0.18,0.49,1005.89
12.039,0.09,0.94,0.09,-0.47,-0.27,1.63,0.27,-0.18,0.49,1005.89
12.039,0.10,0.97,0.12,-0.47,-0.27,1.63,0.27,-0.18,0.49,1005.89
12.04,0.10,0.98,0.14,-0.47,-0.27,1.63,0.27,-0.18,0.49,1005.89
12.04,0.10,0.98,0.14,-0.47,-0.27,1.63,0.57,-0.02,0.72,1005.89
12.041,0.10,0.98,0.14,-0.87,-0.06,1.73,0.57,-0.02,0.72,1005.89
12.072,0.10,0.98,0.14,-0.87,-0.06,1.73,0.57,-0.02,0.72,1005.88
12.094,0.09,0.95,0.06,-0.87,-0.06,1.73,0.57,-0.02,0.72,1005.88
12.095,0.24,0.92,-0.02,-0.87,-0.06,1.73,0.57,-0.02,0.72,1005.88
12.096,0.32,0.92,-0.03,-0.87,-0.06,1.73,0.57,-0.02,0.72,1005.88
12.096,0.32,0.92,-0.03,-0.87,-0.06,1.73,0.80,0.10,0.94,1005.88
12.096,0.32,0.92,-0.03,-0.17,-0.23,1.03,0.80,0.10,0.94,1005.88
12.111,0.32,0.92,-0.03,-0.17,-0.23,1.03,0.80,0.10,0.94,1005.88
12.154,0.21,0.97,-0.08,-0.17,-0.23,1.03,0.80,0.10,0.94,1005.88
12.155,0.17,1.06,-0.14,-0.17,-0.23,1.03,0.80,0.10,0.94,1005.88
12.155,0.17,1.07,-0.17,-0.17,-0.23,1.03,0.80,0.10,0.94,1005.88
12.155,0.17,1.07,-0.17,-0.17,-0.23,1.03,0.81,0.28,0.94,1005.88
12.156,0.17,1.07,-0.17,-1.01,0.97,0.13,0.81,0.28,0.94,1005.88
12.191,0.17,1.07,-0.17,-1.01,0.97,0.13,0.81,0.28,0.94,1005.89
12.212,0.06,1.12,-0.19,-1.01,0.97,0.13,0.81,0.28,0.94,1005.89
12.212,-0.01,1.17,-0.16,-1.01,0.97,0.13,0.81,0.28,0.94,1005.89
12.212,-0.03,1.25,-0.09,-1.01,0.97,0.13,0.81,0.28,0.94,1005.89
12.213,-0.03,1.25,-0.09,-1.01,0.97,0.13,0.91,-0.39,1.23,1005.89
12.213,-0.03,1.25,-0.09,-3.29,2.64,0.50,0.91,-0.39,1.23,1005.89
12.27,-0.16,1.49,0.10,-3.29,2.64,0.50,0.91,-0.39,1.23,1005.89
12.271,-0.62,2.26,0.34,-3.29,2.64,0.50,0.91,-0.39,1.23,1005.89
12.272,-0.95,2.55,0.27,-3.29,2.64,0.50,0.91,-0.39,1.23,1005.89
12.272,-0.95,2.55,0.27,-9.67,12.17,5.34,0.91,-0.39,1.23,1005.89
12.273,-0.95,2.55,0.27,-9.67,12.17,5.34,1.61,-1.53,2.10,1005.89
12.273,-0.95,2.55,0.27,-9.67,12.17,5.34,1.61,-1.53,2.10,1005.90
12.31,-0.95,2.55,0.27,-9.67,12.17,5.34,1.61,-1.53,2.10,1005.93
12.329,-0.97,2.02,0.02,-9.67,12.17,5.34,1.61,-1.53,2.10,1005.93
12.33,-0.30,1.18,-0.30,-9.67,12.17,5.34,1.61,-1.53,2.10,1005.93
12.33,0.62,0.87,-0.63,-9.67,12.17,5.34,1.61,-1.53,2.10,1005.93
12.33,0.62,0.87,-0.63,-9.67,12.17,5.34,2.05,-3.08,3.25,1005.93
12.331,0.62,0.87,-0.63,-6.79,6.08,1.74,2.05,-3.08,3.25,1005.93
12.387,1.37,0.87,-0.63,-6.79,6.08,1.74,2.05,-3.08,3.25,1005.93
12.388,1.50,0.58,-0.50,-6.79,6.08,1.74,2.05,-3.08,3.25,1005.93
12.388,0.95,0.35,-0.57,-6.79,6.08,1.74,2.05,-3.08,3.25,1005.93
12.389,0.95,0.35,-0.57,-6.79,6.08,1.74,1.11,-0.39,2.58,1005.93
12.389,0.95,0.35,-0.57,6.79,-0.21,-0.31,1.11,-0.39,2.58,1005.93
12.391,0.95,0.35,-0.57,6.79,-0.21,-0.31,1.11,-0.39,2.58,1005.94
12.445,0.16,0.23,-0.34,6.79,-0.21,-0.31,1.11,-0.39,2.58,1005.94
12.446,-0.29,0.01,0.00,6.79,-0.21,-0.31,1.11,-0.39,2.58,1005.94
12.446,-0.56,-0.05,0.28,6.79,-0.21,-0.31,1.11,-0.39,2.58,1005.94
12.446,-0.56,-0.05,0.28,6.79,-0.21,-0.31,-1.71,0.79,-1.12,1005.94
12.447,-0.56,-0.05,0.28,-7.59,-6.25,4.09,-1.71,0.79,-1.12,1005.94
12.47,-0.56,-0.05,0.28,-7.59,-6.25,4.09,-1.71,0.79,-1.12,1005.94
12.504,-0.20,0.19,0.03,-7.59,-6.25,4.09,-1.71,0.79,-1.12,1005.94
12.505,0.09,0.43,-0.23,-7.59,-6.25,4.09,-1.71,0.79,-1.12,1005.94
12.505,0.22,0.54,-0.29,-7.59,-6.25,4.09,-1.71,0.79,-1.12,1005.94
12.506,0.22,0.54,-0.29,-3.86,-4.09,1.83,-1.71,0.79,-1.12,1005.94
12.506,0.22,0.54,-0.29,-3.86,-4.09,1.83,-2.28,-0.65,-2.12,1005.94
12.511,0.22,0.54,-0.29,-3.86,-4.09,1.83,-2.28,-0.65,-2.12,1006.00
12.562,0.21,0.61,-0.27,-3.86,-4.09,1.83,-2.28,-0.65,-2.12,1006.00
12.562,0.10,0.69,-0.23,-3.86,-4.09,1.83,-2.28,-0.65,-2.12,1006.00
12.563,-0.02,0.80,-0.25,-3.86,-4.09,1.83,-2.28,-0.65,-2.12,1006.00
12.563,-0.02,0.80,-0.25,-3.86,-4.09,1.83,-3.31,-0.81,-3.51,1006.00
12.563,-0.02,0.80,-0.25,-1.39,-2.17,-0.50,-3.31,-0.81,-3.51,1006.00
12.591,-0.02,0.80,-0.25,-1.39,-2.17,-0.50,-3.31,-0.81,-3.51,1005.97
12.621,-0.10,0.97,-0.31,-1.39,-2.17,-0.50,-3.31,-0.81,-3.51,1005.97
12.622,-0.09,1.24,-0.34,-1.39,-2.17,-0.50,-3.31,-0.81,-3.51,1005.97
12.622,-0.08,1.52,-0.43,-1.39,-2.17,-0.50,-3.31,-0.81,-3.51,1005.97
12.622,-0.08,1.52,-0.43,-1.39,-2.17,-0.50,-3.43,-1.15,-4.33,1005.97
12.623,-0.08,1.52,-0.43,-0.74,2.62,-3.31,-3.43,-1.15,-4.33,1005.97
12.671,-0.08,1.52,-0.43,-0.74,2.62,-3.31,-3.43,-1.15,-4.33,1005.93
12.678,0.08,1.67,-0.44,-0.74,2.62,-3.31,-3.43,-1.15,-4.33,1005.93
12.679,0.23,1.60,-0.33,-0.74,2.62,-3.31,-3.43,-1.15,-4.33,1005.93
12.679,0.15,1.41,-0.26,-0.74,2.62,-3.31,-3.43,-1.15,-4.33,1005.93
12.68,0.15,1.41,-0.26,-0.74,2.62,-3.31,-3.13,-0.72,-3.96,1005.93
12.68,0.15,1.41,-0.26,3.75,6.01,-4.89,-3.13,-0.72,-3.96,1005.93
12.711,0.15,1.41,-0.26,3.75,6.01,-4.89,-3.13,-0.72,-3.96,1005.88
12.737,0.18,1.20,-0.18,3.75,6.01,-4.89,-3.13,-0.72,-3.96,1005.88
12.737,0.32,1.02,-0.10,3.75,6.01,-4.89,-3.13,-0.72,-3.96,1005.88
12.737,0.41,0.85,-0.06,3.75,6.01,-4.89,-3.13,-0.72,-3.96,1005.88
12.737,0.41,0.85,-0.06,6.21,1.28,-3.48,-3.13,-0.72,-3.96,1005.88
12.738,0.41,0.85,-0.06,6.21,1.28,-3.48,-1.73,-0.18,-2.12,1005.88
12.791,0.41,0.85,-0.06,6.21,1.28,-3.48,-1.73,-0.18,-2.12,1005.87
12.796,0.37,0.82,-0.10,6.21,1.28,-3.48,-1.73,-0.18,-2.12,1005.87
12.796,0.40,0.87,-0.21,6.21,1.28,-3.48,-1.73,-0.18,-2.12,1005.87
12.797,0.52,0.88,-0.25,6.21,1.28,-3.48,-1.73,-0.18,-2.12,1005.87
12.797,0.52,0.88,-0.25,6.21,1.28,-3.48,0.42,0.55,0.66,1005.87
12.797,0.52,0.88,-0.25,7.06,-0.53,-3.83,0.42,0.55,0.66,1005.87
12.853,0.58,0.88,-0.41,7.06,-0.53,-3.83,0.42,0.55,0.66,1005.87
12.855,0.20,1.15,-0.49,7.06,-0.53,-3.83,0.42,0.55,0.66,1005.87
12.855,-1.04,1.31,0.64,7.06,-0.53,-3.83,0.42,0.55,0.66,1005.87
12.856,-1.04,1.31,0.64,7.06,-0.53,-3.83,0.99,2.10,1.59,1005.87
12.856,-1.04,1.31,0.64,1.31,1.65,-1.97,0.99,2.10,1.59,1005.87
12.872,-1.04,1.31,0.64,1.31,1.65,-1.97,0.99,2.10,1.59,1005.88
12.911,-1.04,1.31,0.64,1.31,1.65,-1.97,0.99,2.10,1.59,1005.87
12.912,-1.76,1.74,0.80,1.31,1.65,-1.97,0.99,2.10,1.59,1005.87
12.913,-0.33,2.08,-1.10,1.31,1.65,-1.97,0.99,2.10,1.59,1005.87
12.913,0.52,0.99,-1.27,1.31,1.65,-1.97,0.99,2.10,1.59,1005.87
12.914,0.52,0.99,-1.27,1.31,1.65,-1.97,1.33,1.90,1.37,1005.87
12.914,0.52,0.99,-1.27,-3.60,6.10,-5.22,1.33,1.90,1.37,1005.87
12.97,0.21,0.53,0.69,-3.60,6.10,-5.22,1.33,1.90,1.37,1005.87
12.971,-0.20,0.78,0.07,-3.60,6.10,-5.22,1.33,1.90,1.37,1005.87
12.971,0.01,1.22,-0.14,-3.60,6.10,-5.22,1.33,1.90,1.37,1005.87
12.971,0.01,1.22,-0.14,-3.60,6.10,-5.22,0.62,0.15,1.82,1005.87
12.972,0.01,1.22,-0.14,0.58,-1.40,2.29,0.62,0.15,1.82,1005.87
12.991,0.01,1.22,-0.14,0.58,-1.40,2.29,0.62,0.15,1.82,1005.91
13.032,0.01,1.22,-0.14,1.18,0.64,-0.67,0.62,0.15,1.82,1005.91
13.033,0.33,1.16,-0.29,1.18,0.64,-0.67,0.62,0.15,1.82,1005.91
13.033,0.21,0.96,-0.09,1.18,0.64,-0.67,0.62,0.15,1.82,1005.91
13.034,-0.11,1.04,-0.01,1.18,0.64,-0.67,0.62,0.15,1.82,1005.91
13.034,-0.11,1.04,-0.01,1.18,0.64,-0.67,0.59,-0.43,1.33,1005.91
13.07,-0.11,1.04,-0.01,1.18,0.64,-0.67,0.59,-0.43,1.33,1005.90
13.087,-0.01,1.01,0.03,1.18,0.64,-0.67,0.59,-0.43,1.33,1005.90
13.087,0.15,0.97,0.12,1.18,0.64,-0.67,0.59,-0.43,1.33,1005.90
13.088,0.10,0.92,0.07,1.18,0.64,-0.67,0.59,-0.43,1.33,1005.90
13.088,0.10,0.92,0.07,1.18,0.64,-0.67,0.65,-0.06,1.09,1005.90
13.088,0.10,0.92,0.07,-0.07,-0.12,1.65,0.65,-0.06,1.09,1005.90
13.111,0.10,0.92,0.07,-0.07,-0.12,1.65,0.65,-0.06,1.09,1005.89
13.144,0.08,0.98,-0.01,-0.07,-0.12,1.65,0.65,-0.06,1.09,1005.89
13.145,0.18,0.98,-0.08,-0.07,-0.12,1.65,0.65,-0.06,1.09,1005.89
13.145,0.28,0.97,-0.12,-0.07,-0.12,1.65,0.65,-0.06,1.09,1005.89
13.145,0.28,0.97,-0.12,-0.07,-0.12,1.65,0.69,-0.19,1.06,1005.89
13.145,0.28,0.97,-0.12,0.32,0.07,0.61,0.69,-0.19,1.06,1005.89
13.191,0.28,0.97,-0.12,0.32,0.07,0.61,0.69,-0.19,1.06,1005.90
13.203,0.17,1.00,-0.16,0.32,0.07,0.61,0.69,-0.19,1.06,1005.90
13.204,0.07,1.02,-0.14,0.32,0.07,0.61,0.69,-0.19,1.06,1005.90
13.204,0.14,1.05,-0.09,0.32,0.07,0.61,0.69,-0.19,1.06,1005.90
13.205,0.14,1.05,-0.09,0.32,0.07,0.61,0.68,0.29,0.95,1005.90
13.205,0.14,1.05,-0.09,-0.75,0.71,0.35,0.68,0.29,0.95,1005.90
13.261,0.14,1.05,-0.09,-1.68,1.08,1.18,0.68,0.29,0.95,1005.90
13.262,0.12,1.04,-0.06,-1.68,1.08,1.18,0.68,0.29,0.95,1005.90
13.262,0.07,1.04,-0.08,-1.68,1.08,1.18,0.68,0.29,0.95,1005.90
13.263,0.08,1.04,-0.14,-1.68,1.08,1.18,0.68,0.29,0.95,1005.90
13.263,0.08,1.04,-0.14,-1.68,1.08,1.18,0.74,-0.22,1.15,1005.90
13.27,0.08,1.04,-0.14,-1.68,1.08,1.18,0.74,-0.22,1.15,1005.90
13.311,0.08,1.04,-0.14,-1.68,1.08,1.18,0.74,-0.22,1.15,1005.89
13.322,0.08,1.03,-0.19,-1.68,1.08,1.18,0.74,-0.22,1.15,1005.89
13.323,0.07,1.05,-0.25,-1.68,1.08,1.18,0.74,-0.22,1.15,1005.89
13.323,0.14,1.07,-0.32,-1.68,1.08,1.18,0.74,-0.22,1.15,1005.89
13.323,0.14,1.07,-0.32,-1.68,1.08,1.18,0.99,-0.61,1.43,1005.89
13.324,0.14,1.07,-0.32,-2.23,1.53,0.19,0.99,-0.61,1.43,1005.89
13.378,0.15,1.05,-0.34,-2.23,1.53,0.19,0.99,-0.61,1.43,1005.89
13.378,0.01,1.10,-0.24,-2.23,1.53,0.19,0.99,-0.61,1.43,1005.89
13.379,-0.18,1.24,-0.13,-2.23,1.53,0.19,0.99,-0.61,1.43,1005.89
13.379,-0.18,1.24,-0.13,-2.23,1.53,0.19,1.35,-0.22,1.51,1005.89
13.379,-0.18,1.24,-0.13,-3.89,2.79,1.05,1.35,-0.22,1.51,1005.89
13.392,-0.18,1.24,-0.13,-3.89,2.79,1.05,1.35,-0.22,1.51,1005.91
13.437,-0.51,1.47,0.12,-3.89,2.79,1.05,1.35,-0.22,1.51,1005.91
13.438,-1.09,1.85,0.23,-3.89,2.79,1.05,1.35,-0.22,1.51,1005.91
13.438,-1.35,2.03,0.14,-3.89,2.79,1.05,1.35,-0.22,1.51,1005.91
13.438,-1.35,2.03,0.14,-3.89,2.79,1.05,2.00,-0.91,1.92,1005.91
13.439,-1.35,2.03,0.14,-13.85,9.95,5.98,2.00,-0.91,1.92,1005.91
13.471,-1.35,2.03,0.14,-13.85,9.95,5.98,2.00,-0.91,1.92,1005.92
13.496,-0.57,1.69,-0.00,-13.85,9.95,5.98,2.00,-0.91,1.92,1005.92
13.497,0.53,1.63,-0.46,-13.85,9.95,5.98,2.00,-0.91,1.92,1005.92
13.497,1.30,1.49,-0.37,-13.85,9.95,5.98,2.00,-0.91,1.92,1005.92
13.498,1.30,1.49,-0.37,-13.85,9.95,5.98,2.44,-2.09,3.66,1005.92
13.498,1.30,1.49,-0.37,-0.91,9.78,3.17,2.44,-2.09,3.66,1005.92
13.51,1.30,1.49,-0.37,-0.91,9.78,3.17,2.44,-2.09,3.66,1005.92
13.553,1.40,1.02,-0.45,-0.91,9.78,3.17,2.44,-2.09,3.66,1005.92
13.554,1.08,0.69,-0.65,-0.91,9.78,3.17,2.44,-2.09,3.66,1005.92
13.554,0.63,0.60,-0.65,-0.91,9.78,3.17,2.44,-2.09,3.66,1005.92
13.554,0.63,0.60,-0.65,-0.91,9.78,3.17,1.29,0.07,1.40,1005.92
13.555,0.63,0.60,-0.65,4.58,2.46,0.55,1.29,0.07,1.40,1005.92
13.592,0.63,0.60,-0.65,4.58,2.46,0.55,1.29,0.07,1.40,1005.91
13.612,0.32,0.36,-0.40,4.58,2.46,0.55,1.29,0.07,1.40,1005.91
13.613,0.06,0.12,-0.10,4.58,2.46,0.55,1.29,0.07,1.40,1005.91
13.613,0.04,0.01,0.14,4.58,2.46,0.55,1.29,0.07,1.40,1005.91
13.613,0.04,0.01,0.14,4.58,2.46,0.55,-1.52,0.50,-1.52,1005.91
13.614,0.04,0.01,0.14,-3.82,-4.41,4.36,-1.52,0.50,-1.52,1005.91
13.669,0.22,0.09,0.12,-3.82,-4.41,4.36,-1.52,0.50,-1.52,1005.91
13.67,0.28,0.23,-0.12,-3.82,-4.41,4.36,-1.52,0.50,-1.52,1005.91
13.67,0.29,0.36,-0.31,-3.82,-4.41,4.36,-1.52,0.50,-1.52,1005.91
13.671,0.29,0.36,-0.31,-3.82,-4.41,4.36,-2.69,-0.68,-3.18,1005.91
13.672,0.29,0.36,-0.31,-1.12,-5.36,3.55,-2.69,-0.68,-3.18,1005.91
13.672,0.29,0.36,-0.31,-1.12,-5.36,3.55,-2.69,-0.68,-3.18,1005.89
13.711,0.29,0.36,-0.31,-1.12,-5.36,3.55,-2.69,-0.68,-3.18,1005.97
13.728,0.30,0.46,-0.32,-1.12,-5.36,3.55,-2.69,-0.68,-3.18,1005.97
13.729,0.21,0.55,-0.22,-1.12,-5.36,3.55,-2.69,-0.68,-3.18,1005.97
13.729,0.15,0.73,-0.21,-1.12,-5.36,3.55,-2.69,-0.68,-3.18,1005.97
13.73,0.15,0.73,-0.21,-1.12,-5.36,3.55,-4.25,-0.71,-4.44,1005.97
13.73,0.15,0.73,-0.21,0.78,-3.39,0.12,-4.25,-0.71,-4.44,1005.97
13.786,0.24,1.06,-0.33,0.78,-3.39,0.12,-4.25,-0.71,-4.44,1005.97
13.787,0.41,1.72,-0.57,0.78,-3.39,0.12,-4.25,-0.71,-4.44,1005.97
13.787,0.52,2.03,-0.71,0.78,-3.39,0.12,-4.25,-0.71,-4.44,1005.97
13.787,0.52,2.03,-0.71,0.78,-3.39,0.12,-5.12,-0.47,-4.95,1005.97
13.787,0.52,2.03,-0.71,5.09,6.19,-5.39,-5.12,-0.47,-4.95,1005.97
13.791,0.52,2.03,-0.71,5.09,6.19,-5.39,-5.12,-0.47,-4.95,1005.95
13.846,0.56,1.80,-0.51,5.09,6.19,-5.39,-5.12,-0.47,-4.95,1005.95
13.846,0.87,1.42,-0.34,5.09,6.19,-5.39,-5.12,-0.47,-4.95,1005.95
13.847,0.95,1.01,-0.21,5.09,6.19,-5.39,-5.12,-0.47,-4.95,1005.95
13.847,0.95,1.01,-0.21,5.09,6.19,-5.39,-4.16,0.67,-3.61,1005.95
13.847,0.95,1.01,-0.21,10.88,4.99,-5.62,-4.16,0.67,-3.61,1005.95
13.871,0.95,1.01,-0.21,10.88,4.99,-5.62,-4.16,0.67,-3.61,1005.91
13.903,0.90,0.74,-0.53,10.88,4.99,-5.62,-4.16,0.67,-3.61,1005.91
13.904,0.69,0.75,-0.55,10.88,4.99,-5.62,-4.16,0.67,-3.61,1005.91
13.904,0.58,0.80,-0.30,10.88,4.99,-5.62,-4.16,0.67,-3.61,1005.91
13.904,0.58,0.80,-0.30,10.88,4.99,-5.62,-0.92,1.56,0.09,1005.91
13.904,0.58,0.80,-0.30,10.22,-1.20,-6.75,-0.92,1.56,0.09,1005.91
13.911,0.58,0.80,-0.30,10.22,-1.20,-6.75,-0.92,1.56,0.09,1005.87
13.961,0.52,0.87,-0.53,10.22,-1.20,-6.75,-0.92,1.56,0.09,1005.87
13.962,0.32,1.19,-1.09,10.22,-1.20,-6.75,-0.92,1.56,0.09,1005.87
13.962,-0.81,1.47,0.15,10.22,-1.20,-6.75,-0.92,1.56,0.09,1005.87
13.963,-0.81,1.47,0.15,10.22,-1.20,-6.75,0.71,3.45,1.55,1005.87
13.963,-0.81,1.47,0.15,2.71,2.43,-5.98,0.71,3.45,1.55,1005.87
13.992,-0.81,1.47,0.15,2.71,2.43,-5.98,0.71,3.45,1.55,1005.89
14.019,-2.07,2.02,0.46,2.71,2.43,-5.98,0.71,3.45,1.55,1005.89
14.02,-0.96,2.54,-1.48,2.71,2.43,-5.98,0.71,3.45,1.55,1005.89
14.02,-0.04,1.01,-0.34,2.71,2.43,-5.98,0.71,3.45,1.55,1005.89
14.02,-0.04,1.01,-0.34,2.71,2.43,-5.98,1.24,2.96,0.72,1005.89
14.021,-0.04,1.01,-0.34,-7.55,8.83,-4.42,1.24,2.96,0.72,1005.89
14.071,-0.04,1.01,-0.34,-7.55,8.83,-4.42,1.24,2.96,0.72,1005.90
14.078,-0.27,0.26,0.41,-7.55,8.83,-4.42,1.24,2.96,0.72,1005.90
14.078,0.17,0.53,0.06,-7.55,8.83,-4.42,1.24,2.96,0.72,1005.90
14.079,0.50,1.00,-0.14,-7.55,8.83,-4.42,1.24,2.96,0.72,1005.90
14.079,0.50,1.00,-0.14,-7.55,8.83,-4.42,0.92,-0.21,2.35,1005.90
14.08,0.50,1.00,-0.14,2.45,-3.71,1.58,0.92,-0.21,2.35,1005.90
14.111,0.50,1.00,-0.14,2.45,-3.71,1.58,0.92,-0.21,2.35,1005.92
14.136,0.67,1.21,-0.31,2.45,-3.71,1.58,0.92,-0.21,2.35,1005.92
14.136,0.31,1.05,-0.18,2.45,-3.71,1.58,0.92,-0.21,2.35,1005.92
14.137,-0.18,0.99,-0.17,2.45,-3.71,1.58,0.92,-0.21,2.35,1005.92
14.137,-0.18,0.99,-0.17,2.45,-3.71,1.58,0.39,0.11,1.11,1005.92
14.138,-0.18,0.99,-0.17,3.10,1.02,-1.42,0.39,0.11,1.11,1005.92
14.191,-0.18,0.99,-0.17,3.10,1.02,-1.42,0.39,0.11,1.11,1005.94
14.195,-0.21,1.04,-0.17,3.10,1.02,-1.42,0.39,0.11,1.11,1005.94
14.196,-0.05,1.02,0.00,3.10,1.02,-1.42,0.39,0.11,1.11,1005.94
14.196,-0.01,0.98,0.04,3.10,1.02,-1.42,0.39,0.11,1.11,1005.94
14.197,-0.01,0.98,0.04,3.10,1.02,-1.42,0.17,0.26,0.62,1005.94
14.197,-0.01,0.98,0.04,-0.75,0.30,0.40,0.17,0.26,0.62,1005.94
14.254,0.05,0.96,-0.00,-0.75,0.30,0.40,0.17,0.26,0.62,1005.94
14.255,0.05,0.99,-0.00,-0.75,0.30,0.40,0.17,0.26,0.62,1005.94
14.256,0.03,1.00,-0.03,-0.75,0.30,0.40,0.17,0.26,0.62,1005.94
14.257,0.03,1.00,-0.03,-0.75,0.30,0.40,0.24,-0.11,0.62,1005.94
14.258,0.03,1.00,-0.03,0.18,0.01,0.81,0.24,-0.11,0.62,1005.94
14.273,0.03,1.00,-0.03,0.18,0.01,0.81,0.24,-0.11,0.62,1005.93
14.312,-0.01,1.03,-0.12,0.18,0.01,0.81,0.24,-0.11,0.62,1005.93
14.313,-0.08,1.00,-0.03,0.18,0.01,0.81,0.24,-0.11,0.62,1005.93
14.313,-0.05,0.95,0.03,0.18,0.01,0.81,0.24,-0.11,0.62,1005.93
14.314,-0.05,0.95,0.03,-0.99,0.17,0.71,0.24,-0.11,0.62,1005.93
14.314,-0.05,0.95,0.03,-0.99,0.17,0.71,0.34,0.04,0.63,1005.93
14.314,-0.05,0.95,0.03,-0.99,0.17,0.71,0.34,0.04,0.63,1005.93
14.371,0.01,0.96,0.02,-0.99,0.17,0.71,0.34,0.04,0.63,1005.93
14.371,0.04,0.96,-0.01,-0.99,0.17,0.71,0.34,0.04,0.63,1005.93
14.371,0.09,0.94,-0.09,-0.99,0.17,0.71,0.34,0.04,0.63,1005.93
14.372,0.09,0.94,-0.09,-0.99,0.17,0.71,0.54,-0.18,0.87,1005.93
14.372,0.09,0.94,-0.09,-0.55,-0.15,1.14,0.54,-0.18,0.87,1005.93
14.391,0.09,0.94,-0.09,-0.55,-0.15,1.14,0.54,-0.18,0.87,1005.91
14.429,0.09,0.95,-0.12,-0.55,-0.15,1.14,0.54,-0.18,0.87,1005.91
14.429,0.07,0.96,-0.12,-0.55,-0.15,1.14,0.54,-0.18,0.87,1005.91
14.429,0.09,0.95,-0.11,-0.55,-0.15,1.14,0.54,-0.18,0.87,1005.91
14.43,0.09,0.95,-0.11,-0.55,-0.15,1.14,0.60,-0.39,1.03,1005.91
14.43,0.09,0.95,-0.11,-0.73,0.01,0.60,0.60,-0.39,1.03,1005.91
14.473,0.09,0.95,-0.11,-0.73,0.01,0.60,0.60,-0.39,1.03,1005.92
14.487,0.17,0.91,-0.05,-0.73,0.01,0.60,0.60,-0.39,1.03,1005.92
14.487,0.17,0.93,-0.06,-0.73,0.01,0.60,0.60,-0.39,1.03,1005.92
14.487,0.13,1.01,-0.05,-0.73,0.01,0.60,0.60,-0.39,1.03,1005.92
14.488,0.13,1.01,-0.05,-0.73,0.01,0.60,0.79,-0.53,1.25,1005.92
14.488,0.13,1.01,-0.05,-0.59,0.17,1.67,0.79,-0.53,1.25,1005.92
14.512,0.13,1.01,-0.05,-0.59,0.17,1.67,0.79,-0.53,1.25,1005.92
14.546,0.11,1.09,-0.08,-0.59,0.17,1.67,0.79,-0.53,1.25,1005.92
14.547,0.14,1.10,-0.06,-0.59,0.17,1.67,0.79,-0.53,1.25,1005.92
14.547,0.19,1.16,-0.04,-0.59,0.17,1.67,0.79,-0.53,1.25,1005.92
14.548,0.19,1.16,-0.04,-1.31,2.13,2.30,0.79,-0.53,1.25,1005.92
14.548,0.19,1.16,-0.04,-1.31,2.13,2.30,1.03,-1.15,1.58,1005.92
14.603,0.19,1.16,-0.04,-1.31,2.13,2.30,1.03,-1.15,1.58,1005.93
14.605,0.19,1.16,-0.04,-2.87,7.83,1.12,1.03,-1.15,1.58,1005.93
14.606,0.07,1.45,-0.04,-2.87,7.83,1.12,1.03,-1.15,1.58,1005.93
14.606,-0.02,1.82,-0.28,-2.87,7.83,1.12,1.03,-1.15,1.58,1005.93
14.607,0.07,1.69,-0.48,-2.87,7.83,1.12,1.03,-1.15,1.58,1005.93
14.607,0.07,1.69,-0.48,-2.87,7.83,1.12,0.89,-2.29,2.05,1005.93
14.663,0.28,1.20,-0.41,-2.87,7.83,1.12,0.89,-2.29,2.05,1005.93
14.663,0.39,0.90,-0.36,-2.87,7.83,1.12,0.89,-2.29,2.05,1005.93
14.664,0.48,0.69,-0.52,-2.87,7.83,1.12,0.89,-2.29,2.05,1005.93
14.664,0.48,0.69,-0.52,-2.87,7.83,1.12,-0.35,-3.83,2.69,1005.93
14.665,0.48,0.69,-0.52,0.09,1.17,0.11,-0.35,-3.83,2.69,1005.93
14.671,0.48,0.69,-0.52,0.09,1.17,0.11,-0.35,-3.83,2.69,1005.94
14.712,0.48,0.69,-0.52,0.09,1.17,0.11,-0.35,-3.83,2.69,1005.92
14.72,0.31,0.55,-0.53,0.09,1.17,0.11,-0.35,-3.83,2.69,1005.92
14.72,0.11,0.44,-0.57,0.09,1.17,0.11,-0.35,-3.83,2.69,1005.92
14.72,-0.17,0.41,-0.72,0.09,1.17,0.11,-0.35,-3.83,2.69,1005.92
14.721,-0.17,0.41,-0.72,0.09,1.17,0.11,-2.60,-5.13,2.50,1005.92
14.721,-0.17,0.41,-0.72,-2.64,-3.44,-1.70,-2.60,-5.13,2.50,1005.92
14.778,-0.17,0.41,-0.72,-7.13,-3.43,-5.52,-2.60,-5.13,2.50,1005.92
14.783,-0.39,0.44,-0.92,-7.13,-3.43,-5.52,-2.60,-5.13,2.50,1005.92
14.783,-0.46,0.50,-1.00,-7.13,-3.43,-5.52,-2.60,-5.13,2.50,1005.92
14.784,-0.37,0.54,-0.94,-7.13,-3.43,-5.52,-2.60,-5.13,2.50,1005.92
14.784,-0.37,0.54,-0.94,-7.13,-3.43,-5.52,-3.36,-5.55,2.32,1005.92
14.791,-0.37,0.54,-0.94,-7.13,-3.43,-5.52,-3.36,-5.55,2.32,1005.91
14.836,-0.35,0.63,-0.87,-7.13,-3.43,-5.52,-3.36,-5.55,2.32,1005.91
14.837,-0.52,0.66,-0.92,-7.13,-3.43,-5.52,-3.36,-5.55,2.32,1005.91
14.838,-0.66,0.68,-0.96,-7.13,-3.43,-5.52,-3.36,-5.55,2.32,1005.91
14.838,-0.66,0.68,-0.96,-7.13,-3.43,-5.52,-2.99,-5.96,1.39,1005.91
14.838,-0.66,0.68,-0.96,-7.49,-2.21,-5.55,-2.99,-5.96,1.39,1005.91
14.871,-0.66,0.68,-0.96,-7.49,-2.21,-5.55,-2.99,-5.96,1.39,1005.90
14.895,-0.51,0.69,-1.03,-7.49,-2.21,-5.55,-2.99,-5.96,1.39,1005.90
14.896,-0.26,0.70,-1.06,-7.49,-2.21,-5.55,-2.99,-5.96,1.39,1005.90
14.896,-0.10,0.79,-0.92,-7.49,-2.21,-5.55,-2.99,-5.96,1.39,1005.90
14.896,-0.10,0.79,-0.92,-7.49,-2.21,-5.55,-2.20,-5.85,0.28,1005.90
14.896,-0.10,0.79,-0.92,-4.30,-1.83,-6.71,-2.20,-5.85,0.28,1005.90
14.912,-0.10,0.79,-0.92,-4.30,-1.83,-6.71,-2.20,-5.85,0.28,1005.90
14.954,-0.05,0.90,-0.75,-4.30,-1.83,-6.71,-2.20,-5.85,0.28,1005.90
14.954,-0.05,0.96,-0.65,-4.30,-1.83,-6.71,-2.20,-5.85,0.28,1005.90
14.955,-0.04,0.92,-0.56,-4.30,-1.83,-6.71,-2.20,-5.85,0.28,1005.90
14.955,-0.04,0.92,-0.56,-4.30,-1.83,-6.71,-2.06,-3.71,-1.18,1005.90
14.956,-0.04,0.92,-0.56,-0.65,-0.25,-4.15,-2.06,-3.71,-1.18,1005.90
14.991,-0.04,0.92,-0.56,-0.65,-0.25,-4.15,-2.06,-3.71,-1.18,1005.89
15.012,-0.08,0.92,-0.40,-0.65,-0.25,-4.15,-2.06,-3.71,-1.18,1005.89
15.014,-0.04,1.04,-0.22,-0.65,-0.25,-4.15,-2.06,-3.71,-1.18,1005.89
15.015,0.12,1.16,-0.20,-0.65,-0.25,-4.15,-2.06,-3.71,-1.18,1005.89
15.016,0.12,1.16,-0.20,-0.65,-0.25,-4.15,-1.97,-2.20,-1.92,1005.89
15.017,0.12,1.16,-0.20,1.07,0.70,-1.51,-1.97,-2.20,-1.92,1005.89
15.072,0.06,1.14,-0.14,1.07,0.70,-1.51,-1.97,-2.20,-1.92,1005.89
15.074,-0.05,1.06,0.05,1.07,0.70,-1.51,-1.97,-2.20,-1.92,1005.89
15.074,-0.12,1.00,0.11,1.07,0.70,-1.51,-1.97,-2.20,-1.92,1005.89
15.075,-0.12,1.00,0.11,1.07,0.70,-1.51,-1.46,-2.41,-1.66,1005.89
15.076,-0.12,1.00,0.11,1.69,1.03,0.20,-1.46,-2.41,-1.66,1005.89
15.076,-0.12,1.00,0.11,1.69,1.03,0.20,-1.46,-2.41,-1.66,1005.89
15.112,-0.12,1.00,0.11,1.69,1.03,0.20,-1.46,-2.41,-1.66,1005.91
15.127,-0.11,0.88,-0.06,1.69,1.03,0.20,-1.46,-2.41,-1.66,1005.91
15.128,0.02,0.79,-0.26,1.69,1.03,0.20,-1.46,-2.41,-1.66,1005.91
15.128,0.22,0.75,-0.50,1.69,1.03,0.20,-1.46,-2.41,-1.66,1005.91
15.129,0.22,0.75,-0.50,1.69,1.03,0.20,-0.12,-4.67,-0.21,1005.91
15.129,0.22,0.75,-0.50,2.46,-1.51,-3.15,-0.12,-4.67,-0.21,1005.91
15.188,0.44,0.57,-0.74,2.46,-1.51,-3.15,-0.12,-4.67,-0.21,1005.91
15.19,0.73,0.52,-0.75,2.46,-1.51,-3.15,-0.12,-4.67,-0.21,1005.91
15.192,0.78,0.99,0.21,2.46,-1.51,-3.15,-0.12,-4.67,-0.21,1005.91
15.192,0.78,0.99,0.21,2.46,-1.51,-3.15,0.54,-2.76,1.34,1005.91
15.193,0.78,0.99,0.21,7.48,-2.69,-4.56,0.54,-2.76,1.34,1005.91
15.194,0.78,0.99,0.21,7.48,-2.69,-4.56,0.54,-2.76,1.34,1005.91
15.245,0.42,2.05,2.13,7.48,-2.69,-4.56,0.54,-2.76,1.34,1005.91
15.246,0.24,2.28,0.20,7.48,-2.69,-4.56,0.54,-2.76,1.34,1005.91
15.246,-1.11,1.09,-0.61,7.48,-2.69,-4.56,0.54,-2.76,1.34,1005.91
15.247,-1.11,1.09,-0.61,7.48,-2.69,-4.56,0.01,1.14,0.85,1005.91
15.247,-1.11,1.09,-0.61,-0.78,8.04,5.23,0.01,1.14,0.85,1005.91
15.271,-1.11,1.09,-0.61,-0.78,8.04,5.23,0.01,1.14,0.85,1005.89
15.306,-1.11,1.09,-0.61,-0.61,-1.79,-0.60,0.01,1.14,0.85,1005.89
15.307,-0.98,0.40,0.05,-0.61,-1.79,-0.60,0.01,1.14,0.85,1005.89
15.308,0.18,0.75,-0.17,-0.61,-1.79,-0.60,0.01,1.14,0.85,1005.89
15.308,0.71,1.25,-0.02,-0.61,-1.79,-0.60,0.01,1.14,0.85,1005.89
15.308,0.71,1.25,-0.02,-0.61,-1.79,-0.60,0.44,-0.83,1.80,1005.89
15.32,0.71,1.25,-0.02,-0.61,-1.79,-0.60,0.44,-0.83,1.80,1005.85
15.364,0.69,1.20,-0.22,-0.61,-1.79,-0.60,0.44,-0.83,1.80,1005.85
15.365,0.17,0.88,-0.02,-0.61,-1.79,-0.60,0.44,-0.83,1.80,1005.85
15.365,-0.08,0.98,0.06,-0.61,-1.79,-0.60,0.44,-0.83,1.80,1005.85
15.365,-0.08,0.98,0.06,-0.61,-1.79,-0.60,0.30,-0.34,0.83,1005.85
15.366,-0.08,0.98,0.06,1.72,0.38,-0.53,0.30,-0.34,0.83,1005.85
15.397,-0.08,0.98,0.06,1.72,0.38,-0.53,0.30,-0.34,0.83,1005.86
15.421,0.07,1.07,0.03,1.72,0.38,-0.53,0.30,-0.34,0.83,1005.86
15.422,0.25,1.02,0.03,1.72,0.38,-0.53,0.30,-0.34,0.83,1005.86
15.422,0.22,0.95,0.02,1.72,0.38,-0.53,0.30,-0.34,0.83,1005.86
15.422,0.22,0.95,0.02,1.72,0.38,-0.53,0.24,-0.51,0.60,1005.86
15.423,0.22,0.95,0.02,0.57,0.35,0.48,0.24,-0.51,0.60,1005.86
15.482,0.22,0.95,0.02,0.57,0.35,0.48,0.24,-0.51,0.60,1005.89
15.483,0.13,0.97,0.01,0.57,0.35,0.48,0.24,-0.51,0.60,1005.89
15.484,0.14,1.00,-0.04,0.57,0.35,0.48,0.24,-0.51,0.60,1005.89
15.484,0.14,1.01,-0.02,0.57,0.35,0.48,0.24,-0.51,0.60,1005.89
15.485,0.14,1.01,-0.02,0.57,0.35,0.48,0.25,-0.41,0.38,1005.89
15.485,0.14,1.01,-0.02,-0.06,0.15,0.19,0.25,-0.41,0.38,1005.89
15.511,0.14,1.01,-0.02,-0.06,0.15,0.19,0.25,-0.41,0.38,1005.90
15.535,0.05,1.01,0.05,-0.06,0.15,0.19,0.25,-0.41,0.38,1005.90
15.536,0.01,0.99,0.08,-0.06,0.15,0.19,0.25,-0.41,0.38,1005.90
15.536,0.09,0.98,0.02,-0.06,0.15,0.19,0.25,-0.41,0.38,1005.90
15.537,0.09,0.98,0.02,-0.06,0.15,0.19,0.34,-0.36,0.43,1005.90
15.537,0.09,0.98,0.02,-1.10,0.23,1.06,0.34,-0.36,0.43,1005.90
15.592,0.09,0.98,0.02,-1.10,0.23,1.06,0.34,-0.36,0.43,1005.91
15.595,0.13,1.00,-0.04,-1.10,0.23,1.06,0.34,-0.36,0.43,1005.91
15.595,0.12,0.99,-0.06,-1.10,0.23,1.06,0.34,-0.36,0.43,1005.91
15.595,0.11,0.99,-0.07,-1.10,0.23,1.06,0.34,-0.36,0.43,1005.91
15.595,0.11,0.99,-0.07,-1.10,0.23,1.06,0.46,-0.39,0.63,1005.91
15.596,0.11,0.99,-0.07,-0.74,0.28,0.32,0.46,-0.39,0.63,1005.91
15.655,0.11,1.01,-0.07,-0.74,0.28,0.32,0.46,-0.39,0.63,1005.91
15.655,0.09,1.01,-0.04,-0.74,0.28,0.32,0.46,-0.39,0.63,1005.91
15.656,0.10,1.03,-0.03,-0.74,0.28,0.32,0.46,-0.39,0.63,1005.91
15.656,0.10,1.03,-0.03,-0.74,0.28,0.32,0.55,-0.40,0.80,1005.91
15.656,0.10,1.03,-0.03,-1.31,0.63,0.73,0.55,-0.40,0.80,1005.91
15.673,0.10,1.03,-0.03,-1.31,0.63,0.73,0.55,-0.40,0.80,1005.92
15.714,0.10,1.03,-0.03,-1.62,1.01,0.94,0.55,-0.40,0.80,1005.92
15.715,0.13,1.01,-0.04,-1.62,1.01,0.94,0.55,-0.40,0.80,1005.92
15.715,0.15,1.03,-0.08,-1.62,1.01,0.94,0.55,-0.40,0.80,1005.92
15.716,0.09,1.06,-0.10,-1.62,1.01,0.94,0.55,-0.40,0.80,1005.92
15.716,0.09,1.06,-0.10,-1.62,1.01,0.94,0.73,-0.43,1.11,1005.92
15.717,0.09,1.06,-0.10,-1.62,1.01,0.94,0.73,-0.43,1.11,1005.92
15.77,0.02,1.09,-0.11,-1.62,1.01,0.94,0.73,-0.43,1.11,1005.92
15.771,0.02,1.15,-0.16,-1.62,1.01,0.94,0.73,-0.43,1.11,1005.92
15.771,0.03,1.21,-0.19,-1.62,1.01,0.94,0.73,-0.43,1.11,1005.92
15.772,0.03,1.21,-0.19,-3.30,2.52,0.72,0.73,-0.43,1.11,1005.92
15.773,0.03,1.21,-0.19,-3.30,2.52,0.72,0.98,-0.48,1.55,1005.92
15.8,0.03,1.21,-0.19,-3.30,2.52,0.72,0.98,-0.48,1.55,1005.93
15.829,0.04,1.21,-0.21,-3.30,2.52,0.72,0.98,-0.48,1.55,1005.93
15.83,-0.05,1.21,-0.20,-3.30,2.52,0.72,0.98,-0.48,1.55,1005.93
15.83,-0.29,1.47,-0.13,-3.30,2.52,0.72,0.98,-0.48,1.55,1005.93
15.83,-0.29,1.47,-0.13,-3.30,2.52,0.72,1.26,-0.70,1.94,1005.93
15.83,-0.29,1.47,-0.13,-5.25,4.53,1.26,1.26,-0.70,1.94,1005.93
15.871,-0.29,1.47,-0.13,-5.25,4.53,1.26,1.26,-0.70,1.94,1005.92
15.886,-0.75,1.96,0.06,-5.25,4.53,1.26,1.26,-0.70,1.94,1005.92
15.886,-1.26,1.87,0.28,-5.25,4.53,1.26,1.26,-0.70,1.94,1005.92
15.887,-0.69,1.44,0.22,-5.25,4.53,1.26,1.26,-0.70,1.94,1005.92
15.887,-0.69,1.44,0.22,-5.25,4.53,1.26,1.62,-1.36,2.30,1005.92
15.887,-0.69,1.44,0.22,-13.61,9.85,5.79,1.62,-1.36,2.30,1005.92
15.911,-0.69,1.44,0.22,-13.61,9.85,5.79,1.62,-1.36,2.30,1005.91
15.945,0.30,1.34,-0.36,-13.61,9.85,5.79,1.62,-1.36,2.30,1005.91
15.946,1.11,1.62,-0.58,-13.61,9.85,5.79,1.62,-1.36,2.30,1005.91
15.946,1.37,1.32,-0.60,-13.61,9.85,5.79,1.62,-1.36,2.30,1005.91
15.946,1.37,1.32,-0.60,-13.61,9.85,5.79,2.20,-1.41,4.31,1005.91
15.946,1.37,1.32,-0.60,2.97,8.42,0.24,2.20,-1.41,4.31,1005.91
15.991,1.37,1.32,-0.60,2.97,8.42,0.24,2.20,-1.41,4.31,1005.89
16.007,0.88,0.82,-0.52,2.97,8.42,0.24,2.20,-1.41,4.31,1005.89
16.007,0.50,0.70,-0.54,2.97,8.42,0.24,2.20,-1.41,4.31,1005.89
16.007,0.27,0.44,-0.32,2.97,8.42,0.24,2.20,-1.41,4.31,1005.89
16.008,0.27,0.44,-0.32,2.97,8.42,0.24,0.13,-0.67,1.49,1005.89
16.008,0.27,0.44,-0.32,-0.93,1.40,1.03,0.13,-0.67,1.49,1005.89
16.063,0.12,0.17,-0.15,-0.93,1.40,1.03,0.13,-0.67,1.49,1005.89
16.064,-0.06,0.04,-0.09,-0.93,1.40,1.03,0.13,-0.67,1.49,1005.89
16.064,-0.03,0.10,-0.16,-0.93,1.40,1.03,0.13,-0.67,1.49,1005.89
16.064,-0.03,0.10,-0.16,-0.93,1.40,1.03,-1.75,-0.44,-1.05,1005.89
16.065,-0.03,0.10,-0.16,-5.66,-4.86,3.78,-1.75,-0.44,-1.05,1005.89
16.072,-0.03,0.10,-0.16,-5.66,-4.86,3.78,-1.75,-0.44,-1.05,1005.86
16.114,-0.03,0.10,-0.16,-5.66,-4.86,3.78,-1.75,-0.44,-1.05,1005.92
16.12,0.19,0.27,-0.41,-5.66,-4.86,3.78,-1.75,-0.44,-1.05,1005.92
16.121,0.24,0.36,-0.56,-5.66,-4.86,3.78,-1.75,-0.44,-1.05,1005.92
16.122,0.20,0.38,-0.44,-5.66,-4.86,3.78,-1.75,-0.44,-1.05,1005.92
16.122,0.20,0.38,-0.44,-5.66,-4.86,3.78,-2.54,-0.68,-2.84,1005.92
16.123,0.20,0.38,-0.44,-2.39,-4.04,-0.29,-2.54,-0.68,-2.84,1005.92
16.191,0.19,0.42,-0.30,-2.39,-4.04,-0.29,-2.54,-0.68,-2.84,1005.92
16.192,0.10,0.57,-0.28,-2.39,-4.04,-0.29,-2.54,-0.68,-2.84,1005.92
16.193,0.03,0.75,-0.26,-2.39,-4.04,-0.29,-2.54,-0.68,-2.84,1005.92
16.194,0.03,0.75,-0.26,-2.39,-4.04,-0.29,-3.85,-1.42,-4.49,1005.92
16.194,0.03,0.75,-0.26,-0.94,-3.25,-0.04,-3.85,-1.42,-4.49,1005.92
16.195,0.03,0.75,-0.26,-0.94,-3.25,-0.04,-3.85,-1.42,-4.49,1005.93
16.236,0.11,0.96,-0.45,-0.94,-3.25,-0.04,-3.85,-1.42,-4.49,1005.93
16.237,0.38,1.28,-0.71,-0.94,-3.25,-0.04,-3.85,-1.42,-4.49,1005.93
16.237,0.73,1.66,-0.76,-0.94,-3.25,-0.04,-3.85,-1.42,-4.49,1005.93
16.237,0.73,1.66,-0.76,-0.94,-3.25,-0.04,-4.39,-1.15,-4.86,1005.93
16.238,0.73,1.66,-0.76,4.71,3.19,-5.80,-4.39,-1.15,-4.86,1005.93
16.272,0.73,1.66,-0.76,4.71,3.19,-5.80,-4.39,-1.15,-4.86,1005.93
16.294,0.90,1.68,-0.81,4.71,3.19,-5.80,-4.39,-1.15,-4.86,1005.93
16.295,1.01,1.53,-0.85,4.71,3.19,-5.80,-4.39,-1.15,-4.86,1005.93
16.296,1.09,1.27,-0.36,4.71,3.19,-5.80,-4.39,-1.15,-4.86,1005.93
16.296,1.09,1.27,-0.36,4.71,3.19,-5.80,-3.95,1.44,-4.18,1005.93
16.297,1.09,1.27,-0.36,12.65,5.60,-7.94,-3.95,1.44,-4.18,1005.93
16.313,1.09,1.27,-0.36,12.65,5.60,-7.94,-3.95,1.44,-4.18,1005.88
16.353,1.11,0.95,-0.49,12.65,5.60,-7.94,-3.95,1.44,-4.18,1005.88
16.354,1.07,0.61,-0.70,12.65,5.60,-7.94,-3.95,1.44,-4.18,1005.88
16.354,0.84,0.82,-0.62,12.65,5.60,-7.94,-3.95,1.44,-4.18,1005.88
16.355,0.84,0.82,-0.62,12.65,5.60,-7.94,-0.81,2.85,0.02,1005.88
16.355,0.84,0.82,-0.62,12.73,-1.18,-7.02,-0.81,2.85,0.02,1005.88
16.392,0.84,0.82,-0.62,12.73,-1.18,-7.02,-0.81,2.85,0.02,1005.85
16.41,0.41,1.55,-0.76,12.73,-1.18,-7.02,-0.81,2.85,0.02,1005.85
16.411,-1.23,1.82,1.03,12.73,-1.18,-7.02,-0.81,2.85,0.02,1005.85
16.412,-2.29,1.98,0.23,12.73,-1.18,-7.02,-0.81,2.85,0.02,1005.85
16.412,-2.29,1.98,0.23,12.73,-1.18,-7.02,0.38,3.07,-0.32,1005.85
16.412,-2.29,1.98,0.23,-6.88,8.41,1.24,0.38,3.07,-0.32,1005.85
16.469,-0.47,1.35,-1.13,-6.88,8.41,1.24,0.38,3.07,-0.32,1005.85
16.472,0.14,0.66,-0.79,-6.88,8.41,1.24,0.38,3.07,-0.32,1005.85
16.473,0.58,0.59,0.23,-6.88,8.41,1.24,0.38,3.07,-0.32,1005.85
16.474,0.58,0.59,0.23,-6.88,8.41,1.24,1.28,0.79,3.00,1005.85
16.475,0.58,0.59,0.23,2.45,-0.97,-4.99,1.28,0.79,3.00,1005.85
16.476,0.58,0.59,0.23,2.45,-0.97,-4.99,1.28,0.79,3.00,1005.87
16.512,0.58,0.59,0.23,2.45,-0.97,-4.99,1.28,0.79,3.00,1005.89
16.528,0.52,0.77,0.50,2.45,-0.97,-4.99,1.28,0.79,3.00,1005.89
16.529,-0.01,1.13,-0.21,2.45,-0.97,-4.99,1.28,0.79,3.00,1005.89
16.53,0.01,1.18,-0.30,2.45,-0.97,-4.99,1.28,0.79,3.00,1005.89
16.53,0.01,1.18,-0.30,2.45,-0.97,-4.99,0.60,-0.20,1.48,1005.89
16.531,0.01,1.18,-0.30,2.49,0.51,0.80,0.60,-0.20,1.48,1005.89
16.587,-0.03,1.08,-0.24,2.49,0.51,0.80,0.60,-0.20,1.48,1005.89
16.589,-0.03,0.97,-0.17,2.49,0.51,0.80,0.60,-0.20,1.48,1005.89
16.59,0.06,0.92,-0.13,2.49,0.51,0.80,0.60,-0.20,1.48,1005.89
16.591,0.06,0.92,-0.13,2.49,0.51,0.80,0.42,0.22,0.93,1005.89
16.592,0.06,0.92,-0.13,0.23,0.12,-0.68,0.42,0.22,0.93,1005.89
16.593,0.06,0.92,-0.13,0.23,0.12,-0.68,0.42,0.22,0.93,1005.93
16.646,0.03,0.98,-0.07,0.23,0.12,-0.68,0.42,0.22,0.93,1005.93
16.647,-0.16,1.05,-0.07,0.23,0.12,-0.68,0.42,0.22,0.93,1005.93
16.647,-0.12,0.99,-0.06,0.23,0.12,-0.68,0.42,0.22,0.93,1005.93
16.648,-0.12,0.99,-0.06,0.23,0.12,-0.68,0.26,0.10,0.73,1005.93
16.648,-0.12,0.99,-0.06,-0.97,0.33,0.56,0.26,0.10,0.73,1005.93
16.673,-0.12,0.99,-0.06,-0.97,0.33,0.56,0.26,0.10,0.73,1005.92
16.703,0.01,0.98,-0.06,-0.97,0.33,0.56,0.26,0.10,0.73,1005.92
16.704,0.04,1.00,-0.06,-0.97,0.33,0.56,0.26,0.10,0.73,1005.92
16.705,0.06,0.98,-0.03,-0.97,0.33,0.56,0.26,0.10,0.73,1005.92
16.705,0.06,0.98,-0.03,-0.97,0.33,0.56,0.41,-0.18,0.93,1005.92
16.705,0.06,0.98,-0.03,-0.30,0.18,0.93,0.41,-0.18,0.93,1005.92
16.713,0.06,0.98,-0.03,-0.30,0.18,0.93,0.41,-0.18,0.93,1005.92
16.763,0.05,0.98,-0.04,-0.30,0.18,0.93,0.41,-0.18,0.93,1005.92
16.764,0.03,0.96,-0.11,-0.30,0.18,0.93,0.41,-0.18,0.93,1005.92
16.764,0.09,0.97,-0.16,-0.30,0.18,0.93,0.41,-0.18,0.93,1005.92
16.764,0.09,0.97,-0.16,-0.30,0.18,0.93,0.59,-0.16,0.97,1005.92
16.765,0.09,0.97,-0.16,-0.62,0.10,0.72,0.59,-0.16,0.97,1005.92
16.793,0.09,0.97,-0.16,-0.62,0.10,0.72,0.59,-0.16,0.97,1005.91
16.823,0.08,1.01,-0.14,-0.62,0.10,0.72,0.59,-0.16,0.97,1005.91
16.824,0.03,1.04,-0.13,-0.62,0.10,0.72,0.59,-0.16,0.97,1005.91
16.824,-0.01,1.04,-0.15,-0.62,0.10,0.72,0.59,-0.16,0.97,1005.91
16.825,-0.01,1.04,-0.15,-0.62,0.10,0.72,0.72,-0.18,1.06,1005.91
16.825,-0.01,1.04,-0.15,-1.37,0.86,0.77,0.72,-0.18,1.06,1005.91
16.873,-0.01,1.04,-0.15,-1.37,0.86,0.77,0.72,-0.18,1.06,1005.92
16.879,-0.01,1.05,-0.15,-1.37,0.86,0.77,0.72,-0.18,1.06,1005.92
16.88,0.06,1.08,-0.15,-1.37,0.86,0.77,0.72,-0.18,1.06,1005.92
16.881,0.06,1.13,-0.13,-1.37,0.86,0.77,0.72,-0.18,1.06,1005.92
16.881,0.06,1.13,-0.13,-2.04,1.68,1.31,0.72,-0.18,1.06,1005.92
16.882,0.06,1.13,-0.13,-2.04,1.68,1.31,1.11,-0.01,1.36,1005.92
16.913,0.06,1.13,-0.13,-2.04,1.68,1.31,1.11,-0.01,1.36,1005.92
16.936,-0.02,1.17,-0.12,-2.04,1.68,1.31,1.11,-0.01,1.36,1005.92
16.937,-0.02,1.19,-0.15,-2.04,1.68,1.31,1.11,-0.01,1.36,1005.92
16.938,-0.05,1.24,-0.19,-2.04,1.68,1.31,1.11,-0.01,1.36,1005.92
16.938,-0.05,1.24,-0.19,-2.04,1.68,1.31,1.58,-0.16,1.68,1005.92
16.939,-0.05,1.24,-0.19,-3.42,3.31,2.02,1.58,-0.16,1.68,1005.92
16.992,-0.05,1.24,-0.19,-3.42,3.31,2.02,1.58,-0.16,1.68,1005.93
16.995,-0.31,1.57,-0.03,-3.42,3.31,2.02,1.58,-0.16,1.68,1005.93
16.995,-0.90,1.96,0.05,-3.42,3.31,2.02,1.58,-0.16,1.68,1005.93
16.996,-1.38,1.93,0.07,-3.42,3.31,2.02,1.58,-0.16,1.68,1005.93
16.996,-1.38,1.93,0.07,-3.42,3.31,2.02,2.05,-0.69,1.90,1005.93
16.997,-1.38,1.93,0.07,-12.13,10.13,4.82,2.05,-0.69,1.90,1005.93
17.054,-0.83,1.50,0.10,-12.13,10.13,4.82,2.05,-0.69,1.90,1005.93
17.055,0.15,1.24,-0.40,-12.13,10.13,4.82,2.05,-0.69,1.90,1005.93
17.055,0.95,1.27,-0.61,-12.13,10.13,4.82,2.05,-0.69,1.90,1005.93
17.055,0.95,1.27,-0.61,-12.13,10.13,4.82,2.38,-1.84,3.46,1005.93
17.056,0.95,1.27,-0.61,-3.57,6.78,2.96,2.38,-1.84,3.46,1005.93
17.072,0.95,1.27,-0.61,-3.57,6.78,2.96,2.38,-1.84,3.46,1005.93
17.111,1.44,0.93,-0.46,-3.57,6.78,2.96,2.38,-1.84,3.46,1005.93
17.112,1.26,0.52,-0.70,-3.57,6.78,2.96,2.38,-1.84,3.46,1005.93
17.112,0.60,0.39,-0.78,-3.57,6.78,2.96,2.38,-1.84,3.46,1005.93
17.113,0.60,0.39,-0.78,-3.57,6.78,2.96,1.61,0.17,2.00,1005.93
17.113,0.60,0.39,-0.78,5.49,0.87,0.06,1.61,0.17,2.00,1005.93
17.114,0.60,0.39,-0.78,5.49,0.87,0.06,1.61,0.17,2.00,1005.93
17.17,0.27,0.35,-0.51,5.49,0.87,0.06,1.61,0.17,2.00,1005.93
17.171,0.17,0.20,-0.02,5.49,0.87,0.06,1.61,0.17,2.00,1005.93
17.172,0.26,0.07,0.25,5.49,0.87,0.06,1.61,0.17,2.00,1005.93
17.172,0.26,0.07,0.25,5.49,0.87,0.06,-1.42,0.86,-1.06,1005.93
17.172,0.26,0.07,0.25,-2.89,-3.87,4.66,-1.42,0.86,-1.06,1005.93
17.193,0.26,0.07,0.25,-2.89,-3.87,4.66,-1.42,0.86,-1.06,1005.87
17.227,0.21,0.11,0.12,-2.89,-3.87,4.66,-1.42,0.86,-1.06,1005.87
17.228,0.25,0.21,-0.09,-2.89,-3.87,4.66,-1.42,0.86,-1.06,1005.87
17.228,0.23,0.31,-0.16,-2.89,-3.87,4.66,-1.42,0.86,-1.06,1005.87
17.229,0.23,0.31,-0.16,-2.89,-3.87,4.66,-2.28,0.61,-2.73,1005.87
17.229,0.23,0.31,-0.16,-2.01,-5.22,4.04,-2.28,0.61,-2.73,1005.87
17.273,0.23,0.31,-0.16,-2.01,-5.22,4.04,-2.28,0.61,-2.73,1005.93
17.286,0.12,0.42,-0.18,-2.01,-5.22,4.04,-2.28,0.61,-2.73,1005.93
17.287,0.11,0.58,-0.14,-2.01,-5.22,4.04,-2.28,0.61,-2.73,1005.93
17.287,0.22,0.77,-0.15,-2.01,-5.22,4.04,-2.28,0.61,-2.73,1005.93
17.288,0.22,0.77,-0.15,-2.01,-5.22,4.04,-3.59,-0.85,-4.25,1005.93
17.288,0.22,0.77,-0.15,-0.59,-3.05,1.35,-3.59,-0.85,-4.25,1005.93
17.312,0.22,0.77,-0.15,-0.59,-3.05,1.35,-3.59,-0.85,-4.25,1005.98
17.346,0.26,1.01,-0.19,-0.59,-3.05,1.35,-3.59,-0.85,-4.25,1005.98
17.346,0.23,1.46,-0.22,-0.59,-3.05,1.35,-3.59,-0.85,-4.25,1005.98
17.347,0.40,2.04,-0.56,-0.59,-3.05,1.35,-3.59,-0.85,-4.25,1005.98
17.347,0.40,2.04,-0.56,-0.59,-3.05,1.35,-4.70,-1.58,-4.80,1005.98
17.347,0.40,2.04,-0.56,3.49,5.18,-2.72,-4.70,-1.58,-4.80,1005.98
17.391,0.40,2.04,-0.56,3.49,5.18,-2.72,-4.70,-1.58,-4.80,1005.95
17.413,0.67,2.03,-0.68,3.49,5.18,-2.72,-4.70,-1.58,-4.80,1005.95
17.413,0.79,1.52,-0.53,3.49,5.18,-2.72,-4.70,-1.58,-4.80,1005.95
17.414,0.86,1.10,-0.61,3.49,5.18,-2.72,-4.70,-1.58,-4.80,1005.95
17.414,0.86,1.10,-0.61,3.49,5.18,-2.72,-4.55,-0.90,-3.36,1005.95
17.414,0.86,1.10,-0.61,9.82,6.07,-7.91,-4.55,-0.90,-3.36,1005.95
17.462,0.82,0.96,-0.66,9.82,6.07,-7.91,-4.55,-0.90,-3.36,1005.95
17.463,0.77,0.64,-0.85,9.82,6.07,-7.91,-4.55,-0.90,-3.36,1005.95
17.464,0.82,0.49,-0.81,9.82,6.07,-7.91,-4.55,-0.90,-3.36,1005.95
17.464,0.82,0.49,-0.81,9.82,6.07,-7.91,-1.25,0.53,-0.05,1005.95
17.465,0.82,0.49,-0.81,10.06,-2.10,-9.98,-1.25,0.53,-0.05,1005.95
17.473,0.82,0.49,-0.81,10.06,-2.10,-9.98,-1.25,0.53,-0.05,1005.88
17.512,0.82,0.49,-0.81,10.06,-2.10,-9.98,-1.25,0.53,-0.05,1005.84
17.521,0.52,1.03,-1.28,10.06,-2.10,-9.98,-1.25,0.53,-0.05,1005.84
17.522,-0.70,1.84,0.25,10.06,-2.10,-9.98,-1.25,0.53,-0.05,1005.84
17.523,-2.35,2.26,0.79,10.06,-2.10,-9.98,-1.25,0.53,-0.05,1005.84
17.523,-2.35,2.26,0.79,10.06,-2.10,-9.98,0.43,3.67,-0.37,1005.84
17.524,-2.35,2.26,0.79,-5.39,7.70,-2.39,0.43,3.67,-0.37,1005.84
17.578,-0.98,1.79,-1.51,-5.39,7.70,-2.39,0.43,3.67,-0.37,1005.84
17.58,0.17,0.75,0.21,-5.39,7.70,-2.39,0.43,3.67,-0.37,1005.84
17.582,0.17,0.35,0.66,-5.39,7.70,-2.39,0.43,3.67,-0.37,1005.84
17.583,0.17,0.35,0.66,-5.39,7.70,-2.39,1.47,1.61,2.09,1005.84
17.583,0.17,0.35,0.66,-0.22,0.04,-2.61,1.47,1.61,2.09,1005.84
17.592,0.17,0.35,0.66,-0.22,0.04,-2.61,1.47,1.61,2.09,1005.85
17.636,0.13,0.70,-0.14,-0.22,0.04,-2.61,1.47,1.61,2.09,1005.85
17.637,0.25,1.23,-0.27,-0.22,0.04,-2.61,1.47,1.61,2.09,1005.85
17.637,0.28,1.33,-0.26,-0.22,0.04,-2.61,1.47,1.61,2.09,1005.85
17.638,0.28,1.33,-0.26,-0.22,0.04,-2.61,0.64,-0.25,1.47,1005.85
17.638,0.28,1.33,-0.26,3.19,1.07,-2.29,0.64,-0.25,1.47,1005.85
17.673,0.28,1.33,-0.26,3.19,1.07,-2.29,0.64,-0.25,1.47,1005.94
17.695,-0.14,0.94,0.02,3.19,1.07,-2.29,0.64,-0.25,1.47,1005.94
17.695,-0.32,0.92,0.05,3.19,1.07,-2.29,0.64,-0.25,1.47,1005.94
17.696,-0.08,1.05,0.07,3.19,1.07,-2.29,0.64,-0.25,1.47,1005.94
17.696,-0.08,1.05,0.07,3.19,1.07,-2.29,0.28,0.28,0.71,1005.94
17.697,-0.08,1.05,0.07,-1.14,-0.10,0.47,0.28,0.28,0.71,1005.94
17.713,-0.08,1.05,0.07,-1.14,-0.10,0.47,0.28,0.28,0.71,1005.96
17.754,0.17,0.93,0.12,-1.14,-0.10,0.47,0.28,0.28,0.71,1005.96
17.755,0.14,0.92,0.07,-1.14,-0.10,0.47,0.28,0.28,0.71,1005.96
17.755,-0.03,1.04,-0.00,-1.14,-0.10,0.47,0.28,0.28,0.71,1005.96
17.755,-0.03,1.04,-0.00,-1.14,-0.10,0.47,0.31,0.05,0.65,1005.96
17.756,-0.03,1.04,-0.00,1.19,-0.18,0.79,0.31,0.05,0.65,1005.96
17.793,-0.03,1.04,-0.00,1.19,-0.18,0.79,0.31,0.05,0.65,1005.94
17.812,-0.12,1.02,-0.00,1.19,-0.18,0.79,0.31,0.05,0.65,1005.94
17.813,-0.10,1.01,0.04,1.19,-0.18,0.79,0.31,0.05,0.65,1005.94
17.814,-0.10,1.03,0.03,1.19,-0.18,0.79,0.31,0.05,0.65,1005.94
17.814,-0.10,1.03,0.03,1.19,-0.18,0.79,0.36,0.15,0.54,1005.94
17.815,-0.10,1.03,0.03,-1.09,0.40,0.60,0.36,0.15,0.54,1005.94
17.87,-0.09,1.00,0.05,-1.09,0.40,0.60,0.36,0.15,0.54,1005.94
17.871,0.01,0.98,0.02,-1.09,0.40,0.60,0.36,0.15,0.54,1005.94
17.871,0.07,0.98,0.00,-1.09,0.40,0.60,0.36,0.15,0.54,1005.94
17.872,0.07,0.98,0.00,-1.09,0.40,0.60,0.54,-0.20,0.74,1005.94
17.872,0.07,0.98,0.00,-0.48,0.05,0.90,0.54,-0.20,0.74,1005.94
17.873,0.07,0.98,0.00,-0.48,0.05,0.90,0.54,-0.20,0.74,1005.93
17.912,0.07,0.98,0.00,-0.48,0.05,0.90,0.54,-0.20,0.74,1005.93
17.928,0.01,0.98,-0.01,-0.48,0.05,0.90,0.54,-0.20,0.74,1005.93
17.928,0.01,0.97,-0.09,-0.48,0.05,0.90,0.54,-0.20,0.74,1005.93
17.929,0.08,0.99,-0.12,-0.48,0.05,0.90,0.54,-0.20,0.74,1005.93
17.929,0.08,0.99,-0.12,-0.48,0.05,0.90,0.59,-0.35,0.80,1005.93
17.931,0.08,0.99,-0.12,-0.51,0.06,0.30,0.59,-0.35,0.80,1005.93
17.986,0.16,0.95,-0.09,-0.51,0.06,0.30,0.59,-0.35,0.80,1005.93
17.987,0.24,0.91,-0.08,-0.51,0.06,0.30,0.59,-0.35,0.80,1005.93
17.987,0.25,0.93,-0.07,-0.51,0.06,0.30,0.59,-0.35,0.80,1005.93
17.988,0.25,0.93,-0.07,-0.51,0.06,0.30,0.50,-0.67,0.79,1005.93
17.988,0.25,0.93,-0.07,0.87,-0.35,0.54,0.50,-0.67,0.79,1005.93
17.993,0.25,0.93,-0.07,0.87,-0.35,0.54,0.50,-0.67,0.79,1005.91
18.044,0.14,0.95,-0.07,0.87,-0.35,0.54,0.50,-0.67,0.79,1005.91
18.045,0.05,0.94,0.01,0.87,-0.35,0.54,0.50,-0.67,0.79,1005.91
18.045,-0.03,0.97,0.05,0.87,-0.35,0.54,0.50,-0.67,0.79,1005.91
18.046,-0.03,0.97,0.05,0.87,-0.35,0.54,0.55,-1.10,0.72,1005.91
18.046,-0.03,0.97,0.05,-1.02,-0.00,1.67,0.55,-1.10,0.72,1005.91
18.073,-0.03,0.97,0.05,-1.02,-0.00,1.67,0.55,-1.10,0.72,1005.91
18.104,-0.07,1.12,0.06,-1.02,-0.00,1.67,0.55,-1.10,0.72,1005.91
18.104,-0.07,1.38,0.04,-1.02,-0.00,1.67,0.55,-1.10,0.72,1005.91
18.104,-0.06,1.67,0.06,-1.02,-0.00,1.67,0.55,-1.10,0.72,1005.91
18.105,-0.06,1.67,0.06,-2.65,4.43,2.79,0.55,-1.10,0.72,1005.91
18.107,-0.06,1.67,0.06,-2.65,4.43,2.79,0.85,-1.56,1.23,1005.91
18.112,-0.06,1.67,0.06,-2.65,4.43,2.79,0.85,-1.56,1.23,1005.92
18.162,0.00,1.56,-0.08,-2.65,4.43,2.79,0.85,-1.56,1.23,1005.92
18.163,-0.09,1.24,-0.29,-2.65,4.43,2.79,0.85,-1.56,1.23,1005.92
18.163,0.03,1.09,-0.50,-2.65,4.43,2.79,0.85,-1.56,1.23,1005.92
18.164,0.03,1.09,-0.50,-2.84,3.82,0.04,0.85,-1.56,1.23,1005.92
18.164,0.03,1.09,-0.50,-2.84,3.82,0.04,0.45,-2.68,2.13,1005.92
18.193,0.03,1.09,-0.50,-2.84,3.82,0.04,0.45,-2.68,2.13,1005.93
18.219,0.48,1.01,-0.29,-2.84,3.82,0.04,0.45,-2.68,2.13,1005.93
18.22,0.43,0.75,-0.22,-2.84,3.82,0.04,0.45,-2.68,2.13,1005.93
18.22,-0.11,0.71,-0.34,-2.84,3.82,0.04,0.45,-2.68,2.13,1005.93
18.22,-0.11,0.71,-0.34,-2.84,3.82,0.04,-1.31,-4.91,2.44,1005.93
18.22,-0.11,0.71,-0.34,-0.42,-0.66,0.26,-1.31,-4.91,2.44,1005.93
18.273,-0.11,0.71,-0.34,-0.42,-0.66,0.26,-1.31,-4.91,2.44,1005.93
18.279,-0.43,0.60,-0.63,-0.42,-0.66,0.26,-1.31,-4.91,2.44,1005.93
18.279,-0.54,0.53,-0.92,-0.42,-0.66,0.26,-1.31,-4.91,2.44,1005.93
18.28,-0.32,0.56,-1.09,-0.42,-0.66,0.26,-1.31,-4.91,2.44,1005.93
18.28,-0.32,0.56,-1.09,-0.42,-0.66,0.26,-2.21,-7.05,1.99,1005.93
18.281,-0.32,0.56,-1.09,-6.86,-3.17,-5.41,-2.21,-7.05,1.99,1005.93
18.312,-0.32,0.56,-1.09,-6.86,-3.17,-5.41,-2.21,-7.05,1.99,1005.94
18.343,-0.25,0.54,-1.11,-6.86,-3.17,-5.41,-2.21,-7.05,1.99,1005.94
18.344,-0.32,0.56,-1.03,-6.86,-3.17,-5.41,-2.21,-7.05,1.99,1005.94
18.345,-0.34,0.60,-1.00,-6.86,-3.17,-5.41,-2.21,-7.05,1.99,1005.94
18.345,-0.34,0.60,-1.00,-6.86,-3.17,-5.41,-2.20,-7.22,1.41,1005.94
18.345,-0.34,0.60,-1.00,-4.95,-3.31,-7.10,-2.20,-7.22,1.41,1005.94
18.392,-0.34,0.60,-1.00,-4.95,-3.31,-7.10,-2.20,-7.22,1.41,1005.91
18.394,-0.28,0.66,-1.00,-4.95,-3.31,-7.10,-2.20,-7.22,1.41,1005.91
18.395,-0.16,0.72,-0.94,-4.95,-3.31,-7.10,-2.20,-7.22,1.41,1005.91
18.395,-0.07,0.77,-0.84,-4.95,-3.31,-7.10,-2.20,-7.22,1.41,1005.91
18.395,-0.07,0.77,-0.84,-4.95,-3.31,-7.10,-1.92,-6.07,0.20,1005.91
18.396,-0.07,0.77,-0.84,-2.65,-2.12,-6.26,-1.92,-6.07,0.20,1005.91
18.453,-0.04,0.82,-0.71,-2.65,-2.12,-6.26,-1.92,-6.07,0.20,1005.91
18.454,-0.07,0.89,-0.61,-2.65,-2.12,-6.26,-1.92,-6.07,0.20,1005.91
18.455,-0.07,0.95,-0.59,-2.65,-2.12,-6.26,-1.92,-6.07,0.20,1005.91
18.455,-0.07,0.95,-0.59,-2.65,-2.12,-6.26,-1.49,-4.42,-0.93,1005.91
18.456,-0.07,0.95,-0.59,-0.40,-0.65,-4.04,-1.49,-4.42,-0.93,1005.91
18.472,-0.07,0.95,-0.59,-0.40,-0.65,-4.04,-1.49,-4.42,-0.93,1005.90
18.512,-0.02,0.98,-0.52,-0.40,-0.65,-4.04,-1.49,-4.42,-0.93,1005.90
18.514,0.02,1.01,-0.43,-0.40,-0.65,-4.04,-1.49,-4.42,-0.93,1005.90
18.515,0.05,1.00,-0.41,-0.40,-0.65,-4.04,-1.49,-4.42,-0.93,1005.90
18.517,0.05,1.00,-0.41,-0.40,-0.65,-4.04,-0.73,-3.95,-0.95,1005.90
18.518,0.05,1.00,-0.41,1.29,0.35,-2.75,-0.73,-3.95,-0.95,1005.90
18.519,0.05,1.00,-0.41,1.29,0.35,-2.75,-0.73,-3.95,-0.95,1005.90
18.572,0.12,0.93,-0.37,1.29,0.35,-2.75,-0.73,-3.95,-0.95,1005.90
18.573,0.22,0.83,-0.33,1.29,0.35,-2.75,-0.73,-3.95,-0.95,1005.90
18.574,0.35,0.79,-0.36,1.29,0.35,-2.75,-0.73,-3.95,-0.95,1005.90
18.574,0.35,0.79,-0.36,1.29,0.35,-2.75,-0.15,-4.25,0.16,1005.90
18.574,0.35,0.79,-0.36,3.60,-1.13,-2.12,-0.15,-4.25,0.16,1005.90
18.592,0.35,0.79,-0.36,3.60,-1.13,-2.12,-0.15,-4.25,0.16,1005.90
18.628,0.50,0.73,-0.35,3.60,-1.13,-2.12,-0.15,-4.25,0.16,1005.90
18.629,0.66,0.69,-0.26,3.60,-1.13,-2.12,-0.15,-4.25,0.16,1005.90
18.629,0.76,0.78,-0.31,3.60,-1.13,-2.12,-0.15,-4.25,0.16,1005.90
18.63,0.76,0.78,-0.31,3.60,-1.13,-2.12,-0.17,-3.13,1.15,1005.90
18.63,0.76,0.78,-0.31,7.06,-2.24,-1.98,-0.17,-3.13,1.15,1005.90
18.673,0.76,0.78,-0.31,7.06,-2.24,-1.98,-0.17,-3.13,1.15,1005.90
18.686,0.28,1.29,-0.10,7.06,-2.24,-1.98,-0.17,-3.13,1.15,1005.90
18.687,-0.12,2.19,0.60,7.06,-2.24,-1.98,-0.17,-3.13,1.15,1005.90
18.687,-0.26,1.51,0.34,7.06,-2.24,-1.98,-0.17,-3.13,1.15,1005.90
18.687,-0.26,1.51,0.34,7.06,-2.24,-1.98,-0.87,0.61,0.32,1005.90
18.688,-0.26,1.51,0.34,0.25,6.65,3.28,-0.87,0.61,0.32,1005.90
18.715,-0.26,1.51,0.34,0.25,6.65,3.28,-0.87,0.61,0.32,1005.88
18.744,-0.32,0.65,-0.16,0.25,6.65,3.28,-0.87,0.61,0.32,1005.88
18.745,0.03,0.79,-0.24,0.25,6.65,3.28,-0.87,0.61,0.32,1005.88
18.745,0.27,1.04,0.10,0.25,6.65,3.28,-0.87,0.61,0.32,1005.88
18.746,0.27,1.04,0.10,0.25,6.65,3.28,-0.09,0.25,0.97,1005.88
18.746,0.27,1.04,0.10,-0.00,-1.56,-0.48,-0.09,0.25,0.97,1005.88
18.793,0.27,1.04,0.10,-0.00,-1.56,-0.48,-0.09,0.25,0.97,1005.90
18.802,0.26,1.15,0.17,-0.00,-1.56,-0.48,-0.09,0.25,0.97,1005.90
18.802,0.22,1.05,-0.05,-0.00,-1.56,-0.48,-0.09,0.25,0.97,1005.90
18.803,0.06,1.01,-0.28,-0.00,-1.56,-0.48,-0.09,0.25,0.97,1005.90
