time,gFx,gFy,gFz,ax,ay,az,wx,wy,wz,P
0.021,0.06,0.97,0.25,0.01,0.00,0.08,-0.00,-0.01,0.00,1005.94
0.025,0.06,0.97,0.25,0.01,0.00,0.08,0.02,0.02,-0.01,1005.94
0.025,0.06,0.97,0.25,0.09,-0.10,0.10,0.02,0.02,-0.01,1005.94
0.045,0.04,0.98,0.29,0.09,-0.10,0.10,0.02,0.02,-0.01,1005.94
0.045,0.06,0.98,0.29,0.09,-0.10,0.10,0.02,0.02,-0.01,1005.94
0.045,0.06,0.98,0.28,0.09,-0.10,0.10,0.02,0.02,-0.01,1005.94
0.084,0.06,0.98,0.28,-0.03,0.05,0.14,0.02,0.02,-0.01,1005.94
0.084,0.06,0.98,0.28,-0.03,0.05,0.14,0.02,-0.00,0.01,1005.94
0.102,0.06,0.98,0.28,-0.03,0.05,0.14,0.02,-0.00,0.01,1005.94
0.103,0.05,0.97,0.28,-0.03,0.05,0.14,0.02,-0.00,0.01,1005.94
0.103,0.05,0.96,0.29,-0.03,0.05,0.14,0.02,-0.00,0.01,1005.94
0.104,0.05,0.97,0.28,-0.03,0.05,0.14,0.02,-0.00,0.01,1005.94
0.143,0.05,0.97,0.28,-0.02,-0.03,0.09,0.02,-0.00,0.01,1005.94
0.143,0.05,0.97,0.28,-0.02,-0.03,0.09,0.02,-0.00,0.01,1005.93
0.144,0.05,0.97,0.28,-0.02,-0.03,0.09,0.03,0.04,0.01,1005.93
0.162,0.06,0.97,0.27,-0.02,-0.03,0.09,0.03,0.04,0.01,1005.93
0.162,0.05,0.97,0.26,-0.02,-0.03,0.09,0.03,0.04,0.01,1005.93
0.162,0.05,0.99,0.26,-0.02,-0.03,0.09,0.03,0.04,0.01,1005.93
0.2,0.05,0.99,0.26,-0.02,-0.03,0.09,0.01,0.02,0.02,1005.93
0.201,0.05,0.99,0.26,-0.01,0.04,-0.09,0.01,0.02,0.02,1005.93
0.22,0.07,1.01,0.26,-0.01,0.04,-0.09,0.01,0.02,0.02,1005.93
0.22,0.08,1.00,0.27,-0.01,0.04,-0.09,0.01,0.02,0.02,1005.93
0.221,0.07,0.99,0.26,-0.01,0.04,-0.09,0.01,0.02,0.02,1005.93
0.221,0.07,0.99,0.26,-0.01,0.04,-0.09,0.01,0.02,0.02,1005.93
0.259,0.07,0.99,0.26,0.20,0.23,-0.07,0.01,0.02,0.02,1005.93
0.26,0.07,0.99,0.26,0.20,0.23,-0.07,0.04,0.13,-0.02,1005.93
0.279,0.05,0.98,0.26,0.20,0.23,-0.07,0.04,0.13,-0.02,1005.93
0.279,0.02,0.95,0.24,0.20,0.23,-0.07,0.04,0.13,-0.02,1005.93
0.28,0.01,0.94,0.24,0.20,0.23,-0.07,0.04,0.13,-0.02,1005.93
0.302,0.01,0.94,0.24,0.20,0.23,-0.07,0.04,0.13,-0.02,1005.93
0.317,0.01,0.94,0.24,0.20,0.23,-0.07,-0.03,0.15,-0.01,1005.93
0.317,0.01,0.94,0.24,-0.25,-0.20,-0.24,-0.03,0.15,-0.01,1005.93
0.338,0.05,0.96,0.26,-0.25,-0.20,-0.24,-0.03,0.15,-0.01,1005.93
0.338,0.10,0.99,0.26,-0.25,-0.20,-0.24,-0.03,0.15,-0.01,1005.93
0.339,0.14,1.02,0.28,-0.25,-0.20,-0.24,-0.03,0.15,-0.01,1005.93
0.345,0.14,1.02,0.28,-0.25,-0.20,-0.24,-0.03,0.15,-0.01,1005.93
0.376,0.14,1.02,0.28,0.53,0.13,-0.02,-0.03,0.15,-0.01,1005.93
0.376,0.14,1.02,0.28,0.53,0.13,-0.02,0.03,0.15,-0.17,1005.93
0.396,0.15,1.02,0.31,0.53,0.13,-0.02,0.03,0.15,-0.17,1005.93
0.396,0.15,0.96,0.30,0.53,0.13,-0.02,0.03,0.15,-0.17,1005.93
0.397,0.13,0.88,0.33,0.53,0.13,-0.02,0.03,0.15,-0.17,1005.93
0.423,0.13,0.88,0.33,0.53,0.13,-0.02,0.03,0.15,-0.17,1005.93
0.434,0.13,0.88,0.33,0.53,0.13,-0.02,0.10,0.22,-0.54,1005.93
0.435,0.13,0.88,0.33,1.25,-0.25,0.46,0.10,0.22,-0.54,1005.93
0.453,0.07,0.85,0.37,1.25,-0.25,0.46,0.10,0.22,-0.54,1005.93
0.454,0.05,0.92,0.39,1.25,-0.25,0.46,0.10,0.22,-0.54,1005.93
0.454,0.13,0.98,0.50,1.25,-0.25,0.46,0.10,0.22,-0.54,1005.93
0.493,0.13,0.98,0.50,0.95,-0.60,1.54,0.10,0.22,-0.54,1005.93
0.495,0.13,0.98,0.50,0.95,-0.60,1.54,0.25,0.02,-0.58,1005.93
0.505,0.13,0.98,0.50,0.95,-0.60,1.54,0.25,0.02,-0.58,1005.93
0.518,-0.04,0.99,0.44,0.95,-0.60,1.54,0.25,0.02,-0.58,1005.93
0.519,-0.15,0.95,0.33,0.95,-0.60,1.54,0.25,0.02,-0.58,1005.93
0.519,-0.14,0.91,0.39,0.95,-0.60,1.54,0.25,0.02,-0.58,1005.93
0.542,-0.14,0.91,0.39,0.95,-0.60,1.54,0.25,0.02,-0.58,1005.95
0.552,-0.14,0.91,0.39,-0.72,-0.32,1.48,0.25,0.02,-0.58,1005.95
0.553,-0.14,0.91,0.39,-0.72,-0.32,1.48,0.67,0.08,-0.35,1005.95
0.57,-0.21,0.88,0.34,-0.72,-0.32,1.48,0.67,0.08,-0.35,1005.95
0.572,-0.22,0.91,0.29,-0.72,-0.32,1.48,0.67,0.08,-0.35,1005.95
0.573,-0.15,0.99,0.21,-0.72,-0.32,1.48,0.67,0.08,-0.35,1005.95
0.609,-0.15,0.99,0.21,-0.72,-0.32,1.48,0.80,-0.09,0.08,1005.95
0.611,-0.15,0.99,0.21,-1.52,-0.62,0.87,0.80,-0.09,0.08,1005.95
0.622,-0.15,0.99,0.21,-1.52,-0.62,0.87,0.80,-0.09,0.08,1005.93
0.631,-0.08,1.04,0.20,-1.52,-0.62,0.87,0.80,-0.09,0.08,1005.93
0.634,-0.06,1.05,0.14,-1.52,-0.62,0.87,0.80,-0.09,0.08,1005.93
0.635,-0.03,1.02,0.08,-1.52,-0.62,0.87,0.80,-0.09,0.08,1005.93
0.668,-0.03,1.02,0.08,-1.52,-0.62,0.87,0.80,-0.03,0.14,1005.93
0.669,-0.03,1.02,0.08,-0.25,0.35,-0.05,0.80,-0.03,0.14,1005.93
0.687,0.03,0.99,0.07,-0.25,0.35,-0.05,0.80,-0.03,0.14,1005.93
0.688,0.06,0.99,0.07,-0.25,0.35,-0.05,0.80,-0.03,0.14,1005.93
0.689,0.05,1.00,0.07,-0.25,0.35,-0.05,0.80,-0.03,0.14,1005.93
0.71,0.05,1.00,0.07,-0.25,0.35,-0.05,0.80,-0.03,0.14,1005.92
0.726,0.05,1.00,0.07,-0.25,0.35,-0.05,0.62,0.08,-0.02,1005.92
0.728,0.05,1.00,0.07,0.75,-0.12,-0.37,0.62,0.08,-0.02,1005.92
0.744,0.05,1.00,0.07,0.75,-0.12,-0.37,0.62,0.08,-0.02,1005.92
0.749,0.04,1.02,0.04,0.75,-0.12,-0.37,0.62,0.08,-0.02,1005.92
0.75,0.04,1.09,0.03,0.75,-0.12,-0.37,0.62,0.08,-0.02,1005.92
0.75,0.03,1.12,0.03,0.75,-0.12,-0.37,0.62,0.08,-0.02,1005.92
0.785,0.03,1.12,0.03,0.75,-0.12,-0.37,0.67,0.15,-0.14,1005.92
0.787,0.03,1.12,0.03,0.69,0.66,-0.32,0.67,0.15,-0.14,1005.92
0.806,-0.05,1.10,-0.01,0.69,0.66,-0.32,0.67,0.15,-0.14,1005.92
0.808,-0.09,1.08,0.06,0.69,0.66,-0.32,0.67,0.15,-0.14,1005.92
0.809,-0.08,1.09,0.07,0.69,0.66,-0.32,0.67,0.15,-0.14,1005.92
0.822,-0.08,1.09,0.07,0.69,0.66,-0.32,0.67,0.15,-0.14,1005.91
0.844,-0.08,1.09,0.07,-0.34,0.73,0.37,0.67,0.15,-0.14,1005.91
0.845,-0.08,1.09,0.07,-0.34,0.73,0.37,1.14,0.05,-0.03,1005.91
0.864,-0.07,1.04,-0.00,-0.34,0.73,0.37,1.14,0.05,-0.03,1005.91
0.865,-0.14,1.08,-0.20,-0.34,0.73,0.37,1.14,0.05,-0.03,1005.91
0.866,-0.24,1.22,-0.28,-0.34,0.73,0.37,1.14,0.05,-0.03,1005.91
0.901,-0.24,1.22,-0.28,-0.34,0.73,0.37,1.71,-1.88,0.36,1005.91
0.903,-0.24,1.22,-0.28,-1.19,0.95,-0.62,1.71,-1.88,0.36,1005.91
0.903,-0.24,1.22,-0.28,-1.19,0.95,-0.62,1.71,-1.88,0.36,1005.91
0.922,-0.16,1.22,0.03,-1.19,0.95,-0.62,1.71,-1.88,0.36,1005.91
0.923,0.03,1.16,-0.01,-1.19,0.95,-0.62,1.71,-1.88,0.36,1005.91
0.924,0.07,1.03,-0.08,-1.19,0.95,-0.62,1.71,-1.88,0.36,1005.91
0.943,0.07,1.03,-0.08,-1.19,0.95,-0.62,1.71,-1.88,0.36,1005.88
0.959,0.07,1.03,-0.08,-1.19,0.95,-0.62,2.17,-2.82,0.65,1005.88
0.961,0.07,1.03,-0.08,-0.01,1.33,1.92,2.17,-2.82,0.65,1005.88
0.981,-0.02,0.84,-0.10,-0.01,1.33,1.92,2.17,-2.82,0.65,1005.88
0.984,-0.08,0.83,-0.13,-0.01,1.33,1.92,2.17,-2.82,0.65,1005.88
0.985,-0.21,0.96,-0.07,-0.01,1.33,1.92,2.17,-2.82,0.65,1005.88
1.021,-0.21,0.96,-0.07,-0.01,1.33,1.92,2.28,-3.93,0.29,1005.88
1.023,-0.21,0.96,-0.07,-0.36,-0.82,2.21,2.28,-3.93,0.29,1005.88
1.024,-0.21,0.96,-0.07,-0.36,-0.82,2.21,2.28,-3.93,0.29,1005.88
1.04,-0.52,1.24,-0.06,-0.36,-0.82,2.21,2.28,-3.93,0.29,1005.88
1.041,-0.76,1.46,-0.14,-0.36,-0.82,2.21,2.28,-3.93,0.29,1005.88
1.042,-0.54,1.45,-0.26,-0.36,-0.82,2.21,2.28,-3.93,0.29,1005.88
1.076,-0.54,1.45,-0.26,-0.36,-0.82,2.21,1.80,-5.31,-0.30,1005.88
1.077,-0.54,1.45,-0.26,-3.87,4.33,2.22,1.80,-5.31,-0.30,1005.88
1.098,0.02,1.30,-0.29,-3.87,4.33,2.22,1.80,-5.31,-0.30,1005.88
1.1,0.38,1.11,-0.17,-3.87,4.33,2.22,1.80,-5.31,-0.30,1005.88
1.101,0.46,0.89,-0.04,-3.87,4.33,2.22,1.80,-5.31,-0.30,1005.88
1.103,0.46,0.89,-0.04,-3.87,4.33,2.22,1.80,-5.31,-0.30,1005.91
1.136,0.46,0.89,-0.04,-3.87,4.33,2.22,0.49,-4.48,-0.32,1005.91
1.137,0.46,0.89,-0.04,5.75,1.71,1.58,0.49,-4.48,-0.32,1005.91
1.155,0.46,0.89,-0.04,5.75,1.71,1.58,0.49,-4.48,-0.32,1005.92
1.156,0.48,0.79,-0.00,5.75,1.71,1.58,0.49,-4.48,-0.32,1005.92
1.157,0.58,0.74,0.02,5.75,1.71,1.58,0.49,-4.48,-0.32,1005.92
1.158,0.64,0.64,0.02,5.75,1.71,1.58,0.49,-4.48,-0.32,1005.92
1.193,0.64,0.64,0.02,5.75,1.71,1.58,-0.32,-2.41,1.10,1005.92
1.194,0.64,0.64,0.02,8.06,-2.16,2.66,-0.32,-2.41,1.10,1005.92
1.214,0.61,0.59,0.01,8.06,-2.16,2.66,-0.32,-2.41,1.10,1005.92
1.216,0.48,0.64,-0.04,8.06,-2.16,2.66,-0.32,-2.41,1.10,1005.92
1.217,0.34,0.70,-0.10,8.06,-2.16,2.66,-0.32,-2.41,1.10,1005.92
1.226,0.34,0.70,-0.10,8.06,-2.16,2.66,-0.32,-2.41,1.10,1005.93
1.253,0.34,0.70,-0.10,8.06,-2.16,2.66,-0.66,-0.55,2.66,1005.93
1.255,0.34,0.70,-0.10,5.56,-3.22,1.62,-0.66,-0.55,2.66,1005.93
1.272,0.21,0.78,-0.17,5.56,-3.22,1.62,-0.66,-0.55,2.66,1005.93
1.274,0.09,0.90,-0.22,5.56,-3.22,1.62,-0.66,-0.55,2.66,1005.93
1.275,-0.04,1.03,-0.24,5.56,-3.22,1.62,-0.66,-0.55,2.66,1005.93
1.302,-0.04,1.03,-0.24,5.56,-3.22,1.62,-0.66,-0.55,2.66,1005.94
1.309,-0.04,1.03,-0.24,5.56,-3.22,1.62,-0.86,-0.55,3.77,1005.94
1.311,-0.04,1.03,-0.24,-0.26,-0.71,-0.47,-0.86,-0.55,3.77,1005.94
1.329,-0.15,1.14,-0.22,-0.26,-0.71,-0.47,-0.86,-0.55,3.77,1005.94
1.33,-0.18,1.22,-0.18,-0.26,-0.71,-0.47,-0.86,-0.55,3.77,1005.94
1.331,-0.12,1.24,-0.13,-0.26,-0.71,-0.47,-0.86,-0.55,3.77,1005.94
1.343,-0.12,1.24,-0.13,-0.26,-0.71,-0.47,-0.86,-0.55,3.77,1005.92
1.367,-0.12,1.24,-0.13,-0.26,-0.71,-0.47,-0.93,-1.19,3.94,1005.92
1.369,-0.12,1.24,-0.13,-4.48,2.52,-0.49,-0.93,-1.19,3.94,1005.92
1.387,-0.14,1.23,-0.16,-4.48,2.52,-0.49,-0.93,-1.19,3.94,1005.92
1.389,-0.21,1.23,-0.22,-4.48,2.52,-0.49,-0.93,-1.19,3.94,1005.92
1.39,-0.28,1.27,-0.29,-4.48,2.52,-0.49,-0.93,-1.19,3.94,1005.92
1.422,-0.28,1.27,-0.29,-4.48,2.52,-0.49,-0.93,-1.19,3.94,1005.90
1.425,-0.28,1.27,-0.29,-4.48,2.52,-0.49,-0.89,-1.75,3.18,1005.90
1.426,-0.28,1.27,-0.29,-6.46,3.49,-1.00,-0.89,-1.75,3.18,1005.90
1.446,-0.31,1.22,-0.25,-6.46,3.49,-1.00,-0.89,-1.75,3.18,1005.90
1.449,-0.36,1.14,-0.07,-6.46,3.49,-1.00,-0.89,-1.75,3.18,1005.90
1.45,-0.47,1.07,-0.17,-6.46,3.49,-1.00,-0.89,-1.75,3.18,1005.90
1.484,-0.47,1.07,-0.17,-6.46,3.49,-1.00,-0.82,-1.70,0.58,1005.90
1.485,-0.47,1.07,-0.17,-8.05,2.51,-0.35,-0.82,-1.70,0.58,1005.90
1.507,-0.47,1.07,-0.17,-8.05,2.51,-0.35,-0.82,-1.70,0.58,1005.89
1.508,-0.51,0.96,-0.17,-8.05,2.51,-0.35,-0.82,-1.70,0.58,1005.89
1.509,-0.47,0.95,-0.09,-8.05,2.51,-0.35,-0.82,-1.70,0.58,1005.89
1.51,-0.42,1.03,-0.24,-8.05,2.51,-0.35,-0.82,-1.70,0.58,1005.89
1.543,-0.42,1.03,-0.24,-8.05,2.51,-0.35,-0.35,-0.90,-1.10,1005.89
1.546,-0.42,1.03,-0.24,-8.05,2.51,-0.35,-0.35,-0.90,-1.10,1005.90
1.547,-0.42,1.03,-0.24,-8.00,0.66,-0.33,-0.35,-0.90,-1.10,1005.90
1.562,0.14,1.31,-0.56,-8.00,0.66,-0.33,-0.35,-0.90,-1.10,1005.90
1.563,1.60,1.27,-0.21,-8.00,0.66,-0.33,-0.35,-0.90,-1.10,1005.90
1.563,1.83,1.38,-0.00,-8.00,0.66,-0.33,-0.35,-0.90,-1.10,1005.90
1.606,1.83,1.38,-0.00,9.06,3.48,-1.35,-0.35,-0.90,-1.10,1005.90
1.608,1.83,1.38,-0.00,9.06,3.48,-1.35,-0.34,-0.05,-2.04,1005.90
1.621,-0.29,1.43,-0.51,9.06,3.48,-1.35,-0.34,-0.05,-2.04,1005.90
1.622,-0.85,0.92,-0.29,9.06,3.48,-1.35,-0.34,-0.05,-2.04,1005.90
1.623,-0.13,0.64,0.29,9.06,3.48,-1.35,-0.34,-0.05,-2.04,1005.90
1.623,-0.13,0.64,0.29,9.06,3.48,-1.35,-0.34,-0.05,-2.04,1005.90
1.659,-0.13,0.64,0.29,9.06,3.48,-1.35,-0.29,-0.18,-1.62,1005.90
1.661,-0.13,0.64,0.29,-5.70,0.11,-0.60,-0.29,-0.18,-1.62,1005.90
1.68,0.30,0.91,0.26,-5.70,0.11,-0.60,-0.29,-0.18,-1.62,1005.90
1.682,0.18,1.14,-0.08,-5.70,0.11,-0.60,-0.29,-0.18,-1.62,1005.90
1.682,-0.29,1.09,-0.13,-5.70,0.11,-0.60,-0.29,-0.18,-1.62,1005.90
1.703,-0.29,1.09,-0.13,-5.70,0.11,-0.60,-0.29,-0.18,-1.62,1005.90
1.725,-0.29,1.09,-0.13,-5.70,0.11,-0.60,-0.10,0.02,-1.22,1005.90
1.727,-0.29,1.09,-0.13,-0.21,0.48,1.13,-0.10,0.02,-1.22,1005.90
1.74,-0.13,0.99,-0.20,-0.21,0.48,1.13,-0.10,0.02,-1.22,1005.90
1.742,0.16,1.00,-0.13,-0.21,0.48,1.13,-0.10,0.02,-1.22,1005.90
1.743,0.07,1.03,-0.02,-0.21,0.48,1.13,-0.10,0.02,-1.22,1005.90
1.743,0.07,1.03,-0.02,-0.21,0.48,1.13,-0.10,0.02,-1.22,1005.92
1.777,0.07,1.03,-0.02,-0.21,0.48,1.13,-0.01,-0.12,-1.03,1005.92
1.778,0.07,1.03,-0.02,0.09,0.06,-0.17,-0.01,-0.12,-1.03,1005.92
1.796,-0.08,1.01,0.06,0.09,0.06,-0.17,-0.01,-0.12,-1.03,1005.92
1.797,-0.14,0.98,-0.01,0.09,0.06,-0.17,-0.01,-0.12,-1.03,1005.92
1.797,-0.05,1.00,-0.07,0.09,0.06,-0.17,-0.01,-0.12,-1.03,1005.92
1.823,-0.05,1.00,-0.07,0.09,0.06,-0.17,-0.01,-0.12,-1.03,1005.93
1.838,-0.05,1.00,-0.07,-0.68,-0.07,0.95,-0.01,-0.12,-1.03,1005.93
1.839,-0.05,1.00,-0.07,-0.68,-0.07,0.95,0.09,-0.04,-0.80,1005.93
1.854,-0.03,1.01,-0.10,-0.68,-0.07,0.95,0.09,-0.04,-0.80,1005.93
1.855,-0.12,1.03,-0.08,-0.68,-0.07,0.95,0.09,-0.04,-0.80,1005.93
1.855,-0.05,1.02,-0.05,-0.68,-0.07,0.95,0.09,-0.04,-0.80,1005.93
1.892,-0.05,1.02,-0.05,-0.68,-0.07,0.95,0.14,-0.11,-0.81,1005.93
1.893,-0.05,1.02,-0.05,0.07,0.18,0.32,0.14,-0.11,-0.81,1005.93
1.904,-0.05,1.02,-0.05,0.07,0.18,0.32,0.14,-0.11,-0.81,1005.95
1.912,0.03,1.03,-0.05,0.07,0.18,0.32,0.14,-0.11,-0.81,1005.95
1.914,0.01,0.99,-0.07,0.07,0.18,0.32,0.14,-0.11,-0.81,1005.95
1.915,0.01,1.02,-0.19,0.07,0.18,0.32,0.14,-0.11,-0.81,1005.95
1.942,0.01,1.02,-0.19,0.07,0.18,0.32,0.14,-0.11,-0.81,1005.94
1.951,0.01,1.02,-0.19,0.07,0.18,0.32,0.32,-0.28,-1.25,1005.94
1.952,0.01,1.02,-0.19,1.57,0.25,0.21,0.32,-0.28,-1.25,1005.94
1.97,-0.03,1.02,-0.06,1.57,0.25,0.21,0.32,-0.28,-1.25,1005.94
1.972,-0.10,1.08,-0.01,1.57,0.25,0.21,0.32,-0.28,-1.25,1005.94
1.972,-0.16,1.18,-0.10,1.57,0.25,0.21,0.32,-0.28,-1.25,1005.94
2.011,-0.16,1.18,-0.10,1.22,1.20,0.92,0.32,-0.28,-1.25,1005.94
2.013,-0.16,1.18,-0.10,1.22,1.20,0.92,0.56,-0.45,-1.40,1005.94
2.023,-0.16,1.18,-0.10,1.22,1.20,0.92,0.56,-0.45,-1.40,1005.92
2.029,-0.14,1.14,-0.19,1.22,1.20,0.92,0.56,-0.45,-1.40,1005.92
2.03,-0.10,1.07,-0.09,1.22,1.20,0.92,0.56,-0.45,-1.40,1005.92
2.03,-0.35,1.09,0.00,1.22,1.20,0.92,0.56,-0.45,-1.40,1005.92
2.067,-0.35,1.09,0.00,1.22,1.20,0.92,0.62,-0.23,-1.16,1005.92
2.069,-0.35,1.09,0.00,0.92,1.45,0.87,0.62,-0.23,-1.16,1005.92
2.087,-0.39,1.24,-0.07,0.92,1.45,0.87,0.62,-0.23,-1.16,1005.92
2.089,0.04,1.27,-0.17,0.92,1.45,0.87,0.62,-0.23,-1.16,1005.92
2.089,0.64,1.16,-0.18,0.92,1.45,0.87,0.62,-0.23,-1.16,1005.92
2.103,0.64,1.16,-0.18,0.92,1.45,0.87,0.62,-0.23,-1.16,1005.92
2.127,0.64,1.16,-0.18,0.92,1.45,0.87,0.86,-0.22,-1.78,1005.92
2.129,0.64,1.16,-0.18,4.66,3.04,0.80,0.86,-0.22,-1.78,1005.92
2.143,0.64,1.16,-0.18,4.66,3.04,0.80,0.86,-0.22,-1.78,1005.93
2.145,0.84,1.14,-0.15,4.66,3.04,0.80,0.86,-0.22,-1.78,1005.93
2.146,0.80,1.31,-0.06,4.66,3.04,0.80,0.86,-0.22,-1.78,1005.93
2.147,0.79,1.50,-0.19,4.66,3.04,0.80,0.86,-0.22,-1.78,1005.93
2.186,0.79,1.50,-0.19,4.66,3.04,0.80,0.95,0.24,-3.34,1005.93
2.188,0.79,1.50,-0.19,12.96,4.88,1.32,0.95,0.24,-3.34,1005.93
2.204,0.78,1.81,-0.01,12.96,4.88,1.32,0.95,0.24,-3.34,1005.93
2.206,0.29,1.81,0.16,12.96,4.88,1.32,0.95,0.24,-3.34,1005.93
2.207,-0.47,1.91,0.08,12.96,4.88,1.32,0.95,0.24,-3.34,1005.93
2.232,-0.47,1.91,0.08,12.96,4.88,1.32,0.95,0.24,-3.34,1005.94
2.242,-0.47,1.91,0.08,12.96,4.88,1.32,1.15,0.50,-4.00,1005.94
2.243,-0.47,1.91,0.08,8.41,11.32,3.99,1.15,0.50,-4.00,1005.94
2.266,-0.76,1.69,0.22,8.41,11.32,3.99,1.15,0.50,-4.00,1005.94
2.267,-0.80,1.25,0.03,8.41,11.32,3.99,1.15,0.50,-4.00,1005.94
2.267,-0.80,0.89,-0.20,8.41,11.32,3.99,1.15,0.50,-4.00,1005.94
2.31,-0.80,0.89,-0.20,8.41,11.32,3.99,0.40,-1.37,-0.47,1005.94
2.311,-0.80,0.89,-0.20,-0.83,5.92,2.93,0.40,-1.37,-0.47,1005.94
2.312,-0.80,0.89,-0.20,-0.83,5.92,2.93,0.40,-1.37,-0.47,1005.94
2.332,-0.71,0.66,-0.25,-0.83,5.92,2.93,0.40,-1.37,-0.47,1005.94
2.333,-0.34,0.25,-0.22,-0.83,5.92,2.93,0.40,-1.37,-0.47,1005.94
2.334,-0.08,-0.01,-0.01,-0.83,5.92,2.93,0.40,-1.37,-0.47,1005.94
2.342,-0.08,-0.01,-0.01,-0.83,5.92,2.93,0.40,-1.37,-0.47,1005.91
2.361,-0.08,-0.01,-0.01,-0.83,5.92,2.93,-0.46,-0.56,3.45,1005.91
2.362,-0.08,-0.01,-0.01,1.78,-4.89,0.77,-0.46,-0.56,3.45,1005.91
2.379,-0.06,-0.07,0.18,1.78,-4.89,0.77,-0.46,-0.56,3.45,1005.91
2.381,-0.18,0.05,0.12,1.78,-4.89,0.77,-0.46,-0.56,3.45,1005.91
2.382,-0.13,0.28,-0.09,1.78,-4.89,0.77,-0.46,-0.56,3.45,1005.91
2.423,-0.13,0.28,-0.09,1.56,-8.16,2.72,-0.46,-0.56,3.45,1005.91
2.425,-0.13,0.28,-0.09,1.56,-8.16,2.72,-0.56,0.11,5.39,1005.91
2.426,-0.13,0.28,-0.09,1.56,-8.16,2.72,-0.56,0.11,5.39,1005.95
2.437,-0.06,0.53,-0.24,1.56,-8.16,2.72,-0.56,0.11,5.39,1005.95
2.441,-0.14,0.69,-0.08,1.56,-8.16,2.72,-0.56,0.11,5.39,1005.95
2.442,-0.13,0.80,-0.19,1.56,-8.16,2.72,-0.56,0.11,5.39,1005.95
2.476,-0.13,0.80,-0.19,1.56,-8.16,2.72,-1.26,1.13,6.48,1005.95
2.477,-0.13,0.80,-0.19,-1.93,-2.86,-0.25,-1.26,1.13,6.48,1005.95
2.495,-0.14,0.98,-0.30,-1.93,-2.86,-0.25,-1.26,1.13,6.48,1005.95
2.496,-0.27,1.32,-0.28,-1.93,-2.86,-0.25,-1.26,1.13,6.48,1005.95
2.497,-0.48,1.79,-0.45,-1.93,-2.86,-0.25,-1.26,1.13,6.48,1005.95
2.507,-0.48,1.79,-0.45,-1.93,-2.86,-0.25,-1.26,1.13,6.48,1005.94
2.536,-0.48,1.79,-0.45,-1.93,-2.86,-0.25,-1.80,0.91,6.09,1005.94
2.537,-0.48,1.79,-0.45,-6.96,4.63,-2.99,-1.80,0.91,6.09,1005.94
2.542,-0.48,1.79,-0.45,-6.96,4.63,-2.99,-1.80,0.91,6.09,1005.91
2.556,-0.75,2.13,-0.42,-6.96,4.63,-2.99,-1.80,0.91,6.09,1005.91
2.557,-0.92,2.05,-0.35,-6.96,4.63,-2.99,-1.80,0.91,6.09,1005.91
2.558,-1.29,1.47,-0.05,-6.96,4.63,-2.99,-1.80,0.91,6.09,1005.91
2.593,-1.29,1.47,-0.05,-6.96,4.63,-2.99,-1.39,0.18,1.95,1005.91
2.595,-1.29,1.47,-0.05,-14.39,10.05,-2.95,-1.39,0.18,1.95,1005.91
2.613,-1.52,0.97,-0.08,-14.39,10.05,-2.95,-1.39,0.18,1.95,1005.91
2.615,-1.66,0.76,-0.34,-14.39,10.05,-2.95,-1.39,0.18,1.95,1005.91
2.616,-1.30,0.69,-0.23,-14.39,10.05,-2.95,-1.39,0.18,1.95,1005.91
2.629,-1.30,0.69,-0.23,-14.39,10.05,-2.95,-1.39,0.18,1.95,1005.87
2.65,-1.30,0.69,-0.23,-14.39,10.05,-2.95,-0.12,-1.29,-2.18,1005.87
2.652,-1.30,0.69,-0.23,-17.94,-0.97,-2.13,-0.12,-1.29,-2.18,1005.87
2.671,-0.92,1.07,-0.63,-17.94,-0.97,-2.13,-0.12,-1.29,-2.18,1005.87
2.674,0.26,1.75,-0.52,-17.94,-0.97,-2.13,-0.12,-1.29,-2.18,1005.87
2.675,2.13,1.94,0.66,-17.94,-0.97,-2.13,-0.12,-1.29,-2.18,1005.87
2.705,2.13,1.94,0.66,-17.94,-0.97,-2.13,-0.12,-1.29,-2.18,1005.87
2.71,2.13,1.94,0.66,2.01,6.33,-1.50,-0.12,-1.29,-2.18,1005.87
2.71,2.13,1.94,0.66,2.01,6.33,-1.50,-0.54,-2.16,-1.03,1005.87
2.732,1.21,2.22,-0.74,2.01,6.33,-1.50,-0.54,-2.16,-1.03,1005.87
2.734,-0.45,1.57,-1.37,2.01,6.33,-1.50,-0.54,-2.16,-1.03,1005.87
2.734,-0.17,0.33,1.02,2.01,6.33,-1.50,-0.54,-2.16,-1.03,1005.87
2.742,-0.17,0.33,1.02,2.01,6.33,-1.50,-0.54,-2.16,-1.03,1005.92
2.767,-0.17,0.33,1.02,2.01,6.33,-1.50,-0.16,-0.23,-2.51,1005.92
2.769,-0.17,0.33,1.02,0.51,3.85,-3.43,-0.16,-0.23,-2.51,1005.92
2.787,-0.18,0.54,0.33,0.51,3.85,-3.43,-0.16,-0.23,-2.51,1005.92
2.789,-0.00,0.95,0.26,0.51,3.85,-3.43,-0.16,-0.23,-2.51,1005.92
2.789,-0.21,1.21,-0.18,0.51,3.85,-3.43,-0.16,-0.23,-2.51,1005.92
2.822,-0.21,1.21,-0.18,0.51,3.85,-3.43,-0.16,-0.23,-2.51,1005.90
2.826,-0.21,1.21,-0.18,-1.79,-0.84,1.51,-0.16,-0.23,-2.51,1005.90
2.827,-0.21,1.21,-0.18,-1.79,-0.84,1.51,0.12,0.20,-1.55,1005.90
2.845,-0.36,1.14,-0.26,-1.79,-0.84,1.51,0.12,0.20,-1.55,1005.90
2.846,-0.13,1.05,-0.12,-1.79,-0.84,1.51,0.12,0.20,-1.55,1005.90
2.847,-0.01,1.05,-0.08,-1.79,-0.84,1.51,0.12,0.20,-1.55,1005.90
2.885,-0.01,1.05,-0.08,-1.79,-0.84,1.51,0.01,-0.22,-0.91,1005.90
2.887,-0.01,1.05,-0.08,-1.58,0.89,-1.33,0.01,-0.22,-0.91,1005.90
2.904,-0.01,1.05,-0.08,-1.58,0.89,-1.33,0.01,-0.22,-0.91,1005.91
2.906,-0.06,1.02,0.11,-1.58,0.89,-1.33,0.01,-0.22,-0.91,1005.91
2.907,0.00,0.98,0.11,-1.58,0.89,-1.33,0.01,-0.22,-0.91,1005.91
2.908,0.03,0.97,0.01,-1.58,0.89,-1.33,0.01,-0.22,-0.91,1005.91
2.942,0.03,0.97,0.01,-1.58,0.89,-1.33,0.10,0.16,-0.93,1005.91
2.943,0.03,0.97,0.01,0.43,0.05,0.99,0.10,0.16,-0.93,1005.91
2.944,0.03,0.97,0.01,0.43,0.05,0.99,0.10,0.16,-0.93,1005.92
2.962,-0.00,0.99,0.00,0.43,0.05,0.99,0.10,0.16,-0.93,1005.92
2.964,-0.07,0.99,-0.01,0.43,0.05,0.99,0.10,0.16,-0.93,1005.92
2.964,-0.15,1.01,-0.01,0.43,0.05,0.99,0.10,0.16,-0.93,1005.92
3.001,-0.15,1.01,-0.01,0.33,0.12,0.27,0.10,0.16,-0.93,1005.92
3.003,-0.15,1.01,-0.01,0.33,0.12,0.27,0.13,0.34,-0.95,1005.92
3.027,-0.13,1.06,-0.02,0.33,0.12,0.27,0.13,0.34,-0.95,1005.92
3.029,-0.05,1.05,-0.03,0.33,0.12,0.27,0.13,0.34,-0.95,1005.92
3.029,-0.01,0.97,0.01,0.33,0.12,0.27,0.13,0.34,-0.95,1005.92
3.03,-0.01,0.97,0.01,0.33,0.12,0.27,0.13,0.34,-0.95,1005.92
3.06,-0.01,0.97,0.01,0.33,0.12,0.27,0.23,0.11,-1.25,1005.92
3.061,-0.01,0.97,0.01,1.12,0.51,0.33,0.23,0.11,-1.25,1005.92
3.079,0.03,0.93,0.03,1.12,0.51,0.33,0.23,0.11,-1.25,1005.92
3.082,-0.01,0.93,-0.00,1.12,0.51,0.33,0.23,0.11,-1.25,1005.92
3.084,-0.11,1.02,-0.02,1.12,0.51,0.33,0.23,0.11,-1.25,1005.92
3.103,-0.11,1.02,-0.02,1.12,0.51,0.33,0.23,0.11,-1.25,1005.92
3.134,-0.11,1.02,-0.02,1.12,0.51,0.33,0.29,0.35,-1.78,1005.92
3.136,-0.11,1.02,-0.02,2.39,0.13,0.69,0.29,0.35,-1.78,1005.92
3.138,-0.12,1.12,-0.04,2.39,0.13,0.69,0.29,0.35,-1.78,1005.92
3.14,-0.14,1.15,-0.02,2.39,0.13,0.69,0.29,0.35,-1.78,1005.92
3.141,-0.19,1.19,-0.02,2.39,0.13,0.69,0.29,0.35,-1.78,1005.92
3.143,-0.19,1.19,-0.02,2.39,0.13,0.69,0.29,0.35,-1.78,1005.93
3.176,-0.19,1.19,-0.02,2.39,0.13,0.69,0.52,0.11,-2.04,1005.93
3.177,-0.19,1.19,-0.02,2.23,2.37,0.67,0.52,0.11,-2.04,1005.93
3.196,-0.18,1.20,-0.03,2.23,2.37,0.67,0.52,0.11,-2.04,1005.93
3.199,-0.06,1.22,-0.09,2.23,2.37,0.67,0.52,0.11,-2.04,1005.93
3.2,0.11,1.37,-0.14,2.23,2.37,0.67,0.52,0.11,-2.04,1005.93
3.223,0.11,1.37,-0.14,2.23,2.37,0.67,0.52,0.11,-2.04,1005.92
3.24,0.11,1.37,-0.14,2.23,2.37,0.67,0.72,0.45,-2.29,1005.92
3.241,0.11,1.37,-0.14,4.36,4.00,0.55,0.72,0.45,-2.29,1005.92
3.254,0.44,1.72,0.08,4.36,4.00,0.55,0.72,0.45,-2.29,1005.92
3.255,0.96,1.97,0.08,4.36,4.00,0.55,0.72,0.45,-2.29,1005.92
3.256,1.28,1.85,-0.03,4.36,4.00,0.55,0.72,0.45,-2.29,1005.92
3.293,1.28,1.85,-0.03,4.36,4.00,0.55,0.64,2.44,-3.52,1005.92
3.295,1.28,1.85,-0.03,14.59,10.73,2.86,0.64,2.44,-3.52,1005.92
3.304,1.28,1.85,-0.03,14.59,10.73,2.86,0.64,2.44,-3.52,1005.93
3.313,0.64,1.30,0.01,14.59,10.73,2.86,0.64,2.44,-3.52,1005.93
3.314,-0.54,1.10,-0.18,14.59,10.73,2.86,0.64,2.44,-3.52,1005.93
3.315,-1.01,1.33,-0.25,14.59,10.73,2.86,0.64,2.44,-3.52,1005.93
3.349,-1.01,1.33,-0.25,14.59,10.73,2.86,0.64,2.44,-3.52,1005.92
3.353,-1.01,1.33,-0.25,14.59,10.73,2.86,0.93,2.40,-3.38,1005.92
3.354,-1.01,1.33,-0.25,3.68,6.11,2.24,0.93,2.40,-3.38,1005.92
3.371,-0.94,1.23,-0.28,3.68,6.11,2.24,0.93,2.40,-3.38,1005.92
3.372,-0.75,0.76,-0.20,3.68,6.11,2.24,0.93,2.40,-3.38,1005.92
3.373,-0.72,0.54,-0.27,3.68,6.11,2.24,0.93,2.40,-3.38,1005.92
3.409,-0.72,0.54,-0.27,3.68,6.11,2.24,-0.66,0.50,0.11,1005.92
3.411,-0.72,0.54,-0.27,-1.34,1.99,1.16,-0.66,0.50,0.11,1005.92
3.428,-0.72,0.54,-0.27,-1.34,1.99,1.16,-0.66,0.50,0.11,1005.90
3.43,-0.61,0.29,-0.47,-1.34,1.99,1.16,-0.66,0.50,0.11,1005.90
3.43,-0.40,0.20,-0.16,-1.34,1.99,1.16,-0.66,0.50,0.11,1005.90
3.433,-0.26,0.07,0.03,-1.34,1.99,1.16,-0.66,0.50,0.11,1005.90
3.468,-0.26,0.07,0.03,-1.34,1.99,1.16,-1.39,-1.08,3.28,1005.90
3.469,-0.26,0.07,0.03,1.26,-5.75,0.64,-1.39,-1.08,3.28,1005.90
3.487,-0.22,0.14,-0.07,1.26,-5.75,0.64,-1.39,-1.08,3.28,1005.90
3.49,-0.24,0.29,-0.26,1.26,-5.75,0.64,-1.39,-1.08,3.28,1005.90
3.49,-0.13,0.41,-0.44,1.26,-5.75,0.64,-1.39,-1.08,3.28,1005.90
3.504,-0.13,0.41,-0.44,1.26,-5.75,0.64,-1.39,-1.08,3.28,1005.90
3.529,-0.13,0.41,-0.44,1.00,-6.20,-0.79,-1.39,-1.08,3.28,1005.90
3.531,-0.13,0.41,-0.44,1.00,-6.20,-0.79,-1.19,-1.43,5.29,1005.90
3.556,-0.13,0.41,-0.44,1.00,-6.20,-0.79,-1.19,-1.43,5.29,1005.94
3.559,-0.17,0.51,-0.20,1.00,-6.20,-0.79,-1.19,-1.43,5.29,1005.94
3.559,-0.11,0.57,-0.23,1.00,-6.20,-0.79,-1.19,-1.43,5.29,1005.94
3.56,-0.18,0.79,-0.55,1.00,-6.20,-0.79,-1.19,-1.43,5.29,1005.94
3.584,-0.18,0.79,-0.55,1.00,-6.20,-0.79,-0.22,-1.32,5.70,1005.94
3.585,-0.18,0.79,-0.55,-1.50,-3.29,-1.67,-0.22,-1.32,5.70,1005.94
3.606,-0.45,1.11,-0.55,-1.50,-3.29,-1.67,-0.22,-1.32,5.70,1005.94
3.608,-0.82,1.34,-0.38,-1.50,-3.29,-1.67,-0.22,-1.32,5.70,1005.94
3.61,-0.90,1.36,-0.53,-1.50,-3.29,-1.67,-0.22,-1.32,5.70,1005.94
3.624,-0.90,1.36,-0.53,-1.50,-3.29,-1.67,-0.22,-1.32,5.70,1005.92
3.646,-0.90,1.36,-0.53,-1.50,-3.29,-1.67,0.38,-4.32,6.02,1005.92
3.648,-0.90,1.36,-0.53,-9.72,3.56,-2.61,0.38,-4.32,6.02,1005.92
3.678,-0.74,1.28,-0.56,-9.72,3.56,-2.61,0.38,-4.32,6.02,1005.92
3.68,-0.55,1.23,-0.46,-9.72,3.56,-2.61,0.38,-4.32,6.02,1005.92
3.681,-0.31,1.25,-0.36,-9.72,3.56,-2.61,0.38,-4.32,6.02,1005.92
3.701,-0.31,1.25,-0.36,-9.72,3.56,-2.61,0.12,-6.55,4.26,1005.92
3.702,-0.31,1.25,-0.36,-8.73,4.15,-0.96,0.12,-6.55,4.26,1005.92
3.703,-0.31,1.25,-0.36,-8.73,4.15,-0.96,0.12,-6.55,4.26,1005.88
3.722,0.09,1.20,-0.18,-8.73,4.15,-0.96,0.12,-6.55,4.26,1005.88
3.724,0.31,1.04,-0.09,-8.73,4.15,-0.96,0.12,-6.55,4.26,1005.88
3.725,0.07,0.96,0.01,-8.73,4.15,-0.96,0.12,-6.55,4.26,1005.88
3.744,0.07,0.96,0.01,-8.73,4.15,-0.96,0.12,-6.55,4.26,1005.87
3.768,0.07,0.96,0.01,-1.46,2.48,3.44,0.12,-6.55,4.26,1005.87
3.77,0.07,0.96,0.01,-1.46,2.48,3.44,-0.06,-4.30,1.12,1005.87
3.779,-0.17,0.94,-0.03,-1.46,2.48,3.44,-0.06,-4.30,1.12,1005.87
3.78,-0.26,0.90,-0.07,-1.46,2.48,3.44,-0.06,-4.30,1.12,1005.87
3.78,-0.26,0.81,-0.01,-1.46,2.48,3.44,-0.06,-4.30,1.12,1005.87
3.817,-0.26,0.81,-0.01,-1.46,2.48,3.44,-0.45,-3.10,-0.67,1005.87
3.819,-0.26,0.81,-0.01,-4.09,0.47,4.10,-0.45,-3.10,-0.67,1005.87
3.828,-0.26,0.81,-0.01,-4.09,0.47,4.10,-0.45,-3.10,-0.67,1005.90
3.854,-0.29,0.92,-0.17,-4.09,0.47,4.10,-0.45,-3.10,-0.67,1005.90
3.855,-0.51,1.28,0.08,-4.09,0.47,4.10,-0.45,-3.10,-0.67,1005.90
3.855,-0.18,1.43,1.11,-4.09,0.47,4.10,-0.45,-3.10,-0.67,1005.90
3.876,-0.18,1.43,1.11,-4.09,0.47,4.10,-1.72,-1.87,-1.33,1005.90
3.877,-0.18,1.43,1.11,-3.82,3.13,6.94,-1.72,-1.87,-1.33,1005.90
3.895,0.52,1.67,0.80,-3.82,3.13,6.94,-1.72,-1.87,-1.33,1005.90
3.896,1.04,2.06,-0.57,-3.82,3.13,6.94,-1.72,-1.87,-1.33,1005.90
3.897,1.32,1.98,-1.13,-3.82,3.13,6.94,-1.72,-1.87,-1.33,1005.90
3.904,1.32,1.98,-1.13,-3.82,3.13,6.94,-1.72,-1.87,-1.33,1005.93
3.934,1.32,1.98,-1.13,-3.82,3.13,6.94,-1.17,0.26,-2.33,1005.93
3.936,1.32,1.98,-1.13,9.74,9.54,0.11,-1.17,0.26,-2.33,1005.93
3.948,1.32,1.98,-1.13,9.74,9.54,0.11,-1.17,0.26,-2.33,1005.92
3.967,0.02,0.79,-0.24,9.74,9.54,0.11,-1.17,0.26,-2.33,1005.92
3.969,-1.12,0.47,-0.07,9.74,9.54,0.11,-1.17,0.26,-2.33,1005.92
3.969,-1.21,0.72,0.07,9.74,9.54,0.11,-1.17,0.26,-2.33,1005.92
3.992,-1.21,0.72,0.07,9.74,9.54,0.11,-0.87,-0.74,-0.49,1005.92
3.993,-1.21,0.72,0.07,-6.72,-2.76,1.74,-0.87,-0.74,-0.49,1005.92
4.011,-0.55,0.93,-0.10,-6.72,-2.76,1.74,-0.87,-0.74,-0.49,1005.92
4.012,-0.01,1.00,-0.05,-6.72,-2.76,1.74,-0.87,-0.74,-0.49,1005.92
4.013,0.14,1.00,-0.14,-6.72,-2.76,1.74,-0.87,-0.74,-0.49,1005.92
4.024,0.14,1.00,-0.14,-6.72,-2.76,1.74,-0.87,-0.74,-0.49,1005.93
4.05,0.14,1.00,-0.14,-6.72,-2.76,1.74,-0.33,-0.27,0.00,1005.93
4.052,0.14,1.00,-0.14,-0.47,0.27,1.35,-0.33,-0.27,0.00,1005.93
4.073,-0.14,0.99,-0.30,-0.47,0.27,1.35,-0.33,-0.27,0.00,1005.93
4.075,-0.40,1.00,-0.34,-0.47,0.27,1.35,-0.33,-0.27,0.00,1005.93
4.076,-0.38,0.99,-0.28,-0.47,0.27,1.35,-0.33,-0.27,0.00,1005.93
4.103,-0.38,0.99,-0.28,-0.47,0.27,1.35,-0.33,-0.27,0.00,1005.96
4.109,-0.38,0.99,-0.28,-0.47,0.27,1.35,-0.28,-0.15,0.51,1005.96
4.109,-0.38,0.99,-0.28,-2.33,0.38,-0.84,-0.28,-0.15,0.51,1005.96
4.128,-0.18,0.96,-0.25,-2.33,0.38,-0.84,-0.28,-0.15,0.51,1005.96
4.129,-0.02,0.96,-0.15,-2.33,0.38,-0.84,-0.28,-0.15,0.51,1005.96
4.13,-0.01,1.00,-0.14,-2.33,0.38,-0.84,-0.28,-0.15,0.51,1005.96
4.142,-0.01,1.00,-0.14,-2.33,0.38,-0.84,-0.28,-0.15,0.51,1005.97
4.167,-0.01,1.00,-0.14,-2.33,0.38,-0.84,-0.12,-0.04,0.57,1005.97
4.168,-0.01,1.00,-0.14,-0.32,0.16,0.33,-0.12,-0.04,0.57,1005.97
4.186,-0.02,0.99,-0.14,-0.32,0.16,0.33,-0.12,-0.04,0.57,1005.97
4.188,-0.03,0.98,-0.11,-0.32,0.16,0.33,-0.12,-0.04,0.57,1005.97
4.189,-0.03,0.93,-0.19,-0.32,0.16,0.33,-0.12,-0.04,0.57,1005.97
4.229,-0.03,0.93,-0.19,-0.32,0.16,0.33,-0.12,-0.04,0.57,1005.97
4.231,-0.03,0.93,-0.19,-0.32,0.16,0.33,-0.04,-0.08,0.52,1005.97
4.232,-0.03,0.93,-0.19,-0.14,0.12,0.58,-0.04,-0.08,0.52,1005.97
4.253,-0.11,0.97,-0.13,-0.14,0.12,0.58,-0.04,-0.08,0.52,1005.97
4.254,-0.08,0.98,-0.14,-0.14,0.12,0.58,-0.04,-0.08,0.52,1005.97
4.257,0.03,0.96,-0.23,-0.14,0.12,0.58,-0.04,-0.08,0.52,1005.97
4.284,0.03,0.96,-0.23,-0.14,0.12,0.58,-0.01,-0.42,0.55,1005.97
4.285,0.03,0.96,-0.23,-0.64,0.11,0.40,-0.01,-0.42,0.55,1005.97
4.305,0.10,1.00,-0.13,-0.64,0.11,0.40,-0.01,-0.42,0.55,1005.97
4.307,0.14,0.93,-0.11,-0.64,0.11,0.40,-0.01,-0.42,0.55,1005.97
4.307,0.09,0.93,-0.09,-0.64,0.11,0.40,-0.01,-0.42,0.55,1005.97
4.309,0.09,0.93,-0.09,-0.64,0.11,0.40,-0.01,-0.42,0.55,1005.96
4.35,0.09,0.93,-0.09,-0.64,0.11,0.40,0.18,-0.44,0.10,1005.96
4.352,0.09,0.93,-0.09,0.91,-0.05,1.05,0.18,-0.44,0.10,1005.96
4.353,0.09,0.93,-0.09,0.91,-0.05,1.05,0.18,-0.44,0.10,1005.94
4.361,0.16,1.00,-0.09,0.91,-0.05,1.05,0.18,-0.44,0.10,1005.94
4.362,0.17,0.95,-0.11,0.91,-0.05,1.05,0.18,-0.44,0.10,1005.94
4.363,0.00,0.97,-0.15,0.91,-0.05,1.05,0.18,-0.44,0.10,1005.94
4.4,0.00,0.97,-0.15,1.09,0.21,1.20,0.18,-0.44,0.10,1005.94
4.402,0.00,0.97,-0.15,1.09,0.21,1.20,0.44,-0.31,-0.21,1005.94
4.422,-0.08,0.99,-0.18,1.09,0.21,1.20,0.44,-0.31,-0.21,1005.94
4.424,-0.10,1.03,-0.21,1.09,0.21,1.20,0.44,-0.31,-0.21,1005.94
4.425,-0.00,1.00,-0.19,1.09,0.21,1.20,0.44,-0.31,-0.21,1005.94
4.426,-0.00,1.00,-0.19,1.09,0.21,1.20,0.44,-0.31,-0.21,1005.95
4.463,-0.00,1.00,-0.19,1.09,0.21,1.20,0.74,-0.26,-0.01,1005.95
4.469,-0.00,1.00,-0.19,-0.55,0.66,0.83,0.74,-0.26,-0.01,1005.95
4.481,0.05,0.99,-0.15,-0.55,0.66,0.83,0.74,-0.26,-0.01,1005.95
4.482,-0.07,1.03,-0.26,-0.55,0.66,0.83,0.74,-0.26,-0.01,1005.95
4.483,-0.17,1.01,-0.30,-0.55,0.66,0.83,0.74,-0.26,-0.01,1005.95
4.503,-0.17,1.01,-0.30,-0.55,0.66,0.83,0.74,-0.26,-0.01,1005.95
4.518,-0.17,1.01,-0.30,-0.55,0.66,0.83,1.09,-0.10,0.23,1005.95
4.519,-0.17,1.01,-0.30,-0.69,0.83,0.95,1.09,-0.10,0.23,1005.95
4.553,-0.04,1.01,-0.24,-0.69,0.83,0.95,1.09,-0.10,0.23,1005.95
4.554,0.17,1.07,-0.18,-0.69,0.83,0.95,1.09,-0.10,0.23,1005.95
4.555,0.37,1.26,-0.21,-0.69,0.83,0.95,1.09,-0.10,0.23,1005.95
4.555,0.37,1.26,-0.21,-0.69,0.83,0.95,1.09,-0.10,0.23,1005.95
4.576,0.37,1.26,-0.21,-0.69,0.83,0.95,1.68,-0.87,-0.01,1005.95
4.578,0.37,1.26,-0.21,1.74,2.17,2.07,1.68,-0.87,-0.01,1005.95
4.595,0.61,1.34,-0.17,1.74,2.17,2.07,1.68,-0.87,-0.01,1005.95
4.596,0.71,1.36,-0.04,1.74,2.17,2.07,1.68,-0.87,-0.01,1005.95
4.597,0.50,1.44,0.10,1.74,2.17,2.07,1.68,-0.87,-0.01,1005.95
4.625,0.50,1.44,0.10,1.74,2.17,2.07,1.68,-0.87,-0.01,1005.93
4.634,0.50,1.44,0.10,1.74,2.17,2.07,2.21,-1.08,-0.84,1005.93
4.635,0.50,1.44,0.10,6.66,5.34,4.74,2.21,-1.08,-0.84,1005.93
4.653,0.11,1.39,0.16,6.66,5.34,4.74,2.21,-1.08,-0.84,1005.93
4.654,-0.31,1.38,0.36,6.66,5.34,4.74,2.21,-1.08,-0.84,1005.93
4.655,-0.71,1.35,0.53,6.66,5.34,4.74,2.21,-1.08,-0.84,1005.93
4.694,-0.71,1.35,0.53,6.66,5.34,4.74,2.02,-3.94,-1.13,1005.93
4.695,-0.71,1.35,0.53,-0.53,5.95,8.92,2.02,-3.94,-1.13,1005.93
4.705,-0.71,1.35,0.53,-0.53,5.95,8.92,2.02,-3.94,-1.13,1005.91
4.713,-1.04,1.37,0.11,-0.53,5.95,8.92,2.02,-3.94,-1.13,1005.91
4.714,-1.15,1.33,-0.18,-0.53,5.95,8.92,2.02,-3.94,-1.13,1005.91
4.715,-0.71,1.33,-0.54,-0.53,5.95,8.92,2.02,-3.94,-1.13,1005.91
4.743,-0.71,1.33,-0.54,-0.53,5.95,8.92,2.02,-3.94,-1.13,1005.90
4.752,-0.71,1.33,-0.54,-0.53,5.95,8.92,1.37,-5.79,0.13,1005.90
4.753,-0.71,1.33,-0.54,-5.17,5.94,2.90,1.37,-5.79,0.13,1005.90
4.772,-0.07,1.11,-0.25,-5.17,5.94,2.90,1.37,-5.79,0.13,1005.90
4.773,0.14,0.83,0.02,-5.17,5.94,2.90,1.37,-5.79,0.13,1005.90
4.774,0.02,0.70,0.14,-5.17,5.94,2.90,1.37,-5.79,0.13,1005.90
4.81,0.02,0.70,0.14,-5.17,5.94,2.90,0.56,-5.44,1.07,1005.90
4.811,0.02,0.70,0.14,5.41,1.21,3.25,0.56,-5.44,1.07,1005.90
4.829,0.02,0.70,0.14,5.41,1.21,3.25,0.56,-5.44,1.07,1005.89
4.831,-0.23,0.68,0.24,5.41,1.21,3.25,0.56,-5.44,1.07,1005.89
4.832,-0.28,0.63,0.23,5.41,1.21,3.25,0.56,-5.44,1.07,1005.89
4.832,-0.21,0.60,0.21,5.41,1.21,3.25,0.56,-5.44,1.07,1005.89
4.868,-0.21,0.60,0.21,5.41,1.21,3.25,0.63,-4.03,3.23,1005.89
4.869,-0.21,0.60,0.21,2.00,-1.93,4.79,0.63,-4.03,3.23,1005.89
4.888,-0.08,0.58,0.21,2.00,-1.93,4.79,0.63,-4.03,3.23,1005.89
4.889,-0.03,0.64,0.24,2.00,-1.93,4.79,0.63,-4.03,3.23,1005.89
4.889,-0.05,0.77,0.22,2.00,-1.93,4.79,0.63,-4.03,3.23,1005.89
4.904,-0.05,0.77,0.22,2.00,-1.93,4.79,0.63,-4.03,3.23,1005.92
4.926,-0.05,0.77,0.22,2.00,-1.93,4.79,0.42,-1.53,4.73,1005.92
4.927,-0.05,0.77,0.22,1.63,-2.49,4.60,0.42,-1.53,4.73,1005.92
4.949,-0.05,0.77,0.22,1.63,-2.49,4.60,0.42,-1.53,4.73,1005.93
4.951,-0.11,0.89,0.16,1.63,-2.49,4.60,0.42,-1.53,4.73,1005.93
4.961,-0.17,1.03,0.11,1.63,-2.49,4.60,0.42,-1.53,4.73,1005.93
4.962,-0.23,1.21,0.08,1.63,-2.49,4.60,0.42,-1.53,4.73,1005.93
4.987,-0.23,1.21,0.08,1.63,-2.49,4.60,-1.03,-0.69,5.62,1005.93
4.988,-0.23,1.21,0.08,-2.42,0.86,2.91,-1.03,-0.69,5.62,1005.93
5.003,-0.31,1.43,0.05,-2.42,0.86,2.91,-1.03,-0.69,5.62,1005.93
5.003,-0.40,1.65,0.02,-2.42,0.86,2.91,-1.03,-0.69,5.62,1005.93
5.004,-0.52,1.71,0.08,-2.42,0.86,2.91,-1.03,-0.69,5.62,1005.93
5.023,-0.52,1.71,0.08,-2.42,0.86,2.91,-1.03,-0.69,5.62,1005.90
5.041,-0.52,1.71,0.08,-2.42,0.86,2.91,-1.94,-0.26,5.07,1005.90
5.042,-0.52,1.71,0.08,-7.34,6.64,1.18,-1.94,-0.26,5.07,1005.90
5.062,-0.78,1.47,0.10,-7.34,6.64,1.18,-1.94,-0.26,5.07,1005.90
5.063,-0.94,1.31,0.02,-7.34,6.64,1.18,-1.94,-0.26,5.07,1005.90
5.063,-1.03,1.39,-0.35,-7.34,6.64,1.18,-1.94,-0.26,5.07,1005.90
5.1,-1.03,1.39,-0.35,-7.34,6.64,1.18,-1.23,1.19,1.34,1005.90
5.101,-1.03,1.39,-0.35,-12.83,4.81,-0.94,-1.23,1.19,1.34,1005.90
5.103,-1.03,1.39,-0.35,-12.83,4.81,-0.94,-1.23,1.19,1.34,1005.86
5.119,-1.12,1.05,-0.39,-12.83,4.81,-0.94,-1.23,1.19,1.34,1005.86
5.12,-1.36,0.68,-0.48,-12.83,4.81,-0.94,-1.23,1.19,1.34,1005.86
5.12,-1.49,0.53,-0.80,-12.83,4.81,-0.94,-1.23,1.19,1.34,1005.86
5.143,-1.49,0.53,-0.80,-12.83,4.81,-0.94,-1.23,1.19,1.34,1005.83
5.165,-1.49,0.53,-0.80,-12.83,4.81,-0.94,-0.27,-2.40,-1.83,1005.83
5.167,-1.49,0.53,-0.80,-15.56,-1.75,-5.18,-0.27,-2.40,-1.83,1005.83
5.179,-1.39,1.46,-1.36,-15.56,-1.75,-5.18,-0.27,-2.40,-1.83,1005.83
5.181,0.56,2.10,-0.61,-15.56,-1.75,-5.18,-0.27,-2.40,-1.83,1005.83
5.182,2.20,1.95,-0.04,-15.56,-1.75,-5.18,-0.27,-2.40,-1.83,1005.83
5.217,2.20,1.95,-0.04,-15.56,-1.75,-5.18,-0.34,-3.07,-1.51,1005.83
5.219,2.20,1.95,-0.04,2.70,8.52,-6.03,-0.34,-3.07,-1.51,1005.83
5.232,2.20,1.95,-0.04,2.70,8.52,-6.03,-0.34,-3.07,-1.51,1005.83
5.238,0.70,1.54,-1.26,2.70,8.52,-6.03,-0.34,-3.07,-1.51,1005.83
5.239,0.11,0.54,0.52,2.70,8.52,-6.03,-0.34,-3.07,-1.51,1005.83
5.24,-0.12,0.36,0.77,2.70,8.52,-6.03,-0.34,-3.07,-1.51,1005.83
5.275,-0.12,0.36,0.77,2.70,8.52,-6.03,0.05,0.58,-2.47,1005.83
5.276,-0.12,0.36,0.77,1.81,-1.64,0.66,0.05,0.58,-2.47,1005.83
5.297,-0.11,0.89,0.15,1.81,-1.64,0.66,0.05,0.58,-2.47,1005.83
5.299,-0.45,1.31,-0.07,1.81,-1.64,0.66,0.05,0.58,-2.47,1005.83
5.3,-0.63,1.10,-0.20,1.81,-1.64,0.66,0.05,0.58,-2.47,1005.83
5.304,-0.63,1.10,-0.20,1.81,-1.64,0.66,0.05,0.58,-2.47,1005.92
5.334,-0.63,1.10,-0.20,-3.55,1.18,0.25,0.05,0.58,-2.47,1005.92
5.335,-0.63,1.10,-0.20,-3.55,1.18,0.25,0.19,-0.24,-1.25,1005.92
5.343,-0.63,1.10,-0.20,-3.55,1.18,0.25,0.19,-0.24,-1.25,1005.95
5.353,-0.22,1.02,-0.25,-3.55,1.18,0.25,0.19,-0.24,-1.25,1005.95
5.354,-0.03,1.08,-0.23,-3.55,1.18,0.25,0.19,-0.24,-1.25,1005.95
5.354,-0.05,1.05,0.03,-3.55,1.18,0.25,0.19,-0.24,-1.25,1005.95
5.393,-0.05,1.05,0.03,-3.55,1.18,0.25,0.07,-0.50,-0.84,1005.95
5.396,-0.05,1.05,0.03,-0.16,0.70,-0.75,0.07,-0.50,-0.84,1005.95
5.415,-0.02,1.01,0.05,-0.16,0.70,-0.75,0.07,-0.50,-0.84,1005.95
5.416,0.01,0.98,0.00,-0.16,0.70,-0.75,0.07,-0.50,-0.84,1005.95
5.416,-0.05,1.00,-0.04,-0.16,0.70,-0.75,0.07,-0.50,-0.84,1005.95
5.427,-0.05,1.00,-0.04,-0.16,0.70,-0.75,0.07,-0.50,-0.84,1005.95
5.451,-0.05,1.00,-0.04,1.15,0.21,0.81,0.07,-0.50,-0.84,1005.95
5.452,-0.05,1.00,-0.04,1.15,0.21,0.81,0.14,0.17,-0.92,1005.95
5.47,-0.12,1.04,-0.08,1.15,0.21,0.81,0.14,0.17,-0.92,1005.95
5.471,-0.15,1.06,-0.07,1.15,0.21,0.81,0.14,0.17,-0.92,1005.95
5.471,-0.12,1.05,-0.07,1.15,0.21,0.81,0.14,0.17,-0.92,1005.95
5.504,-0.12,1.05,-0.07,1.15,0.21,0.81,0.14,0.17,-0.92,1005.96
5.511,-0.12,1.05,-0.07,1.15,0.21,0.81,0.18,0.03,-0.95,1005.96
5.512,-0.12,1.05,-0.07,0.57,0.83,0.18,0.18,0.03,-0.95,1005.96
5.53,-0.09,1.03,-0.04,0.57,0.83,0.18,0.18,0.03,-0.95,1005.96
5.531,-0.08,0.99,-0.01,0.57,0.83,0.18,0.18,0.03,-0.95,1005.96
5.532,-0.10,0.98,0.01,0.57,0.83,0.18,0.18,0.03,-0.95,1005.96
5.549,-0.10,0.98,0.01,0.57,0.83,0.18,0.18,0.03,-0.95,1005.95
5.567,-0.10,0.98,0.01,0.57,0.83,0.18,0.25,0.37,-1.19,1005.95
5.568,-0.10,0.98,0.01,1.56,0.49,0.89,0.25,0.37,-1.19,1005.95
5.587,-0.02,0.98,-0.02,1.56,0.49,0.89,0.25,0.37,-1.19,1005.95
5.588,-0.00,1.00,-0.03,1.56,0.49,0.89,0.25,0.37,-1.19,1005.95
5.589,-0.05,1.11,-0.01,1.56,0.49,0.89,0.25,0.37,-1.19,1005.95
5.627,-0.05,1.11,-0.01,1.56,0.49,0.89,0.25,0.37,-1.19,1005.94
5.629,-0.05,1.11,-0.01,3.04,1.10,1.09,0.25,0.37,-1.19,1005.94
5.629,-0.05,1.11,-0.01,3.04,1.10,1.09,0.48,0.09,-1.71,1005.94
5.649,-0.16,1.20,-0.06,3.04,1.10,1.09,0.48,0.09,-1.71,1005.94
5.65,-0.11,1.22,-0.09,3.04,1.10,1.09,0.48,0.09,-1.71,1005.94
5.65,0.08,1.27,-0.07,3.04,1.10,1.09,0.48,0.09,-1.71,1005.94
5.683,0.08,1.27,-0.07,3.64,3.51,0.92,0.48,0.09,-1.71,1005.94
5.684,0.08,1.27,-0.07,3.64,3.51,0.92,0.78,-0.10,-2.05,1005.94
5.703,0.31,1.36,-0.08,3.64,3.51,0.92,0.78,-0.10,-2.05,1005.94
5.704,0.66,1.59,0.17,3.64,3.51,0.92,0.78,-0.10,-2.05,1005.94
5.704,1.06,1.85,0.15,3.64,3.51,0.92,0.78,-0.10,-2.05,1005.94
5.704,1.06,1.85,0.15,3.64,3.51,0.92,0.78,-0.10,-2.05,1005.93
5.752,1.06,1.85,0.15,11.92,7.93,3.12,0.78,-0.10,-2.05,1005.93
5.753,1.06,1.85,0.15,11.92,7.93,3.12,0.80,1.22,-2.91,1005.93
5.754,1.06,1.85,0.15,11.92,7.93,3.12,0.80,1.22,-2.91,1005.92
5.77,1.19,1.74,0.13,11.92,7.93,3.12,0.80,1.22,-2.91,1005.92
5.771,0.51,1.36,0.18,11.92,7.93,3.12,0.80,1.22,-2.91,1005.92
5.772,-0.57,1.33,-0.14,11.92,7.93,3.12,0.80,1.22,-2.91,1005.92
5.8,-0.57,1.33,-0.14,11.92,7.93,3.12,1.21,2.53,-4.17,1005.92
5.801,-0.57,1.33,-0.14,10.09,8.26,4.21,1.21,2.53,-4.17,1005.92
5.821,-1.02,1.49,-0.23,10.09,8.26,4.21,1.21,2.53,-4.17,1005.92
5.822,-0.97,1.27,-0.27,10.09,8.26,4.21,1.21,2.53,-4.17,1005.92
5.822,-0.68,0.86,-0.19,10.09,8.26,4.21,1.21,2.53,-4.17,1005.92
5.828,-0.68,0.86,-0.19,10.09,8.26,4.21,1.21,2.53,-4.17,1005.92
5.86,-0.68,0.86,-0.19,10.09,8.26,4.21,0.14,0.15,-1.09,1005.92
5.861,-0.68,0.86,-0.19,-1.93,5.98,1.43,0.14,0.15,-1.09,1005.92
5.878,-0.65,0.64,-0.27,-1.93,5.98,1.43,0.14,0.15,-1.09,1005.92
5.879,-0.52,0.35,-0.50,-1.93,5.98,1.43,0.14,0.15,-1.09,1005.92
5.879,-0.28,0.19,-0.12,-1.93,5.98,1.43,0.14,0.15,-1.09,1005.92
5.903,-0.28,0.19,-0.12,-1.93,5.98,1.43,0.14,0.15,-1.09,1005.93
5.917,-0.28,0.19,-0.12,-1.93,5.98,1.43,-1.30,-0.65,2.51,1005.93
5.917,-0.28,0.19,-0.12,1.20,-3.15,0.09,-1.30,-0.65,2.51,1005.93
5.937,-0.15,0.08,0.01,1.20,-3.15,0.09,-1.30,-0.65,2.51,1005.93
5.941,-0.13,0.16,-0.10,1.20,-3.15,0.09,-1.30,-0.65,2.51,1005.93
5.942,-0.18,0.30,-0.21,1.20,-3.15,0.09,-1.30,-0.65,2.51,1005.93
5.954,-0.18,0.30,-0.21,1.20,-3.15,0.09,-1.30,-0.65,2.51,1005.92
5.976,-0.18,0.30,-0.21,1.20,-3.15,0.09,-1.60,-0.74,4.63,1005.92
5.978,-0.18,0.30,-0.21,2.36,-6.69,1.04,-1.60,-0.74,4.63,1005.92
5.995,-0.10,0.44,-0.31,2.36,-6.69,1.04,-1.60,-0.74,4.63,1005.92
5.996,-0.08,0.55,-0.28,2.36,-6.69,1.04,-1.60,-0.74,4.63,1005.92
5.996,-0.04,0.64,-0.09,2.36,-6.69,1.04,-1.60,-0.74,4.63,1005.92
6.029,-0.04,0.64,-0.09,2.36,-6.69,1.04,-1.60,-0.74,4.63,1005.97
6.037,-0.04,0.64,-0.09,2.36,-6.69,1.04,-1.82,0.72,6.08,1005.97
6.039,-0.04,0.64,-0.09,-0.13,-4.05,-1.06,-1.82,0.72,6.08,1005.97
6.058,-0.06,0.79,-0.13,-0.13,-4.05,-1.06,-1.82,0.72,6.08,1005.97
6.059,-0.07,1.11,-0.45,-0.13,-4.05,-1.06,-1.82,0.72,6.08,1005.97
6.059,-0.20,1.59,-0.45,-0.13,-4.05,-1.06,-1.82,0.72,6.08,1005.97
6.092,-0.20,1.59,-0.45,-0.13,-4.05,-1.06,-2.24,1.56,5.93,1005.97
6.094,-0.20,1.59,-0.45,-3.66,2.31,-3.47,-2.24,1.56,5.93,1005.97
6.103,-0.20,1.59,-0.45,-3.66,2.31,-3.47,-2.24,1.56,5.93,1005.94
6.111,-0.65,2.06,-0.49,-3.66,2.31,-3.47,-2.24,1.56,5.93,1005.94
6.113,-0.97,2.09,-0.52,-3.66,2.31,-3.47,-2.24,1.56,5.93,1005.94
6.113,-1.15,1.63,-0.29,-3.66,2.31,-3.47,-2.24,1.56,5.93,1005.94
6.147,-1.15,1.63,-0.29,-3.66,2.31,-3.47,-2.24,1.56,5.93,1005.89
6.177,-1.15,1.63,-0.29,-13.44,10.49,-5.25,-2.24,1.56,5.93,1005.89
6.178,-1.15,1.63,-0.29,-13.44,10.49,-5.25,-1.84,0.27,4.00,1005.89
6.179,-0.97,1.21,-0.13,-13.44,10.49,-5.25,-1.84,0.27,4.00,1005.89
6.179,-0.85,1.13,-0.36,-13.44,10.49,-5.25,-1.84,0.27,4.00,1005.89
6.18,-0.90,0.88,-0.37,-13.44,10.49,-5.25,-1.84,0.27,4.00,1005.89
6.21,-0.90,0.88,-0.37,-13.44,10.49,-5.25,-0.23,-0.90,-0.76,1005.89
6.211,-0.90,0.88,-0.37,-12.74,1.92,-3.63,-0.23,-0.90,-0.76,1005.89
6.224,-0.90,0.88,-0.37,-12.74,1.92,-3.63,-0.23,-0.90,-0.76,1005.86
6.228,-0.97,0.76,-0.28,-12.74,1.92,-3.63,-0.23,-0.90,-0.76,1005.86
6.229,-1.01,0.97,-0.48,-12.74,1.92,-3.63,-0.23,-0.90,-0.76,1005.86
6.229,-0.18,1.50,-0.47,-12.74,1.92,-3.63,-0.23,-0.90,-0.76,1005.86
6.268,-0.18,1.50,-0.47,-12.74,1.92,-3.63,-0.51,-2.94,-0.65,1005.86
6.269,-0.18,1.50,-0.47,-10.52,1.82,-4.41,-0.51,-2.94,-0.65,1005.86
6.287,1.75,1.33,0.39,-10.52,1.82,-4.41,-0.51,-2.94,-0.65,1005.86
6.288,2.61,1.40,0.23,-10.52,1.82,-4.41,-0.51,-2.94,-0.65,1005.86
6.289,0.02,2.00,-0.61,-10.52,1.82,-4.41,-0.51,-2.94,-0.65,1005.86
6.305,0.02,2.00,-0.61,-10.52,1.82,-4.41,-0.51,-2.94,-0.65,1005.88
6.328,0.02,2.00,-0.61,-10.52,1.82,-4.41,-0.04,0.44,-2.95,1005.88
6.329,0.02,2.00,-0.61,12.18,6.17,-0.41,-0.04,0.44,-2.95,1005.88
6.349,0.02,2.00,-0.61,12.18,6.17,-0.41,-0.04,0.44,-2.95,1005.95
6.35,-0.74,1.21,-0.47,12.18,6.17,-0.41,-0.04,0.44,-2.95,1005.95
6.35,-0.24,0.51,0.29,12.18,6.17,-0.41,-0.04,0.44,-2.95,1005.95
6.35,-0.17,0.88,0.27,12.18,6.17,-0.41,-0.04,0.44,-2.95,1005.95
6.383,-0.17,0.88,0.27,12.18,6.17,-0.41,0.01,-0.22,-1.48,1005.95
6.385,-0.17,0.88,0.27,-4.99,-0.91,-0.11,0.01,-0.22,-1.48,1005.95
6.403,-0.25,1.13,0.16,-4.99,-0.91,-0.11,0.01,-0.22,-1.48,1005.95
6.404,-0.05,1.10,0.12,-4.99,-0.91,-0.11,0.01,-0.22,-1.48,1005.95
6.404,0.28,0.95,0.04,-4.99,-0.91,-0.11,0.01,-0.22,-1.48,1005.95
6.424,0.28,0.95,0.04,-4.99,-0.91,-0.11,0.01,-0.22,-1.48,1005.94
6.455,0.28,0.95,0.04,-0.75,0.89,0.73,0.01,-0.22,-1.48,1005.94
6.458,0.28,0.95,0.04,-0.75,0.89,0.73,0.16,-0.04,-0.97,1005.94
6.466,0.30,1.00,0.05,-0.75,0.89,0.73,0.16,-0.04,-0.97,1005.94
6.467,-0.02,1.04,0.04,-0.75,0.89,0.73,0.16,-0.04,-0.97,1005.94
6.468,-0.06,1.00,0.10,-0.75,0.89,0.73,0.16,-0.04,-0.97,1005.94
6.5,-0.06,1.00,0.10,-0.75,0.89,0.73,0.20,-0.06,-1.01,1005.94
6.501,-0.06,1.00,0.10,0.59,0.41,0.41,0.20,-0.06,-1.01,1005.94
6.504,-0.06,1.00,0.10,0.59,0.41,0.41,0.20,-0.06,-1.01,1005.94
6.52,0.11,0.96,0.11,0.59,0.41,0.41,0.20,-0.06,-1.01,1005.94
6.521,0.14,0.97,0.12,0.59,0.41,0.41,0.20,-0.06,-1.01,1005.94
6.522,0.07,0.98,0.11,0.59,0.41,0.41,0.20,-0.06,-1.01,1005.94
6.547,0.07,0.98,0.11,0.59,0.41,0.41,0.20,-0.06,-1.01,1005.93
6.567,0.07,0.98,0.11,0.59,0.41,0.41,0.27,0.20,-1.21,1005.93
6.568,0.07,0.98,0.11,1.54,-0.01,1.05,0.27,0.20,-1.21,1005.93
6.579,0.03,0.98,0.05,1.54,-0.01,1.05,0.27,0.20,-1.21,1005.93
6.58,-0.09,0.99,0.01,1.54,-0.01,1.05,0.27,0.20,-1.21,1005.93
6.581,-0.22,1.03,-0.03,1.54,-0.01,1.05,0.27,0.20,-1.21,1005.93
6.618,-0.22,1.03,-0.03,1.54,-0.01,1.05,0.23,0.31,-1.06,1005.93
6.619,-0.22,1.03,-0.03,0.21,0.34,0.16,0.23,0.31,-1.06,1005.93
6.624,-0.22,1.03,-0.03,0.21,0.34,0.16,0.23,0.31,-1.06,1005.94
6.637,-0.16,1.03,-0.03,0.21,0.34,0.16,0.23,0.31,-1.06,1005.94
6.638,-0.06,0.97,0.03,0.21,0.34,0.16,0.23,0.31,-1.06,1005.94
6.639,-0.01,0.97,0.06,0.21,0.34,0.16,0.23,0.31,-1.06,1005.94
6.675,-0.01,0.97,0.06,1.03,0.30,0.37,0.23,0.31,-1.06,1005.94
6.676,-0.01,0.97,0.06,1.03,0.30,0.37,0.21,0.10,-1.21,1005.94
6.696,0.02,1.00,0.01,1.03,0.30,0.37,0.21,0.10,-1.21,1005.94
6.697,0.07,1.04,0.02,1.03,0.30,0.37,0.21,0.10,-1.21,1005.94
6.699,0.03,1.08,0.05,1.03,0.30,0.37,0.21,0.10,-1.21,1005.94
6.704,0.03,1.08,0.05,1.03,0.30,0.37,0.21,0.10,-1.21,1005.93
6.734,0.03,1.08,0.05,1.03,0.30,0.37,0.33,0.17,-1.84,1005.93
6.735,0.03,1.08,0.05,3.12,1.04,0.63,0.33,0.17,-1.84,1005.93
6.75,0.03,1.08,0.05,3.12,1.04,0.63,0.33,0.17,-1.84,1005.92
6.754,-0.12,1.14,0.03,3.12,1.04,0.63,0.33,0.17,-1.84,1005.92
6.755,-0.12,1.16,0.02,3.12,1.04,0.63,0.33,0.17,-1.84,1005.92
6.756,0.02,1.22,0.02,3.12,1.04,0.63,0.33,0.17,-1.84,1005.92
6.792,0.02,1.22,0.02,3.12,1.04,0.63,0.57,0.35,-2.30,1005.92
6.793,0.02,1.22,0.02,3.11,2.74,0.94,0.57,0.35,-2.30,1005.92
6.811,0.14,1.35,0.07,3.11,2.74,0.94,0.57,0.35,-2.30,1005.92
6.812,0.22,1.51,0.05,3.11,2.74,0.94,0.57,0.35,-2.30,1005.92
6.812,0.36,1.65,-0.05,3.11,2.74,0.94,0.57,0.35,-2.30,1005.92
6.824,0.36,1.65,-0.05,3.11,2.74,0.94,0.57,0.35,-2.30,1005.93
6.851,0.36,1.65,-0.05,3.11,2.74,0.94,0.82,1.56,-2.79,1005.93
6.855,0.36,1.65,-0.05,7.34,6.64,1.72,0.82,1.56,-2.79,1005.93
6.877,0.77,1.79,-0.19,7.34,6.64,1.72,0.82,1.56,-2.79,1005.93
6.878,1.11,1.69,-0.27,7.34,6.64,1.72,0.82,1.56,-2.79,1005.93
6.878,0.19,1.12,-0.14,7.34,6.64,1.72,0.82,1.56,-2.79,1005.93
6.904,0.19,1.12,-0.14,7.34,6.64,1.72,0.82,1.56,-2.79,1005.93
6.91,0.19,1.12,-0.14,12.83,8.28,1.01,0.82,1.56,-2.79,1005.93
6.911,0.19,1.12,-0.14,12.83,8.28,1.01,1.16,2.96,-4.01,1005.93
6.929,-0.88,0.90,-0.16,12.83,8.28,1.01,1.16,2.96,-4.01,1005.93
6.93,-1.26,0.95,-0.29,12.83,8.28,1.01,1.16,2.96,-4.01,1005.93
6.931,-1.03,0.88,-0.23,12.83,8.28,1.01,1.16,2.96,-4.01,1005.93
6.95,-1.03,0.88,-0.23,12.83,8.28,1.01,1.16,2.96,-4.01,1005.92
6.98,-1.03,0.88,-0.23,-3.89,2.73,1.26,1.16,2.96,-4.01,1005.92
6.982,-1.03,0.88,-0.23,-3.89,2.73,1.26,0.76,0.77,-1.29,1005.92
6.987,-0.62,0.46,-0.13,-3.89,2.73,1.26,0.76,0.77,-1.29,1005.92
6.989,-0.66,0.20,-0.08,-3.89,2.73,1.26,0.76,0.77,-1.29,1005.92
6.989,-0.90,0.25,-0.19,-3.89,2.73,1.26,0.76,0.77,-1.29,1005.92
7.023,-0.90,0.25,-0.19,-3.89,2.73,1.26,0.76,0.77,-1.29,1005.92
7.025,-0.90,0.25,-0.19,-3.89,2.73,1.26,-0.26,-1.84,1.54,1005.92
7.026,-0.90,0.25,-0.19,-0.88,-3.75,1.39,-0.26,-1.84,1.54,1005.92
7.046,-0.69,0.18,-0.33,-0.88,-3.75,1.39,-0.26,-1.84,1.54,1005.92
7.047,-0.24,0.02,-0.23,-0.88,-3.75,1.39,-0.26,-1.84,1.54,1005.92
7.048,-0.04,-0.13,-0.03,-0.88,-3.75,1.39,-0.26,-1.84,1.54,1005.92
7.084,-0.04,-0.13,-0.03,-0.88,-3.75,1.39,0.31,-2.60,4.39,1005.92
7.086,-0.04,-0.13,-0.03,1.49,-7.72,0.06,0.31,-2.60,4.39,1005.92
7.103,0.09,-0.08,-0.13,1.49,-7.72,0.06,0.31,-2.60,4.39,1005.92
7.104,-0.03,0.17,-0.43,1.49,-7.72,0.06,0.31,-2.60,4.39,1005.92
7.104,-0.31,0.44,-0.53,1.49,-7.72,0.06,0.31,-2.60,4.39,1005.92
7.105,-0.31,0.44,-0.53,1.49,-7.72,0.06,0.31,-2.60,4.39,1005.94
7.142,-0.31,0.44,-0.53,1.49,-7.72,0.06,1.80,-3.91,5.60,1005.94
7.143,-0.31,0.44,-0.53,1.50,-7.08,-1.45,1.80,-3.91,5.60,1005.94
7.148,-0.31,0.44,-0.53,1.50,-7.08,-1.45,1.80,-3.91,5.60,1005.95
7.165,-0.42,0.46,-0.24,1.50,-7.08,-1.45,1.80,-3.91,5.60,1005.95
7.167,-0.56,0.64,-0.50,1.50,-7.08,-1.45,1.80,-3.91,5.60,1005.95
7.167,-0.83,1.21,-0.65,1.50,-7.08,-1.45,1.80,-3.91,5.60,1005.95
7.201,-0.83,1.21,-0.65,1.50,-7.08,-1.45,2.64,-8.33,6.52,1005.95
7.202,-0.83,1.21,-0.65,-5.71,-1.27,-1.57,2.64,-8.33,6.52,1005.95
7.221,-1.00,1.59,-0.37,-5.71,-1.27,-1.57,2.64,-8.33,6.52,1005.95
7.221,-0.70,1.59,-0.43,-5.71,-1.27,-1.57,2.64,-8.33,6.52,1005.95
7.222,-0.32,1.70,-0.11,-5.71,-1.27,-1.57,2.64,-8.33,6.52,1005.95
7.224,-0.32,1.70,-0.11,-5.71,-1.27,-1.57,2.64,-8.33,6.52,1005.94
7.259,-0.32,1.70,-0.11,-5.71,-1.27,-1.57,1.09,-10.66,3.37,1005.94
7.26,-0.32,1.70,-0.11,-5.95,7.19,0.43,1.09,-10.66,3.37,1005.94
7.281,-0.95,1.98,0.17,-5.95,7.19,0.43,1.09,-10.66,3.37,1005.94
7.282,-0.65,1.58,1.14,-5.95,7.19,0.43,1.09,-10.66,3.37,1005.94
7.282,0.98,0.54,1.31,-5.95,7.19,0.43,1.09,-10.66,3.37,1005.94
7.304,0.98,0.54,1.31,-5.95,7.19,0.43,1.09,-10.66,3.37,1005.89
7.316,0.98,0.54,1.31,-5.95,7.19,0.43,-0.69,-1.62,0.96,1005.89
7.317,0.98,0.54,1.31,-1.52,4.39,11.37,-0.69,-1.62,0.96,1005.89
7.336,1.91,0.34,0.78,-1.52,4.39,11.37,-0.69,-1.62,0.96,1005.89
7.336,0.97,1.20,0.45,-1.52,4.39,11.37,-0.69,-1.62,0.96,1005.89
7.337,-0.10,1.52,-0.58,-1.52,4.39,11.37,-0.69,-1.62,0.96,1005.89
7.345,-0.10,1.52,-0.58,-1.52,4.39,11.37,-0.69,-1.62,0.96,1005.86
7.375,-0.10,1.52,-0.58,-1.52,4.39,11.37,-0.38,2.10,-0.91,1005.86
7.376,-0.10,1.52,-0.58,9.55,0.92,4.72,-0.38,2.10,-0.91,1005.86
7.394,-0.43,1.63,-1.17,9.55,0.92,4.72,-0.38,2.10,-0.91,1005.86
7.395,-0.89,1.32,-0.75,9.55,0.92,4.72,-0.38,2.10,-0.91,1005.86
7.396,-0.57,1.09,-0.41,9.55,0.92,4.72,-0.38,2.10,-0.91,1005.86
7.423,-0.57,1.09,-0.41,9.55,0.92,4.72,-0.38,2.10,-0.91,1005.95
7.433,-0.57,1.09,-0.41,9.55,0.92,4.72,-0.67,-2.81,0.50,1005.95
7.433,-0.57,1.09,-0.41,-5.48,4.00,-5.41,-0.67,-2.81,0.50,1005.95
7.453,0.58,0.97,-0.14,-5.48,4.00,-5.41,-0.67,-2.81,0.50,1005.95
7.454,0.82,0.88,-0.01,-5.48,4.00,-5.41,-0.67,-2.81,0.50,1005.95
7.454,0.12,0.87,0.24,-5.48,4.00,-5.41,-0.67,-2.81,0.50,1005.95
7.491,0.12,0.87,0.24,-5.48,4.00,-5.41,-0.20,0.24,-0.46,1005.95
7.492,0.12,0.87,0.24,5.80,-0.36,2.39,-0.20,0.24,-0.46,1005.95
7.504,0.12,0.87,0.24,5.80,-0.36,2.39,-0.20,0.24,-0.46,1005.90
7.511,-0.29,0.93,-0.01,5.80,-0.36,2.39,-0.20,0.24,-0.46,1005.90
7.511,-0.50,1.06,-0.26,5.80,-0.36,2.39,-0.20,0.24,-0.46,1005.90
7.512,-0.43,1.03,-0.35,5.80,-0.36,2.39,-0.20,0.24,-0.46,1005.90
7.549,-0.43,1.03,-0.35,5.80,-0.36,2.39,-0.20,0.24,-0.46,1005.94
7.55,-0.43,1.03,-0.35,5.80,-0.36,2.39,-0.04,-0.54,0.31,1005.94
7.551,-0.43,1.03,-0.35,-3.23,0.60,0.02,-0.04,-0.54,0.31,1005.94
7.579,-0.28,0.97,-0.24,-3.23,0.60,0.02,-0.04,-0.54,0.31,1005.94
7.58,-0.21,0.98,-0.21,-3.23,0.60,0.02,-0.04,-0.54,0.31,1005.94
7.58,0.00,1.00,-0.20,-3.23,0.60,0.02,-0.04,-0.54,0.31,1005.94
7.609,0.00,1.00,-0.20,-1.03,0.36,-0.09,-0.04,-0.54,0.31,1005.94
7.611,0.00,1.00,-0.20,-1.03,0.36,-0.09,-0.00,-0.61,0.60,1005.94
7.626,0.00,1.00,-0.20,-1.03,0.36,-0.09,-0.00,-0.61,0.60,1005.93
7.63,0.21,0.94,-0.12,-1.03,0.36,-0.09,-0.00,-0.61,0.60,1005.93
7.631,0.17,0.93,-0.15,-1.03,0.36,-0.09,-0.00,-0.61,0.60,1005.93
7.631,0.06,0.97,-0.15,-1.03,0.36,-0.09,-0.00,-0.61,0.60,1005.93
7.667,0.06,0.97,-0.15,-1.03,0.36,-0.09,0.11,-0.16,-0.00,1005.93
7.668,0.06,0.97,-0.15,1.98,0.01,0.70,0.11,-0.16,-0.00,1005.93
7.687,-0.04,1.00,-0.19,1.98,0.01,0.70,0.11,-0.16,-0.00,1005.93
7.687,-0.06,1.00,-0.20,1.98,0.01,0.70,0.11,-0.16,-0.00,1005.93
7.688,-0.03,0.98,-0.10,1.98,0.01,0.70,0.11,-0.16,-0.00,1005.93
7.703,-0.03,0.98,-0.10,1.98,0.01,0.70,0.11,-0.16,-0.00,1005.93
7.726,-0.03,0.98,-0.10,1.98,0.01,0.70,0.29,-0.45,-0.13,1005.93
7.727,-0.03,0.98,-0.10,0.21,0.48,0.60,0.29,-0.45,-0.13,1005.93
7.744,-0.03,0.98,-0.10,0.21,0.48,0.60,0.29,-0.45,-0.13,1005.93
7.745,0.02,0.96,-0.06,0.21,0.48,0.60,0.29,-0.45,-0.13,1005.93
7.745,-0.03,0.93,-0.10,0.21,0.48,0.60,0.29,-0.45,-0.13,1005.93
7.745,-0.15,0.96,-0.15,0.21,0.48,0.60,0.29,-0.45,-0.13,1005.93
7.789,-0.15,0.96,-0.15,0.21,0.16,1.46,0.29,-0.45,-0.13,1005.93
7.791,-0.15,0.96,-0.15,0.21,0.16,1.46,0.54,-0.21,-0.12,1005.93
7.804,-0.17,0.99,-0.17,0.21,0.16,1.46,0.54,-0.21,-0.12,1005.93
7.805,-0.10,1.01,-0.17,0.21,0.16,1.46,0.54,-0.21,-0.12,1005.93
7.806,0.02,1.05,-0.17,0.21,0.16,1.46,0.54,-0.21,-0.12,1005.93
7.825,0.02,1.05,-0.17,0.21,0.16,1.46,0.54,-0.21,-0.12,1005.95
7.843,0.02,1.05,-0.17,0.21,0.16,1.46,0.90,-0.29,-0.07,1005.95
7.843,0.02,1.05,-0.17,0.02,0.95,1.23,0.90,-0.29,-0.07,1005.95
7.864,0.13,1.08,-0.22,0.02,0.95,1.23,0.90,-0.29,-0.07,1005.95
7.865,0.15,1.08,-0.21,0.02,0.95,1.23,0.90,-0.29,-0.07,1005.95
7.865,0.11,1.10,-0.23,0.02,0.95,1.23,0.90,-0.29,-0.07,1005.95
7.901,0.11,1.10,-0.23,0.02,0.95,1.23,1.48,-0.30,-0.57,1005.95
7.901,0.11,1.10,-0.23,2.40,1.93,1.48,1.48,-0.30,-0.57,1005.95
7.904,0.11,1.10,-0.23,2.40,1.93,1.48,1.48,-0.30,-0.57,1005.96
7.92,0.04,1.16,-0.29,2.40,1.93,1.48,1.48,-0.30,-0.57,1005.96
7.921,0.10,1.32,-0.27,2.40,1.93,1.48,1.48,-0.30,-0.57,1005.96
7.921,0.30,1.48,-0.18,2.40,1.93,1.48,1.48,-0.30,-0.57,1005.96
7.951,0.30,1.48,-0.18,2.40,1.93,1.48,1.48,-0.30,-0.57,1005.94
7.981,0.30,1.48,-0.18,2.40,1.93,1.48,2.31,-1.47,-0.84,1005.94
7.982,0.30,1.48,-0.18,3.28,4.74,2.17,2.31,-1.47,-0.84,1005.94
7.983,0.57,1.64,-0.14,3.28,4.74,2.17,2.31,-1.47,-0.84,1005.94
7.983,0.65,1.75,-0.12,3.28,4.74,2.17,2.31,-1.47,-0.84,1005.94
7.984,0.40,1.55,0.35,3.28,4.74,2.17,2.31,-1.47,-0.84,1005.94
8.017,0.40,1.55,0.35,3.28,4.74,2.17,2.34,-2.75,-1.81,1005.94
8.018,0.40,1.55,0.35,8.63,8.74,5.43,2.34,-2.75,-1.81,1005.94
8.024,0.40,1.55,0.35,8.63,8.74,5.43,2.34,-2.75,-1.81,1005.91
8.037,-0.22,1.28,0.57,8.63,8.74,5.43,2.34,-2.75,-1.81,1005.91
8.038,-1.03,1.36,0.38,8.63,8.74,5.43,2.34,-2.75,-1.81,1005.91
8.039,-1.47,1.39,-0.12,8.63,8.74,5.43,2.34,-2.75,-1.81,1005.91
8.075,-1.47,1.39,-0.12,8.63,8.74,5.43,1.68,-4.62,-1.19,1005.91
8.076,-1.47,1.39,-0.12,-3.68,6.42,7.29,1.68,-4.62,-1.19,1005.91
8.097,-1.19,1.21,-0.31,-3.68,6.42,7.29,1.68,-4.62,-1.19,1005.91
8.099,-0.38,0.98,-0.31,-3.68,6.42,7.29,1.68,-4.62,-1.19,1005.91
8.1,0.17,0.73,0.01,-3.68,6.42,7.29,1.68,-4.62,-1.19,1005.91
8.104,0.17,0.73,0.01,-3.68,6.42,7.29,1.68,-4.62,-1.19,1005.90
8.134,0.17,0.73,0.01,-3.68,6.42,7.29,0.68,-4.43,1.51,1005.90
8.135,0.17,0.73,0.01,1.05,2.43,1.35,0.68,-4.43,1.51,1005.90
8.144,0.17,0.73,0.01,1.05,2.43,1.35,0.68,-4.43,1.51,1005.90
8.157,0.33,0.50,0.38,1.05,2.43,1.35,0.68,-4.43,1.51,1005.90
8.16,-0.06,0.49,0.39,1.05,2.43,1.35,0.68,-4.43,1.51,1005.90
8.161,-0.27,0.49,0.23,1.05,2.43,1.35,0.68,-4.43,1.51,1005.90
8.192,-0.27,0.49,0.23,1.05,2.43,1.35,0.46,-2.54,3.10,1005.90
8.193,-0.27,0.49,0.23,4.63,-3.09,5.92,0.46,-2.54,3.10,1005.90
8.214,-0.21,0.46,0.20,4.63,-3.09,5.92,0.46,-2.54,3.10,1005.90
8.219,-0.23,0.49,0.16,4.63,-3.09,5.92,0.46,-2.54,3.10,1005.90
8.22,-0.24,0.58,0.14,4.63,-3.09,5.92,0.46,-2.54,3.10,1005.90
8.225,-0.24,0.58,0.14,4.63,-3.09,5.92,0.46,-2.54,3.10,1005.94
8.251,-0.24,0.58,0.14,4.63,-3.09,5.92,-0.01,-1.27,5.05,1005.94
8.253,-0.24,0.58,0.14,0.11,-3.88,3.94,-0.01,-1.27,5.05,1005.94
8.282,-0.14,0.71,0.08,0.11,-3.88,3.94,-0.01,-1.27,5.05,1005.94
8.283,-0.16,0.88,0.08,0.11,-3.88,3.94,-0.01,-1.27,5.05,1005.94
8.284,-0.24,1.08,0.08,0.11,-3.88,3.94,-0.01,-1.27,5.05,1005.94
8.304,-0.24,1.08,0.08,0.11,-3.88,3.94,-0.01,-1.27,5.05,1005.93
8.308,-0.24,1.08,0.08,0.11,-3.88,3.94,-0.96,-0.91,5.83,1005.93
8.31,-0.24,1.08,0.08,-2.44,-0.58,2.45,-0.96,-0.91,5.83,1005.93
8.33,-0.23,1.24,-0.01,-2.44,-0.58,2.45,-0.96,-0.91,5.83,1005.93
8.333,-0.39,1.44,-0.07,-2.44,-0.58,2.45,-0.96,-0.91,5.83,1005.93
8.334,-0.50,1.59,-0.12,-2.44,-0.58,2.45,-0.96,-0.91,5.83,1005.93
8.35,-0.50,1.59,-0.12,-2.44,-0.58,2.45,-0.96,-0.91,5.83,1005.88
8.367,-0.50,1.59,-0.12,-2.44,-0.58,2.45,-1.70,-1.28,5.61,1005.88
8.368,-0.50,1.59,-0.12,-7.06,5.18,0.28,-1.70,-1.28,5.61,1005.88
8.387,-0.55,1.72,-0.09,-7.06,5.18,0.28,-1.70,-1.28,5.61,1005.88
8.388,-0.55,1.59,-0.07,-7.06,5.18,0.28,-1.70,-1.28,5.61,1005.88
8.388,-0.46,1.24,0.10,-7.06,5.18,0.28,-1.70,-1.28,5.61,1005.88
8.424,-0.46,1.24,0.10,-7.06,5.18,0.28,-1.70,-1.28,5.61,1005.86
8.426,-0.46,1.24,0.10,-7.06,5.18,0.28,-1.27,-0.13,3.34,1005.86
8.426,-0.46,1.24,0.10,-9.95,6.71,0.17,-1.27,-0.13,3.34,1005.86
8.444,-0.48,1.21,0.11,-9.95,6.71,0.17,-1.27,-0.13,3.34,1005.86
8.445,-0.66,1.26,-0.06,-9.95,6.71,0.17,-1.27,-0.13,3.34,1005.86
8.446,-0.81,1.04,-0.10,-9.95,6.71,0.17,-1.27,-0.13,3.34,1005.86
8.483,-0.81,1.04,-0.10,-9.95,6.71,0.17,-0.59,0.41,-0.81,1005.86
8.485,-0.81,1.04,-0.10,-10.65,3.05,-0.21,-0.59,0.41,-0.81,1005.86
8.504,-0.90,0.84,-0.14,-10.65,3.05,-0.21,-0.59,0.41,-0.81,1005.86
8.505,-1.00,0.93,-0.22,-10.65,3.05,-0.21,-0.59,0.41,-0.81,1005.86
8.506,-0.78,1.19,-0.66,-10.65,3.05,-0.21,-0.59,0.41,-0.81,1005.86
8.507,-0.78,1.19,-0.66,-10.65,3.05,-0.21,-0.59,0.41,-0.81,1005.87
8.541,-0.78,1.19,-0.66,-10.65,3.05,-0.21,-0.39,-2.66,-1.31,1005.87
8.542,-0.78,1.19,-0.66,-12.16,0.92,-2.89,-0.39,-2.66,-1.31,1005.87
8.551,-0.78,1.19,-0.66,-12.16,0.92,-2.89,-0.39,-2.66,-1.31,1005.89
8.572,0.55,1.20,-0.81,-12.16,0.92,-2.89,-0.39,-2.66,-1.31,1005.89
8.572,2.00,1.10,-0.56,-12.16,0.92,-2.89,-0.39,-2.66,-1.31,1005.89
8.573,1.65,1.84,-0.64,-12.16,0.92,-2.89,-0.39,-2.66,-1.31,1005.89
8.601,1.65,1.84,-0.64,-12.16,0.92,-2.89,-0.97,-2.05,-1.81,1005.89
8.601,1.65,1.84,-0.64,11.08,4.42,-6.18,-0.97,-2.05,-1.81,1005.89
8.62,-0.29,2.14,-0.59,11.08,4.42,-6.18,-0.97,-2.05,-1.81,1005.89
8.621,-0.31,0.78,0.20,11.08,4.42,-6.18,-0.97,-2.05,-1.81,1005.89
8.621,0.28,0.33,0.84,11.08,4.42,-6.18,-0.97,-2.05,-1.81,1005.89
8.623,0.28,0.33,0.84,11.08,4.42,-6.18,-0.97,-2.05,-1.81,1005.89
8.661,0.28,0.33,0.84,11.08,4.42,-6.18,-0.20,-0.02,-1.85,1005.89
8.662,0.28,0.33,0.84,-2.62,1.24,1.71,-0.20,-0.02,-1.85,1005.89
8.678,0.36,0.78,0.67,-2.62,1.24,1.71,-0.20,-0.02,-1.85,1005.89
8.678,0.19,1.02,0.02,-2.62,1.24,1.71,-0.20,-0.02,-1.85,1005.89
8.679,-0.25,1.10,-0.21,-2.62,1.24,1.71,-0.20,-0.02,-1.85,1005.89
8.705,-0.25,1.10,-0.21,-2.62,1.24,1.71,-0.20,-0.02,-1.85,1005.92
8.719,-0.25,1.10,-0.21,-2.62,1.24,1.71,-0.05,0.38,-1.30,1005.92
8.72,-0.25,1.10,-0.21,0.11,0.00,1.76,-0.05,0.38,-1.30,1005.92
8.742,-0.35,1.15,-0.27,0.11,0.00,1.76,-0.05,0.38,-1.30,1005.92
8.742,-0.10,1.08,-0.22,0.11,0.00,1.76,-0.05,0.38,-1.30,1005.92
8.743,0.08,1.05,0.00,0.11,0.00,1.76,-0.05,0.38,-1.30,1005.92
8.743,0.08,1.05,0.00,0.11,0.00,1.76,-0.05,0.38,-1.30,1005.93
8.775,0.08,1.05,0.00,0.11,0.00,1.76,-0.15,-0.43,-0.71,1005.93
8.776,0.08,1.05,0.00,-1.64,1.16,-1.47,-0.15,-0.43,-0.71,1005.93
8.795,0.18,1.01,0.10,-1.64,1.16,-1.47,-0.15,-0.43,-0.71,1005.93
8.796,0.27,0.91,0.15,-1.64,1.16,-1.47,-0.15,-0.43,-0.71,1005.93
8.797,0.25,0.87,0.19,-1.64,1.16,-1.47,-0.15,-0.43,-0.71,1005.93
8.827,0.25,0.87,0.19,-1.64,1.16,-1.47,-0.15,-0.43,-0.71,1005.92
8.833,0.25,0.87,0.19,-1.64,1.16,-1.47,0.05,0.22,-1.21,1005.92
8.834,0.25,0.87,0.19,2.48,-0.40,1.56,0.05,0.22,-1.21,1005.92
8.854,0.12,0.95,0.13,2.48,-0.40,1.56,0.05,0.22,-1.21,1005.92
8.854,0.01,1.02,0.03,2.48,-0.40,1.56,0.05,0.22,-1.21,1005.92
8.855,-0.05,1.05,0.00,2.48,-0.40,1.56,0.05,0.22,-1.21,1005.92
8.893,-0.05,1.05,0.00,2.48,-0.40,1.56,0.15,-0.01,-1.37,1005.92
8.894,-0.05,1.05,0.00,1.22,0.38,0.74,0.15,-0.01,-1.37,1005.92
8.905,-0.05,1.05,0.00,1.22,0.38,0.74,0.15,-0.01,-1.37,1005.91
8.912,-0.10,1.06,-0.02,1.22,0.38,0.74,0.15,-0.01,-1.37,1005.91
8.913,-0.05,1.04,-0.03,1.22,0.38,0.74,0.15,-0.01,-1.37,1005.91
8.913,0.02,1.02,-0.03,1.22,0.38,0.74,0.15,-0.01,-1.37,1005.91
8.945,0.02,1.02,-0.03,1.22,0.38,0.74,0.15,-0.01,-1.37,1005.92
8.952,0.02,1.02,-0.03,1.22,0.38,0.74,0.16,0.36,-1.49,1005.92
8.953,0.02,1.02,-0.03,1.31,0.78,0.03,0.16,0.36,-1.49,1005.92
8.975,-0.06,1.01,-0.00,1.31,0.78,0.03,0.16,0.36,-1.49,1005.92
8.976,-0.15,1.01,-0.07,1.31,0.78,0.03,0.16,0.36,-1.49,1005.92
8.976,-0.08,1.02,-0.06,1.31,0.78,0.03,0.16,0.36,-1.49,1005.92
9.009,-0.08,1.02,-0.06,1.31,0.78,0.03,0.21,0.31,-1.79,1005.92
9.01,-0.08,1.02,-0.06,1.73,0.80,0.02,0.21,0.31,-1.79,1005.92
9.025,-0.08,1.02,-0.06,1.73,0.80,0.02,0.21,0.31,-1.79,1005.93
9.028,-0.04,1.11,-0.01,1.73,0.80,0.02,0.21,0.31,-1.79,1005.93
9.029,-0.13,1.21,-0.03,1.73,0.80,0.02,0.21,0.31,-1.79,1005.93
9.029,-0.12,1.25,-0.03,1.73,0.80,0.02,0.21,0.31,-1.79,1005.93
9.066,-0.12,1.25,-0.03,1.73,0.80,0.02,0.49,0.06,-2.15,1005.93
9.067,-0.12,1.25,-0.03,2.77,2.88,0.49,0.49,0.06,-2.15,1005.93
9.087,0.05,1.29,-0.06,2.77,2.88,0.49,0.49,0.06,-2.15,1005.93
9.087,0.24,1.38,-0.04,2.77,2.88,0.49,0.49,0.06,-2.15,1005.93
9.088,0.21,1.45,-0.06,2.77,2.88,0.49,0.49,0.06,-2.15,1005.93
9.104,0.21,1.45,-0.06,2.77,2.88,0.49,0.49,0.06,-2.15,1005.94
9.125,0.21,1.45,-0.06,2.77,2.88,0.49,0.73,0.81,-2.50,1005.94
9.126,0.21,1.45,-0.06,6.49,5.22,0.76,0.73,0.81,-2.50,1005.94
9.145,0.21,1.45,-0.06,6.49,5.22,0.76,0.73,0.81,-2.50,1005.93
9.146,0.29,1.64,-0.04,6.49,5.22,0.76,0.73,0.81,-2.50,1005.93
9.146,0.86,1.75,0.00,6.49,5.22,0.76,0.73,0.81,-2.50,1005.93
9.146,1.02,1.43,0.02,6.49,5.22,0.76,0.73,0.81,-2.50,1005.93
9.185,1.02,1.43,0.02,12.90,8.52,2.36,0.73,0.81,-2.50,1005.93
9.186,1.02,1.43,0.02,12.90,8.52,2.36,0.53,2.84,-3.39,1005.93
9.202,0.07,1.09,0.07,12.90,8.52,2.36,0.53,2.84,-3.39,1005.93
9.203,-0.75,1.25,-0.19,12.90,8.52,2.36,0.53,2.84,-3.39,1005.93
9.203,-0.82,1.38,-0.19,12.90,8.52,2.36,0.53,2.84,-3.39,1005.93
9.224,-0.82,1.38,-0.19,12.90,8.52,2.36,0.53,2.84,-3.39,1005.92
9.242,-0.82,1.38,-0.19,12.90,8.52,2.36,0.61,2.21,-2.68,1005.92
9.243,-0.82,1.38,-0.19,1.55,5.93,2.39,0.61,2.21,-2.68,1005.92
9.262,-0.64,1.03,-0.15,1.55,5.93,2.39,0.61,2.21,-2.68,1005.92
9.263,-0.59,0.69,-0.12,1.55,5.93,2.39,0.61,2.21,-2.68,1005.92
9.263,-0.62,0.58,-0.21,1.55,5.93,2.39,0.61,2.21,-2.68,1005.92
9.3,-0.62,0.58,-0.21,1.55,5.93,2.39,-0.89,0.51,0.13,1005.92
9.301,-0.62,0.58,-0.21,0.25,1.03,1.64,-0.89,0.51,0.13,1005.92
9.304,-0.62,0.58,-0.21,0.25,1.03,1.64,-0.89,0.51,0.13,1005.93
9.32,-0.45,0.37,-0.34,0.25,1.03,1.64,-0.89,0.51,0.13,1005.93
9.321,-0.19,0.28,-0.25,0.25,1.03,1.64,-0.89,0.51,0.13,1005.93
9.321,-0.04,0.15,-0.11,0.25,1.03,1.64,-0.89,0.51,0.13,1005.93
9.344,-0.04,0.15,-0.11,0.25,1.03,1.64,-0.89,0.51,0.13,1005.93
9.359,-0.04,0.15,-0.11,0.25,1.03,1.64,-1.63,-0.22,2.82,1005.93
9.36,-0.04,0.15,-0.11,2.87,-5.00,0.19,-1.63,-0.22,2.82,1005.93
9.379,-0.03,0.23,-0.15,2.87,-5.00,0.19,-1.63,-0.22,2.82,1005.93
9.38,-0.14,0.41,-0.25,2.87,-5.00,0.19,-1.63,-0.22,2.82,1005.93
9.38,-0.08,0.54,-0.41,2.87,-5.00,0.19,-1.63,-0.22,2.82,1005.93
9.418,-0.08,0.54,-0.41,2.87,-5.00,0.19,-1.73,-0.43,4.64,1005.93
9.42,-0.08,0.54,-0.41,2.06,-4.97,-1.06,-1.73,-0.43,4.64,1005.93
9.425,-0.08,0.54,-0.41,2.06,-4.97,-1.06,-1.73,-0.43,4.64,1005.95
9.437,-0.00,0.59,-0.29,2.06,-4.97,-1.06,-1.73,-0.43,4.64,1005.95
9.438,-0.05,0.63,-0.18,2.06,-4.97,-1.06,-1.73,-0.43,4.64,1005.95
9.438,-0.10,0.77,-0.22,2.06,-4.97,-1.06,-1.73,-0.43,4.64,1005.95
9.476,-0.10,0.77,-0.22,2.06,-4.97,-1.06,-1.49,0.48,6.00,1005.95
9.477,-0.10,0.77,-0.22,-0.84,-2.83,-1.45,-1.49,0.48,6.00,1005.95
9.503,-0.05,0.99,-0.25,-0.84,-2.83,-1.45,-1.49,0.48,6.00,1005.95
9.504,-0.01,1.38,-0.31,-0.84,-2.83,-1.45,-1.49,0.48,6.00,1005.95
9.504,-0.14,1.96,-0.39,-0.84,-2.83,-1.45,-1.49,0.48,6.00,1005.95
9.504,-0.14,1.96,-0.39,-0.84,-2.83,-1.45,-1.49,0.48,6.00,1005.95
9.534,-0.14,1.96,-0.39,-0.84,-2.83,-1.45,-1.90,0.26,5.88,1005.95
9.535,-0.14,1.96,-0.39,-4.05,5.37,-3.25,-1.90,0.26,5.88,1005.95
9.545,-0.14,1.96,-0.39,-4.05,5.37,-3.25,-1.90,0.26,5.88,1005.93
9.554,-0.61,2.26,-0.31,-4.05,5.37,-3.25,-1.90,0.26,5.88,1005.93
9.554,-1.08,1.96,-0.04,-4.05,5.37,-3.25,-1.90,0.26,5.88,1005.93
9.555,-1.14,1.41,-0.03,-4.05,5.37,-3.25,-1.90,0.26,5.88,1005.93
9.591,-1.14,1.41,-0.03,-4.05,5.37,-3.25,-1.25,-0.65,2.64,1005.93
9.592,-1.14,1.41,-0.03,-13.76,10.11,-1.83,-1.25,-0.65,2.64,1005.93
9.612,-0.98,1.10,-0.32,-13.76,10.11,-1.83,-1.25,-0.65,2.64,1005.93
9.615,-1.15,0.92,-0.26,-13.76,10.11,-1.83,-1.25,-0.65,2.64,1005.93
9.616,-1.29,0.78,-0.28,-13.76,10.11,-1.83,-1.25,-0.65,2.64,1005.93
9.624,-1.29,0.78,-0.28,-13.76,10.11,-1.83,-1.25,-0.65,2.64,1005.87
9.65,-1.29,0.78,-0.28,-13.76,10.11,-1.83,-0.31,-2.02,-1.97,1005.87
9.651,-1.29,0.78,-0.28,-14.53,0.41,-3.01,-0.31,-2.02,-1.97,1005.87
9.693,-1.22,1.23,-0.68,-14.53,0.41,-3.01,-0.31,-2.02,-1.97,1005.87
9.696,0.54,1.65,-0.25,-14.53,0.41,-3.01,-0.31,-2.02,-1.97,1005.87
9.697,2.46,1.37,0.11,-14.53,0.41,-3.01,-0.31,-2.02,-1.97,1005.87
9.704,2.46,1.37,0.11,-14.53,0.41,-3.01,-0.31,-2.02,-1.97,1005.86
9.708,2.46,1.37,0.11,-14.53,0.41,-3.01,-0.46,-1.93,-1.33,1005.86
9.709,2.46,1.37,0.11,3.10,4.84,-2.73,-0.46,-1.93,-1.33,1005.86
9.729,1.54,1.70,-0.62,3.10,4.84,-2.73,-0.46,-1.93,-1.33,1005.86
9.73,-0.51,1.54,-0.65,3.10,4.84,-2.73,-0.46,-1.93,-1.33,1005.86
9.73,-0.59,0.73,0.47,3.10,4.84,-2.73,-0.46,-1.93,-1.33,1005.86
9.745,-0.59,0.73,0.47,3.10,4.84,-2.73,-0.46,-1.93,-1.33,1005.86
9.769,-0.59,0.73,0.47,0.06,3.54,-2.69,-0.46,-1.93,-1.33,1005.86
9.77,-0.59,0.73,0.47,0.06,3.54,-2.69,-0.08,0.20,-2.51,1005.86
9.796,0.10,0.59,0.51,0.06,3.54,-2.69,-0.08,0.20,-2.51,1005.86
9.797,0.22,0.92,0.14,0.06,3.54,-2.69,-0.08,0.20,-2.51,1005.86
9.797,-0.11,1.05,0.14,0.06,3.54,-2.69,-0.08,0.20,-2.51,1005.86
9.825,-0.11,1.05,0.14,0.06,3.54,-2.69,-0.08,0.20,-2.51,1005.94
9.826,-0.11,1.05,0.14,0.06,3.54,-2.69,0.18,0.00,-1.76,1005.94
9.826,-0.11,1.05,0.14,0.29,-1.15,2.60,0.18,0.00,-1.76,1005.94
9.845,-0.33,1.05,-0.03,0.29,-1.15,2.60,0.18,0.00,-1.76,1005.94
9.846,-0.24,0.98,-0.06,0.29,-1.15,2.60,0.18,0.00,-1.76,1005.94
9.846,-0.07,1.01,-0.09,0.29,-1.15,2.60,0.18,0.00,-1.76,1005.94
9.884,-0.07,1.01,-0.09,0.29,-1.15,2.60,0.07,-0.36,-0.97,1005.94
9.886,-0.07,1.01,-0.09,-1.91,0.42,-0.55,0.07,-0.36,-0.97,1005.94
9.904,-0.00,1.07,-0.02,-1.91,0.42,-0.55,0.07,-0.36,-0.97,1005.94
9.906,0.06,1.06,0.03,-1.91,0.42,-0.55,0.07,-0.36,-0.97,1005.94
9.907,0.06,1.01,0.01,-1.91,0.42,-0.55,0.07,-0.36,-0.97,1005.94
9.908,0.06,1.01,0.01,-1.91,0.42,-0.55,0.07,-0.36,-0.97,1005.94
9.943,0.06,1.01,0.01,-1.91,0.42,-0.55,0.13,0.03,-1.05,1005.94
9.946,0.06,1.01,0.01,1.11,0.79,0.18,0.13,0.03,-1.05,1005.94
9.946,0.06,1.01,0.01,1.11,0.79,0.18,0.13,0.03,-1.05,1005.93
9.963,0.04,0.99,0.04,1.11,0.79,0.18,0.13,0.03,-1.05,1005.93
9.964,0.03,0.99,0.06,1.11,0.79,0.18,0.13,0.03,-1.05,1005.93
9.964,-0.04,0.98,0.04,1.11,0.79,0.18,0.13,0.03,-1.05,1005.93
10.003,-0.04,0.98,0.04,1.11,0.79,0.18,0.18,0.23,-1.25,1005.93
10.004,-0.04,0.98,0.04,1.49,0.23,0.67,0.18,0.23,-1.25,1005.93
10.022,-0.10,1.03,0.02,1.49,0.23,0.67,0.18,0.23,-1.25,1005.93
10.023,-0.09,1.08,-0.02,1.49,0.23,0.67,0.18,0.23,-1.25,1005.93
10.024,-0.12,1.05,-0.04,1.49,0.23,0.67,0.18,0.23,-1.25,1005.93
10.03,-0.12,1.05,-0.04,1.49,0.23,0.67,0.18,0.23,-1.25,1005.93
10.059,-0.12,1.05,-0.04,1.10,1.03,0.21,0.18,0.23,-1.25,1005.93
10.06,-0.12,1.05,-0.04,1.10,1.03,0.21,0.21,0.22,-1.34,1005.93
10.077,-0.18,0.99,-0.05,1.10,1.03,0.21,0.21,0.22,-1.34,1005.93
10.078,-0.19,0.97,-0.07,1.10,1.03,0.21,0.21,0.22,-1.34,1005.93
10.079,-0.15,0.99,-0.07,1.10,1.03,0.21,0.21,0.22,-1.34,1005.93
10.104,-0.15,0.99,-0.07,1.10,1.03,0.21,0.21,0.22,-1.34,1005.92
10.117,-0.15,0.99,-0.07,1.10,1.03,0.21,0.22,0.29,-1.47,1005.92
10.118,-0.15,0.99,-0.07,1.17,0.55,-0.09,0.22,0.29,-1.47,1005.92
10.137,-0.04,1.08,-0.09,1.17,0.55,-0.09,0.22,0.29,-1.47,1005.92
10.138,-0.03,1.20,-0.04,1.17,0.55,-0.09,0.22,0.29,-1.47,1005.92
10.139,-0.10,1.21,-0.04,1.17,0.55,-0.09,0.22,0.29,-1.47,1005.92
10.145,-0.10,1.21,-0.04,1.17,0.55,-0.09,0.22,0.29,-1.47,1005.93
10.174,-0.10,1.21,-0.04,1.17,0.55,-0.09,0.48,-0.07,-2.02,1005.93
10.175,-0.10,1.21,-0.04,3.28,2.69,0.22,0.48,-0.07,-2.02,1005.93
10.194,-0.02,1.19,-0.03,3.28,2.69,0.22,0.48,-0.07,-2.02,1005.93
10.195,0.09,1.19,-0.02,3.28,2.69,0.22,0.48,-0.07,-2.02,1005.93
10.195,0.10,1.22,-0.10,3.28,2.69,0.22,0.48,-0.07,-2.02,1005.93
10.224,0.10,1.22,-0.10,3.28,2.69,0.22,0.48,-0.07,-2.02,1005.93
10.233,0.10,1.22,-0.10,3.28,2.69,0.22,0.68,0.88,-2.35,1005.93
10.234,0.10,1.22,-0.10,5.41,3.62,0.81,0.68,0.88,-2.35,1005.93
10.253,0.13,1.45,-0.11,5.41,3.62,0.81,0.68,0.88,-2.35,1005.93
10.253,0.62,1.81,-0.01,5.41,3.62,0.81,0.68,0.88,-2.35,1005.93
10.254,1.22,1.86,-0.07,5.41,3.62,0.81,0.68,0.88,-2.35,1005.93
10.291,1.22,1.86,-0.07,5.41,3.62,0.81,0.74,2.19,-3.00,1005.93
10.292,1.22,1.86,-0.07,12.20,9.47,1.67,0.74,2.19,-3.00,1005.93
10.304,1.22,1.86,-0.07,12.20,9.47,1.67,0.74,2.19,-3.00,1005.94
10.312,0.65,1.31,0.11,12.20,9.47,1.67,0.74,2.19,-3.00,1005.94
10.313,-0.58,1.05,0.00,12.20,9.47,1.67,0.74,2.19,-3.00,1005.94
10.313,-1.12,1.23,-0.16,12.20,9.47,1.67,0.74,2.19,-3.00,1005.94
10.346,-1.12,1.23,-0.16,12.20,9.47,1.67,0.74,2.19,-3.00,1005.94
10.35,-1.12,1.23,-0.16,12.20,9.47,1.67,1.03,1.57,-2.86,1005.94
10.351,-1.12,1.23,-0.16,3.15,5.55,3.06,1.03,1.57,-2.86,1005.94
10.371,-1.16,1.18,-0.17,3.15,5.55,3.06,1.03,1.57,-2.86,1005.94
10.373,-0.92,0.75,-0.04,3.15,5.55,3.06,1.03,1.57,-2.86,1005.94
10.374,-0.80,0.51,-0.14,3.15,5.55,3.06,1.03,1.57,-2.86,1005.94
10.408,-0.80,0.51,-0.14,3.15,5.55,3.06,-0.05,-0.65,0.69,1005.94
10.409,-0.80,0.51,-0.14,-2.92,1.52,1.78,-0.05,-0.65,0.69,1005.94
10.425,-0.80,0.51,-0.14,-2.92,1.52,1.78,-0.05,-0.65,0.69,1005.94
10.428,-0.63,0.28,-0.33,-2.92,1.52,1.78,-0.05,-0.65,0.69,1005.94
10.429,-0.27,0.12,-0.01,-2.92,1.52,1.78,-0.05,-0.65,0.69,1005.94
10.429,-0.13,-0.12,0.20,-2.92,1.52,1.78,-0.05,-0.65,0.69,1005.94
10.47,-0.13,-0.12,0.20,-2.92,1.52,1.78,0.04,-1.65,3.70,1005.94
10.471,-0.13,-0.12,0.20,1.81,-6.70,1.90,0.04,-1.65,3.70,1005.94
10.504,-0.12,-0.05,0.01,1.81,-6.70,1.90,0.04,-1.65,3.70,1005.94
10.505,-0.11,0.17,-0.21,1.81,-6.70,1.90,0.04,-1.65,3.70,1005.94
10.506,-0.17,0.42,-0.43,1.81,-6.70,1.90,0.04,-1.65,3.70,1005.94
10.506,-0.17,0.42,-0.43,1.81,-6.70,1.90,0.04,-1.65,3.70,1005.94
10.525,-0.17,0.42,-0.43,1.81,-6.70,1.90,0.66,-2.27,5.54,1005.94
10.526,-0.17,0.42,-0.43,1.44,-6.93,0.07,0.66,-2.27,5.54,1005.94
10.546,-0.29,0.50,-0.13,1.44,-6.93,0.07,0.66,-2.27,5.54,1005.94
10.547,-0.36,0.56,-0.18,1.44,-6.93,0.07,0.66,-2.27,5.54,1005.94
10.547,-0.58,0.86,-0.41,1.44,-6.93,0.07,0.66,-2.27,5.54,1005.94
10.548,-0.58,0.86,-0.41,1.44,-6.93,0.07,0.66,-2.27,5.54,1005.96
10.583,-0.58,0.86,-0.41,-3.99,-2.72,-0.02,0.66,-2.27,5.54,1005.96
10.584,-0.58,0.86,-0.41,-3.99,-2.72,-0.02,1.24,-6.01,6.74,1005.96
10.603,-0.80,1.32,-0.24,-3.99,-2.72,-0.02,1.24,-6.01,6.74,1005.96
10.603,-0.86,1.57,-0.44,-3.99,-2.72,-0.02,1.24,-6.01,6.74,1005.96
10.604,-0.80,1.59,-0.63,-3.99,-2.72,-0.02,1.24,-6.01,6.74,1005.96
10.624,-0.80,1.59,-0.63,-3.99,-2.72,-0.02,1.24,-6.01,6.74,1005.91
10.641,-0.80,1.59,-0.63,-3.99,-2.72,-0.02,1.29,-11.77,5.94,1005.91
10.642,-0.80,1.59,-0.63,-8.92,5.98,-0.76,1.29,-11.77,5.94,1005.91
10.667,-0.46,1.69,-0.39,-8.92,5.98,-0.76,1.29,-11.77,5.94,1005.91
10.668,0.03,1.52,0.26,-8.92,5.98,-0.76,1.29,-11.77,5.94,1005.91
10.668,0.44,1.10,0.78,-8.92,5.98,-0.76,1.29,-11.77,5.94,1005.91
10.701,0.44,1.10,0.78,-0.12,5.36,5.67,1.29,-11.77,5.94,1005.91
10.702,0.44,1.10,0.78,-0.12,5.36,5.67,-0.23,-7.27,1.62,1005.91
10.71,0.44,1.10,0.78,-0.12,5.36,5.67,-0.23,-7.27,1.62,1005.86
10.719,0.56,0.84,0.79,-0.12,5.36,5.67,-0.23,-7.27,1.62,1005.86
10.72,-0.35,1.33,0.45,-0.12,5.36,5.67,-0.23,-7.27,1.62,1005.86
10.72,-0.35,1.13,1.71,-0.12,5.36,5.67,-0.23,-7.27,1.62,1005.86
10.745,-0.35,1.13,1.71,-0.12,5.36,5.67,-0.23,-7.27,1.62,1005.95
10.759,-0.35,1.13,1.71,-0.12,5.36,5.67,-0.85,0.05,-0.77,1005.95
10.759,-0.35,1.13,1.71,-0.19,1.86,12.56,-0.85,0.05,-0.77,1005.95
10.778,0.24,0.78,1.12,-0.19,1.86,12.56,-0.85,0.05,-0.77,1005.95
10.779,-0.01,1.05,0.36,-0.19,1.86,12.56,-0.85,0.05,-0.77,1005.95
10.78,0.05,1.56,-1.16,-0.19,1.86,12.56,-0.85,0.05,-0.77,1005.95
10.816,0.05,1.56,-1.16,-0.19,1.86,12.56,-0.65,-0.31,-0.65,1005.95
10.817,0.05,1.56,-1.16,1.56,2.02,3.58,-0.65,-0.31,-0.65,1005.95
10.826,0.05,1.56,-1.16,1.56,2.02,3.58,-0.65,-0.31,-0.65,1005.92
10.835,-0.10,2.06,-1.30,1.56,2.02,3.58,-0.65,-0.31,-0.65,1005.92
10.836,-0.41,1.33,-0.28,1.56,2.02,3.58,-0.65,-0.31,-0.65,1005.92
10.836,0.07,0.76,-0.42,1.56,2.02,3.58,-0.65,-0.31,-0.65,1005.92
10.875,0.07,0.76,-0.42,1.56,2.02,3.58,-0.62,-1.22,-0.08,1005.92
10.876,0.07,0.76,-0.42,-0.60,4.38,-4.33,-0.62,-1.22,-0.08,1005.92
10.894,0.11,0.68,0.15,-0.60,4.38,-4.33,-0.62,-1.22,-0.08,1005.92
10.895,-0.03,0.93,0.18,-0.60,4.38,-4.33,-0.62,-1.22,-0.08,1005.92
10.895,-0.08,1.03,-0.00,-0.60,4.38,-4.33,-0.62,-1.22,-0.08,1005.92
10.904,-0.08,1.03,-0.00,-0.60,4.38,-4.33,-0.62,-1.22,-0.08,1005.89
10.933,-0.08,1.03,-0.00,-0.60,4.38,-4.33,-0.07,0.06,-0.14,1005.89
10.934,-0.08,1.03,-0.00,0.92,-0.56,3.18,-0.07,0.06,-0.14,1005.89
10.944,-0.08,1.03,-0.00,0.92,-0.56,3.18,-0.07,0.06,-0.14,1005.94
10.953,-0.37,1.00,-0.17,0.92,-0.56,3.18,-0.07,0.06,-0.14,1005.94
10.956,-0.44,0.97,-0.35,0.92,-0.56,3.18,-0.07,0.06,-0.14,1005.94
10.957,-0.31,0.95,-0.28,0.92,-0.56,3.18,-0.07,0.06,-0.14,1005.94
11.009,-0.31,0.95,-0.28,0.92,-0.56,3.18,-0.06,-0.59,0.60,1005.94
11.012,-0.31,0.95,-0.28,-2.94,0.30,-0.52,-0.06,-0.59,0.60,1005.94
11.013,-0.28,0.97,-0.26,-2.94,0.30,-0.52,-0.06,-0.59,0.60,1005.94
11.013,-0.14,1.00,-0.22,-2.94,0.30,-0.52,-0.06,-0.59,0.60,1005.94
11.014,0.05,0.96,-0.21,-2.94,0.30,-0.52,-0.06,-0.59,0.60,1005.94
11.024,0.05,0.96,-0.21,-2.94,0.30,-0.52,-0.06,-0.59,0.60,1005.94
11.052,0.05,0.96,-0.21,-2.94,0.30,-0.52,-0.04,-0.50,0.67,1005.94
11.053,0.05,0.96,-0.21,-0.79,0.30,-0.22,-0.04,-0.50,0.67,1005.94
11.07,0.14,0.97,-0.17,-0.79,0.30,-0.22,-0.04,-0.50,0.67,1005.94
11.07,0.07,0.99,-0.19,-0.79,0.30,-0.22,-0.04,-0.50,0.67,1005.94
11.071,0.01,1.00,-0.22,-0.79,0.30,-0.22,-0.04,-0.50,0.67,1005.94
11.105,0.01,1.00,-0.22,-0.79,0.30,-0.22,-0.04,-0.50,0.67,1005.94
11.108,0.01,1.00,-0.22,-0.79,0.30,-0.22,0.06,-0.37,0.28,1005.94
11.109,0.01,1.00,-0.22,1.00,0.40,0.18,0.06,-0.37,0.28,1005.94
11.132,0.02,0.96,-0.21,1.00,0.40,0.18,0.06,-0.37,0.28,1005.94
11.132,0.03,0.94,-0.10,1.00,0.40,0.18,0.06,-0.37,0.28,1005.94
11.133,0.00,0.98,-0.07,1.00,0.40,0.18,0.06,-0.37,0.28,1005.94
11.144,0.00,0.98,-0.07,1.00,0.40,0.18,0.06,-0.37,0.28,1005.93
11.167,0.00,0.98,-0.07,1.00,0.40,0.18,0.34,-0.61,0.05,1005.93
11.168,0.00,0.98,-0.07,0.52,0.19,0.96,0.34,-0.61,0.05,1005.93
11.186,0.08,0.99,-0.06,0.52,0.19,0.96,0.34,-0.61,0.05,1005.93
11.187,0.19,0.94,-0.02,0.52,0.19,0.96,0.34,-0.61,0.05,1005.93
11.187,0.13,0.95,-0.11,0.52,0.19,0.96,0.34,-0.61,0.05,1005.93
11.225,0.13,0.95,-0.11,0.52,0.19,0.96,0.34,-0.61,0.05,1005.92
11.228,0.13,0.95,-0.11,0.52,0.19,0.96,0.79,0.13,-0.31,1005.92
11.229,0.13,0.95,-0.11,1.76,0.27,1.99,0.79,0.13,-0.31,1005.92
11.245,-0.04,1.02,-0.21,1.76,0.27,1.99,0.79,0.13,-0.31,1005.92
11.246,0.02,1.02,-0.16,1.76,0.27,1.99,0.79,0.13,-0.31,1005.92
11.247,0.08,1.05,-0.21,1.76,0.27,1.99,0.79,0.13,-0.31,1005.92
11.284,0.08,1.05,-0.21,1.76,0.27,1.99,1.29,0.06,-0.48,1005.92
11.284,0.08,1.05,-0.21,0.87,1.23,1.41,1.29,0.06,-0.48,1005.92
11.303,0.04,1.07,-0.23,0.87,1.23,1.41,1.29,0.06,-0.48,1005.92
11.304,0.13,1.08,-0.27,0.87,1.23,1.41,1.29,0.06,-0.48,1005.92
11.304,0.06,1.14,-0.39,0.87,1.23,1.41,1.29,0.06,-0.48,1005.92
11.305,0.06,1.14,-0.39,0.87,1.23,1.41,1.29,0.06,-0.48,1005.94
11.342,0.06,1.14,-0.39,0.87,1.23,1.41,1.66,0.20,-0.67,1005.94
11.343,0.06,1.14,-0.39,1.70,2.19,1.20,1.66,0.20,-0.67,1005.94
11.344,0.06,1.14,-0.39,1.70,2.19,1.20,1.66,0.20,-0.67,1005.94
11.361,-0.02,1.19,-0.52,1.70,2.19,1.20,1.66,0.20,-0.67,1005.94
11.362,-0.03,1.27,-0.49,1.70,2.19,1.20,1.66,0.20,-0.67,1005.94
11.362,0.05,1.60,-0.14,1.70,2.19,1.20,1.66,0.20,-0.67,1005.94
11.401,0.05,1.60,-0.14,1.63,5.29,1.29,1.66,0.20,-0.67,1005.94
11.401,0.05,1.60,-0.14,1.63,5.29,1.29,2.23,-1.81,-0.39,1005.94
11.419,0.47,1.83,0.08,1.63,5.29,1.29,2.23,-1.81,-0.39,1005.94
11.42,0.36,1.53,0.33,1.63,5.29,1.29,2.23,-1.81,-0.39,1005.94
11.42,-0.27,1.24,0.68,1.63,5.29,1.29,2.23,-1.81,-0.39,1005.94
11.424,-0.27,1.24,0.68,1.63,5.29,1.29,2.23,-1.81,-0.39,1005.93
11.459,-0.27,1.24,0.68,1.63,5.29,1.29,2.08,-3.74,-1.50,1005.93
11.46,-0.27,1.24,0.68,5.19,7.77,8.82,2.08,-3.74,-1.50,1005.93
11.477,-0.90,1.36,0.31,5.19,7.77,8.82,2.08,-3.74,-1.50,1005.93
11.478,-1.20,1.49,-0.01,5.19,7.77,8.82,2.08,-3.74,-1.50,1005.93
11.479,-1.08,1.48,-0.37,5.19,7.77,8.82,2.08,-3.74,-1.50,1005.93
11.505,-1.08,1.48,-0.37,5.19,7.77,8.82,2.08,-3.74,-1.50,1005.92
11.52,-1.08,1.48,-0.37,5.19,7.77,8.82,1.33,-5.63,-0.25,1005.92
11.522,-1.08,1.48,-0.37,-5.25,7.21,4.09,1.33,-5.63,-0.25,1005.92
11.536,-0.16,1.26,-0.39,-5.25,7.21,4.09,1.33,-5.63,-0.25,1005.92
11.537,0.38,0.92,0.02,-5.25,7.21,4.09,1.33,-5.63,-0.25,1005.92
11.537,0.34,0.66,0.38,-5.25,7.21,4.09,1.33,-5.63,-0.25,1005.92
11.545,0.34,0.66,0.38,-5.25,7.21,4.09,1.33,-5.63,-0.25,1005.93
11.575,0.34,0.66,0.38,-5.25,7.21,4.09,0.22,-4.73,0.86,1005.93
11.576,0.34,0.66,0.38,7.53,2.07,2.86,0.22,-4.73,0.86,1005.93
11.597,-0.09,0.66,0.30,7.53,2.07,2.86,0.22,-4.73,0.86,1005.93
11.6,-0.14,0.61,0.19,7.53,2.07,2.86,0.22,-4.73,0.86,1005.93
11.609,-0.06,0.52,0.19,7.53,2.07,2.86,0.22,-4.73,0.86,1005.93
11.625,-0.06,0.52,0.19,7.53,2.07,2.86,0.22,-4.73,0.86,1005.93
11.634,-0.06,0.52,0.19,7.53,2.07,2.86,0.01,-2.74,3.14,1005.93
11.634,-0.06,0.52,0.19,3.62,-2.29,4.12,0.01,-2.74,3.14,1005.93
11.654,-0.09,0.51,0.20,3.62,-2.29,4.12,0.01,-2.74,3.14,1005.93
11.655,-0.11,0.59,0.18,3.62,-2.29,4.12,0.01,-2.74,3.14,1005.93
11.655,-0.15,0.71,0.16,3.62,-2.29,4.12,0.01,-2.74,3.14,1005.93
11.693,-0.15,0.71,0.16,3.62,-2.29,4.12,-0.26,-1.41,5.03,1005.93
11.694,-0.15,0.71,0.16,1.01,-3.17,3.18,-0.26,-1.41,5.03,1005.93
11.722,-0.15,0.71,0.16,1.01,-3.17,3.18,-0.26,-1.41,5.03,1005.94
11.723,-0.18,0.80,0.15,1.01,-3.17,3.18,-0.26,-1.41,5.03,1005.94
11.723,-0.20,0.90,0.17,1.01,-3.17,3.18,-0.26,-1.41,5.03,1005.94
11.723,-0.22,1.07,0.21,1.01,-3.17,3.18,-0.26,-1.41,5.03,1005.94
11.745,-0.22,1.07,0.21,1.01,-3.17,3.18,-0.26,-1.41,5.03,1005.91
11.75,-0.22,1.07,0.21,-3.09,-0.30,2.57,-0.26,-1.41,5.03,1005.91
11.751,-0.22,1.07,0.21,-3.09,-0.30,2.57,-0.92,-0.96,6.27,1005.91
11.769,-0.25,1.34,0.20,-3.09,-0.30,2.57,-0.92,-0.96,6.27,1005.91
11.77,-0.25,1.61,0.15,-3.09,-0.30,2.57,-0.92,-0.96,6.27,1005.91
11.77,-0.30,1.74,0.01,-3.09,-0.30,2.57,-0.92,-0.96,6.27,1005.91
11.811,-0.30,1.74,0.01,-3.09,-0.30,2.57,-1.48,1.65,5.18,1005.91
11.812,-0.30,1.74,0.01,-6.41,6.64,0.93,-1.48,1.65,5.18,1005.91
11.847,-0.30,1.74,0.01,-6.41,6.64,0.93,-1.48,1.65,5.18,1005.88
11.849,-0.62,1.74,-0.09,-6.41,6.64,0.93,-1.48,1.65,5.18,1005.88
11.849,-1.04,1.64,-0.30,-6.41,6.64,0.93,-1.48,1.65,5.18,1005.88
11.85,-1.37,1.23,-0.90,-6.41,6.64,0.93,-1.48,1.65,5.18,1005.88
11.866,-1.37,1.23,-0.90,-13.09,6.15,-5.17,-1.48,1.65,5.18,1005.88
11.871,-1.37,1.23,-0.90,-13.09,6.15,-5.17,-0.57,2.39,-0.57,1005.88
11.887,-1.83,0.57,-0.98,-13.09,6.15,-5.17,-0.57,2.39,-0.57,1005.88
11.888,-2.24,0.40,-1.20,-13.09,6.15,-5.17,-0.57,2.39,-0.57,1005.88
11.888,-1.84,2.16,-0.54,-13.09,6.15,-5.17,-0.57,2.39,-0.57,1005.88
11.906,-1.84,2.16,-0.54,-13.09,6.15,-5.17,-0.57,2.39,-0.57,1005.83
11.924,-1.84,2.16,-0.54,-13.09,6.15,-5.17,-0.41,-3.76,-0.80,1005.83
11.926,-1.84,2.16,-0.54,-21.85,1.19,-9.24,-0.41,-3.76,-0.80,1005.83
11.95,1.08,2.45,1.17,-21.85,1.19,-9.24,-0.41,-3.76,-0.80,1005.83
11.951,1.72,1.66,-1.05,-21.85,1.19,-9.24,-0.41,-3.76,-0.80,1005.83
11.951,0.85,1.23,-1.50,-21.85,1.19,-9.24,-0.41,-3.76,-0.80,1005.83
11.951,0.85,1.23,-1.50,-21.85,1.19,-9.24,-0.41,-3.76,-0.80,1005.81
11.984,0.85,1.23,-1.50,-21.85,1.19,-9.24,0.12,-0.42,-2.75,1005.81
11.985,0.85,1.23,-1.50,10.67,7.97,-4.66,0.12,-0.42,-2.75,1005.81
12.003,0.11,0.39,1.24,10.67,7.97,-4.66,0.12,-0.42,-2.75,1005.81
12.004,-0.64,0.64,0.12,10.67,7.97,-4.66,0.12,-0.42,-2.75,1005.81
12.004,-0.61,1.13,0.08,10.67,7.97,-4.66,0.12,-0.42,-2.75,1005.81
12.026,-0.61,1.13,0.08,10.67,7.97,-4.66,0.12,-0.42,-2.75,1005.85
12.044,-0.61,1.13,0.08,-4.22,-2.44,4.47,0.12,-0.42,-2.75,1005.85
12.045,-0.61,1.13,0.08,-4.22,-2.44,4.47,0.02,0.47,-1.27,1005.85
12.062,-0.30,1.28,-0.04,-4.22,-2.44,4.47,0.02,0.47,-1.27,1005.85
12.064,0.04,1.06,-0.01,-4.22,-2.44,4.47,0.02,0.47,-1.27,1005.85
12.064,0.28,1.05,-0.02,-4.22,-2.44,4.47,0.02,0.47,-1.27,1005.85
12.1,0.28,1.05,-0.02,-4.22,-2.44,4.47,0.11,-0.23,-1.05,1005.85
12.101,0.28,1.05,-0.02,0.15,1.49,-0.39,0.11,-0.23,-1.05,1005.85
12.119,0.28,1.05,-0.02,0.15,1.49,-0.39,0.11,-0.23,-1.05,1005.90
12.12,0.21,1.02,0.16,0.15,1.49,-0.39,0.11,-0.23,-1.05,1005.90
12.12,-0.07,0.97,0.28,0.15,1.49,-0.39,0.11,-0.23,-1.05,1005.90
12.12,-0.04,0.90,0.17,0.15,1.49,-0.39,0.11,-0.23,-1.05,1005.90
12.146,-0.04,0.90,0.17,0.15,1.49,-0.39,0.11,-0.23,-1.05,1005.90
12.162,-0.04,0.90,0.17,0.15,1.49,-0.39,0.25,0.23,-1.16,1005.90
12.163,-0.04,0.90,0.17,1.03,-0.11,1.93,0.25,0.23,-1.16,1005.90
12.177,-0.06,0.92,0.05,1.03,-0.11,1.93,0.25,0.23,-1.16,1005.90
12.178,-0.14,1.01,0.02,1.03,-0.11,1.93,0.25,0.23,-1.16,1005.90
12.178,-0.16,1.08,0.02,1.03,-0.11,1.93,0.25,0.23,-1.16,1005.90
12.217,-0.16,1.08,0.02,1.03,-0.11,1.93,0.23,0.07,-1.08,1005.90
12.217,-0.16,1.08,0.02,0.15,0.35,0.38,0.23,0.07,-1.08,1005.90
12.227,-0.16,1.08,0.02,0.15,0.35,0.38,0.23,0.07,-1.08,1005.92
12.236,-0.09,1.08,-0.00,0.15,0.35,0.38,0.23,0.07,-1.08,1005.92
12.237,-0.05,1.05,-0.00,0.15,0.35,0.38,0.23,0.07,-1.08,1005.92
12.237,-0.12,1.03,0.02,0.15,0.35,0.38,0.23,0.07,-1.08,1005.92
12.277,-0.12,1.03,0.02,0.15,0.35,0.38,0.24,0.33,-1.20,1005.92
12.279,-0.12,1.03,0.02,1.10,0.96,0.30,0.24,0.33,-1.20,1005.92
12.294,-0.14,1.01,0.07,1.10,0.96,0.30,0.24,0.33,-1.20,1005.92
12.295,-0.06,1.02,0.05,1.10,0.96,0.30,0.24,0.33,-1.20,1005.92
12.295,-0.03,1.03,-0.05,1.10,0.96,0.30,0.24,0.33,-1.20,1005.92
12.316,-0.03,1.03,-0.05,1.10,0.96,0.30,0.24,0.33,-1.20,1005.92
12.337,-0.03,1.03,-0.05,1.10,0.96,0.30,0.29,0.54,-1.54,1005.92
12.338,-0.03,1.03,-0.05,1.99,0.84,0.69,0.29,0.54,-1.54,1005.92
12.345,-0.03,1.03,-0.05,1.99,0.84,0.69,0.29,0.54,-1.54,1005.92
12.353,-0.08,1.04,-0.10,1.99,0.84,0.69,0.29,0.54,-1.54,1005.92
12.354,-0.10,1.12,-0.04,1.99,0.84,0.69,0.29,0.54,-1.54,1005.92
12.354,-0.06,1.26,-0.02,1.99,0.84,0.69,0.29,0.54,-1.54,1005.92
12.391,-0.06,1.26,-0.02,1.99,0.84,0.69,0.53,-0.09,-2.05,1005.92
12.398,-0.06,1.26,-0.02,2.98,2.38,0.20,0.53,-0.09,-2.05,1005.92
12.422,0.01,1.31,-0.00,2.98,2.38,0.20,0.53,-0.09,-2.05,1005.92
12.423,0.18,1.32,0.01,2.98,2.38,0.20,0.53,-0.09,-2.05,1005.92
12.423,0.47,1.53,0.18,2.98,2.38,0.20,0.53,-0.09,-2.05,1005.92
12.429,0.47,1.53,0.18,2.98,2.38,0.20,0.53,-0.09,-2.05,1005.91
12.449,0.47,1.53,0.18,2.98,2.38,0.20,0.74,0.62,-2.65,1005.91
12.45,0.47,1.53,0.18,7.07,5.43,1.83,0.74,0.62,-2.65,1005.91
12.471,0.92,1.89,0.23,7.07,5.43,1.83,0.74,0.62,-2.65,1005.91
12.474,1.19,1.97,0.07,7.07,5.43,1.83,0.74,0.62,-2.65,1005.91
12.475,1.11,1.52,0.05,7.07,5.43,1.83,0.74,0.62,-2.65,1005.91
12.509,1.11,1.52,0.05,16.52,10.62,3.79,0.74,0.62,-2.65,1005.91
12.511,1.11,1.52,0.05,16.52,10.62,3.79,0.74,0.62,-2.65,1005.92
12.511,1.11,1.52,0.05,16.52,10.62,3.79,0.67,3.63,-4.02,1005.92
12.534,-0.18,1.20,-0.04,16.52,10.62,3.79,0.67,3.63,-4.02,1005.92
12.535,-1.05,1.40,-0.19,16.52,10.62,3.79,0.67,3.63,-4.02,1005.92
12.535,-1.07,1.41,-0.20,16.52,10.62,3.79,0.67,3.63,-4.02,1005.92
12.545,-1.07,1.41,-0.20,16.52,10.62,3.79,0.67,3.63,-4.02,1005.92
12.567,-1.07,1.41,-0.20,16.52,10.62,3.79,0.54,1.91,-2.50,1005.92
12.568,-1.07,1.41,-0.20,-0.93,7.08,2.11,0.54,1.91,-2.50,1005.92
12.587,-0.75,0.95,-0.21,-0.93,7.08,2.11,0.54,1.91,-2.50,1005.92
12.587,-0.64,0.66,-0.23,-0.93,7.08,2.11,0.54,1.91,-2.50,1005.92
12.587,-0.47,0.32,-0.52,-0.93,7.08,2.11,0.54,1.91,-2.50,1005.92
12.625,-0.47,0.32,-0.52,-0.93,7.08,2.11,-1.32,0.25,1.14,1005.92
12.626,-0.47,0.32,-0.52,-0.93,7.08,2.11,-1.32,0.25,1.14,1005.94
12.626,-0.47,0.32,-0.52,0.04,-0.42,0.02,-1.32,0.25,1.14,1005.94
12.644,-0.31,0.20,-0.27,0.04,-0.42,0.02,-1.32,0.25,1.14,1005.94
12.645,-0.15,0.04,-0.13,0.04,-0.42,0.02,-1.32,0.25,1.14,1005.94
12.645,-0.01,0.03,-0.20,0.04,-0.42,0.02,-1.32,0.25,1.14,1005.94
12.684,-0.01,0.03,-0.20,0.04,-0.42,0.02,-1.75,-0.77,3.59,1005.94
12.685,-0.01,0.03,-0.20,3.11,-7.14,0.18,-1.75,-0.77,3.59,1005.94
12.705,-0.08,0.17,-0.21,3.11,-7.14,0.18,-1.75,-0.77,3.59,1005.94
12.706,-0.18,0.36,-0.30,3.11,-7.14,0.18,-1.75,-0.77,3.59,1005.94
12.706,-0.09,0.47,-0.32,3.11,-7.14,0.18,-1.75,-0.77,3.59,1005.94
12.707,-0.09,0.47,-0.32,3.11,-7.14,0.18,-1.75,-0.77,3.59,1005.92
12.743,-0.09,0.47,-0.32,3.11,-7.14,0.18,-2.02,-0.21,5.72,1005.92
12.744,-0.09,0.47,-0.32,0.55,-5.91,-1.60,-2.02,-0.21,5.72,1005.92
12.745,-0.09,0.47,-0.32,0.55,-5.91,-1.60,-2.02,-0.21,5.72,1005.97
12.76,-0.01,0.60,-0.27,0.55,-5.91,-1.60,-2.02,-0.21,5.72,1005.97
12.761,0.03,0.76,-0.03,0.55,-5.91,-1.60,-2.02,-0.21,5.72,1005.97
12.761,0.03,1.03,-0.17,0.55,-5.91,-1.60,-2.02,-0.21,5.72,1005.97
12.8,0.03,1.03,-0.17,0.55,-5.91,-1.60,-1.79,0.89,6.40,1005.97
12.801,0.03,1.03,-0.17,-1.56,-1.36,-1.43,-1.79,0.89,6.40,1005.97
12.821,-0.08,1.52,-0.45,-1.56,-1.36,-1.43,-1.79,0.89,6.40,1005.97
12.822,-0.33,2.15,-0.42,-1.56,-1.36,-1.43,-1.79,0.89,6.40,1005.97
12.822,-0.78,2.33,-0.37,-1.56,-1.36,-1.43,-1.79,0.89,6.40,1005.97
12.832,-0.78,2.33,-0.37,-1.56,-1.36,-1.43,-1.79,0.89,6.40,1005.95
12.858,-0.78,2.33,-0.37,-1.56,-1.36,-1.43,-1.90,0.87,5.10,1005.95
12.859,-0.78,2.33,-0.37,-8.08,11.20,-5.00,-1.90,0.87,5.10,1005.95
12.877,-1.17,1.85,-0.36,-8.08,11.20,-5.00,-1.90,0.87,5.10,1005.95
12.878,-1.28,1.26,-0.17,-8.08,11.20,-5.00,-1.90,0.87,5.10,1005.95
12.878,-1.27,1.06,-0.36,-8.08,11.20,-5.00,-1.90,0.87,5.10,1005.95
12.914,-1.27,1.06,-0.36,-8.08,11.20,-5.00,-1.90,0.87,5.10,1005.92
12.916,-1.27,1.06,-0.36,-8.08,11.20,-5.00,-0.57,-1.16,0.32,1005.92
12.918,-1.27,1.06,-0.36,-16.33,5.24,-3.72,-0.57,-1.16,0.32,1005.92
12.936,-1.35,0.85,-0.43,-16.33,5.24,-3.72,-0.57,-1.16,0.32,1005.92
12.937,-1.38,0.79,-0.35,-16.33,5.24,-3.72,-0.57,-1.16,0.32,1005.92
12.938,-0.54,1.42,-0.47,-16.33,5.24,-3.72,-0.57,-1.16,0.32,1005.92
12.946,-0.54,1.42,-0.47,-16.33,5.24,-3.72,-0.57,-1.16,0.32,1005.88
12.977,-0.54,1.42,-0.47,-16.33,5.24,-3.72,-0.32,-2.36,-0.95,1005.88
12.978,-0.54,1.42,-0.47,-14.22,1.36,-4.43,-0.32,-2.36,-0.95,1005.88
12.994,1.41,1.59,0.41,-14.22,1.36,-4.43,-0.32,-2.36,-0.95,1005.88
12.995,2.74,1.38,0.22,-14.22,1.36,-4.43,-0.32,-2.36,-0.95,1005.88
12.996,0.69,1.97,-0.73,-14.22,1.36,-4.43,-0.32,-2.36,-0.95,1005.88
13.026,0.69,1.97,-0.73,-14.22,1.36,-4.43,-0.32,-2.36,-0.95,1005.89
13.033,0.69,1.97,-0.73,-14.22,1.36,-4.43,0.05,-0.01,-2.87,1005.89
13.034,0.69,1.97,-0.73,13.52,6.98,-0.64,0.05,-0.01,-2.87,1005.89
13.053,-0.67,1.33,-0.63,13.52,6.98,-0.64,0.05,-0.01,-2.87,1005.89
13.054,-0.67,0.55,0.38,13.52,6.98,-0.64,0.05,-0.01,-2.87,1005.89
13.054,-0.37,0.72,0.38,13.52,6.98,-0.64,0.05,-0.01,-2.87,1005.89
13.092,-0.37,0.72,0.38,13.52,6.98,-0.64,-0.08,-0.53,-1.34,1005.89
13.093,-0.37,0.72,0.38,-7.01,-0.82,0.14,-0.08,-0.53,-1.34,1005.89
13.105,-0.37,0.72,0.38,-7.01,-0.82,0.14,-0.08,-0.53,-1.34,1005.93
13.111,0.01,1.03,0.18,-7.01,-0.82,0.14,-0.08,-0.53,-1.34,1005.93
13.111,0.13,1.17,0.11,-7.01,-0.82,0.14,-0.08,-0.53,-1.34,1005.93
13.112,0.19,1.01,0.01,-7.01,-0.82,0.14,-0.08,-0.53,-1.34,1005.93
13.145,0.19,1.01,0.01,-7.01,-0.82,0.14,-0.08,-0.53,-1.34,1005.94
13.15,0.19,1.01,0.01,-7.01,-0.82,0.14,0.07,0.06,-1.02,1005.94
13.15,0.19,1.01,0.01,0.20,1.07,0.73,0.07,0.06,-1.02,1005.94
13.171,0.20,0.98,-0.02,0.20,1.07,0.73,0.07,0.06,-1.02,1005.94
13.172,0.10,1.05,0.03,0.20,1.07,0.73,0.07,0.06,-1.02,1005.94
13.173,0.04,1.01,0.12,0.20,1.07,0.73,0.07,0.06,-1.02,1005.94
13.209,0.04,1.01,0.12,0.79,0.45,0.21,0.07,0.06,-1.02,1005.94
13.21,0.04,1.01,0.12,0.79,0.45,0.21,0.11,-0.19,-1.11,1005.94
13.241,0.04,1.01,0.12,0.79,0.45,0.21,0.11,-0.19,-1.11,1005.93
13.242,0.06,0.95,0.12,0.79,0.45,0.21,0.11,-0.19,-1.11,1005.93
13.242,0.11,0.95,0.13,0.79,0.45,0.21,0.11,-0.19,-1.11,1005.93
13.242,0.13,0.97,0.10,0.79,0.45,0.21,0.11,-0.19,-1.11,1005.93
13.268,0.13,0.97,0.10,0.79,0.45,0.21,0.16,0.17,-1.27,1005.93
13.269,0.13,0.97,0.10,1.37,-0.09,0.99,0.16,0.17,-1.27,1005.93
13.287,0.01,1.00,0.02,1.37,-0.09,0.99,0.16,0.17,-1.27,1005.93
13.289,-0.10,0.99,0.00,1.37,-0.09,0.99,0.16,0.17,-1.27,1005.93
13.289,-0.14,0.99,0.02,1.37,-0.09,0.99,0.16,0.17,-1.27,1005.93
13.306,-0.14,0.99,0.02,1.37,-0.09,0.99,0.16,0.17,-1.27,1005.93
13.327,-0.14,0.99,0.02,1.37,-0.09,0.99,0.16,0.30,-1.21,1005.93
13.328,-0.14,0.99,0.02,0.28,0.32,0.12,0.16,0.30,-1.21,1005.93
13.367,-0.10,1.00,0.05,0.28,0.32,0.12,0.16,0.30,-1.21,1005.93
13.368,-0.06,0.99,0.07,0.28,0.32,0.12,0.16,0.30,-1.21,1005.93
13.368,-0.04,0.99,0.06,0.28,0.32,0.12,0.16,0.30,-1.21,1005.93
13.369,-0.04,0.99,0.06,0.28,0.32,0.12,0.16,0.30,-1.21,1005.95
13.384,-0.04,0.99,0.06,0.28,0.32,0.12,0.21,0.18,-1.34,1005.95
13.385,-0.04,0.99,0.06,1.10,0.41,0.69,0.21,0.18,-1.34,1005.95
13.403,-0.10,0.98,-0.01,1.10,0.41,0.69,0.21,0.18,-1.34,1005.95
13.404,-0.12,1.01,-0.04,1.10,0.41,0.69,0.21,0.18,-1.34,1005.95
13.404,-0.13,1.06,-0.02,1.10,0.41,0.69,0.21,0.18,-1.34,1005.95
13.426,-0.13,1.06,-0.02,1.10,0.41,0.69,0.21,0.18,-1.34,1005.95
13.443,-0.13,1.06,-0.02,1.45,0.85,0.02,0.21,0.18,-1.34,1005.95
13.444,-0.13,1.06,-0.02,1.45,0.85,0.02,0.22,0.27,-1.57,1005.95
13.465,-0.18,1.11,-0.01,1.45,0.85,0.02,0.22,0.27,-1.57,1005.95
13.466,-0.15,1.11,-0.02,1.45,0.85,0.02,0.22,0.27,-1.57,1005.95
13.466,-0.12,1.13,-0.01,1.45,0.85,0.02,0.22,0.27,-1.57,1005.95
13.5,-0.12,1.13,-0.01,2.04,2.09,0.30,0.22,0.27,-1.57,1005.95
13.501,-0.12,1.13,-0.01,2.04,2.09,0.30,0.34,0.19,-1.84,1005.95
13.504,-0.12,1.13,-0.01,2.04,2.09,0.30,0.34,0.19,-1.84,1005.95
13.52,-0.16,1.11,-0.01,2.04,2.09,0.30,0.34,0.19,-1.84,1005.95
13.521,-0.20,1.09,-0.03,2.04,2.09,0.30,0.34,0.19,-1.84,1005.95
13.522,-0.09,1.24,-0.05,2.04,2.09,0.30,0.34,0.19,-1.84,1005.95
13.546,-0.09,1.24,-0.05,2.04,2.09,0.30,0.34,0.19,-1.84,1005.94
13.558,-0.09,1.24,-0.05,2.04,2.09,0.30,0.45,0.83,-2.04,1005.94
13.558,-0.09,1.24,-0.05,2.97,2.84,0.60,0.45,0.83,-2.04,1005.94
13.577,0.19,1.57,0.06,2.97,2.84,0.60,0.45,0.83,-2.04,1005.94
13.578,0.57,1.78,-0.08,2.97,2.84,0.60,0.45,0.83,-2.04,1005.94
13.578,0.88,1.77,-0.28,2.97,2.84,0.60,0.45,0.83,-2.04,1005.94
13.616,0.88,1.77,-0.28,2.97,2.84,0.60,0.38,2.31,-2.92,1005.94
13.617,0.88,1.77,-0.28,10.81,9.07,0.74,0.38,2.31,-2.92,1005.94
13.631,0.88,1.77,-0.28,10.81,9.07,0.74,0.38,2.31,-2.92,1005.93
13.637,1.08,1.62,-0.35,10.81,9.07,0.74,0.38,2.31,-2.92,1005.93
13.638,0.23,1.14,-0.13,10.81,9.07,0.74,0.38,2.31,-2.92,1005.93
13.638,-0.86,1.01,-0.15,10.81,9.07,0.74,0.38,2.31,-2.92,1005.93
13.677,-0.86,1.01,-0.15,10.81,9.07,0.74,0.97,2.36,-3.83,1005.93
13.678,-0.86,1.01,-0.15,7.99,6.04,0.85,0.97,2.36,-3.83,1005.93
13.695,-1.37,1.14,-0.23,7.99,6.04,0.85,0.97,2.36,-3.83,1005.93
13.696,-1.22,1.07,-0.04,7.99,6.04,0.85,0.97,2.36,-3.83,1005.93
13.697,-0.88,0.54,-0.00,7.99,6.04,0.85,0.97,2.36,-3.83,1005.93
13.706,-0.88,0.54,-0.00,7.99,6.04,0.85,0.97,2.36,-3.83,1005.93
13.733,-0.88,0.54,-0.00,7.99,6.04,0.85,0.02,-0.57,-0.21,1005.93
13.734,-0.88,0.54,-0.00,-4.53,2.77,1.77,0.02,-0.57,-0.21,1005.93
13.749,-0.88,0.54,-0.00,-4.53,2.77,1.77,0.02,-0.57,-0.21,1005.91
13.753,-1.03,0.45,-0.13,-4.53,2.77,1.77,0.02,-0.57,-0.21,1005.91
13.754,-0.75,0.29,0.11,-4.53,2.77,1.77,0.02,-0.57,-0.21,1005.91
13.754,-0.28,0.02,0.32,-4.53,2.77,1.77,0.02,-0.57,-0.21,1005.91
13.791,-0.28,0.02,0.32,-4.53,2.77,1.77,0.03,-2.59,3.13,1005.91
13.792,-0.28,0.02,0.32,-0.84,-4.81,2.69,0.03,-2.59,3.13,1005.91
13.811,0.10,-0.19,0.20,-0.84,-4.81,2.69,0.03,-2.59,3.13,1005.91
13.811,0.31,-0.13,0.08,-0.84,-4.81,2.69,0.03,-2.59,3.13,1005.91
13.812,0.07,0.19,-0.01,-0.84,-4.81,2.69,0.03,-2.59,3.13,1005.91
13.829,0.07,0.19,-0.01,-0.84,-4.81,2.69,0.03,-2.59,3.13,1005.93
13.864,0.07,0.19,-0.01,-0.84,-4.81,2.69,1.01,-1.23,4.18,1005.93
13.865,0.07,0.19,-0.01,5.53,-8.71,2.60,1.01,-1.23,4.18,1005.93
13.871,-0.33,0.43,0.06,5.53,-8.71,2.60,1.01,-1.23,4.18,1005.93
13.872,-0.47,0.53,0.09,5.53,-8.71,2.60,1.01,-1.23,4.18,1005.93
13.872,-0.40,0.72,-0.00,5.53,-8.71,2.60,1.01,-1.23,4.18,1005.93
13.906,-0.40,0.72,-0.00,5.53,-8.71,2.60,1.01,-1.23,4.18,1005.99
13.91,-0.40,0.72,-0.00,-2.54,-3.48,2.47,1.01,-1.23,4.18,1005.99
13.911,-0.40,0.72,-0.00,-2.54,-3.48,2.47,1.37,-2.69,5.81,1005.99
13.943,-0.40,1.01,-0.08,-2.54,-3.48,2.47,1.37,-2.69,5.81,1005.99
13.944,-0.50,1.30,0.03,-2.54,-3.48,2.47,1.37,-2.69,5.81,1005.99
13.944,-0.60,1.49,-0.14,-2.54,-3.48,2.47,1.37,-2.69,5.81,1005.99
13.946,-0.60,1.49,-0.14,-2.54,-3.48,2.47,1.37,-2.69,5.81,1005.93
13.966,-0.60,1.49,-0.14,-2.54,-3.48,2.47,1.16,-6.47,6.29,1005.93
13.967,-0.60,1.49,-0.14,-5.89,3.50,1.94,1.16,-6.47,6.29,1005.93
13.985,-0.68,1.72,-0.27,-5.89,3.50,1.94,1.16,-6.47,6.29,1005.93
13.986,-0.66,1.71,-0.09,-5.89,3.50,1.94,1.16,-6.47,6.29,1005.93
13.986,-0.50,1.41,0.18,-5.89,3.50,1.94,1.16,-6.47,6.29,1005.93
14.026,-0.50,1.41,0.18,-5.89,3.50,1.94,0.44,-8.97,4.21,1005.93
14.027,-0.50,1.41,0.18,-7.42,7.20,2.91,0.44,-8.97,4.21,1005.93
14.027,-0.50,1.41,0.18,-7.42,7.20,2.91,0.44,-8.97,4.21,1005.87
14.044,-0.38,1.27,0.28,-7.42,7.20,2.91,0.44,-8.97,4.21,1005.87
14.044,-0.43,1.26,0.35,-7.42,7.20,2.91,0.44,-8.97,4.21,1005.87
14.045,-0.29,1.09,0.62,-7.42,7.20,2.91,0.44,-8.97,4.21,1005.87
14.084,-0.29,1.09,0.62,-7.42,7.20,2.91,-0.65,-3.88,1.07,1005.87
14.085,-0.29,1.09,0.62,-4.66,3.11,7.42,-0.65,-3.88,1.07,1005.87
14.103,-0.16,0.87,0.63,-4.66,3.11,7.42,-0.65,-3.88,1.07,1005.87
14.104,-0.46,0.83,0.63,-4.66,3.11,7.42,-0.65,-3.88,1.07,1005.87
14.105,-0.79,1.27,0.13,-4.66,3.11,7.42,-0.65,-3.88,1.07,1005.87
14.105,-0.79,1.27,0.13,-4.66,3.11,7.42,-0.65,-3.88,1.07,1005.87
14.141,-0.79,1.27,0.13,-4.66,3.11,7.42,-0.81,0.72,-0.96,1005.87
14.142,-0.79,1.27,0.13,-5.16,0.77,7.30,-0.81,0.72,-0.96,1005.87
14.146,-0.79,1.27,0.13,-5.16,0.77,7.30,-0.81,0.72,-0.96,1005.91
14.16,0.01,1.41,-0.06,-5.16,0.77,7.30,-0.81,0.72,-0.96,1005.91
14.161,0.82,1.85,-0.81,-5.16,0.77,7.30,-0.81,0.72,-0.96,1005.91
14.161,0.21,1.61,-0.67,-5.16,0.77,7.30,-0.81,0.72,-0.96,1005.91
14.201,0.21,1.61,-0.67,-5.16,0.77,7.30,-0.80,-1.21,-0.69,1005.91
14.202,0.21,1.61,-0.67,3.29,6.75,-2.62,-0.80,-1.21,-0.69,1005.91
14.228,-0.46,0.99,-0.56,3.29,6.75,-2.62,-0.80,-1.21,-0.69,1005.91
14.229,0.04,0.77,-0.01,3.29,6.75,-2.62,-0.80,-1.21,-0.69,1005.91
14.229,0.30,0.79,0.19,3.29,6.75,-2.62,-0.80,-1.21,-0.69,1005.91
14.229,0.30,0.79,0.19,3.29,6.75,-2.62,-0.80,-1.21,-0.69,1005.88
14.259,0.30,0.79,0.19,-0.18,-0.90,0.86,-0.80,-1.21,-0.69,1005.88
14.26,0.30,0.79,0.19,-0.18,-0.90,0.86,-0.56,-0.77,-0.38,1005.88
14.277,-0.03,0.98,0.15,-0.18,-0.90,0.86,-0.56,-0.77,-0.38,1005.88
14.278,-0.27,1.02,-0.04,-0.18,-0.90,0.86,-0.56,-0.77,-0.38,1005.88
14.278,-0.15,1.03,-0.27,-0.18,-0.90,0.86,-0.56,-0.77,-0.38,1005.88
14.306,-0.15,1.03,-0.27,-0.18,-0.90,0.86,-0.56,-0.77,-0.38,1005.91
14.316,-0.15,1.03,-0.27,-1.12,0.67,1.44,-0.56,-0.77,-0.38,1005.91
14.317,-0.15,1.03,-0.27,-1.12,0.67,1.44,-0.14,-0.55,-0.05,1005.91
14.341,-0.05,1.01,-0.28,-1.12,0.67,1.44,-0.14,-0.55,-0.05,1005.91
14.342,-0.11,0.98,-0.24,-1.12,0.67,1.44,-0.14,-0.55,-0.05,1005.91
14.342,-0.17,0.97,-0.27,-1.12,0.67,1.44,-0.14,-0.55,-0.05,1005.91
14.345,-0.17,0.97,-0.27,-1.12,0.67,1.44,-0.14,-0.55,-0.05,1005.93
14.376,-0.17,0.97,-0.27,-0.80,0.39,-0.65,-0.14,-0.55,-0.05,1005.93
14.377,-0.17,0.97,-0.27,-0.80,0.39,-0.65,-0.19,-0.74,0.28,1005.93
14.397,-0.11,0.97,-0.25,-0.80,0.39,-0.65,-0.19,-0.74,0.28,1005.93
14.398,0.06,0.96,-0.16,-0.80,0.39,-0.65,-0.19,-0.74,0.28,1005.93
14.398,0.12,0.96,-0.12,-0.80,0.39,-0.65,-0.19,-0.74,0.28,1005.93
14.425,0.12,0.96,-0.12,-0.80,0.39,-0.65,-0.19,-0.74,0.28,1005.94
14.432,0.12,0.96,-0.12,-0.80,0.39,-0.65,-0.09,-0.23,0.22,1005.94
14.433,0.12,0.96,-0.12,0.43,0.14,0.12,-0.09,-0.23,0.22,1005.94
14.454,0.06,0.99,-0.15,0.43,0.14,0.12,-0.09,-0.23,0.22,1005.94
14.454,-0.03,1.00,-0.16,0.43,0.14,0.12,-0.09,-0.23,0.22,1005.94
14.454,-0.01,0.99,-0.12,0.43,0.14,0.12,-0.09,-0.23,0.22,1005.94
14.493,-0.01,0.99,-0.12,0.43,0.14,0.12,0.08,-0.32,0.15,1005.94
14.494,-0.01,0.99,-0.12,0.19,0.47,0.46,0.08,-0.32,0.15,1005.94
14.506,-0.01,0.99,-0.12,0.19,0.47,0.46,0.08,-0.32,0.15,1005.94
14.511,0.05,0.97,-0.15,0.19,0.47,0.46,0.08,-0.32,0.15,1005.94
14.512,0.08,1.01,-0.12,0.19,0.47,0.46,0.08,-0.32,0.15,1005.94
14.512,0.12,0.98,-0.14,0.19,0.47,0.46,0.08,-0.32,0.15,1005.94
14.547,0.12,0.98,-0.14,0.19,0.47,0.46,0.08,-0.32,0.15,1005.94
14.551,0.12,0.98,-0.14,0.19,0.47,0.46,0.34,-0.32,-0.11,1005.94
14.551,0.12,0.98,-0.14,1.02,0.41,0.70,0.34,-0.32,-0.11,1005.94
14.569,0.07,0.91,-0.14,1.02,0.41,0.70,0.34,-0.32,-0.11,1005.94
14.57,0.00,0.97,-0.11,1.02,0.41,0.70,0.34,-0.32,-0.11,1005.94
14.57,-0.02,1.01,-0.16,1.02,0.41,0.70,0.34,-0.32,-0.11,1005.94
14.608,-0.02,1.01,-0.16,1.02,0.41,0.70,0.63,-0.35,-0.21,1005.94
14.609,-0.02,1.01,-0.16,0.52,0.28,1.04,0.63,-0.35,-0.21,1005.94
14.625,-0.02,1.01,-0.16,0.52,0.28,1.04,0.63,-0.35,-0.21,1005.94
14.628,0.05,1.01,-0.18,0.52,0.28,1.04,0.63,-0.35,-0.21,1005.94
14.629,0.12,0.98,-0.18,0.52,0.28,1.04,0.63,-0.35,-0.21,1005.94
14.63,0.05,1.00,-0.22,0.52,0.28,1.04,0.63,-0.35,-0.21,1005.94
14.667,0.05,1.00,-0.22,0.52,0.28,1.04,1.08,-0.33,-0.43,1005.94
14.668,0.05,1.00,-0.22,1.29,0.76,1.03,1.08,-0.33,-0.43,1005.94
14.686,0.06,1.05,-0.29,1.29,0.76,1.03,1.08,-0.33,-0.43,1005.94
14.687,0.11,1.08,-0.27,1.29,0.76,1.03,1.08,-0.33,-0.43,1005.94
14.688,0.18,1.15,-0.29,1.29,0.76,1.03,1.08,-0.33,-0.43,1005.94
14.713,0.18,1.15,-0.29,1.29,0.76,1.03,1.08,-0.33,-0.43,1005.94
14.743,0.18,1.15,-0.29,2.19,2.02,0.93,1.08,-0.33,-0.43,1005.94
14.743,0.18,1.15,-0.29,2.19,2.02,0.93,1.61,-0.52,-0.70,1005.94
14.744,0.23,1.29,-0.31,2.19,2.02,0.93,1.61,-0.52,-0.70,1005.94
14.744,0.31,1.39,-0.24,2.19,2.02,0.93,1.61,-0.52,-0.70,1005.94
14.744,0.37,1.43,-0.09,2.19,2.02,0.93,1.61,-0.52,-0.70,1005.94
14.745,0.37,1.43,-0.09,2.19,2.02,0.93,1.61,-0.52,-0.70,1005.94
14.784,0.37,1.43,-0.09,2.19,2.02,0.93,2.19,-1.06,-0.97,1005.94
14.784,0.37,1.43,-0.09,4.64,5.29,2.52,2.19,-1.06,-0.97,1005.94
14.806,0.37,1.55,-0.01,4.64,5.29,2.52,2.19,-1.06,-0.97,1005.94
14.806,0.24,1.47,0.28,4.64,5.29,2.52,2.19,-1.06,-0.97,1005.94
14.807,-0.01,1.32,0.60,4.64,5.29,2.52,2.19,-1.06,-0.97,1005.94
14.825,-0.01,1.32,0.60,4.64,5.29,2.52,2.19,-1.06,-0.97,1005.93
14.841,-0.01,1.32,0.60,4.64,5.29,2.52,1.99,-2.83,-1.60,1005.93
14.842,-0.01,1.32,0.60,5.09,6.67,7.82,1.99,-2.83,-1.60,1005.93
14.861,-0.46,1.36,0.56,5.09,6.67,7.82,1.99,-2.83,-1.60,1005.93
14.861,-0.93,1.47,0.27,5.09,6.67,7.82,1.99,-2.83,-1.60,1005.93
14.861,-1.07,1.34,-0.03,5.09,6.67,7.82,1.99,-2.83,-1.60,1005.93
14.9,-1.07,1.34,-0.03,-3.19,6.60,7.00,1.99,-2.83,-1.60,1005.93
14.903,-1.07,1.34,-0.03,-3.19,6.60,7.00,1.33,-4.39,-0.98,1005.93
14.907,-1.07,1.34,-0.03,-3.19,6.60,7.00,1.33,-4.39,-0.98,1005.91
14.92,-0.87,1.14,-0.28,-3.19,6.60,7.00,1.33,-4.39,-0.98,1005.91
14.922,-0.32,1.03,-0.37,-3.19,6.60,7.00,1.33,-4.39,-0.98,1005.91
14.923,0.04,0.88,-0.08,-3.19,6.60,7.00,1.33,-4.39,-0.98,1005.91
14.945,0.04,0.88,-0.08,-3.19,6.60,7.00,1.33,-4.39,-0.98,1005.94
14.958,0.04,0.88,-0.08,-3.19,6.60,7.00,0.66,-4.08,1.23,1005.94
14.959,0.04,0.88,-0.08,1.49,2.66,1.03,0.66,-4.08,1.23,1005.94
14.978,0.14,0.60,0.24,1.49,2.66,1.03,0.66,-4.08,1.23,1005.94
14.979,-0.06,0.49,0.26,1.49,2.66,1.03,0.66,-4.08,1.23,1005.94
14.979,-0.28,0.55,0.19,1.49,2.66,1.03,0.66,-4.08,1.23,1005.94
15.016,-0.28,0.55,0.19,1.49,2.66,1.03,0.21,-3.27,3.08,1005.94
15.017,-0.28,0.55,0.19,3.75,-2.70,4.77,0.21,-3.27,3.08,1005.94
15.045,-0.28,0.55,0.19,3.75,-2.70,4.77,0.21,-3.27,3.08,1005.94
15.046,-0.30,0.59,0.17,3.75,-2.70,4.77,0.21,-3.27,3.08,1005.94
15.046,-0.25,0.60,0.15,3.75,-2.70,4.77,0.21,-3.27,3.08,1005.94
15.046,-0.19,0.65,0.11,3.75,-2.70,4.77,0.21,-3.27,3.08,1005.94
15.075,-0.19,0.65,0.11,3.75,-2.70,4.77,0.08,-2.01,5.16,1005.94
15.076,-0.19,0.65,0.11,-0.32,-2.99,3.48,0.08,-2.01,5.16,1005.94
15.096,-0.12,0.77,0.06,-0.32,-2.99,3.48,0.08,-2.01,5.16,1005.94
15.097,-0.05,0.93,0.06,-0.32,-2.99,3.48,0.08,-2.01,5.16,1005.94
15.097,-0.11,1.14,0.08,-0.32,-2.99,3.48,0.08,-2.01,5.16,1005.94
15.106,-0.11,1.14,0.08,-0.32,-2.99,3.48,0.08,-2.01,5.16,1005.93
15.132,-0.11,1.14,0.08,-0.32,-2.99,3.48,-0.87,-1.35,5.79,1005.93
15.133,-0.11,1.14,0.08,-1.81,-0.03,2.15,-0.87,-1.35,5.79,1005.93
15.161,-0.11,1.14,0.08,-1.81,-0.03,2.15,-0.87,-1.35,5.79,1005.92
15.162,-0.29,1.38,0.07,-1.81,-0.03,2.15,-0.87,-1.35,5.79,1005.92
15.163,-0.60,1.62,0.07,-1.81,-0.03,2.15,-0.87,-1.35,5.79,1005.92
15.163,-0.73,1.66,0.02,-1.81,-0.03,2.15,-0.87,-1.35,5.79,1005.92
15.192,-0.73,1.66,0.02,-1.81,-0.03,2.15,-1.54,-1.71,5.68,1005.92
15.192,-0.73,1.66,0.02,-8.89,6.51,1.44,-1.54,-1.71,5.68,1005.92
15.211,-0.68,1.53,0.03,-8.89,6.51,1.44,-1.54,-1.71,5.68,1005.92
15.212,-0.74,1.43,0.21,-8.89,6.51,1.44,-1.54,-1.71,5.68,1005.92
15.212,-0.81,1.39,0.24,-8.89,6.51,1.44,-1.54,-1.71,5.68,1005.92
15.225,-0.81,1.39,0.24,-8.89,6.51,1.44,-1.54,-1.71,5.68,1005.88
15.25,-0.81,1.39,0.24,-8.89,6.51,1.44,-1.49,-0.65,2.80,1005.88
15.251,-0.81,1.39,0.24,-12.04,6.04,1.86,-1.49,-0.65,2.80,1005.88
15.269,-0.73,1.28,0.08,-12.04,6.04,1.86,-1.49,-0.65,2.80,1005.88
15.269,-0.78,1.10,-0.05,-12.04,6.04,1.86,-1.49,-0.65,2.80,1005.88
15.27,-0.88,0.93,-0.18,-12.04,6.04,1.86,-1.49,-0.65,2.80,1005.88
15.305,-0.88,0.93,-0.18,-12.04,6.04,1.86,-1.49,-0.65,2.80,1005.86
15.308,-0.88,0.93,-0.18,-12.04,6.04,1.86,-0.59,-0.32,-1.28,1005.86
15.308,-0.88,0.93,-0.18,-11.70,2.20,-0.36,-0.59,-0.32,-1.28,1005.86
15.327,-0.97,0.86,-0.27,-11.70,2.20,-0.36,-0.59,-0.32,-1.28,1005.86
15.328,-1.07,0.99,-0.58,-11.70,2.20,-0.36,-0.59,-0.32,-1.28,1005.86
15.328,-0.28,1.31,-1.06,-11.70,2.20,-0.36,-0.59,-0.32,-1.28,1005.86
15.345,-0.28,1.31,-1.06,-11.70,2.20,-0.36,-0.59,-0.32,-1.28,1005.87
15.366,-0.28,1.31,-1.06,-11.70,2.20,-0.36,-0.57,-3.52,-0.71,1005.87
15.367,-0.28,1.31,-1.06,-10.88,1.56,-5.53,-0.57,-3.52,-0.71,1005.87
15.387,1.38,1.20,-0.67,-10.88,1.56,-5.53,-0.57,-3.52,-0.71,1005.87
15.388,2.36,1.55,-0.59,-10.88,1.56,-5.53,-0.57,-3.52,-0.71,1005.87
15.388,0.14,2.20,-0.45,-10.88,1.56,-5.53,-0.57,-3.52,-0.71,1005.87
15.427,0.14,2.20,-0.45,10.71,6.84,-5.02,-0.57,-3.52,-0.71,1005.87
15.428,0.14,2.20,-0.45,10.71,6.84,-5.02,-0.82,-1.23,-2.80,1005.87
15.429,0.14,2.20,-0.45,10.71,6.84,-5.02,-0.82,-1.23,-2.80,1005.87
15.453,-0.65,0.99,-0.01,10.71,6.84,-5.02,-0.82,-1.23,-2.80,1005.87
15.454,0.04,0.27,0.87,10.71,6.84,-5.02,-0.82,-1.23,-2.80,1005.87
15.454,0.29,0.68,0.49,10.71,6.84,-5.02,-0.82,-1.23,-2.80,1005.87
15.484,0.29,0.68,0.49,10.71,6.84,-5.02,-0.05,-0.11,-1.81,1005.87
15.485,0.29,0.68,0.49,-1.98,-3.08,4.86,-0.05,-0.11,-1.81,1005.87
15.503,0.17,1.07,-0.04,-1.98,-3.08,4.86,-0.05,-0.11,-1.81,1005.87
15.504,-0.29,1.20,-0.20,-1.98,-3.08,4.86,-0.05,-0.11,-1.81,1005.87
15.505,-0.29,1.10,-0.26,-1.98,-3.08,4.86,-0.05,-0.11,-1.81,1005.87
15.505,-0.29,1.10,-0.26,-1.98,-3.08,4.86,-0.05,-0.11,-1.81,1005.93
15.542,-0.29,1.10,-0.26,-1.98,-3.08,4.86,-0.05,-0.10,-1.16,1005.93
15.543,-0.29,1.10,-0.26,-1.63,1.54,-1.21,-0.05,-0.10,-1.16,1005.93
15.561,-0.29,1.10,-0.26,-1.63,1.54,-1.21,-0.05,-0.10,-1.16,1005.97
15.562,-0.07,1.06,-0.22,-1.63,1.54,-1.21,-0.05,-0.10,-1.16,1005.97
15.562,-0.06,1.06,-0.09,-1.63,1.54,-1.21,-0.05,-0.10,-1.16,1005.97
15.562,-0.01,1.04,0.02,-1.63,1.54,-1.21,-0.05,-0.10,-1.16,1005.97
15.6,-0.01,1.04,0.02,-1.63,1.54,-1.21,-0.08,-0.29,-0.89,1005.97
15.601,-0.01,1.04,0.02,-0.20,0.80,-0.56,-0.08,-0.29,-0.89,1005.97
15.62,0.13,1.02,0.02,-0.20,0.80,-0.56,-0.08,-0.29,-0.89,1005.97
15.62,0.17,0.97,0.02,-0.20,0.80,-0.56,-0.08,-0.29,-0.89,1005.97
15.621,-0.01,0.96,0.04,-0.20,0.80,-0.56,-0.08,-0.29,-0.89,1005.97
15.625,-0.01,0.96,0.04,-0.20,0.80,-0.56,-0.08,-0.29,-0.89,1005.95
15.657,-0.01,0.96,0.04,-0.20,0.80,-0.56,0.01,0.29,-1.09,1005.95
15.658,-0.01,0.96,0.04,1.78,0.13,0.66,0.01,0.29,-1.09,1005.95
15.679,-0.22,1.01,-0.01,1.78,0.13,0.66,0.01,0.29,-1.09,1005.95
15.681,-0.17,1.05,-0.05,1.78,0.13,0.66,0.01,0.29,-1.09,1005.95
15.682,-0.06,1.04,-0.02,1.78,0.13,0.66,0.01,0.29,-1.09,1005.95
15.711,-0.06,1.04,-0.02,1.78,0.13,0.66,0.01,0.29,-1.09,1005.94
15.718,-0.06,1.04,-0.02,1.78,0.13,0.66,0.06,0.00,-0.97,1005.94
15.719,-0.06,1.04,-0.02,-0.12,0.71,0.19,0.06,0.00,-0.97,1005.94
15.743,-0.09,1.01,0.00,-0.12,0.71,0.19,0.06,0.00,-0.97,1005.94
15.744,-0.09,0.98,-0.00,-0.12,0.71,0.19,0.06,0.00,-0.97,1005.94
15.744,-0.11,0.98,-0.02,-0.12,0.71,0.19,0.06,0.00,-0.97,1005.94
15.745,-0.11,0.98,-0.02,-0.12,0.71,0.19,0.06,0.00,-0.97,1005.92
15.774,-0.11,0.98,-0.02,-0.12,0.71,0.19,0.06,0.39,-1.07,1005.92
15.775,-0.11,0.98,-0.02,0.96,0.38,0.44,0.06,0.39,-1.07,1005.92
15.793,-0.17,0.98,-0.07,0.96,0.38,0.44,0.06,0.39,-1.07,1005.92
15.794,-0.15,1.00,-0.11,0.96,0.38,0.44,0.06,0.39,-1.07,1005.92
15.795,-0.03,1.06,-0.10,0.96,0.38,0.44,0.06,0.39,-1.07,1005.92
15.825,-0.03,1.06,-0.10,0.96,0.38,0.44,0.06,0.39,-1.07,1005.92
15.839,-0.03,1.06,-0.10,0.96,0.38,0.44,0.16,0.01,-1.39,1005.92
15.84,-0.03,1.06,-0.10,1.50,0.80,-0.31,0.16,0.01,-1.39,1005.92
15.852,0.04,1.16,-0.01,1.50,0.80,-0.31,0.16,0.01,-1.39,1005.92
15.852,0.03,1.22,0.04,1.50,0.80,-0.31,0.16,0.01,-1.39,1005.92
15.852,0.11,1.23,0.02,1.50,0.80,-0.31,0.16,0.01,-1.39,1005.92
15.89,0.11,1.23,0.02,1.50,0.80,-0.31,0.52,0.17,-2.13,1005.92
15.891,0.11,1.23,0.02,4.26,2.99,1.06,0.52,0.17,-2.13,1005.92
15.906,0.11,1.23,0.02,4.26,2.99,1.06,0.52,0.17,-2.13,1005.92
15.912,0.20,1.23,0.00,4.26,2.99,1.06,0.52,0.17,-2.13,1005.92
15.92,0.21,1.31,-0.05,4.26,2.99,1.06,0.52,0.17,-2.13,1005.92
15.92,0.40,1.59,0.09,4.26,2.99,1.06,0.52,0.17,-2.13,1005.92
15.945,0.40,1.59,0.09,4.26,2.99,1.06,0.52,0.17,-2.13,1005.92
15.949,0.40,1.59,0.09,4.26,2.99,1.06,0.79,1.05,-2.68,1005.92
15.949,0.40,1.59,0.09,7.43,5.33,1.64,0.79,1.05,-2.68,1005.92
15.969,0.94,1.78,0.03,7.43,5.33,1.64,0.79,1.05,-2.68,1005.92
15.97,1.15,1.69,-0.04,7.43,5.33,1.64,0.79,1.05,-2.68,1005.92
15.97,0.49,1.39,0.08,7.43,5.33,1.64,0.79,1.05,-2.68,1005.92
16.007,0.49,1.39,0.08,7.43,5.33,1.64,0.83,2.61,-4.24,1005.92
16.008,0.49,1.39,0.08,14.49,9.05,2.90,0.83,2.61,-4.24,1005.92
16.028,0.49,1.39,0.08,14.49,9.05,2.90,0.83,2.61,-4.24,1005.92
16.029,-0.63,1.31,-0.10,14.49,9.05,2.90,0.83,2.61,-4.24,1005.92
16.029,-1.14,1.48,-0.21,14.49,9.05,2.90,0.83,2.61,-4.24,1005.92
16.03,-0.98,1.28,-0.19,14.49,9.05,2.90,0.83,2.61,-4.24,1005.92
16.065,-0.98,1.28,-0.19,14.49,9.05,2.90,0.48,0.60,-2.06,1005.92
16.066,-0.98,1.28,-0.19,-2.20,7.17,1.43,0.48,0.60,-2.06,1005.92
16.085,-0.56,0.80,-0.13,-2.20,7.17,1.43,0.48,0.60,-2.06,1005.92
16.086,-0.57,0.55,-0.27,-2.20,7.17,1.43,0.48,0.60,-2.06,1005.92
16.086,-0.43,0.37,-0.40,-2.20,7.17,1.43,0.48,0.60,-2.06,1005.92
16.105,-0.43,0.37,-0.40,-2.20,7.17,1.43,0.48,0.60,-2.06,1005.91
16.124,-0.43,0.37,-0.40,-2.20,7.17,1.43,-1.11,-0.22,1.28,1005.91
16.124,-0.43,0.37,-0.40,1.21,-1.14,-0.05,-1.11,-0.22,1.28,1005.91
16.146,-0.19,0.22,-0.16,1.21,-1.14,-0.05,-1.11,-0.22,1.28,1005.91
16.147,0.01,0.03,-0.07,1.21,-1.14,-0.05,-1.11,-0.22,1.28,1005.91
16.147,0.00,0.10,-0.17,1.21,-1.14,-0.05,-1.11,-0.22,1.28,1005.91
16.148,0.00,0.10,-0.17,1.21,-1.14,-0.05,-1.11,-0.22,1.28,1005.90
16.182,0.00,0.10,-0.17,1.21,-1.14,-0.05,-1.26,-0.37,3.47,1005.90
16.183,0.00,0.10,-0.17,4.18,-6.79,0.54,-1.26,-0.37,3.47,1005.90
16.202,-0.16,0.32,-0.22,4.18,-6.79,0.54,-1.26,-0.37,3.47,1005.90
16.202,-0.13,0.49,-0.29,4.18,-6.79,0.54,-1.26,-0.37,3.47,1005.90
16.202,-0.04,0.59,-0.30,4.18,-6.79,0.54,-1.26,-0.37,3.47,1005.90
16.231,-0.04,0.59,-0.30,4.18,-6.79,0.54,-1.26,-0.37,3.47,1005.95
16.241,-0.04,0.59,-0.30,4.18,-6.79,0.54,-1.60,0.11,5.43,1005.95
16.241,-0.04,0.59,-0.30,0.92,-4.50,-1.53,-1.60,0.11,5.43,1005.95
16.26,-0.04,0.64,-0.18,0.92,-4.50,-1.53,-1.60,0.11,5.43,1005.95
16.261,-0.01,0.74,-0.05,0.92,-4.50,-1.53,-1.60,0.11,5.43,1005.95
16.261,0.01,0.97,-0.12,0.92,-4.50,-1.53,-1.60,0.11,5.43,1005.95
16.3,0.01,0.97,-0.12,0.92,-4.50,-1.53,-1.50,0.88,6.26,1005.95
16.3,0.01,0.97,-0.12,-1.51,-1.55,-0.85,-1.50,0.88,6.26,1005.95
16.306,0.01,0.97,-0.12,-1.51,-1.55,-0.85,-1.50,0.88,6.26,1005.92
16.321,-0.07,1.37,-0.40,-1.51,-1.55,-0.85,-1.50,0.88,6.26,1005.92
16.322,-0.32,1.93,-0.36,-1.51,-1.55,-0.85,-1.50,0.88,6.26,1005.92
16.322,-0.73,2.18,-0.33,-1.51,-1.55,-0.85,-1.50,0.88,6.26,1005.92
16.345,-0.73,2.18,-0.33,-1.51,-1.55,-0.85,-1.50,0.88,6.26,1005.88
16.357,-0.73,2.18,-0.33,-1.51,-1.55,-0.85,-1.74,0.49,5.68,1005.88
16.358,-0.73,2.18,-0.33,-7.80,9.47,-4.12,-1.74,0.49,5.68,1005.88
16.377,-0.94,1.92,-0.19,-7.80,9.47,-4.12,-1.74,0.49,5.68,1005.88
16.377,-0.96,1.57,-0.03,-7.80,9.47,-4.12,-1.74,0.49,5.68,1005.88
16.377,-0.95,1.39,-0.21,-7.80,9.47,-4.12,-1.74,0.49,5.68,1005.88
16.416,-0.95,1.39,-0.21,-7.80,9.47,-4.12,-0.78,-0.56,1.34,1005.88
16.416,-0.95,1.39,-0.21,-13.91,7.79,-2.14,-0.78,-0.56,1.34,1005.88
16.425,-0.95,1.39,-0.21,-13.91,7.79,-2.14,-0.78,-0.56,1.34,1005.85
16.452,-1.03,1.05,-0.34,-13.91,7.79,-2.14,-0.78,-0.56,1.34,1005.85
16.453,-1.21,0.81,-0.29,-13.91,7.79,-2.14,-0.78,-0.56,1.34,1005.85
16.454,-1.35,1.03,-0.26,-13.91,7.79,-2.14,-0.78,-0.56,1.34,1005.85
16.474,-1.35,1.03,-0.26,-13.91,7.79,-2.14,-0.23,-2.12,-2.17,1005.85
16.474,-1.35,1.03,-0.26,-15.06,0.76,-3.19,-0.23,-2.12,-2.17,1005.85
16.493,-0.33,1.56,-0.40,-15.06,0.76,-3.19,-0.23,-2.12,-2.17,1005.85
16.494,1.67,1.38,0.33,-15.06,0.76,-3.19,-0.23,-2.12,-2.17,1005.85
16.494,2.64,1.11,-0.18,-15.06,0.76,-3.19,-0.23,-2.12,-2.17,1005.85
16.505,2.64,1.11,-0.18,-15.06,0.76,-3.19,-0.23,-2.12,-2.17,1005.86
16.536,2.64,1.11,-0.18,-15.06,0.76,-3.19,-0.19,-1.32,-2.02,1005.86
16.537,2.64,1.11,-0.18,10.48,4.14,-0.97,-0.19,-1.32,-2.02,1005.86
16.547,2.64,1.11,-0.18,10.48,4.14,-0.97,-0.19,-1.32,-2.02,1005.91
16.552,0.23,1.71,-0.76,10.48,4.14,-0.97,-0.19,-1.32,-2.02,1005.91
16.553,-0.78,1.35,-0.20,10.48,4.14,-0.97,-0.19,-1.32,-2.02,1005.91
16.553,-0.51,0.66,0.45,10.48,4.14,-0.97,-0.19,-1.32,-2.02,1005.91
16.592,-0.51,0.66,0.45,10.48,4.14,-0.97,-0.14,-0.18,-2.10,1005.91
16.592,-0.51,0.66,0.45,-4.74,2.76,-1.83,-0.14,-0.18,-2.10,1005.91
16.612,0.12,0.76,0.45,-4.74,2.76,-1.83,-0.14,-0.18,-2.10,1005.91
16.612,0.12,1.05,0.15,-4.74,2.76,-1.83,-0.14,-0.18,-2.10,1005.91
16.613,-0.14,1.12,-0.05,-4.74,2.76,-1.83,-0.14,-0.18,-2.10,1005.91
16.627,-0.14,1.12,-0.05,-4.74,2.76,-1.83,-0.14,-0.18,-2.10,1005.94
16.65,-0.14,1.12,-0.05,-4.74,2.76,-1.83,0.19,0.24,-1.48,1005.94
16.65,-0.14,1.12,-0.05,-0.18,0.10,1.68,0.19,0.24,-1.48,1005.94
16.67,-0.19,1.02,-0.06,-0.18,0.10,1.68,0.19,0.24,-1.48,1005.94
16.671,0.06,1.02,0.02,-0.18,0.10,1.68,0.19,0.24,-1.48,1005.94
16.671,0.10,1.04,-0.01,-0.18,0.10,1.68,0.19,0.24,-1.48,1005.94
16.707,0.10,1.04,-0.01,-0.18,0.10,1.68,0.19,0.24,-1.48,1005.95
16.708,0.10,1.04,-0.01,-0.18,0.10,1.68,0.21,-0.36,-1.24,1005.95
16.708,0.10,1.04,-0.01,0.09,0.59,-0.13,0.21,-0.36,-1.24,1005.95
16.728,-0.10,1.02,0.04,0.09,0.59,-0.13,0.21,-0.36,-1.24,1005.95
16.729,-0.09,1.00,0.01,0.09,0.59,-0.13,0.21,-0.36,-1.24,1005.95
16.729,0.05,0.97,-0.01,0.09,0.59,-0.13,0.21,-0.36,-1.24,1005.95
16.746,0.05,0.97,-0.01,0.09,0.59,-0.13,0.21,-0.36,-1.24,1005.93
16.766,0.05,0.97,-0.01,0.09,0.59,-0.13,0.19,0.12,-1.19,1005.93
16.766,0.05,0.97,-0.01,0.41,0.31,0.25,0.19,0.12,-1.19,1005.93
16.786,0.07,0.98,-0.01,0.41,0.31,0.25,0.19,0.12,-1.19,1005.93
16.787,-0.07,0.99,0.01,0.41,0.31,0.25,0.19,0.12,-1.19,1005.93
16.788,-0.24,0.98,-0.02,0.41,0.31,0.25,0.19,0.12,-1.19,1005.93
16.824,-0.24,0.98,-0.02,0.41,0.31,0.25,0.20,0.26,-1.19,1005.93
16.825,-0.24,0.98,-0.02,0.72,0.28,0.21,0.20,0.26,-1.19,1005.93
16.826,-0.24,0.98,-0.02,0.72,0.28,0.21,0.20,0.26,-1.19,1005.95
16.859,-0.28,0.98,-0.03,0.72,0.28,0.21,0.20,0.26,-1.19,1005.95
16.86,-0.23,0.98,-0.02,0.72,0.28,0.21,0.20,0.26,-1.19,1005.95
16.86,-0.12,0.97,-0.02,0.72,0.28,0.21,0.20,0.26,-1.19,1005.95
16.883,-0.12,0.97,-0.02,0.72,0.28,0.21,0.18,0.05,-1.11,1005.95
16.884,-0.12,0.97,-0.02,0.07,0.32,0.10,0.18,0.05,-1.11,1005.95
16.902,-0.07,1.00,-0.02,0.07,0.32,0.10,0.18,0.05,-1.11,1005.95
16.903,-0.08,1.03,-0.04,0.07,0.32,0.10,0.18,0.05,-1.11,1005.95
16.904,-0.13,1.02,-0.06,0.07,0.32,0.10,0.18,0.05,-1.11,1005.95
16.905,-0.13,1.02,-0.06,0.07,0.32,0.10,0.18,0.05,-1.11,1005.95
16.944,-0.13,1.02,-0.06,0.07,0.32,0.10,0.24,0.26,-1.48,1005.95
16.959,-0.13,1.02,-0.06,1.93,0.93,0.13,0.24,0.26,-1.48,1005.95
16.959,-0.13,1.02,-0.06,1.93,0.93,0.13,0.24,0.26,-1.48,1005.95
16.98,-0.17,1.04,-0.05,1.93,0.93,0.13,0.24,0.26,-1.48,1005.95
16.981,-0.21,1.11,-0.05,1.93,0.93,0.13,0.24,0.26,-1.48,1005.95
16.981,-0.16,1.15,-0.07,1.93,0.93,0.13,0.24,0.26,-1.48,1005.95
17.0,-0.16,1.15,-0.07,1.96,2.06,0.17,0.24,0.26,-1.48,1005.95
17.001,-0.16,1.15,-0.07,1.96,2.06,0.17,0.35,0.16,-1.79,1005.95
17.019,-0.14,1.15,-0.04,1.96,2.06,0.17,0.35,0.16,-1.79,1005.95
17.019,-0.17,1.13,-0.05,1.96,2.06,0.17,0.35,0.16,-1.79,1005.95
17.019,-0.20,1.13,-0.10,1.96,2.06,0.17,0.35,0.16,-1.79,1005.95
17.025,-0.20,1.13,-0.10,1.96,2.06,0.17,0.35,0.16,-1.79,1005.94
17.058,-0.20,1.13,-0.10,1.96,2.06,0.17,0.54,0.75,-2.01,1005.94
17.058,-0.20,1.13,-0.10,2.97,2.88,0.51,0.54,0.75,-2.01,1005.94
17.077,-0.16,1.19,-0.16,2.97,2.88,0.51,0.54,0.75,-2.01,1005.94
17.078,-0.03,1.47,-0.16,2.97,2.88,0.51,0.54,0.75,-2.01,1005.94
17.078,0.42,1.86,-0.00,2.97,2.88,0.51,0.54,0.75,-2.01,1005.94
17.105,0.42,1.86,-0.00,2.97,2.88,0.51,0.54,0.75,-2.01,1005.94
17.115,0.42,1.86,-0.00,2.97,2.88,0.51,0.79,1.22,-2.17,1005.94
17.116,0.42,1.86,-0.00,6.20,7.13,0.83,0.79,1.22,-2.17,1005.94
17.139,1.12,1.92,-0.04,6.20,7.13,0.83,0.79,1.22,-2.17,1005.94
17.14,1.03,1.49,-0.02,6.20,7.13,0.83,0.79,1.22,-2.17,1005.94
17.14,-0.16,1.02,0.08,6.20,7.13,0.83,0.79,1.22,-2.17,1005.94
17.147,-0.16,1.02,0.08,6.20,7.13,0.83,0.79,1.22,-2.17,1005.92
17.175,-0.16,1.02,0.08,6.20,7.13,0.83,1.14,2.47,-3.47,1005.92
17.175,-0.16,1.02,0.08,12.73,8.10,3.19,1.14,2.47,-3.47,1005.92
17.194,-0.97,1.13,-0.12,12.73,8.10,3.19,1.14,2.47,-3.47,1005.92
17.195,-1.12,1.31,-0.06,12.73,8.10,3.19,1.14,2.47,-3.47,1005.92
17.195,-0.96,0.98,-0.06,12.73,8.10,3.19,1.14,2.47,-3.47,1005.92
17.227,-0.96,0.98,-0.06,12.73,8.10,3.19,1.14,2.47,-3.47,1005.92
17.236,-0.96,0.98,-0.06,12.73,8.10,3.19,0.71,-0.43,-1.03,1005.92
17.237,-0.96,0.98,-0.06,-3.22,5.22,2.41,0.71,-0.43,-1.03,1005.92
17.271,-0.95,0.67,-0.18,-3.22,5.22,2.41,0.71,-0.43,-1.03,1005.92
17.272,-0.76,0.46,-0.27,-3.22,5.22,2.41,0.71,-0.43,-1.03,1005.92
17.272,-0.32,0.29,-0.08,-3.22,5.22,2.41,0.71,-0.43,-1.03,1005.92
17.291,-0.32,0.29,-0.08,-3.22,5.22,2.41,-0.46,-1.27,2.53,1005.92
17.291,-0.32,0.29,-0.08,-0.58,-2.32,0.81,-0.46,-1.27,2.53,1005.92
17.305,-0.32,0.29,-0.08,-0.58,-2.32,0.81,-0.46,-1.27,2.53,1005.90
17.314,-0.02,0.03,0.31,-0.58,-2.32,0.81,-0.46,-1.27,2.53,1005.90
17.314,-0.03,-0.06,0.29,-0.58,-2.32,0.81,-0.46,-1.27,2.53,1005.90
17.315,-0.15,0.18,-0.05,-0.58,-2.32,0.81,-0.46,-1.27,2.53,1005.90
17.346,-0.15,0.18,-0.05,-0.58,-2.32,0.81,-0.46,-1.27,2.53,1005.92
17.35,-0.15,0.18,-0.05,-0.58,-2.32,0.81,0.19,-1.00,4.27,1005.92
17.351,-0.15,0.18,-0.05,3.57,-7.60,4.04,0.19,-1.00,4.27,1005.92
17.377,-0.13,0.52,-0.37,3.57,-7.60,4.04,0.19,-1.00,4.27,1005.92
17.378,-0.25,0.65,-0.08,3.57,-7.60,4.04,0.19,-1.00,4.27,1005.92
17.379,-0.56,0.65,-0.16,3.57,-7.60,4.04,0.19,-1.00,4.27,1005.92
17.408,-0.56,0.65,-0.16,3.57,-7.60,4.04,0.24,-2.05,5.56,1005.92
17.409,-0.56,0.65,-0.16,-1.37,-3.04,-0.01,0.24,-2.05,5.56,1005.92
17.426,-0.56,0.65,-0.16,-1.37,-3.04,-0.01,0.24,-2.05,5.56,1005.95
17.427,-0.74,0.71,-0.26,-1.37,-3.04,-0.01,0.24,-2.05,5.56,1005.95
17.427,-0.83,0.95,-0.05,-1.37,-3.04,-0.01,0.24,-2.05,5.56,1005.95
17.428,-0.92,1.26,-0.17,-1.37,-3.04,-0.01,0.24,-2.05,5.56,1005.95
17.466,-0.92,1.26,-0.17,-9.04,0.54,0.70,0.24,-2.05,5.56,1005.95
17.466,-0.92,1.26,-0.17,-9.04,0.54,0.70,0.64,-5.88,6.54,1005.95
17.486,-0.82,1.38,-0.26,-9.04,0.54,0.70,0.64,-5.88,6.54,1005.95
17.487,-0.64,1.55,-0.27,-9.04,0.54,0.70,0.64,-5.88,6.54,1005.95
17.487,-0.60,1.58,-0.07,-9.04,0.54,0.70,0.64,-5.88,6.54,1005.95
17.505,-0.60,1.58,-0.07,-9.04,0.54,0.70,0.64,-5.88,6.54,1005.90
17.524,-0.60,1.58,-0.07,-9.04,0.54,0.70,0.33,-9.38,4.75,1005.90
17.525,-0.60,1.58,-0.07,-8.42,6.08,1.33,0.33,-9.38,4.75,1005.90
17.544,-0.48,1.44,0.23,-8.42,6.08,1.33,0.33,-9.38,4.75,1005.90
17.545,-0.28,1.39,0.51,-8.42,6.08,1.33,0.33,-9.38,4.75,1005.90
17.545,-0.04,1.16,0.54,-8.42,6.08,1.33,0.33,-9.38,4.75,1005.90
17.546,-0.04,1.16,0.54,-8.42,6.08,1.33,0.33,-9.38,4.75,1005.87
17.583,-0.04,1.16,0.54,-8.42,6.08,1.33,-0.67,-5.95,1.60,1005.87
17.584,-0.04,1.16,0.54,-3.82,4.32,7.58,-0.67,-5.95,1.60,1005.87
17.601,-0.01,0.96,0.45,-3.82,4.32,7.58,-0.67,-5.95,1.60,1005.87
17.602,-0.23,0.94,0.37,-3.82,4.32,7.58,-0.67,-5.95,1.60,1005.87
17.603,-0.40,0.96,0.39,-3.82,4.32,7.58,-0.67,-5.95,1.60,1005.87
17.627,-0.40,0.96,0.39,-3.82,4.32,7.58,-0.67,-5.95,1.60,1005.88
17.641,-0.40,0.96,0.39,-3.82,4.32,7.58,-0.69,-1.10,-0.50,1005.88
17.642,-0.40,0.96,0.39,-2.79,0.45,6.92,-0.69,-1.10,-0.50,1005.88
17.66,-0.72,1.06,0.15,-2.79,0.45,6.92,-0.69,-1.10,-0.50,1005.88
17.66,-0.48,1.09,-0.10,-2.79,0.45,6.92,-0.69,-1.10,-0.50,1005.88
17.661,-0.38,0.99,-0.00,-2.79,0.45,6.92,-0.69,-1.10,-0.50,1005.88
17.701,-0.38,0.99,-0.00,-2.79,0.45,6.92,-0.97,-1.01,-0.24,1005.88
17.702,-0.38,0.99,-0.00,-5.45,1.19,2.60,-0.97,-1.01,-0.24,1005.88
17.706,-0.38,0.99,-0.00,-5.45,1.19,2.60,-0.97,-1.01,-0.24,1005.91
17.719,0.17,1.33,-0.70,-5.45,1.19,2.60,-0.97,-1.01,-0.24,1005.91
17.72,0.67,1.77,-0.64,-5.45,1.19,2.60,-0.97,-1.01,-0.24,1005.91
17.721,0.24,1.21,-0.56,-5.45,1.19,2.60,-0.97,-1.01,-0.24,1005.91
17.746,0.24,1.21,-0.56,-5.45,1.19,2.60,-0.97,-1.01,-0.24,1005.91
17.762,0.24,1.21,-0.56,-5.45,1.19,2.60,-0.77,-1.17,-0.30,1005.91
17.763,0.24,1.21,-0.56,3.48,4.88,-4.07,-0.77,-1.17,-0.30,1005.91
17.778,0.02,0.79,-0.12,3.48,4.88,-4.07,-0.77,-1.17,-0.30,1005.91
17.779,0.06,0.86,0.13,3.48,4.88,-4.07,-0.77,-1.17,-0.30,1005.91
17.779,-0.05,0.97,0.15,3.48,4.88,-4.07,-0.77,-1.17,-0.30,1005.91
17.817,-0.05,0.97,0.15,3.48,4.88,-4.07,-0.32,-0.40,-0.24,1005.91
17.818,-0.05,0.97,0.15,0.20,-0.69,2.43,-0.32,-0.40,-0.24,1005.91
17.825,-0.05,0.97,0.15,0.20,-0.69,2.43,-0.32,-0.40,-0.24,1005.89
17.837,-0.07,1.02,-0.03,0.20,-0.69,2.43,-0.32,-0.40,-0.24,1005.89
17.837,-0.03,1.02,-0.25,0.20,-0.69,2.43,-0.32,-0.40,-0.24,1005.89
17.838,-0.03,1.02,-0.26,0.20,-0.69,2.43,-0.32,-0.40,-0.24,1005.89
17.874,-0.03,1.02,-0.26,0.20,-0.69,2.43,-0.13,-0.58,-0.09,1005.89
17.875,-0.03,1.02,-0.26,-0.23,0.69,0.06,-0.13,-0.58,-0.09,1005.89
17.894,-0.18,0.99,-0.21,-0.23,0.69,0.06,-0.13,-0.58,-0.09,1005.89
17.894,-0.24,0.97,-0.19,-0.23,0.69,0.06,-0.13,-0.58,-0.09,1005.89
17.895,-0.05,0.96,-0.18,-0.23,0.69,0.06,-0.13,-0.58,-0.09,1005.89
17.906,-0.05,0.96,-0.18,-0.23,0.69,0.06,-0.13,-0.58,-0.09,1005.91
17.94,-0.05,0.96,-0.18,-0.23,0.69,0.06,-0.08,-0.43,0.24,1005.91
17.942,-0.05,0.96,-0.18,-1.38,0.23,-0.08,-0.08,-0.43,0.24,1005.91
17.964,-0.05,0.96,-0.18,-1.38,0.23,-0.08,-0.08,-0.43,0.24,1005.93
17.965,0.12,0.95,-0.18,-1.38,0.23,-0.08,-0.08,-0.43,0.24,1005.93
17.969,0.05,0.98,-0.14,-1.38,0.23,-0.08,-0.08,-0.43,0.24,1005.93
17.97,-0.05,1.00,-0.17,-1.38,0.23,-0.08,-0.08,-0.43,0.24,1005.93
17.992,-0.05,1.00,-0.17,-1.38,0.23,-0.08,-0.00,-0.38,0.08,1005.93
17.993,-0.05,1.00,-0.17,0.54,0.27,0.16,-0.00,-0.38,0.08,1005.93
18.011,-0.00,1.00,-0.18,0.54,0.27,0.16,-0.00,-0.38,0.08,1005.93
18.012,0.08,0.98,-0.13,0.54,0.27,0.16,-0.00,-0.38,0.08,1005.93
18.012,0.12,0.95,-0.10,0.54,0.27,0.16,-0.00,-0.38,0.08,1005.93
18.026,0.12,0.95,-0.10,0.54,0.27,0.16,-0.00,-0.38,0.08,1005.93
18.049,0.12,0.95,-0.10,0.54,0.27,0.16,0.19,-0.51,-0.18,1005.93
18.05,0.12,0.95,-0.10,0.93,0.29,0.50,0.19,-0.51,-0.18,1005.93
18.07,0.01,0.96,-0.12,0.93,0.29,0.50,0.19,-0.51,-0.18,1005.93
18.071,-0.08,0.99,-0.13,0.93,0.29,0.50,0.19,-0.51,-0.18,1005.93
18.072,-0.03,0.99,-0.16,0.93,0.29,0.50,0.19,-0.51,-0.18,1005.93
18.107,-0.03,0.99,-0.16,0.93,0.29,0.50,0.19,-0.51,-0.18,1005.94
18.108,-0.03,0.99,-0.16,0.93,0.29,0.50,0.40,-0.34,-0.19,1005.94
18.109,-0.03,0.99,-0.16,0.08,0.36,0.74,0.40,-0.34,-0.19,1005.94
18.129,0.04,0.99,-0.15,0.08,0.36,0.74,0.40,-0.34,-0.19,1005.94
18.13,0.00,0.98,-0.16,0.08,0.36,0.74,0.40,-0.34,-0.19,1005.94
18.13,-0.15,0.99,-0.16,0.08,0.36,0.74,0.40,-0.34,-0.19,1005.94
18.154,-0.15,0.99,-0.16,0.08,0.36,0.74,0.40,-0.34,-0.19,1005.95
18.173,-0.15,0.99,-0.16,0.08,0.36,0.74,0.64,-0.17,-0.15,1005.95
18.174,-0.15,0.99,-0.16,0.17,0.50,0.85,0.64,-0.17,-0.15,1005.95
18.185,-0.13,0.99,-0.19,0.17,0.50,0.85,0.64,-0.17,-0.15,1005.95
18.186,0.03,0.99,-0.19,0.17,0.50,0.85,0.64,-0.17,-0.15,1005.95
18.186,0.17,1.06,-0.17,0.17,0.50,0.85,0.64,-0.17,-0.15,1005.95
18.224,0.17,1.06,-0.17,0.17,0.50,0.85,1.03,0.22,-0.22,1005.95
18.225,0.17,1.06,-0.17,0.81,0.95,1.12,1.03,0.22,-0.22,1005.95
18.225,0.17,1.06,-0.17,0.81,0.95,1.12,1.03,0.22,-0.22,1005.96
18.243,0.14,1.09,-0.28,0.81,0.95,1.12,1.03,0.22,-0.22,1005.96
18.244,0.02,1.05,-0.35,0.81,0.95,1.12,1.03,0.22,-0.22,1005.96
18.244,-0.08,1.06,-0.33,0.81,0.95,1.12,1.03,0.22,-0.22,1005.96
18.283,-0.08,1.06,-0.33,0.81,0.95,1.12,1.52,-0.70,-0.39,1005.96
18.284,-0.08,1.06,-0.33,1.17,1.74,0.53,1.52,-0.70,-0.39,1005.96
18.302,-0.12,1.21,-0.35,1.17,1.74,0.53,1.52,-0.70,-0.39,1005.96
18.303,0.16,1.35,-0.31,1.17,1.74,0.53,1.52,-0.70,-0.39,1005.96
18.303,0.53,1.45,-0.19,1.17,1.74,0.53,1.52,-0.70,-0.39,1005.96
18.306,0.53,1.45,-0.19,1.17,1.74,0.53,1.52,-0.70,-0.39,1005.95
18.348,0.53,1.45,-0.19,1.17,1.74,0.53,2.08,-2.00,-0.66,1005.95
18.35,0.53,1.45,-0.19,3.54,4.83,1.73,2.08,-2.00,-0.66,1005.95
18.351,0.53,1.45,-0.19,3.54,4.83,1.73,2.08,-2.00,-0.66,1005.93
18.36,0.76,1.58,0.09,3.54,4.83,1.73,2.08,-2.00,-0.66,1005.93
18.361,0.63,1.56,0.25,3.54,4.83,1.73,2.08,-2.00,-0.66,1005.93
18.361,0.11,1.46,0.40,3.54,4.83,1.73,2.08,-2.00,-0.66,1005.93
18.4,0.11,1.46,0.40,3.54,4.83,1.73,2.14,-2.09,-1.56,1005.93
18.401,0.11,1.46,0.40,7.72,7.45,7.49,2.14,-2.09,-1.56,1005.93
18.418,-0.21,1.30,0.64,7.72,7.45,7.49,2.14,-2.09,-1.56,1005.93
18.419,-0.57,1.39,0.29,7.72,7.45,7.49,2.14,-2.09,-1.56,1005.93
18.419,-0.91,1.49,0.12,7.72,7.45,7.49,2.14,-2.09,-1.56,1005.93
18.426,-0.91,1.49,0.12,7.72,7.45,7.49,2.14,-2.09,-1.56,1005.92
18.464,-0.91,1.49,0.12,7.72,7.45,7.49,1.59,-4.32,-1.71,1005.92
18.466,-0.91,1.49,0.12,-0.70,6.84,8.07,1.59,-4.32,-1.71,1005.92
18.494,-0.93,1.23,-0.08,-0.70,6.84,8.07,1.59,-4.32,-1.71,1005.92
18.495,-0.64,1.18,-0.52,-0.70,6.84,8.07,1.59,-4.32,-1.71,1005.92
18.495,-0.17,1.06,-0.42,-0.70,6.84,8.07,1.59,-4.32,-1.71,1005.92
18.506,-0.17,1.06,-0.42,-0.70,6.84,8.07,1.59,-4.32,-1.71,1005.94
18.516,-0.17,1.06,-0.42,-0.70,6.84,8.07,0.52,-4.97,0.53,1005.94
18.517,-0.17,1.06,-0.42,0.08,4.37,-0.07,0.52,-4.97,0.53,1005.94
18.536,0.23,0.71,0.04,0.08,4.37,-0.07,0.52,-4.97,0.53,1005.94
18.536,0.10,0.49,0.35,0.08,4.37,-0.07,0.52,-4.97,0.53,1005.94
18.536,-0.11,0.49,0.20,0.08,4.37,-0.07,0.52,-4.97,0.53,1005.94
18.547,-0.11,0.49,0.20,0.08,4.37,-0.07,0.52,-4.97,0.53,1005.94
18.575,-0.11,0.49,0.20,0.08,4.37,-0.07,0.12,-2.69,2.49,1005.94
18.576,-0.11,0.49,0.20,5.83,-2.16,4.28,0.12,-2.69,2.49,1005.94
18.595,-0.05,0.51,0.15,5.83,-2.16,4.28,0.12,-2.69,2.49,1005.94
18.596,-0.00,0.50,0.18,5.83,-2.16,4.28,0.12,-2.69,2.49,1005.94
18.596,-0.10,0.57,0.11,5.83,-2.16,4.28,0.12,-2.69,2.49,1005.94
18.626,-0.10,0.57,0.11,5.83,-2.16,4.28,0.12,-2.69,2.49,1005.93
18.634,-0.10,0.57,0.11,5.83,-2.16,4.28,-0.06,-0.49,4.36,1005.93
18.634,-0.10,0.57,0.11,2.51,-3.54,3.57,-0.06,-0.49,4.36,1005.93
18.653,-0.14,0.69,0.02,2.51,-3.54,3.57,-0.06,-0.49,4.36,1005.93
18.654,-0.17,0.86,-0.06,2.51,-3.54,3.57,-0.06,-0.49,4.36,1005.93
18.654,-0.20,1.02,-0.05,2.51,-3.54,3.57,-0.06,-0.49,4.36,1005.93
18.692,-0.20,1.02,-0.05,2.51,-3.54,3.57,-1.04,0.18,5.79,1005.93
18.693,-0.20,1.02,-0.05,-1.71,-0.90,1.30,-1.04,0.18,5.79,1005.93
18.706,-0.20,1.02,-0.05,-1.71,-0.90,1.30,-1.04,0.18,5.79,1005.95
18.717,-0.24,1.19,-0.01,-1.71,-0.90,1.30,-1.04,0.18,5.79,1005.95
18.719,-0.34,1.42,-0.01,-1.71,-0.90,1.30,-1.04,0.18,5.79,1005.95
18.72,-0.49,1.71,-0.13,-1.71,-0.90,1.30,-1.04,0.18,5.79,1005.95
18.748,-0.49,1.71,-0.13,-1.71,-0.90,1.30,-1.04,0.18,5.79,1005.92
18.75,-0.49,1.71,-0.13,-6.60,5.19,0.15,-1.04,0.18,5.79,1005.92
18.769,-0.49,1.71,-0.13,-6.60,5.19,0.15,-1.92,-0.64,6.01,1005.92
18.77,-0.57,1.77,-0.11,-6.60,5.19,0.15,-1.92,-0.64,6.01,1005.92
