
time,gFx,gFy,gFz,ax,ay,az,wx,wy,wz,
0.019096,0.0745,0.9983,0.0759,0.0000,0.0000,0.0000,0.0000,0.0000,0.0000,
0.049535,0.0781,1.0018,0.0632,0.0000,0.0000,0.0000,0.0000,0.0000,0.0000,
0.069419,0.0781,1.0018,0.0632,-0.0513,0.0100,0.0092,0.0000,0.0000,0.0000,
0.070075,0.0781,1.0018,0.0632,-0.0513,0.0100,0.0092,0.1826,0.2034,0.2269,
0.108134,0.0757,0.9995,0.0780,-0.0513,0.0100,0.0092,0.1826,0.2034,0.2269,
0.127664,0.0757,0.9995,0.0780,-0.0513,0.0100,0.0092,-0.0037,0.0019,0.0004,
0.128911,0.0757,0.9995,0.0780,-0.0583,-0.0049,0.1482,-0.0037,0.0019,0.0004,
0.167053,0.0742,1.0012,0.0823,-0.0583,-0.0049,0.1482,-0.0037,0.0019,0.0004,
0.186241,0.0742,1.0012,0.0823,-0.0444,-0.0116,0.0877,-0.0037,0.0019,0.0004,
0.187284,0.0742,1.0012,0.0823,-0.0444,-0.0116,0.0877,0.0020,-0.0047,-0.0014,
0.227048,0.0752,1.0005,0.0811,-0.0444,-0.0116,0.0877,0.0020,-0.0047,-0.0014,
0.244490,0.0752,1.0005,0.0811,-0.0424,0.0256,0.0540,0.0020,-0.0047,-0.0014,
0.245223,0.0752,1.0005,0.0811,-0.0424,0.0256,0.0540,0.0014,0.0037,-0.0057,
0.285348,0.0694,1.0016,0.0817,-0.0424,0.0256,0.0540,0.0014,0.0037,-0.0057,
0.302728,0.0694,1.0016,0.0817,-0.0596,-0.0052,0.0644,0.0014,0.0037,-0.0057,
0.303481,0.0694,1.0016,0.0817,-0.0596,-0.0052,0.0644,-0.0049,-0.0116,-0.0028,
0.343003,0.0664,1.0060,0.0891,-0.0596,-0.0052,0.0644,-0.0049,-0.0116,-0.0028,
0.361092,0.0664,1.0060,0.0891,-0.0600,0.0490,0.1844,-0.0049,-0.0116,-0.0028,
0.362093,0.0664,1.0060,0.0891,-0.0600,0.0490,0.1844,-0.0053,0.0220,0.0155,
0.399105,0.0752,0.9945,0.1332,-0.0600,0.0490,0.1844,-0.0053,0.0220,0.0155,
0.418810,0.0752,0.9945,0.1332,-0.0600,0.0490,0.1844,0.0122,0.0446,0.0029,
0.419663,0.0752,0.9945,0.1332,-0.0577,-0.1481,0.3912,0.0122,0.0446,0.0029,
0.458952,0.0759,1.0008,0.0973,-0.0577,-0.1481,0.3912,0.0122,0.0446,0.0029,
0.478053,0.0759,1.0008,0.0973,-0.0577,-0.1481,0.3912,0.0617,-0.0128,-0.0150,
0.480220,0.0759,1.0008,0.0973,0.1323,0.0567,0.1626,0.0617,-0.0128,-0.0150,
0.517377,0.0986,0.9657,0.0470,0.1323,0.0567,0.1626,0.0617,-0.0128,-0.0150,
0.535955,0.0986,0.9657,0.0470,0.1323,0.0567,0.1626,0.1197,-0.0462,-0.0529,
0.537464,0.0986,0.9657,0.0470,0.1875,-0.3759,-0.4536,0.1197,-0.0462,-0.0529,
0.577370,0.0895,0.9866,-0.0103,0.1875,-0.3759,-0.4536,0.1197,-0.0462,-0.0529,
0.596890,0.0895,0.9866,-0.0103,0.1300,0.0001,-0.6448,0.1197,-0.0462,-0.0529,
0.600069,0.0895,0.9866,-0.0103,0.1300,0.0001,-0.6448,0.1034,0.0664,-0.0293,
0.633827,0.0430,1.0407,0.0631,0.1300,0.0001,-0.6448,0.1034,0.0664,-0.0293,
0.653699,0.0430,1.0407,0.0631,0.1300,0.0001,-0.6448,-0.0523,0.0695,-0.0283,
0.658114,0.0430,1.0407,0.0631,-0.5037,0.5746,0.1547,-0.0523,0.0695,-0.0283,
0.693967,0.0654,1.0025,0.1008,-0.5037,0.5746,0.1547,-0.0523,0.0695,-0.0283,
0.711502,0.0654,1.0025,0.1008,-0.5037,0.5746,0.1547,-0.0222,-0.0535,0.0326,
0.714531,0.0654,1.0025,0.1008,0.4091,-0.3872,0.4930,-0.0222,-0.0535,0.0326,
0.751777,0.1089,0.9666,0.1205,0.4091,-0.3872,0.4930,-0.0222,-0.0535,0.0326,
0.770152,0.1089,0.9666,0.1205,0.4091,-0.3872,0.4930,0.0936,0.1039,-0.0643,
0.772808,0.1089,0.9666,0.1205,0.0673,-0.0579,0.4339,0.0936,0.1039,-0.0643,
0.808160,0.0816,0.9966,0.0921,0.0673,-0.0579,0.4339,0.0936,0.1039,-0.0643,
0.827702,0.0816,0.9966,0.0921,0.0673,-0.0579,0.4339,0.1720,0.0367,-0.0826,
0.829576,0.0816,0.9966,0.0921,0.2064,-0.1282,0.3532,0.1720,0.0367,-0.0826,
0.866566,0.0238,0.9831,0.1328,0.2064,-0.1282,0.3532,0.1720,0.0367,-0.0826,
0.886488,0.0238,0.9831,0.1328,0.2064,-0.1282,0.3532,0.2930,0.1037,-0.0207,
0.888538,0.0238,0.9831,0.1328,-0.8761,-0.0205,0.9257,0.2930,0.1037,-0.0207,
0.928167,0.0038,0.9774,0.1146,-0.8761,-0.0205,0.9257,0.2930,0.1037,-0.0207,
0.944915,0.0038,0.9774,0.1146,0.1000,-0.3177,0.4206,0.2930,0.1037,-0.0207,
0.946628,0.0038,0.9774,0.1146,0.1000,-0.3177,0.4206,0.5062,0.0475,0.2535,
0.985243,0.0509,1.0323,0.0461,0.1000,-0.3177,0.4206,0.5062,0.0475,0.2535,
1.005570,0.0509,1.0323,0.0461,0.1000,-0.3177,0.4206,0.6192,0.2549,0.2409,
1.008977,0.0509,1.0323,0.0461,-0.8990,0.3718,0.4566,0.6192,0.2549,0.2409,
1.045912,0.0852,1.0148,-0.1510,-0.8990,0.3718,0.4566,0.6192,0.2549,0.2409,
1.063332,0.0852,1.0148,-0.1510,-0.8990,0.3718,0.4566,0.6208,0.0002,0.3389,
1.066014,0.0852,1.0148,-0.1510,0.5268,0.1428,-1.2046,0.6208,0.0002,0.3389,
1.100426,0.1502,1.0008,-0.1123,0.5268,0.1428,-1.2046,0.6208,0.0002,0.3389,
1.120703,0.1502,1.0008,-0.1123,0.5268,0.1428,-1.2046,0.4176,0.1686,0.2091,
1.123557,0.1502,1.0008,-0.1123,0.1303,0.0478,-0.4349,0.4176,0.1686,0.2091,
1.159498,0.1256,1.0071,-0.1133,0.1303,0.0478,-0.4349,0.4176,0.1686,0.2091,
1.179559,0.1256,1.0071,-0.1133,0.1303,0.0478,-0.4349,0.2734,-0.0051,0.1562,
1.184178,0.1256,1.0071,-0.1133,-0.2844,0.2299,-0.0562,0.2734,-0.0051,0.1562,
1.217372,0.1049,1.0065,-0.0984,-0.2844,0.2299,-0.0562,0.2734,-0.0051,0.1562,
1.238568,0.1049,1.0065,-0.0984,-0.2844,0.2299,-0.0562,0.2855,-0.0543,0.1751,
1.241366,0.1049,1.0065,-0.0984,-0.1926,0.0113,0.2289,0.2855,-0.0543,0.1751,
1.278518,0.0741,1.0379,-0.0623,-0.1926,0.0113,0.2289,0.2855,-0.0543,0.1751,
1.296709,0.0741,1.0379,-0.0623,-0.1926,0.0113,0.2289,0.3881,-0.1071,0.2250,
1.299733,0.0741,1.0379,-0.0623,-0.5481,1.0169,0.2599,0.3881,-0.1071,0.2250,
1.333765,0.1353,1.1197,-0.2123,-0.5481,1.0169,0.2599,0.3881,-0.1071,0.2250,
1.353671,0.1353,1.1197,-0.2123,-0.3986,1.3468,-0.5612,0.3881,-0.1071,0.2250,
1.356649,0.1353,1.1197,-0.2123,-0.3986,1.3468,-0.5612,0.2631,-0.2716,0.2273,
1.394077,0.0606,1.1805,-0.1139,-0.3986,1.3468,-0.5612,0.2631,-0.2716,0.2273,
1.413471,0.0606,1.1805,-0.1139,-0.3986,1.3468,-0.5612,-0.0556,-0.1458,0.2839,
1.415986,0.0606,1.1805,-0.1139,-1.5225,1.3786,0.3795,-0.0556,-0.1458,0.2839,
1.449867,-0.0665,1.0152,-0.2049,-1.5225,1.3786,0.3795,-0.0556,-0.1458,0.2839,
1.469420,-0.0665,1.0152,-0.2049,-1.5225,1.3786,0.3795,-0.3494,-0.8859,0.5773,
1.471270,-0.0665,1.0152,-0.2049,-2.3373,-0.1684,-0.9840,-0.3494,-0.8859,0.5773,
1.509327,-0.1751,0.8888,-0.2613,-2.3373,-0.1684,-0.9840,-0.3494,-0.8859,0.5773,
1.530598,-0.1751,0.8888,-0.2613,-4.3027,-1.4832,-1.4937,-0.3494,-0.8859,0.5773,
1.534342,-0.1751,0.8888,-0.2613,-4.3027,-1.4832,-1.4937,-0.6044,-1.5125,0.2474,
1.567463,-0.2855,0.8245,-0.3832,-4.3027,-1.4832,-1.4937,-0.6044,-1.5125,0.2474,
1.587208,-0.2855,0.8245,-0.3832,-4.3027,-1.4832,-1.4937,-0.5272,-1.9254,-0.4614,
1.591268,-0.2855,0.8245,-0.3832,-3.2949,-1.3998,-2.5961,-0.5272,-1.9254,-0.4614,
1.626933,-0.1601,0.8599,-0.3317,-3.2949,-1.3998,-2.5961,-0.5272,-1.9254,-0.4614,
1.646479,-0.1601,0.8599,-0.3317,-1.7187,-1.1084,-1.9061,-0.5272,-1.9254,-0.4614,
1.649863,-0.1601,0.8599,-0.3317,-1.7187,-1.1084,-1.9061,-0.5435,-1.5612,-1.1171,
1.688239,-0.0815,0.9438,-0.2534,-1.7187,-1.1084,-1.9061,-0.5435,-1.5612,-1.1171,
1.704092,-0.0815,0.9438,-0.2534,-1.7187,-1.1084,-1.9061,-0.5333,-1.6986,-1.3042,
1.707218,-0.0815,0.9438,-0.2534,0.2632,-0.2819,-1.4384,-0.5333,-1.6986,-1.3042,
1.742776,0.0516,0.9340,-0.1681,0.2632,-0.2819,-1.4384,-0.5333,-1.6986,-1.3042,
1.760932,0.0516,0.9340,-0.1681,1.9012,-0.8469,-1.2070,-0.5333,-1.6986,-1.3042,
1.764541,0.0516,0.9340,-0.1681,1.9012,-0.8469,-1.2070,-0.4211,-2.2052,-1.0311,
1.801117,0.2203,0.8558,-0.1862,1.9012,-0.8469,-1.2070,-0.4211,-2.2052,-1.0311,
1.819389,0.2203,0.8558,-0.1862,4.6554,-1.7306,-1.2828,-0.4211,-2.2052,-1.0311,
1.821300,0.2203,0.8558,-0.1862,4.6554,-1.7306,-1.2828,-0.1770,-2.7847,-0.3494,
1.858761,0.7585,0.8462,-0.2622,4.6554,-1.7306,-1.2828,-0.1770,-2.7847,-0.3494,
1.879514,0.7585,0.8462,-0.2622,4.6554,-1.7306,-1.2828,-0.1330,-1.8391,0.9002,
1.882431,0.7585,0.8462,-0.2622,10.2296,2.2052,-1.9171,-0.1330,-1.8391,0.9002,
1.916620,0.0984,1.6121,0.1187,10.2296,2.2052,-1.9171,-0.1330,-1.8391,0.9002,
1.936227,0.0984,1.6121,0.1187,-3.6400,2.7487,0.3153,-0.1330,-1.8391,0.9002,
1.938428,0.0984,1.6121,0.1187,-3.6400,2.7487,0.3153,0.1051,1.8711,0.8117,
1.975681,0.0504,0.9053,-0.1432,-3.6400,2.7487,0.3153,0.1051,1.8711,0.8117,
1.994158,0.0504,0.9053,-0.1432,1.6893,-0.3887,-0.4259,0.1051,1.8711,0.8117,
1.995398,0.0504,0.9053,-0.1432,1.6893,-0.3887,-0.4259,-0.3761,-0.6534,1.3484,
2.033634,0.3466,1.0288,0.0243,1.6893,-0.3887,-0.4259,-0.3761,-0.6534,1.3484,
2.052211,0.3466,1.0288,0.0243,1.6893,-0.3887,-0.4259,-0.1664,0.0393,0.7404,
2.053642,0.3466,1.0288,0.0243,0.8834,0.3362,-0.2231,-0.1664,0.0393,0.7404,
2.092461,0.0855,1.0246,0.0063,0.8834,0.3362,-0.2231,-0.1664,0.0393,0.7404,
2.111972,0.0855,1.0246,0.0063,0.8834,0.3362,-0.2231,-0.1812,-0.3376,0.6251,
2.114332,0.0855,1.0246,0.0063,-0.1443,0.0933,0.1444,-0.1812,-0.3376,0.6251,
2.150474,0.2197,0.9750,0.0491,-0.1443,0.0933,0.1444,-0.1812,-0.3376,0.6251,
2.169159,0.2197,0.9750,0.0491,-0.1443,0.0933,0.1444,-0.0703,-0.2694,0.5172,
2.170895,0.2197,0.9750,0.0491,0.0765,-0.0523,0.2200,-0.0703,-0.2694,0.5172,
2.208968,0.1307,0.9914,0.0531,0.0765,-0.0523,0.2200,-0.0703,-0.2694,0.5172,
2.227954,0.1307,0.9914,0.0531,-1.0401,0.1521,0.2996,-0.0703,-0.2694,0.5172,
2.229987,0.1307,0.9914,0.0531,-1.0401,0.1521,0.2996,0.0281,-0.2545,0.5486,
2.266666,0.1345,0.9782,0.0534,-1.0401,0.1521,0.2996,0.0281,-0.2545,0.5486,
2.285600,0.1345,0.9782,0.0534,-1.0401,0.1521,0.2996,0.1325,-0.3502,0.7990,
2.286942,0.1345,0.9782,0.0534,-1.2272,-0.0598,0.4037,0.1325,-0.3502,0.7990,
2.326947,0.1588,0.9705,0.0384,-1.2272,-0.0598,0.4037,0.1325,-0.3502,0.7990,
2.349055,0.1588,0.9705,0.0384,-1.2272,-0.0598,0.4037,0.1987,-0.5548,1.1263,
2.352428,0.1588,0.9705,0.0384,-1.0549,0.3070,0.3192,0.1987,-0.5548,1.1263,
2.383057,0.3049,0.9678,-0.0128,-1.0549,0.3070,0.3192,0.1987,-0.5548,1.1263,
2.402454,0.3049,0.9678,-0.0128,-1.0549,0.3070,0.3192,0.2455,-0.6438,1.2778,
2.404290,0.3049,0.9678,-0.0128,-0.5483,0.4736,0.2306,0.2455,-0.6438,1.2778,
2.442825,0.3275,1.0204,0.0221,-0.5483,0.4736,0.2306,0.2455,-0.6438,1.2778,
2.461904,0.3275,1.0204,0.0221,-0.5483,0.4736,0.2306,0.4093,-0.6021,1.4378,
2.463674,0.3275,1.0204,0.0221,-1.9236,1.8594,1.1286,0.4093,-0.6021,1.4378,
2.499764,0.0574,1.3832,0.0444,-1.9236,1.8594,1.1286,0.4093,-0.6021,1.4378,
2.519182,0.0574,1.3832,0.0444,-1.9236,1.8594,1.1286,0.6284,-1.1865,2.2464,
2.520741,0.0574,1.3832,0.0444,-6.4007,7.9403,0.9405,0.6284,-1.1865,2.2464,
2.560154,-0.4968,2.2154,-0.2959,-6.4007,7.9403,0.9405,0.6284,-1.1865,2.2464,
2.580139,-0.4968,2.2154,-0.2959,-6.4007,7.9403,0.9405,0.4553,-2.3950,3.3987,
2.581326,-0.4968,2.2154,-0.2959,-12.7801,13.7684,-0.7701,0.4553,-2.3950,3.3987,
2.615882,0.4021,0.9881,-0.3474,-12.7801,13.7684,-0.7701,0.4553,-2.3950,3.3987,
2.635658,0.4021,0.9881,-0.3474,-12.7801,13.7684,-0.7701,0.1655,-3.6253,4.4417,
2.637354,0.4021,0.9881,-0.3474,4.2065,0.2141,-0.8474,0.1655,-3.6253,4.4417,
2.674469,1.0513,0.2298,-0.7704,4.2065,0.2141,-0.8474,0.1655,-3.6253,4.4417,
2.694429,1.0513,0.2298,-0.7704,4.2065,0.2141,-0.8474,-2.0599,-1.0095,1.1933,
2.696921,1.0513,0.2298,-0.7704,-1.6487,-4.8866,-2.1626,-2.0599,-1.0095,1.1933,
2.733274,0.0007,0.0003,-0.3844,-1.6487,-4.8866,-2.1626,-2.0599,-1.0095,1.1933,
2.753020,0.0007,0.0003,-0.3844,-1.6487,-4.8866,-2.1626,-2.8825,1.2773,-1.2447,
2.754424,0.0007,0.0003,-0.3844,-7.6312,-5.5168,-2.4628,-2.8825,1.2773,-1.2447,
2.791402,0.1139,0.2837,-0.5014,-7.6312,-5.5168,-2.4628,-2.8825,1.2773,-1.2447,
2.810826,0.1139,0.2837,-0.5014,-7.6312,-5.5168,-2.4628,-3.0910,0.6972,-3.1889,
2.812191,0.1139,0.2837,-0.5014,-4.8980,-3.9160,-3.7169,-3.0910,0.6972,-3.1889,
2.850190,-0.0771,0.6217,-0.3619,-4.8980,-3.9160,-3.7169,-3.0910,0.6972,-3.1889,
2.869268,-0.0771,0.6217,-0.3619,-4.8980,-3.9160,-3.7169,-2.2167,-2.3514,-4.1402,
2.870810,-0.0771,0.6217,-0.3619,-3.7200,-1.4260,-4.0307,-2.2167,-2.3514,-4.1402,
2.907663,0.5729,1.0525,-0.5877,-3.7200,-1.4260,-4.0307,-2.2167,-2.3514,-4.1402,
2.927681,0.5729,1.0525,-0.5877,-3.7200,-1.4260,-4.0307,-2.2446,-2.8947,-4.3223,
2.929631,0.5729,1.0525,-0.5877,5.9311,1.4753,-5.1375,-2.2446,-2.8947,-4.3223,
2.966537,0.7463,1.2054,-0.3907,5.9311,1.4753,-5.1375,-2.2446,-2.8947,-4.3223,
2.985997,0.7463,1.2054,-0.3907,5.9311,1.4753,-5.1375,-1.8809,-1.9093,-4.1087,
2.987468,0.7463,1.2054,-0.3907,7.7864,3.0037,-4.1318,-1.8809,-1.9093,-4.1087,
3.024243,0.7412,1.1599,-0.2035,7.7864,3.0037,-4.1318,-1.8809,-1.9093,-4.1087,
3.044904,0.7412,1.1599,-0.2035,9.2543,-0.2172,-4.7078,-1.8809,-1.9093,-4.1087,
3.046451,0.7412,1.1599,-0.2035,9.2543,-0.2172,-4.7078,-1.0521,-1.4571,-1.2079,
3.083122,0.6173,1.1547,-0.5893,9.2543,-0.2172,-4.7078,-1.0521,-1.4571,-1.2079,
3.102521,0.6173,1.1547,-0.5893,9.2543,-0.2172,-4.7078,-0.2706,1.2269,0.1393,
3.104714,0.6173,1.1547,-0.5893,-1.1559,4.6610,-2.1080,-0.2706,1.2269,0.1393,
3.141239,-0.5805,1.3070,0.1715,-1.1559,4.6610,-2.1080,-0.2706,1.2269,0.1393,
3.161311,-0.5805,1.3070,0.1715,-1.1559,4.6610,-2.1080,0.3293,2.1112,0.9746,
3.163204,-0.5805,1.3070,0.1715,-1.0700,1.1702,-1.9669,0.3293,2.1112,0.9746,
3.201327,-0.0699,0.9862,0.1516,-1.0700,1.1702,-1.9669,0.3293,2.1112,0.9746,
3.220641,-0.0699,0.9862,0.1516,-1.0700,1.1702,-1.9669,-0.1169,-1.3307,1.2197,
3.222618,-0.0699,0.9862,0.1516,2.2723,0.1233,-1.1792,-0.1169,-1.3307,1.2197,
3.257761,0.2314,1.0094,0.1489,2.2723,0.1233,-1.1792,-0.1169,-1.3307,1.2197,
3.277689,0.2314,1.0094,0.1489,-0.0951,0.4039,0.3116,-0.1169,-1.3307,1.2197,
3.279868,0.2314,1.0094,0.1489,-0.0951,0.4039,0.3116,-0.0454,0.2362,0.4712,
3.317801,-0.0318,1.0248,0.1818,-0.0951,0.4039,0.3116,-0.0454,0.2362,0.4712,
3.335055,-0.0318,1.0248,0.1818,-0.0951,0.4039,0.3116,0.0472,-0.2663,0.4956,
3.336249,-0.0318,1.0248,0.1818,-0.2454,0.1754,0.2768,0.0472,-0.2663,0.4956,
3.374313,0.0146,0.9879,0.1740,-0.2454,0.1754,0.2768,0.0472,-0.2663,0.4956,
3.395059,0.0146,0.9879,0.1740,-1.2824,-0.0418,0.8014,0.0472,-0.2663,0.4956,
3.397386,0.0146,0.9879,0.1740,-1.2824,-0.0418,0.8014,0.1152,-0.0804,0.5076,
3.432871,-0.0375,0.9661,0.2462,-1.2824,-0.0418,0.8014,0.1152,-0.0804,0.5076,
3.452401,-0.0375,0.9661,0.2462,-1.2824,-0.0418,0.8014,0.2474,-0.4396,0.8461,
3.454411,-0.0375,0.9661,0.2462,-1.1960,0.1033,0.6812,0.2474,-0.4396,0.8461,
3.491319,0.0116,0.9976,0.1594,-1.1960,0.1033,0.6812,0.2474,-0.4396,0.8461,
3.511797,0.0116,0.9976,0.1594,-1.1960,0.1033,0.6812,0.4306,-0.3779,1.1790,
3.513575,0.0116,0.9976,0.1594,-1.9237,0.2258,0.5963,0.4306,-0.3779,1.1790,
3.549676,0.0558,1.0108,0.0984,-1.9237,0.2258,0.5963,0.4306,-0.3779,1.1790,
3.569142,0.0558,1.0108,0.0984,-1.9237,0.2258,0.5963,0.5494,-0.5115,1.6278,
3.570818,0.0558,1.0108,0.0984,-1.7832,0.7261,-0.0456,0.5494,-0.5115,1.6278,
3.607657,0.1336,1.0757,0.0535,-1.7832,0.7261,-0.0456,0.5494,-0.5115,1.6278,
3.633065,0.1336,1.0757,0.0535,-1.7832,0.7261,-0.0456,0.6249,-0.8857,1.9823,
3.635018,0.1336,1.0757,0.0535,-3.1105,1.9483,0.6161,0.6249,-0.8857,1.9823,
3.666098,-0.0412,1.3187,0.0505,-3.1105,1.9483,0.6161,0.6249,-0.8857,1.9823,
3.685912,-0.0412,1.3187,0.0505,-3.1105,1.9483,0.6161,0.6744,-1.6982,2.8377,
3.688129,-0.0412,1.3187,0.0505,-6.6900,6.7962,0.3619,0.6744,-1.6982,2.8377,
3.724807,-0.5337,2.0232,-0.3527,-6.6900,6.7962,0.3619,0.6744,-1.6982,2.8377,
3.746185,-0.5337,2.0232,-0.3527,-12.7433,12.1219,-2.0655,0.6744,-1.6982,2.8377,
3.749362,-0.5337,2.0232,-0.3527,-12.7433,12.1219,-2.0655,0.5534,-2.5821,3.6208,
3.783689,0.5101,1.1014,-0.2771,-12.7433,12.1219,-2.0655,0.5534,-2.5821,3.6208,
3.802209,0.5101,1.1014,-0.2771,-12.7433,12.1219,-2.0655,0.5215,-3.1219,4.0898,
3.803934,0.5101,1.1014,-0.2771,5.1957,1.7724,-0.4091,0.5215,-3.1219,4.0898,
3.840721,1.1422,0.3474,-0.6927,5.1957,1.7724,-0.4091,0.5215,-3.1219,4.0898,
3.860478,1.1422,0.3474,-0.6927,5.1957,1.7724,-0.4091,-1.0703,0.3975,0.4413,
3.863409,1.1422,0.3474,-0.6927,-1.5019,-4.0406,-2.3768,-1.0703,0.3975,0.4413,
3.900461,-0.2753,-0.0355,-0.0995,-1.5019,-4.0406,-2.3768,-1.0703,0.3975,0.4413,
3.919145,-0.2753,-0.0355,-0.0995,-10.5070,-5.8427,0.1303,-1.0703,0.3975,0.4413,
3.922322,-0.2753,-0.0355,-0.0995,-10.5070,-5.8427,0.1303,-1.7113,0.1607,-2.2516,
3.957540,0.0304,0.4089,-0.4954,-10.5070,-5.8427,0.1303,-1.7113,0.1607,-2.2516,
3.977102,0.0304,0.4089,-0.4954,-10.5070,-5.8427,0.1303,-1.9572,-1.7656,-3.0938,
3.979029,0.0304,0.4089,-0.4954,-3.5583,-3.1284,-3.4366,-1.9572,-1.7656,-3.0938,
4.015645,0.2847,0.5924,-0.5079,-3.5583,-3.1284,-3.4366,-1.9572,-1.7656,-3.0938,
4.035662,0.2847,0.5924,-0.5079,-3.5583,-3.1284,-3.4366,-2.1299,-1.7334,-4.4569,
4.037558,0.2847,0.5924,-0.5079,-0.1362,-2.3894,-2.9998,-2.1299,-1.7334,-4.4569,
4.074341,0.3964,1.0736,-0.5500,-0.1362,-2.3894,-2.9998,-2.1299,-1.7334,-4.4569,
4.094108,0.3964,1.0736,-0.5500,-0.1362,-2.3894,-2.9998,-1.4708,-1.0362,-4.9582,
4.096143,0.3964,1.0736,-0.5500,4.8370,2.6444,-4.9150,-1.4708,-1.0362,-4.9582,
4.132421,0.8777,1.3292,-0.5828,4.8370,2.6444,-4.9150,-1.4708,-1.0362,-4.9582,
4.153329,0.8777,1.3292,-0.5828,4.8370,2.6444,-4.9150,-0.8186,-0.0941,-3.7202,
4.157718,0.8777,1.3292,-0.5828,12.8551,2.9794,-4.4828,-0.8186,-0.0941,-3.7202,
4.191062,0.9482,1.1006,-0.1468,12.8551,2.9794,-4.4828,-0.8186,-0.0941,-3.7202,
4.214617,0.9482,1.1006,-0.1468,9.3406,1.6241,0.8304,-0.8186,-0.0941,-3.7202,
4.219848,0.9482,1.1006,-0.1468,9.3406,1.6241,0.8304,-0.1723,2.4999,-1.2549,
4.249423,0.1246,1.3544,0.0090,9.3406,1.6241,0.8304,-0.1723,2.4999,-1.2549,
4.269335,0.1246,1.3544,0.0090,9.3406,1.6241,0.8304,-0.3883,1.2902,0.5044,
4.271822,0.1246,1.3544,0.0090,-5.0941,4.7894,0.4686,-0.3883,1.2902,0.5044,
4.308331,-0.5112,1.2210,-0.4104,-5.0941,4.7894,0.4686,-0.3883,1.2902,0.5044,
4.329219,-0.5112,1.2210,-0.4104,-5.0941,4.7894,0.4686,0.3567,0.2780,2.1480,
4.332435,-0.5112,1.2210,-0.4104,4.1940,-0.4470,-5.2203,0.3567,0.2780,2.1480,
4.369609,0.3579,0.8838,-0.0429,4.1940,-0.4470,-5.2203,0.3567,0.2780,2.1480,
4.386019,0.3579,0.8838,-0.0429,4.1940,-0.4470,-5.2203,-0.6815,0.9389,0.8705,
4.388393,0.3579,0.8838,-0.0429,0.6603,0.6336,2.7558,-0.6815,0.9389,0.8705,
4.424402,-0.1620,1.0597,0.0644,0.6603,0.6336,2.7558,-0.6815,0.9389,0.8705,
4.443731,-0.1620,1.0597,0.0644,0.6603,0.6336,2.7558,-0.1425,0.0526,0.9715,
4.445707,-0.1620,1.0597,0.0644,-1.0822,0.2580,0.0999,-0.1425,0.0526,0.9715,
4.484511,0.1435,1.0130,-0.0550,-1.0822,0.2580,0.0999,-0.1425,0.0526,0.9715,
4.503536,0.1435,1.0130,-0.0550,0.8680,0.2869,-0.3058,-0.1425,0.0526,0.9715,
4.505770,0.1435,1.0130,-0.0550,0.8680,0.2869,-0.3058,-0.1362,-0.0714,0.7679,
4.541156,0.0150,1.0191,-0.0158,0.8680,0.2869,-0.3058,-0.1362,-0.0714,0.7679,
4.560196,0.0150,1.0191,-0.0158,0.8680,0.2869,-0.3058,-0.0929,0.0894,0.6551,
4.562012,0.0150,1.0191,-0.0158,-1.3960,0.2751,0.3231,-0.0929,0.0894,0.6551,
4.599234,0.0968,0.9887,-0.0047,-1.3960,0.2751,0.3231,-0.0929,0.0894,0.6551,
4.618898,0.0968,0.9887,-0.0047,-1.3960,0.2751,0.3231,-0.0114,-0.3366,0.8308,
4.621091,0.0968,0.9887,-0.0047,-0.1388,-0.1783,0.4263,-0.0114,-0.3366,0.8308,
4.658378,0.1597,0.9699,0.0026,-0.1388,-0.1783,0.4263,-0.0114,-0.3366,0.8308,
4.676920,0.1597,0.9699,0.0026,-0.1388,-0.1783,0.4263,0.1010,0.0401,0.8127,
4.678585,0.1597,0.9699,0.0026,-0.8338,0.1499,0.2215,0.1010,0.0401,0.8127,
4.716641,0.1054,0.9848,-0.0024,-0.8338,0.1499,0.2215,0.1010,0.0401,0.8127,
4.736178,0.1054,0.9848,-0.0024,-0.8338,0.1499,0.2215,0.1478,-0.1887,1.0464,
4.739068,0.1054,0.9848,-0.0024,-1.2064,0.2873,0.4382,0.1478,-0.1887,1.0464,
4.774837,0.2241,0.9689,-0.0225,-1.2064,0.2873,0.4382,0.1478,-0.1887,1.0464,
4.795682,0.2241,0.9689,-0.0225,-1.2064,0.2873,0.4382,0.1215,-0.4594,1.1992,
4.798991,0.2241,0.9689,-0.0225,-0.6473,0.3334,0.1420,0.1215,-0.4594,1.1992,
4.833614,0.3072,0.9679,-0.0770,-0.6473,0.3334,0.1420,0.1215,-0.4594,1.1992,
4.852657,0.3072,0.9679,-0.0770,-0.6473,0.3334,0.1420,0.0368,-0.7752,1.2283,
4.854564,0.3072,0.9679,-0.0770,-0.6122,0.4310,0.1630,0.0368,-0.7752,1.2283,
4.890877,0.3544,0.9538,0.0137,-0.6122,0.4310,0.1630,0.0368,-0.7752,1.2283,
4.910269,0.3544,0.9538,0.0137,-0.6122,0.4310,0.1630,0.1580,-0.9521,1.3156,
4.911700,0.3544,0.9538,0.0137,-1.4584,1.0013,1.6160,0.1580,-0.9521,1.3156,
4.949459,0.2128,1.0497,0.0573,-1.4584,1.0013,1.6160,0.1580,-0.9521,1.3156,
4.969598,0.2128,1.0497,0.0573,-3.3587,3.0871,1.6883,0.1580,-0.9521,1.3156,
4.971875,0.2128,1.0497,0.0573,-3.3587,3.0871,1.6883,0.4315,-1.3590,1.8487,
5.008052,-0.1130,1.6167,-0.0406,-3.3587,3.0871,1.6883,0.4315,-1.3590,1.8487,
5.026661,-0.1130,1.6167,-0.0406,-3.3587,3.0871,1.6883,0.4987,-2.1834,2.7778,
5.028042,-0.1130,1.6167,-0.0406,-8.4680,10.7443,2.2553,0.4987,-2.1834,2.7778,
5.065457,0.0437,1.4372,-0.2317,-8.4680,10.7443,2.2553,0.4987,-2.1834,2.7778,
5.085087,0.0437,1.4372,-0.2317,-8.4680,10.7443,2.2553,0.2490,-3.6947,3.7316,
5.086358,0.0437,1.4372,-0.2317,-0.8098,4.1361,-0.1484,0.2490,-3.6947,3.7316,
5.124466,1.3072,0.5794,-0.6229,-0.8098,4.1361,-0.1484,0.2490,-3.6947,3.7316,
5.144159,1.3072,0.5794,-0.6229,-0.8098,4.1361,-0.1484,-1.0566,-1.7819,2.3297,
5.149719,1.3072,0.5794,-0.6229,3.2071,-1.5988,-1.1768,-1.0566,-1.7819,2.3297,
5.183908,0.2797,0.0040,-0.4664,3.2071,-1.5988,-1.1768,-1.0566,-1.7819,2.3297,
5.201981,0.2797,0.0040,-0.4664,3.2071,-1.5988,-1.1768,-3.0827,-0.9839,0.1291,
5.203791,0.2797,0.0040,-0.4664,-6.8146,-5.6279,-1.3782,-3.0827,-0.9839,0.1291,
5.240603,0.0776,0.1987,-0.6199,-6.8146,-5.6279,-1.3782,-3.0827,-0.9839,0.1291,
5.260298,0.0776,0.1987,-0.6199,-6.8146,-5.6279,-1.3782,-4.2504,-1.1912,-0.8637,
5.262261,0.0776,0.1987,-0.6199,-4.3226,-4.1755,-3.6600,-4.2504,-1.1912,-0.8637,
5.299369,-0.0533,0.5644,-0.7084,-4.3226,-4.1755,-3.6600,-4.2504,-1.1912,-0.8637,
5.319531,-0.0533,0.5644,-0.7084,-6.5861,-1.2218,-5.4541,-4.2504,-1.1912,-0.8637,
5.322145,-0.0533,0.5644,-0.7084,-6.5861,-1.2218,-5.4541,-4.3804,-3.2653,-2.0676,
5.357690,-0.1336,0.9837,-0.9806,-6.5861,-1.2218,-5.4541,-4.3804,-3.2653,-2.0676,
5.376848,-0.1336,0.9837,-0.9806,-6.5861,-1.2218,-5.4541,-3.8200,-5.5208,-1.6634,
5.378704,-0.1336,0.9837,-0.9806,-2.5391,2.1071,-8.0812,-3.8200,-5.5208,-1.6634,
5.415552,0.1856,1.1942,-0.8552,-2.5391,2.1071,-8.0812,-3.8200,-5.5208,-1.6634,
5.437150,0.1856,1.1942,-0.8552,-2.5391,2.1071,-8.0812,-3.1684,-4.7784,-1.6204,
5.441480,0.1856,1.1942,-0.8552,-0.4151,1.9347,-7.2831,-3.1684,-4.7784,-1.6204,
5.475094,0.2129,1.0436,-0.5635,-0.4151,1.9347,-7.2831,-3.1684,-4.7784,-1.6204,
5.494234,0.2129,1.0436,-0.5635,-0.4151,1.9347,-7.2831,-2.1322,-4.3302,-1.1018,
5.496489,0.2129,1.0436,-0.5635,0.4537,0.2544,-4.3702,-2.1322,-4.3302,-1.1018,
5.532774,0.2639,0.9380,-0.4442,0.4537,0.2544,-4.3702,-2.1322,-4.3302,-1.1018,
5.552204,0.2639,0.9380,-0.4442,0.4537,0.2544,-4.3702,-1.0440,-4.9741,-0.1845,
5.557239,0.2639,0.9380,-0.4442,3.0285,-0.9591,-4.9984,-1.0440,-4.9741,-0.1845,
5.590533,0.8695,0.7914,-0.4915,3.0285,-0.9591,-4.9984,-1.0440,-4.9741,-0.1845,
5.610200,0.8695,0.7914,-0.4915,3.0285,-0.9591,-4.9984,-0.2423,-2.0287,0.1977,
5.611679,0.8695,0.7914,-0.4915,7.5301,-1.3503,-4.2452,-0.2423,-2.0287,0.1977,
5.648829,0.5639,1.0064,0.1924,7.5301,-1.3503,-4.2452,-0.2423,-2.0287,0.1977,
5.669089,0.5639,1.0064,0.1924,7.5301,-1.3503,-4.2452,-0.3378,1.1501,-0.5510,
5.671157,0.5639,1.0064,0.1924,-1.0891,1.6076,3.6071,-0.3378,1.1501,-0.5510,
5.707167,-0.3617,1.1743,0.0270,-1.0891,1.6076,3.6071,-0.3378,1.1501,-0.5510,
5.726772,-0.3617,1.1743,0.0270,-1.0891,1.6076,3.6071,-0.1452,-0.4653,0.1059,
5.728081,-0.3617,1.1743,0.0270,-2.3752,0.9329,-1.4138,-0.1452,-0.4653,0.1059,
5.765628,0.0958,1.0226,0.0665,-2.3752,0.9329,-1.4138,-0.1452,-0.4653,0.1059,
5.785451,0.0958,1.0226,0.0665,-0.9086,0.6672,1.3920,-0.1452,-0.4653,0.1059,
5.786982,0.0958,1.0226,0.0665,-0.9086,0.6672,1.3920,-0.3991,-0.4657,0.3908,
5.824124,0.1419,1.0326,0.1762,-0.9086,0.6672,1.3920,-0.3991,-0.4657,0.3908,
5.843819,0.1419,1.0326,0.1762,0.4091,0.5953,0.4455,-0.3991,-0.4657,0.3908,
5.845490,0.1419,1.0326,0.1762,0.4091,0.5953,0.4455,-0.1924,-0.9128,0.5449,
5.882102,0.2914,1.0309,0.0728,0.4091,0.5953,0.4455,-0.1924,-0.9128,0.5449,
5.903346,0.2914,1.0309,0.0728,0.4091,0.5953,0.4455,-0.1057,-0.3858,0.2136,
5.904803,0.2914,1.0309,0.0728,-0.1986,0.4465,0.2139,-0.1057,-0.3858,0.2136,
5.940689,0.1808,0.9860,0.0899,-0.1986,0.4465,0.2139,-0.1057,-0.3858,0.2136,
5.959907,0.1808,0.9860,0.0899,-0.1986,0.4465,0.2139,-0.1340,-0.7807,0.2427,
5.961329,0.1808,0.9860,0.0899,0.3691,0.0210,0.5279,-0.1340,-0.7807,0.2427,
5.999029,0.2372,0.9535,0.1308,0.3691,0.0210,0.5279,-0.1340,-0.7807,0.2427,
6.018491,0.2372,0.9535,0.1308,0.3691,0.0210,0.5279,-0.1004,-0.5526,0.0963,
6.020681,0.2372,0.9535,0.1308,-0.5181,0.0758,0.6481,-0.1004,-0.5526,0.0963,
6.057272,0.1081,0.9993,0.1467,-0.5181,0.0758,0.6481,-0.1004,-0.5526,0.0963,
6.076577,0.1081,0.9993,0.1467,-0.5181,0.0758,0.6481,0.0379,-0.5027,0.3395,
6.077857,0.1081,0.9993,0.1467,-1.4762,0.4972,0.7428,0.0379,-0.5027,0.3395,
6.115622,0.0929,1.0167,0.1005,-1.4762,0.4972,0.7428,0.0379,-0.5027,0.3395,
6.135367,0.0929,1.0167,0.1005,-1.4762,0.4972,0.7428,0.1107,-0.6229,0.7954,
6.138222,0.0929,1.0167,0.1005,-1.8879,0.5934,0.6446,0.1107,-0.6229,0.7954,
6.174317,0.2477,1.0131,0.0727,-1.8879,0.5934,0.6446,0.1107,-0.6229,0.7954,
6.195000,0.2477,1.0131,0.0727,-1.8879,0.5934,0.6446,0.0635,-0.8012,1.0847,
6.198163,0.2477,1.0131,0.0727,-0.9348,1.1209,0.2355,0.0635,-0.8012,1.0847,
6.232293,0.2333,1.0543,-0.0360,-0.9348,1.1209,0.2355,0.0635,-0.8012,1.0847,
6.253218,0.2333,1.0543,-0.0360,-0.9348,1.1209,0.2355,-0.0369,-0.8644,1.3181,
6.257121,0.2333,1.0543,-0.0360,-1.5810,1.7592,-0.5538,-0.0369,-0.8644,1.3181,
6.293336,0.1192,1.1394,-0.0951,-1.5810,1.7592,-0.5538,-0.0369,-0.8644,1.3181,
6.310440,0.1192,1.1394,-0.0951,-1.5810,1.7592,-0.5538,-0.1427,-1.2272,1.6779,
6.313469,0.1192,1.1394,-0.0951,-4.1212,2.6800,-1.3780,-0.1427,-1.2272,1.6779,
6.353823,-0.0592,1.3849,-0.2101,-4.1212,2.6800,-1.3780,-0.1427,-1.2272,1.6779,
6.370180,-0.0592,1.3849,-0.2101,-4.1212,2.6800,-1.3780,-0.0065,-1.6605,1.9770,
6.377576,-0.0592,1.3849,-0.2101,-9.7508,7.6481,-1.1605,-0.0065,-1.6605,1.9770,
6.407193,-0.5403,1.3761,-0.2752,-9.7508,7.6481,-1.1605,-0.0065,-1.6605,1.9770,
6.426586,-0.5403,1.3761,-0.2752,-9.7508,7.6481,-1.1605,-0.1206,-3.6941,3.3168,
6.428185,-0.5403,1.3761,-0.2752,-5.4410,5.1523,-1.2579,-0.1206,-3.6941,3.3168,
6.465470,0.9559,1.2837,-0.3444,-5.4410,5.1523,-1.2579,-0.1206,-3.6941,3.3168,
6.484953,0.9559,1.2837,-0.3444,-5.4410,5.1523,-1.2579,0.0403,-2.3245,2.7335,
6.486372,0.9559,1.2837,-0.3444,1.8575,5.0826,0.4573,0.0403,-2.3245,2.7335,
6.524119,0.6482,0.4746,-0.1297,1.8575,5.0826,0.4573,0.0403,-2.3245,2.7335,
6.544024,0.6482,0.4746,-0.1297,-4.1359,-3.8829,2.3233,0.0403,-2.3245,2.7335,
6.545764,0.6482,0.4746,-0.1297,-4.1359,-3.8829,2.3233,-0.9699,-1.1166,-0.3298,
6.582213,-0.0439,0.2201,-0.1561,-4.1359,-3.8829,2.3233,-0.9699,-1.1166,-0.3298,
6.603856,-0.0439,0.2201,-0.1561,-5.1023,-3.1468,1.2939,-0.9699,-1.1166,-0.3298,
6.607313,-0.0439,0.2201,-0.1561,-5.1023,-3.1468,1.2939,-0.6685,-0.8939,-2.7016,
6.641476,0.2927,0.5618,-0.1904,-5.1023,-3.1468,1.2939,-0.6685,-0.8939,-2.7016,
6.661121,0.2927,0.5618,-0.1904,-5.1023,-3.1468,1.2939,-1.6005,-1.3229,-4.1527,
6.665050,0.2927,0.5618,-0.1904,0.5306,-2.3664,1.1286,-1.6005,-1.3229,-4.1527,
6.699346,0.4902,0.8718,-0.1068,0.5306,-2.3664,1.1286,-1.6005,-1.3229,-4.1527,
6.719151,0.4902,0.8718,-0.1068,0.5306,-2.3664,1.1286,-2.6031,-0.0193,-5.3160,
6.721292,0.4902,0.8718,-0.1068,4.1701,0.7004,0.3030,-2.6031,-0.0193,-5.3160,
6.757259,0.4581,1.5669,-0.1569,4.1701,0.7004,0.3030,-2.6031,-0.0193,-5.3160,
6.776601,0.4581,1.5669,-0.1569,4.1701,0.7004,0.3030,-2.9407,0.3069,-5.4516,
6.778079,0.4581,1.5669,-0.1569,6.1737,7.1731,-1.2764,-2.9407,0.3069,-5.4516,
6.815492,0.5294,1.3685,-0.0400,6.1737,7.1731,-1.2764,-2.9407,0.3069,-5.4516,
6.836352,0.5294,1.3685,-0.0400,6.1737,7.1731,-1.2764,-2.2755,-1.3514,-2.9153,
6.840398,0.5294,1.3685,-0.0400,9.8281,2.6518,-2.7202,-2.2755,-1.3514,-2.9153,
6.874917,0.8360,0.9107,-0.4012,9.8281,2.6518,-2.7202,-2.2755,-1.3514,-2.9153,
6.894961,0.8360,0.9107,-0.4012,9.8281,2.6518,-2.7202,-0.4885,0.1220,0.5549,
6.898883,0.8360,0.9107,-0.4012,11.1106,-0.8230,-5.8625,-0.4885,0.1220,0.5549,
6.933761,0.4011,0.9972,-0.6502,11.1106,-0.8230,-5.8625,-0.4885,0.1220,0.5549,
6.953755,0.4011,0.9972,-0.6502,11.1106,-0.8230,-5.8625,0.1983,3.4445,1.3012,
6.955662,0.4011,0.9972,-0.6502,-1.6475,2.9623,-5.2933,0.1983,3.4445,1.3012,
6.990975,-1.0351,1.7661,-0.2053,-1.6475,2.9623,-5.2933,0.1983,3.4445,1.3012,
7.010092,-1.0351,1.7661,-0.2053,-1.6475,2.9623,-5.2933,0.4748,2.4928,1.7848,
7.011558,-1.0351,1.7661,-0.2053,-1.9762,5.2854,-3.8370,0.4748,2.4928,1.7848,
7.049377,0.1254,0.7264,0.2251,-1.9762,5.2854,-3.8370,0.4748,2.4928,1.7848,
7.068709,0.1254,0.7264,0.2251,-1.9762,5.2854,-3.8370,0.1083,-0.3636,1.9456,
7.071173,0.1254,0.7264,0.2251,2.4710,-1.6184,2.5407,0.1083,-0.3636,1.9456,
7.107964,0.2189,1.0474,-0.0656,2.4710,-1.6184,2.5407,0.1083,-0.3636,1.9456,
7.127626,0.2189,1.0474,-0.0656,2.4710,-1.6184,2.5407,-0.0401,-0.0488,1.0126,
7.130836,0.2189,1.0474,-0.0656,0.6669,0.6112,-0.8504,-0.0401,-0.0488,1.0126,
7.168709,0.0111,1.0319,0.0566,0.6669,0.6112,-0.8504,-0.0401,-0.0488,1.0126,
7.187311,0.0111,1.0319,0.0566,0.1573,-0.0000,0.8077,-0.0401,-0.0488,1.0126,
7.190881,0.0111,1.0319,0.0566,0.1573,-0.0000,0.8077,-0.0073,0.2132,0.8626,
7.224183,0.0480,0.9697,0.1168,0.1573,-0.0000,0.8077,-0.0073,0.2132,0.8626,
7.243810,0.0480,0.9697,0.1168,0.1573,-0.0000,0.8077,0.0466,-0.0959,0.7805,
7.245256,0.0480,0.9697,0.1168,-0.3333,0.0188,0.6040,0.0466,-0.0959,0.7805,
7.282192,0.0681,1.0139,0.0715,-0.3333,0.0188,0.6040,0.0466,-0.0959,0.7805,
7.304472,0.0681,1.0139,0.0715,-0.3333,0.0188,0.6040,0.1319,-0.0647,0.8595,
7.307119,0.0681,1.0139,0.0715,-0.7315,0.2046,0.6959,0.1319,-0.0647,0.8595,
7.341569,0.0385,0.9938,0.0792,-0.7315,0.2046,0.6959,0.1319,-0.0647,0.8595,
7.361366,0.0385,0.9938,0.0792,-0.7315,0.2046,0.6959,0.2016,-0.3178,1.1102,
7.364575,0.0385,0.9938,0.0792,-1.3070,0.2833,0.4073,0.2016,-0.3178,1.1102,
7.400114,0.1447,0.9995,0.0159,-1.3070,0.2833,0.4073,0.2016,-0.3178,1.1102,
7.421148,0.1447,0.9995,0.0159,-1.3070,0.2833,0.4073,0.2437,-0.3946,1.3655,
7.425133,0.1447,0.9995,0.0159,-1.0823,0.5595,0.4113,0.2437,-0.3946,1.3655,
7.457455,0.1498,1.0576,0.0638,-1.0823,0.5595,0.4113,0.2437,-0.3946,1.3655,
7.476743,0.1498,1.0576,0.0638,-1.0823,0.5595,0.4113,0.3453,-0.5538,1.6775,
7.478252,0.1498,1.0576,0.0638,-1.9924,1.6072,0.8747,0.3453,-0.5538,1.6775,
7.516087,0.1905,1.1658,-0.0300,-1.9924,1.6072,0.8747,0.3453,-0.5538,1.6775,
7.535535,0.1905,1.1658,-0.0300,-1.9924,1.6072,0.8747,0.4325,-1.1614,2.0173,
7.536886,0.1905,1.1658,-0.0300,-3.3037,4.2244,0.2684,0.4325,-1.1614,2.0173,
7.573777,-0.5104,1.8154,-0.1393,-3.3037,4.2244,0.2684,0.4325,-1.1614,2.0173,
7.593418,-0.5104,1.8154,-0.1393,-3.3037,4.2244,0.2684,0.3791,-2.3567,2.7430,
7.594890,-0.5104,1.8154,-0.1393,-13.1313,10.3498,-0.5912,0.3791,-2.3567,2.7430,
7.632447,-0.1672,1.2771,-0.4797,-13.1313,10.3498,-0.5912,0.3791,-2.3567,2.7430,
7.651965,-0.1672,1.2771,-0.4797,-13.1313,10.3498,-0.5912,0.1796,-4.4508,3.8742,
7.656647,-0.1672,1.2771,-0.4797,-1.2566,2.7439,-2.5628,0.1796,-4.4508,3.8742,
7.692752,1.0305,0.5687,-0.7985,-1.2566,2.7439,-2.5628,0.1796,-4.4508,3.8742,
7.710312,1.0305,0.5687,-0.7985,-1.2566,2.7439,-2.5628,-0.6750,-2.1329,1.9585,
7.712506,1.0305,0.5687,-0.7985,2.4233,-2.5494,-4.0736,-0.6750,-2.1329,1.9585,
7.749085,0.3635,0.0355,-0.5403,2.4233,-2.5494,-4.0736,-0.6750,-2.1329,1.9585,
7.769671,0.3635,0.0355,-0.5403,2.4233,-2.5494,-4.0736,-2.8693,-0.0136,-1.0226,
7.772767,0.3635,0.0355,-0.5403,-7.0035,-7.0597,-0.1652,-2.8693,-0.0136,-1.0226,
7.809049,-0.2566,0.1529,-0.3328,-7.0035,-7.0597,-0.1652,-2.8693,-0.0136,-1.0226,
7.828086,-0.2566,0.1529,-0.3328,-7.0035,-7.0597,-0.1652,-2.9654,-1.4677,-2.4760,
7.830996,-0.2566,0.1529,-0.3328,-5.7480,-4.9444,-1.8056,-2.9654,-1.4677,-2.4760,
7.865649,-0.1244,0.5883,-0.4407,-5.7480,-4.9444,-1.8056,-2.9654,-1.4677,-2.4760,
7.887259,-0.1244,0.5883,-0.4407,-3.6835,-1.8722,-3.2756,-2.9654,-1.4677,-2.4760,
7.889497,-0.1244,0.5883,-0.4407,-3.6835,-1.8722,-3.2756,-2.8835,-3.6241,-4.0667,
7.928468,0.1829,1.2330,-0.6933,-3.6835,-1.8722,-3.2756,-2.8835,-3.6241,-4.0667,
7.943307,0.1829,1.2330,-0.6933,-3.6835,-1.8722,-3.2756,-2.9890,-3.2003,-4.3416,
7.945190,0.1829,1.2330,-0.6933,4.8473,4.7627,-6.7078,-2.9890,-3.2003,-4.3416,
7.981983,0.5330,1.4964,-0.5445,4.8473,4.7627,-6.7078,-2.9890,-3.2003,-4.3416,
8.001419,0.5330,1.4964,-0.5445,4.8473,4.7627,-6.7078,-2.3987,-0.3527,-4.5410,
8.003086,0.5330,1.4964,-0.5445,5.6886,4.4082,-5.0644,-2.3987,-0.3527,-4.5410,
8.042893,0.1345,1.1840,-0.0169,5.6886,4.4082,-5.0644,-2.3987,-0.3527,-4.5410,
8.059609,0.1345,1.1840,-0.0169,5.6886,4.4082,-5.0644,-1.0253,0.5274,-2.2229,
8.061137,0.1345,1.1840,-0.0169,5.5101,1.4064,-0.5565,-1.0253,0.5274,-2.2229,
8.098536,0.1852,0.8892,0.0518,5.5101,1.4064,-0.5565,-1.0253,0.5274,-2.2229,
8.118386,0.1852,0.8892,0.0518,5.5101,1.4064,-0.5565,0.2655,0.2792,0.7937,
8.121747,0.1852,0.8892,0.0518,5.6914,0.1475,-1.5329,0.2655,0.2792,0.7937,
8.161017,0.0788,0.9864,-0.1578,5.6914,0.1475,-1.5329,0.2655,0.2792,0.7937,
8.176594,0.0788,0.9864,-0.1578,5.6914,0.1475,-1.5329,0.1928,1.3572,1.2761,
8.178178,0.0788,0.9864,-0.1578,-3.2393,1.0498,-0.6588,0.1928,1.3572,1.2761,
8.215416,-0.7504,1.4583,0.0071,-3.2393,1.0498,-0.6588,0.1928,1.3572,1.2761,
8.236023,-0.7504,1.4583,0.0071,-3.2393,1.0498,-0.6588,0.2726,0.7288,1.6834,
8.237875,-0.7504,1.4583,0.0071,1.4374,4.8239,-2.8429,0.2726,0.7288,1.6834,
8.273884,0.1397,0.9619,0.0164,1.4374,4.8239,-2.8429,0.2726,0.7288,1.6834,
8.293322,0.1397,0.9619,0.0164,1.4374,4.8239,-2.8429,0.0427,0.1265,1.5571,
8.294937,0.1397,0.9619,0.0164,1.6328,-0.8018,1.2940,0.0427,0.1265,1.5571,
8.331832,0.0945,0.9898,0.0952,1.6328,-0.8018,1.2940,0.0427,0.1265,1.5571,
8.351579,0.0945,0.9898,0.0952,1.6328,-0.8018,1.2940,0.0788,-0.3349,0.8907,
8.354103,0.0945,0.9898,0.0952,0.6684,0.4263,-0.6640,0.0788,-0.3349,0.8907,
8.390389,0.0500,1.0383,-0.0195,0.6684,0.4263,-0.6640,0.0788,-0.3349,0.8907,
8.409984,0.0500,1.0383,-0.0195,0.6684,0.4263,-0.6640,0.0322,0.3177,0.6048,
8.411330,0.0500,1.0383,-0.0195,0.4876,0.2351,-0.0076,0.0322,0.3177,0.6048,
8.449304,-0.1209,1.0073,0.1226,0.4876,0.2351,-0.0076,0.0322,0.3177,0.6048,
8.468149,-0.1209,1.0073,0.1226,0.4876,0.2351,-0.0076,0.1238,-0.0104,0.6412,
8.470270,-0.1209,1.0073,0.1226,-1.4022,0.1981,0.5081,0.1238,-0.0104,0.6412,
8.506933,-0.0430,0.9993,0.0817,-1.4022,0.1981,0.5081,0.1238,-0.0104,0.6412,
8.526554,-0.0430,0.9993,0.0817,-1.4022,0.1981,0.5081,0.2441,-0.2614,0.9190,
8.527487,-0.0430,0.9993,0.0817,-0.7614,-0.0185,0.7692,0.2441,-0.2614,0.9190,
8.565307,0.0409,0.9650,0.0959,-0.7614,-0.0185,0.7692,0.2441,-0.2614,0.9190,
8.586123,0.0409,0.9650,0.0959,-0.7614,-0.0185,0.7692,0.3400,0.0373,1.0894,
8.587346,0.0409,0.9650,0.0959,-0.7033,0.0630,0.1999,0.3400,0.0373,1.0894,
8.623779,0.1699,1.0208,-0.0450,-0.7033,0.0630,0.1999,0.3400,0.0373,1.0894,
8.644048,0.1699,1.0208,-0.0450,-0.7033,0.0630,0.1999,0.2517,-0.3017,1.1073,
8.646210,0.1699,1.0208,-0.0450,-0.0929,0.4490,-0.4579,0.2517,-0.3017,1.1073,
8.682741,0.1208,1.0003,-0.0326,-0.0929,0.4490,-0.4579,0.2517,-0.3017,1.1073,
8.702521,0.1208,1.0003,-0.0326,-0.0929,0.4490,-0.4579,0.2653,-0.4921,1.1994,
8.705792,0.1208,1.0003,-0.0326,-1.6862,0.6486,0.2084,0.2653,-0.4921,1.1994,
8.741621,0.1209,1.0672,0.0983,-1.6862,0.6486,0.2084,0.2653,-0.4921,1.1994,
8.762276,0.1209,1.0672,0.0983,-1.7820,1.6693,1.7272,0.2653,-0.4921,1.1994,
8.767187,0.1209,1.0672,0.0983,-1.7820,1.6693,1.7272,0.5565,-0.6630,1.6630,
8.798885,0.1448,1.3823,0.0461,-1.7820,1.6693,1.7272,0.5565,-0.6630,1.6630,
8.818626,0.1448,1.3823,0.0461,-1.7820,1.6693,1.7272,0.8658,-0.9277,1.9029,
8.820672,0.1448,1.3823,0.0461,-5.4542,6.7798,1.3970,0.8658,-0.9277,1.9029,
8.857361,-0.7208,1.6704,-0.1844,-5.4542,6.7798,1.3970,0.8658,-0.9277,1.9029,
8.877219,-0.7208,1.6704,-0.1844,-5.4542,6.7798,1.3970,0.8709,-2.7124,2.9404,
8.879946,-0.7208,1.6704,-0.1844,-11.8851,7.0277,-0.4941,0.8709,-2.7124,2.9404,
8.915687,0.3409,1.0151,-0.4083,-11.8851,7.0277,-0.4941,0.8709,-2.7124,2.9404,
8.935257,0.3409,1.0151,-0.4083,-11.8851,7.0277,-0.4941,0.9102,-3.2797,3.6406,
8.937861,0.3409,1.0151,-0.4083,2.1055,1.6591,-0.7633,0.9102,-3.2797,3.6406,
8.976274,0.8862,0.5308,-0.6205,2.1055,1.6591,-0.7633,0.9102,-3.2797,3.6406,
8.993393,0.8862,0.5308,-0.6205,2.1055,1.6591,-0.7633,-0.5665,-0.8939,1.3977,
8.995315,0.8862,0.5308,-0.6205,0.5713,-2.4371,-1.6310,-0.5665,-0.8939,1.3977,
9.032472,0.0732,0.1772,-0.2745,0.5713,-2.4371,-1.6310,-0.5665,-0.8939,1.3977,
9.052221,0.0732,0.1772,-0.2745,0.5713,-2.4371,-1.6310,-2.3474,0.3030,-1.3671,
9.056650,0.0732,0.1772,-0.2745,-8.1521,-6.0925,1.8264,-2.3474,0.3030,-1.3671,
9.090517,-0.0554,0.2122,-0.2368,-8.1521,-6.0925,1.8264,-2.3474,0.3030,-1.3671,
9.110167,-0.0554,0.2122,-0.2368,-8.1521,-6.0925,1.8264,-2.5251,-0.7915,-2.9252,
9.112272,-0.0554,0.2122,-0.2368,-3.2810,-4.7033,-0.8815,-2.5251,-0.7915,-2.9252,
9.148491,0.0276,0.6312,-0.1384,-3.2810,-4.7033,-0.8815,-2.5251,-0.7915,-2.9252,
9.167974,0.0276,0.6312,-0.1384,-3.2810,-4.7033,-0.8815,-2.8693,-2.3231,-4.8181,
9.169344,0.0276,0.6312,-0.1384,-1.8131,-0.3531,-0.6511,-2.8693,-2.3231,-4.8181,
9.206740,0.2787,1.7395,-0.6616,-1.8131,-0.3531,-0.6511,-2.8693,-2.3231,-4.8181,
9.226220,0.2787,1.7395,-0.6616,-1.8131,-0.3531,-0.6511,-3.0368,-4.3129,-3.8686,
9.227837,0.2787,1.7395,-0.6616,6.7541,8.3809,-8.7490,-3.0368,-4.3129,-3.8686,
9.265371,1.1980,1.0717,-0.8888,6.7541,8.3809,-8.7490,-3.0368,-4.3129,-3.8686,
9.284806,1.1980,1.0717,-0.8888,6.7541,8.3809,-8.7490,-1.4626,-1.5907,-0.6528,
9.286633,1.1980,1.0717,-0.8888,12.5153,-2.4418,-9.7143,-1.4626,-1.5907,-0.6528,
9.325524,0.5355,1.1611,-0.5398,12.5153,-2.4418,-9.7143,-1.4626,-1.5907,-0.6528,
9.343570,0.5355,1.1611,-0.5398,12.5153,-2.4418,-9.7143,0.0772,2.3168,-0.0354,
9.345505,0.5355,1.1611,-0.5398,-1.9848,4.6619,-2.6481,0.0772,2.3168,-0.0354,
9.382325,-0.7744,1.2348,0.0032,-1.9848,4.6619,-2.6481,0.0772,2.3168,-0.0354,
9.401913,-0.7744,1.2348,0.0032,-1.9848,4.6619,-2.6481,0.5208,0.3413,1.2399,
9.403863,-0.7744,1.2348,0.0032,-2.8170,0.1288,-0.6978,0.5208,0.3413,1.2399,
9.441046,0.4153,0.9376,-0.0193,-2.8170,0.1288,-0.6978,0.5208,0.3413,1.2399,
9.460220,0.4153,0.9376,-0.0193,-2.8170,0.1288,-0.6978,0.1317,-0.6658,0.7954,
9.462009,0.4153,0.9376,-0.0193,4.1985,0.2581,-0.7430,0.1317,-0.6658,0.7954,
9.498754,0.0444,1.0190,0.0658,4.1985,0.2581,-0.7430,0.1317,-0.6658,0.7954,
9.518416,0.0444,1.0190,0.0658,4.1985,0.2581,-0.7430,0.1197,0.6675,0.1026,
9.519994,0.0444,1.0190,0.0658,-0.8864,0.4314,0.3343,0.1197,0.6675,0.1026,
9.557415,-0.0147,1.0308,0.0314,-0.8864,0.4314,0.3343,0.1197,0.6675,0.1026,
9.581972,-0.0147,1.0308,0.0314,-0.8864,0.4314,0.3343,0.1889,0.0676,0.2252,
9.585253,-0.0147,1.0308,0.0314,-0.4269,0.3121,0.0162,0.1889,0.0676,0.2252,
9.617030,0.0629,0.9745,0.0571,-0.4269,0.3121,0.0162,0.1889,0.0676,0.2252,
9.635890,0.0629,0.9745,0.0571,-0.4269,0.3121,0.0162,0.2282,-0.0322,0.2236,
9.638083,0.0629,0.9745,0.0571,-0.1315,-0.0625,0.1381,0.2282,-0.0322,0.2236,
9.675297,0.0702,0.9939,0.0033,-0.1315,-0.0625,0.1381,0.2282,-0.0322,0.2236,
9.701556,0.0702,0.9939,0.0033,-0.1315,-0.0625,0.1381,0.1706,-0.2103,0.1574,
9.705836,0.0702,0.9939,0.0033,0.0229,0.0731,0.1088,0.1706,-0.2103,0.1574,
9.732014,0.0543,0.9970,0.0288,0.0229,0.0731,0.1088,0.1706,-0.2103,0.1574,
9.752429,0.0543,0.9970,0.0288,-0.4034,0.1770,0.1736,0.1706,-0.2103,0.1574,
9.754697,0.0543,0.9970,0.0288,-0.4034,0.1770,0.1736,0.1779,-0.2781,0.1255,
9.790519,-0.0420,1.0300,0.0568,-0.4034,0.1770,0.1736,0.1779,-0.2781,0.1255,
9.810446,-0.0420,1.0300,0.0568,-0.4034,0.1770,0.1736,0.3384,-0.4408,0.3456,
9.812294,-0.0420,1.0300,0.0568,-2.3246,0.7080,1.0610,0.3384,-0.4408,0.3456,
9.849621,-0.3497,1.1624,-0.0052,-2.3246,0.7080,1.0610,0.3384,-0.4408,0.3456,
9.868208,-0.3497,1.1624,-0.0052,-2.3246,0.7080,1.0610,0.7241,-1.3182,1.2816,
9.869812,-0.3497,1.1624,-0.0052,-5.9494,2.8255,-0.1382,0.7241,-1.3182,1.2816,
9.906684,-0.2101,1.3685,-0.2834,-5.9494,2.8255,-0.1382,0.7241,-1.3182,1.2816,
9.928134,-0.2101,1.3685,-0.2834,-5.9494,2.8255,-0.1382,0.2117,-2.9454,2.2492,
9.929789,-0.2101,1.3685,-0.2834,-1.4764,3.3015,-1.3573,0.2117,-2.9454,2.2492,
9.969770,0.4163,0.9702,-0.2556,-1.4764,3.3015,-1.3573,0.2117,-2.9454,2.2492,
9.984916,0.4163,0.9702,-0.2556,-1.4764,3.3015,-1.3573,-1.0760,-3.5870,1.7557,
9.986672,0.4163,0.9702,-0.2556,-0.0632,-1.0745,-1.5497,-1.0760,-3.5870,1.7557,
10.026884,-0.0002,0.6305,-0.3934,-0.0632,-1.0745,-1.5497,-1.0760,-3.5870,1.7557,
10.044710,-0.0002,0.6305,-0.3934,-4.1933,-3.3542,-4.3138,-1.0760,-3.5870,1.7557,
10.048818,-0.0002,0.6305,-0.3934,-4.1933,-3.3542,-4.3138,-1.7434,-5.4884,0.7186,
10.082046,-0.0821,0.5858,-0.9037,-4.1933,-3.3542,-4.3138,-1.7434,-5.4884,0.7186,
10.101916,-0.0821,0.5858,-0.9037,-4.1933,-3.3542,-4.3138,-1.5463,-6.2158,-0.2510,
10.105157,-0.0821,0.5858,-0.9037,-2.2398,-3.0062,-7.2241,-1.5463,-6.2158,-0.2510,
10.141500,0.0535,0.7522,-0.8282,-2.2398,-3.0062,-7.2241,-1.5463,-6.2158,-0.2510,
10.161929,0.0535,0.7522,-0.8282,-1.0458,-1.3592,-5.8945,-1.5463,-6.2158,-0.2510,
10.166300,0.0535,0.7522,-0.8282,-1.0458,-1.3592,-5.8945,-1.4977,-4.6628,-1.6410,
10.198726,-0.0961,0.9986,-0.6585,-1.0458,-1.3592,-5.8945,-1.4977,-4.6628,-1.6410,
10.221743,-0.0961,0.9986,-0.6585,0.5422,1.1447,-4.7446,-1.4977,-4.6628,-1.6410,
10.226280,-0.0961,0.9986,-0.6585,0.5422,1.1447,-4.7446,-1.0134,-4.3542,-2.2632,
10.257494,0.2297,1.1461,-0.3959,0.5422,1.1447,-4.7446,-1.0134,-4.3542,-2.2632,
10.277138,0.2297,1.1461,-0.3959,3.5933,1.1864,-2.2101,-1.0134,-4.3542,-2.2632,
10.279746,0.2297,1.1461,-0.3959,3.5933,1.1864,-2.2101,-0.4808,-2.9637,-2.2144,
10.316394,0.0012,1.0216,-0.2119,3.5933,1.1864,-2.2101,-0.4808,-2.9637,-2.2144,
10.335859,0.0012,1.0216,-0.2119,3.5933,1.1864,-2.2101,-0.0369,-2.0997,-1.4921,
10.339303,0.0012,1.0216,-0.2119,3.4645,0.5252,-1.0684,-0.0369,-2.0997,-1.4921,
10.375835,0.2187,0.9302,0.0133,3.4645,0.5252,-1.0684,-0.0369,-2.0997,-1.4921,
10.394296,0.2187,0.9302,0.0133,4.6521,-0.2171,1.2991,-0.0369,-2.0997,-1.4921,
10.396889,0.2187,0.9302,0.0133,4.6521,-0.2171,1.2991,0.3409,-1.4695,-0.4687,
10.432444,0.1065,0.9740,0.2092,4.6521,-0.2171,1.2991,0.3409,-1.4695,-0.4687,
10.452436,0.1065,0.9740,0.2092,4.6521,-0.2171,1.2991,0.6345,-1.3492,0.5704,
10.456469,0.1065,0.9740,0.2092,3.8367,0.8944,3.4131,0.6345,-1.3492,0.5704,
10.491486,-0.2994,1.0376,0.4621,3.8367,0.8944,3.4131,0.6345,-1.3492,0.5704,
10.511441,-0.2994,1.0376,0.4621,-4.0835,1.1757,3.7869,0.6345,-1.3492,0.5704,
10.517789,-0.2994,1.0376,0.4621,-4.0835,1.1757,3.7869,-0.1173,-1.6854,0.6319,
10.548747,-0.0711,1.3336,-0.4646,-4.0835,1.1757,3.7869,-0.1173,-1.6854,0.6319,
10.568490,-0.0711,1.3336,-0.4646,-4.0835,1.1757,3.7869,0.2262,1.0122,1.0249,
10.570333,-0.0711,1.3336,-0.4646,3.2636,3.6299,-6.6442,0.2262,1.0122,1.0249,
10.607919,-0.3680,0.9524,0.0394,3.2636,3.6299,-6.6442,0.2262,1.0122,1.0249,
10.627430,-0.3680,0.9524,0.0394,-2.1413,-1.2364,3.3584,0.2262,1.0122,1.0249,
10.629919,-0.3680,0.9524,0.0394,-2.1413,-1.2364,3.3584,-0.3826,1.3759,0.9872,
10.665844,-0.1623,0.9395,0.2721,-2.1413,-1.2364,3.3584,-0.3826,1.3759,0.9872,
10.685984,-0.1623,0.9395,0.2721,-2.1413,-1.2364,3.3584,-0.2171,-1.1684,1.0173,
10.691232,-0.1623,0.9395,0.2721,-0.1618,-0.3350,1.3333,-0.2171,-1.1684,1.0173,
10.725351,0.0447,1.0585,-0.0356,-0.1618,-0.3350,1.3333,-0.2171,-1.1684,1.0173,
10.745030,0.0447,1.0585,-0.0356,-0.1618,-0.3350,1.3333,-0.1586,-0.2855,0.7298,
10.748702,0.0447,1.0585,-0.0356,-0.1088,0.4479,0.3882,-0.1586,-0.2855,0.7298,
10.783149,-0.1738,0.9963,0.1897,-0.1088,0.4479,0.3882,-0.1586,-0.2855,0.7298,
10.805187,-0.1738,0.9963,0.1897,-1.6168,0.0654,1.6717,-0.1586,-0.2855,0.7298,
10.814139,-0.1738,0.9963,0.1897,-1.6168,0.0654,1.6717,0.0759,-0.1808,0.8233,
10.840582,-0.0075,1.0027,0.0211,-1.6168,0.0654,1.6717,0.0759,-0.1808,0.8233,
10.861037,-0.0075,1.0027,0.0211,-1.6168,0.0654,1.6717,0.2115,-0.3414,0.8793,
10.864171,-0.0075,1.0027,0.0211,-0.3792,0.2654,-0.1460,0.2115,-0.3414,0.8793,
10.899686,0.1156,0.9990,-0.0140,-0.3792,0.2654,-0.1460,0.2115,-0.3414,0.8793,
10.918927,0.1156,0.9990,-0.0140,-0.3792,0.2654,-0.1460,0.1912,-0.2380,0.8715,
10.921603,0.1156,0.9990,-0.0140,0.3582,0.0744,0.1024,0.1912,-0.2380,0.8715,
10.958001,0.0904,0.9979,0.0034,0.3582,0.0744,0.1024,0.1912,-0.2380,0.8715,
10.978470,0.0904,0.9979,0.0034,0.3582,0.0744,0.1024,0.2105,-0.1411,0.8632,
10.981524,0.0904,0.9979,0.0034,-1.1634,0.2211,0.5082,0.2105,-0.1411,0.8632,
11.016051,0.0937,1.0050,0.0212,-1.1634,0.2211,0.5082,0.2105,-0.1411,0.8632,
11.036267,0.0937,1.0050,0.0212,-1.1634,0.2211,0.5082,0.2891,-0.3681,1.1393,
11.039133,0.0937,1.0050,0.0212,-0.9014,0.4785,0.4949,0.2891,-0.3681,1.1393,
11.075044,0.1817,1.0159,-0.0233,-0.9014,0.4785,0.4949,0.2891,-0.3681,1.1393,
11.097758,0.1817,1.0159,-0.0233,-0.9014,0.4785,0.4949,0.3374,-0.6263,1.2303,
11.100299,0.1817,1.0159,-0.0233,-1.1853,0.6942,0.5065,0.3374,-0.6263,1.2303,
11.131926,0.1716,1.0355,0.0088,-1.1853,0.6942,0.5065,0.3374,-0.6263,1.2303,
11.152089,0.1716,1.0355,0.0088,-1.1853,0.6942,0.5065,0.4608,-0.6520,1.5134,
11.155543,0.1716,1.0355,0.0088,-1.4832,1.4273,1.0816,0.4608,-0.6520,1.5134,
11.190512,0.2366,1.0979,-0.1376,-1.4832,1.4273,1.0816,0.4608,-0.6520,1.5134,
11.212141,0.2366,1.0979,-0.1376,-1.4832,1.4273,1.0816,0.6632,-0.7640,1.7392,
11.216401,0.2366,1.0979,-0.1376,-2.1478,2.1632,-0.3330,0.6632,-0.7640,1.7392,
11.248623,0.2043,1.2058,-0.2407,-2.1478,2.1632,-0.3330,0.6632,-0.7640,1.7392,
11.268197,0.2043,1.2058,-0.2407,-2.1478,2.1632,-0.3330,0.9686,-0.5227,1.7669,
11.270028,0.2043,1.2058,-0.2407,-4.9233,5.5154,0.8127,0.9686,-0.5227,1.7669,
11.307097,-0.6593,1.7016,0.0607,-4.9233,5.5154,0.8127,0.9686,-0.5227,1.7669,
11.326980,-0.6593,1.7016,0.0607,-4.9233,5.5154,0.8127,1.0625,-1.1989,2.3574,
11.328654,-0.6593,1.7016,0.0607,-12.5544,8.9382,3.8367,1.0625,-1.1989,2.3574,
11.365053,0.4756,1.3790,-0.0813,-12.5544,8.9382,3.8367,1.0625,-1.1989,2.3574,
11.385103,0.4756,1.3790,-0.0813,-12.5544,8.9382,3.8367,1.1120,-1.9091,3.5974,
11.386821,0.4756,1.3790,-0.0813,2.0746,6.5683,2.3576,1.1120,-1.9091,3.5974,
11.423495,0.8007,0.8595,-0.3493,2.0746,6.5683,2.3576,1.1120,-1.9091,3.5974,
11.443359,0.8007,0.8595,-0.3493,2.0746,6.5683,2.3576,0.1555,0.0780,1.2741,
11.445659,0.8007,0.8595,-0.3493,-0.9336,0.8205,0.7417,0.1555,0.0780,1.2741,
11.482645,0.1750,0.2390,-0.1224,-0.9336,0.8205,0.7417,0.1555,0.0780,1.2741,
11.502309,0.1750,0.2390,-0.1224,-6.1150,-4.2729,2.2291,0.1555,0.0780,1.2741,
11.505491,0.1750,0.2390,-0.1224,-6.1150,-4.2729,2.2291,-1.2114,0.3008,-1.5829,
11.541345,0.2184,0.3289,-0.3347,-6.1150,-4.2729,2.2291,-1.2114,0.3008,-1.5829,
11.563902,0.2184,0.3289,-0.3347,-6.1150,-4.2729,2.2291,-1.7499,0.2682,-3.2620,
11.569485,0.2184,0.3289,-0.3347,-2.4599,-3.7896,-0.7640,-1.7499,0.2682,-3.2620,
11.600592,0.2179,0.4547,-0.2197,-2.4599,-3.7896,-0.7640,-1.7499,0.2682,-3.2620,
11.619846,0.2179,0.4547,-0.2197,-2.4599,-3.7896,-0.7640,-2.2466,-0.4009,-5.0559,
11.624433,0.2179,0.4547,-0.2197,-1.2983,-3.4118,0.1759,-2.2466,-0.4009,-5.0559,
11.658248,0.2273,1.0355,-0.3202,-1.2983,-3.4118,0.1759,-2.2466,-0.4009,-5.0559,
11.679869,0.2273,1.0355,-0.3202,4.6718,3.8911,-3.7565,-2.2466,-0.4009,-5.0559,
11.687646,0.2273,1.0355,-0.3202,4.6718,3.8911,-3.7565,-2.1421,-0.8137,-5.7246,
11.715952,0.9718,1.6877,-0.5225,4.6718,3.8911,-3.7565,-2.1421,-0.8137,-5.7246,
11.736171,0.9718,1.6877,-0.5225,14.6407,5.7100,-4.5045,-2.1421,-0.8137,-5.7246,
11.740115,0.9718,1.6877,-0.5225,14.6407,5.7100,-4.5045,-1.9204,0.4759,-4.8395,
11.774267,1.2779,1.0902,-0.3343,14.6407,5.7100,-4.5045,-1.9204,0.4759,-4.8395,
11.797250,1.2779,1.0902,-0.3343,14.6407,5.7100,-4.5045,-0.7738,2.5632,-0.9645,
11.801693,1.2779,1.0902,-0.3343,13.9857,0.5336,-3.1467,-0.7738,2.5632,-0.9645,
11.832205,0.3478,1.1496,-0.3699,13.9857,0.5336,-3.1467,-0.7738,2.5632,-0.9645,
11.851608,0.3478,1.1496,-0.3699,13.9857,0.5336,-3.1467,-0.3462,2.8171,0.5022,
11.853601,0.3478,1.1496,-0.3699,-3.9051,5.0050,-1.2345,-0.3462,2.8171,0.5022,
11.890006,-0.8199,1.5285,-0.3091,-3.9051,5.0050,-1.2345,-0.3462,2.8171,0.5022,
11.911667,-0.8199,1.5285,-0.3091,-3.9051,5.0050,-1.2345,0.3913,0.8801,2.1609,
11.914081,-0.8199,1.5285,-0.3091,1.9672,1.5251,-3.6028,0.3913,0.8801,2.1609,
11.957011,0.1647,0.8193,0.2220,1.9672,1.5251,-3.6028,0.3913,0.8801,2.1609,
11.970924,0.1647,0.8193,0.2220,1.0675,-0.1082,2.4897,0.3913,0.8801,2.1609,
11.974044,0.1647,0.8193,0.2220,1.0675,-0.1082,2.4897,-0.0699,0.0576,1.2979,
12.007079,0.0132,1.0579,-0.0891,1.0675,-0.1082,2.4897,-0.0699,0.0576,1.2979,
12.026629,0.0132,1.0579,-0.0891,1.0675,-0.1082,2.4897,0.0949,0.2399,0.8990,
12.029117,0.0132,1.0579,-0.0891,-0.0308,0.3598,-0.0079,0.0949,0.2399,0.8990,
12.065171,-0.0915,1.0012,-0.0216,-0.0308,0.3598,-0.0079,0.0949,0.2399,0.8990,
12.086347,-0.0915,1.0012,-0.0216,-1.0038,0.1623,0.4999,0.0949,0.2399,0.8990,
12.090480,-0.0915,1.0012,-0.0216,-1.0038,0.1623,0.4999,0.1834,0.3942,0.9145,
12.123413,-0.0285,0.9828,-0.0238,-1.0038,0.1623,0.4999,0.1834,0.3942,0.9145,
12.143191,-0.0285,0.9828,-0.0238,-1.0038,0.1623,0.4999,0.2865,-0.0682,1.0982,
12.145425,-0.0285,0.9828,-0.0238,-0.4641,-0.1433,0.7114,0.2865,-0.0682,1.0982,
12.183477,0.0781,0.9754,-0.0363,-0.4641,-0.1433,0.7114,0.2865,-0.0682,1.0982,
12.203448,0.0781,0.9754,-0.0363,-0.4641,-0.1433,0.7114,0.3521,-0.0621,1.1474,
12.207536,0.0781,0.9754,-0.0363,-0.3716,0.0651,0.5140,0.3521,-0.0621,1.1474,
12.241416,0.1900,0.9971,-0.1174,-0.3716,0.0651,0.5140,0.3521,-0.0621,1.1474,
12.269363,0.1900,0.9971,-0.1174,-0.3716,0.0651,0.5140,0.3221,-0.0674,1.0639,
12.272914,0.1900,0.9971,-0.1174,-0.3179,0.4797,-0.0802,0.3221,-0.0674,1.0639,
12.299469,0.1295,1.0275,-0.1552,-0.3179,0.4797,-0.0802,0.3221,-0.0674,1.0639,
12.319137,0.1295,1.0275,-0.1552,-0.3179,0.4797,-0.0802,0.3738,-0.2643,1.1531,
12.321915,0.1295,1.0275,-0.1552,-1.1885,0.9315,0.1470,0.3738,-0.2643,1.1531,
12.358332,0.0878,1.1007,-0.0322,-1.1885,0.9315,0.1470,0.3738,-0.2643,1.1531,
12.380849,0.0878,1.1007,-0.0322,-1.1885,0.9315,0.1470,0.7481,-0.0605,1.5262,
12.384849,0.0878,1.1007,-0.0322,-2.9864,2.1921,1.9940,0.7481,-0.0605,1.5262,
12.415231,0.0174,1.2568,-0.0754,-2.9864,2.1921,1.9940,0.7481,-0.0605,1.5262,
12.434743,0.0174,1.2568,-0.0754,-2.9864,2.1921,1.9940,1.2274,-0.6695,2.1061,
12.436434,0.0174,1.2568,-0.0754,-4.4651,5.3700,1.0880,1.2274,-0.6695,2.1061,
12.473433,-0.5960,1.7552,-0.2099,-4.4651,5.3700,1.0880,1.2274,-0.6695,2.1061,
12.494956,-0.5960,1.7552,-0.2099,-4.4651,5.3700,1.0880,1.5449,-1.4172,2.4885,
12.496220,-0.5960,1.7552,-0.2099,-12.1903,8.9864,2.2303,1.5449,-1.4172,2.4885,
12.532846,0.3446,1.1484,-0.1913,-12.1903,8.9864,2.2303,1.5449,-1.4172,2.4885,
12.551493,0.3446,1.1484,-0.1913,-12.1903,8.9864,2.2303,1.5200,-2.0201,3.3918,
12.553405,0.3446,1.1484,-0.1913,3.4811,3.6539,2.3491,1.5200,-2.0201,3.3918,
12.590265,0.9329,0.6997,-0.4190,3.4811,3.6539,2.3491,1.5200,-2.0201,3.3918,
12.610675,0.9329,0.6997,-0.4190,3.4811,3.6539,2.3491,0.4425,0.9432,0.8687,
12.614151,0.9329,0.6997,-0.4190,0.2836,-0.6594,0.2211,0.4425,0.9432,0.8687,
12.650925,0.1927,0.2756,-0.1232,0.2836,-0.6594,0.2211,0.4425,0.9432,0.8687,
12.669378,0.1927,0.2756,-0.1232,0.2836,-0.6594,0.2211,-1.2586,1.3570,-1.5373,
12.673549,0.1927,0.2756,-0.1232,-6.2997,-4.6183,3.7089,-1.2586,1.3570,-1.5373,
12.707018,-0.0120,0.3288,-0.1441,-6.2997,-4.6183,3.7089,-1.2586,1.3570,-1.5373,
12.727045,-0.0120,0.3288,-0.1441,-6.2997,-4.6183,3.7089,-1.5036,-0.2999,-3.0008,
12.730623,-0.0120,0.3288,-0.1441,-3.7186,-3.4899,1.0306,-1.5036,-0.2999,-3.0008,
12.766588,0.1651,0.5850,-0.2232,-3.7186,-3.4899,1.0306,-1.5036,-0.2999,-3.0008,
12.786394,0.1651,0.5850,-0.2232,-3.7186,-3.4899,1.0306,-2.1714,-1.3626,-4.4392,
12.790546,0.1651,0.5850,-0.2232,-0.7759,-2.1044,0.0039,-2.1714,-1.3626,-4.4392,
12.825000,0.2350,1.0939,-0.3951,-0.7759,-2.1044,0.0039,-2.1714,-1.3626,-4.4392,
12.843813,0.2350,1.0939,-0.3951,-0.7759,-2.1044,0.0039,-2.8002,-1.0488,-4.9700,
12.845717,0.2350,1.0939,-0.3951,4.2587,3.8738,-3.8688,-2.8002,-1.0488,-4.9700,
12.881522,0.6296,1.6058,-0.4638,4.2587,3.8738,-3.8688,-2.8002,-1.0488,-4.9700,
12.903724,0.6296,1.6058,-0.4638,9.6511,5.1297,-3.6264,-2.8002,-1.0488,-4.9700,
12.906921,0.6296,1.6058,-0.4638,9.6511,5.1297,-3.6264,-2.5862,0.3616,-4.4998,
12.940070,0.6563,1.1768,-0.2331,9.6511,5.1297,-3.6264,-2.5862,0.3616,-4.4998,
12.961145,0.6563,1.1768,-0.2331,9.6511,5.1297,-3.6264,-1.1364,1.2564,-1.7446,
12.965193,0.6563,1.1768,-0.2331,9.6207,1.4308,-3.5247,-1.1364,1.2564,-1.7446,
12.998596,0.6367,0.9378,-0.3834,9.6207,1.4308,-3.5247,-1.1364,1.2564,-1.7446,
13.019245,0.6367,0.9378,-0.3834,6.6238,0.9000,-4.8537,-1.1364,1.2564,-1.7446,
13.022264,0.6367,0.9378,-0.3834,6.6238,0.9000,-4.8537,0.1124,1.5866,1.1570,
13.058628,-1.0283,1.4889,-0.0224,6.6238,0.9000,-4.8537,0.1124,1.5866,1.1570,
13.077083,-1.0283,1.4889,-0.0224,6.6238,0.9000,-4.8537,0.0269,2.5455,0.8489,
13.079522,-1.0283,1.4889,-0.0224,-6.1663,6.0179,0.0896,0.0269,2.5455,0.8489,
13.117395,0.1119,0.9989,-0.2824,-6.1663,6.0179,0.0896,0.0269,2.5455,0.8489,
13.134736,0.1119,0.9989,-0.2824,-6.1663,6.0179,0.0896,0.2415,0.1224,1.8039,
13.136149,0.1119,0.9989,-0.2824,1.3510,-1.3096,0.1146,0.2415,0.1224,1.8039,
13.173165,0.1127,0.9776,0.0288,1.3510,-1.3096,0.1146,0.2415,0.1224,1.8039,
13.193512,0.1127,0.9776,0.0288,1.3510,-1.3096,0.1146,0.1112,-0.0460,1.1647,
13.195528,0.1127,0.9776,0.0288,2.2489,0.2476,-0.0060,0.1112,-0.0460,1.1647,
13.233387,-0.0948,1.0214,-0.0518,2.2489,0.2476,-0.0060,0.1112,-0.0460,1.1647,
13.252709,-0.0948,1.0214,-0.0518,-0.7847,0.3907,0.2131,0.1112,-0.0460,1.1647,
13.254828,-0.0948,1.0214,-0.0518,-0.7847,0.3907,0.2131,0.0812,0.3144,0.7664,
13.290868,-0.0426,0.9890,0.0195,-0.7847,0.3907,0.2131,0.0812,0.3144,0.7664,
13.310719,-0.0426,0.9890,0.0195,-0.7847,0.3907,0.2131,0.2101,0.0511,0.8620,
13.313677,-0.0426,0.9890,0.0195,-0.2444,-0.0216,0.7585,0.2101,0.0511,0.8620,
13.349987,0.0288,0.9801,0.0178,-0.2444,-0.0216,0.7585,0.2101,0.0511,0.8620,
13.369429,0.0288,0.9801,0.0178,-0.2444,-0.0216,0.7585,0.3152,0.2014,0.8532,
13.372984,0.0288,0.9801,0.0178,-0.0121,-0.0730,0.7453,0.3152,0.2014,0.8532,
13.407185,0.1157,0.9570,-0.0432,-0.0121,-0.0730,0.7453,0.3152,0.2014,0.8532,
13.427438,0.1157,0.9570,-0.0432,-0.0121,-0.0730,0.7453,0.3311,0.3134,0.7587,
13.430515,0.1157,0.9570,-0.0432,-0.0020,-0.2503,0.4485,0.3311,0.3134,0.7587,
13.466167,0.0832,0.9739,-0.0770,-0.0020,-0.2503,0.4485,0.3311,0.3134,0.7587,
13.486241,0.0832,0.9739,-0.0770,-0.3073,0.1308,0.1603,0.3311,0.3134,0.7587,
13.490401,0.0832,0.9739,-0.0770,-0.3073,0.1308,0.1603,0.3486,0.2721,0.7827,
13.525112,0.1399,0.9731,-0.1022,-0.3073,0.1308,0.1603,0.3486,0.2721,0.7827,
13.544604,0.1399,0.9731,-0.1022,-0.3073,0.1308,0.1603,0.3681,0.0224,0.7962,
13.548170,0.1399,0.9731,-0.1022,-0.5045,0.2359,0.1775,0.3681,0.0224,0.7962,
13.584193,0.1840,1.0014,-0.1111,-0.5045,0.2359,0.1775,0.3681,0.0224,0.7962,
13.603288,0.1840,1.0014,-0.1111,-0.5045,0.2359,0.1775,0.4854,-0.1464,0.8422,
13.606197,0.1840,1.0014,-0.1111,-0.4195,0.5590,0.7480,0.4854,-0.1464,0.8422,
13.640458,0.1702,0.9930,-0.0391,-0.4195,0.5590,0.7480,0.4854,-0.1464,0.8422,
13.660568,0.1702,0.9930,-0.0391,-0.4195,0.5590,0.7480,0.7880,-0.3734,1.0098,
13.663845,0.1702,0.9930,-0.0391,-1.3702,0.6790,1.6188,0.7880,-0.3734,1.0098,
13.699455,-0.0098,1.1633,-0.0584,-1.3702,0.6790,1.6188,0.7880,-0.3734,1.0098,
13.719471,-0.0098,1.1633,-0.0584,-4.5753,5.3789,2.0905,0.7880,-0.3734,1.0098,
13.724121,-0.0098,1.1633,-0.0584,-4.5753,5.3789,2.0905,1.2531,-0.7572,1.6612,
13.758236,-0.1088,1.9030,-0.0637,-4.5753,5.3789,2.0905,1.2531,-0.7572,1.6612,
13.776131,-0.1088,1.9030,-0.0637,-4.5753,5.3789,2.0905,1.1081,-1.6715,2.8371,
13.777840,-0.1088,1.9030,-0.0637,-4.5804,8.7421,3.0352,1.1081,-1.6715,2.8371,
13.814645,0.5216,1.0666,-0.1463,-4.5804,8.7421,3.0352,1.1081,-1.6715,2.8371,
13.834272,0.5216,1.0666,-0.1463,-4.5804,8.7421,3.0352,-0.3313,-2.7145,2.7709,
13.835682,0.5216,1.0666,-0.1463,1.7255,1.3913,2.4934,-0.3313,-2.7145,2.7709,
13.874109,0.4924,0.5545,-0.3567,1.7255,1.3913,2.4934,-0.3313,-2.7145,2.7709,
13.894094,0.4924,0.5545,-0.3567,1.7255,1.3913,2.4934,-2.5414,-2.4182,1.7231,
13.898218,0.4924,0.5545,-0.3567,-0.9208,-2.7016,-0.2592,-2.5414,-2.4182,1.7231,
13.933387,0.1227,0.4043,-0.4586,-0.9208,-2.7016,-0.2592,-2.5414,-2.4182,1.7231,
13.955888,0.1227,0.4043,-0.4586,-0.9208,-2.7016,-0.2592,-4.0668,-2.3972,0.7143,
13.960445,0.1227,0.4043,-0.4586,-6.1094,-3.8321,-3.2693,-4.0668,-2.3972,0.7143,
13.990364,-0.3543,0.4896,-0.9605,-6.1094,-3.8321,-3.2693,-4.0668,-2.3972,0.7143,
14.010816,-0.3543,0.4896,-0.9605,-6.1094,-3.8321,-3.2693,-4.0043,-4.5715,0.0627,
14.015490,-0.3543,0.4896,-0.9605,-7.5752,-2.7978,-7.8891,-4.0043,-4.5715,0.0627,
14.050294,-0.2342,0.7722,-1.1111,-7.5752,-2.7978,-7.8891,-4.0043,-4.5715,0.0627,
14.070105,-0.2342,0.7722,-1.1111,-7.5752,-2.7978,-7.8891,-3.2154,-5.3422,-0.6467,
14.073972,-0.2342,0.7722,-1.1111,-4.4714,-0.4137,-9.0818,-3.2154,-5.3422,-0.6467,
14.106811,0.0364,0.9473,-1.0397,-4.4714,-0.4137,-9.0818,-3.2154,-5.3422,-0.6467,
14.125735,0.0364,0.9473,-1.0397,-4.4714,-0.4137,-9.0818,-2.2818,-3.7287,-1.6444,
14.127221,0.0364,0.9473,-1.0397,-1.4078,0.2611,-7.5601,-2.2818,-3.7287,-1.6444,
14.164975,-0.0164,1.0225,-0.6406,-1.4078,0.2611,-7.5601,-2.2818,-3.7287,-1.6444,
14.185970,-0.0164,1.0225,-0.6406,-1.4078,0.2611,-7.5601,-1.4079,-2.5304,-2.4280,
14.189791,-0.0164,1.0225,-0.6406,-0.7091,0.7491,-4.1757,-1.4079,-2.5304,-2.4280,
14.224968,-0.0172,1.1439,-0.3631,-0.7091,0.7491,-4.1757,-1.4079,-2.5304,-2.4280,
14.243319,-0.0172,1.1439,-0.3631,-0.7091,0.7491,-4.1757,-0.7432,-2.2822,-2.3761,
14.245518,-0.0172,1.1439,-0.3631,1.0177,1.6525,-2.4868,-0.7432,-2.2822,-2.3761,
14.282956,-0.0726,1.0862,-0.1796,1.0177,1.6525,-2.4868,-0.7432,-2.2822,-2.3761,
14.302146,-0.0726,1.0862,-0.1796,1.0177,1.6525,-2.4868,-0.2224,-2.3005,-1.7729,
14.306697,-0.0726,1.0862,-0.1796,1.1260,0.8899,-1.1931,-0.2224,-2.3005,-1.7729,
14.340811,-0.0424,1.0075,-0.1075,1.1260,0.8899,-1.1931,-0.2224,-2.3005,-1.7729,
14.360656,-0.0424,1.0075,-0.1075,1.1260,0.8899,-1.1931,0.1274,-2.7493,-0.9240,
14.364467,-0.0424,1.0075,-0.1075,2.6363,0.2669,-0.6366,0.1274,-2.7493,-0.9240,
14.399326,0.0485,0.9333,0.0538,2.6363,0.2669,-0.6366,0.1274,-2.7493,-0.9240,
14.421833,0.0485,0.9333,0.0538,2.6363,0.2669,-0.6366,0.3402,-2.8346,-0.0798,
14.425980,0.0485,0.9333,0.0538,3.0296,-0.3440,0.4419,0.3402,-2.8346,-0.0798,
14.457656,0.1124,0.8896,0.1332,3.0296,-0.3440,0.4419,0.3402,-2.8346,-0.0798,
14.477306,0.1124,0.8896,0.1332,3.0296,-0.3440,0.4419,0.4964,-2.8949,0.6408,
14.480609,0.1124,0.8896,0.1332,3.7650,-0.6867,0.8502,0.4964,-2.8949,0.6408,
14.516074,0.2365,0.8599,0.1322,3.7650,-0.6867,0.8502,0.4964,-2.8949,0.6408,
14.535693,0.2365,0.8599,0.1322,3.7650,-0.6867,0.8502,0.3814,-2.0195,0.8579,
14.539001,0.2365,0.8599,0.1322,2.5834,-0.7977,1.0087,0.3814,-2.0195,0.8579,
14.574485,-0.2823,1.3200,0.3805,2.5834,-0.7977,1.0087,0.3814,-2.0195,0.8579,
14.594184,-0.2823,1.3200,0.3805,-0.8661,4.9895,0.9719,0.3814,-2.0195,0.8579,
14.598611,-0.2823,1.3200,0.3805,-0.8661,4.9895,0.9719,-0.2053,0.5050,0.2985,
14.632360,-0.3505,1.0955,-0.2915,-0.8661,4.9895,0.9719,-0.2053,0.5050,0.2985,
14.659251,-0.3505,1.0955,-0.2915,-0.8661,4.9895,0.9719,0.0393,1.1941,0.8986,
14.666417,-0.3505,1.0955,-0.2915,-3.4736,-0.6314,-1.1545,0.0393,1.1941,0.8986,
14.690556,0.0208,0.9983,0.2081,-3.4736,-0.6314,-1.1545,0.0393,1.1941,0.8986,
14.710324,0.0208,0.9983,0.2081,-3.4736,-0.6314,-1.1545,-0.1403,-0.3152,1.0733,
14.712386,0.0208,0.9983,0.2081,0.8278,0.0945,1.4180,-0.1403,-0.3152,1.0733,
14.748574,-0.0106,1.0183,0.0736,0.8278,0.0945,1.4180,-0.1403,-0.3152,1.0733,
14.771397,-0.0106,1.0183,0.0736,0.8278,0.0945,1.4180,-0.0470,-0.6275,0.8202,
14.775192,-0.0106,1.0183,0.0736,0.4238,0.7211,-0.5745,-0.0470,-0.6275,0.8202,
14.807582,0.0505,1.0085,0.0521,0.4238,0.7211,-0.5745,-0.0470,-0.6275,0.8202,
14.827739,0.0505,1.0085,0.0521,0.4238,0.7211,-0.5745,-0.0509,-0.1769,0.5551,
14.833564,0.0505,1.0085,0.0521,-0.4426,0.0460,0.4147,-0.0509,-0.1769,0.5551,
14.865357,0.0105,1.0072,0.1428,-0.4426,0.0460,0.4147,-0.0509,-0.1769,0.5551,
14.887095,0.0105,1.0072,0.1428,-0.4534,0.2209,0.5426,-0.0509,-0.1769,0.5551,
14.890736,0.0105,1.0072,0.1428,-0.4534,0.2209,0.5426,0.0635,-0.5139,0.5812,
14.924681,0.0824,1.0064,0.0737,-0.4534,0.2209,0.5426,0.0635,-0.5139,0.5812,
14.944154,0.0824,1.0064,0.0737,-0.4534,0.2209,0.5426,0.0885,-0.4272,0.5557,
14.947064,0.0824,1.0064,0.0737,-0.6100,0.2181,0.2703,0.0885,-0.4272,0.5557,
14.983698,0.0725,0.9894,0.0972,-0.6100,0.2181,0.2703,0.0885,-0.4272,0.5557,
15.003943,0.0725,0.9894,0.0972,-0.6100,0.2181,0.2703,0.1109,-0.5314,0.6820,
15.007462,0.0725,0.9894,0.0972,-0.3600,0.0866,0.3282,0.1109,-0.5314,0.6820,
15.040870,0.1735,1.0021,0.0326,-0.3600,0.0866,0.3282,0.1109,-0.5314,0.6820,
15.060512,0.1735,1.0021,0.0326,-0.3600,0.0866,0.3282,0.0869,-0.3524,0.6433,
15.063760,0.1735,1.0021,0.0326,-0.3595,0.3017,0.0792,0.0869,-0.3524,0.6433,
15.099406,0.0952,1.0121,0.0662,-0.3595,0.3017,0.0792,0.0869,-0.3524,0.6433,
15.120157,0.0952,1.0121,0.0662,-1.6462,0.5434,0.4343,0.0869,-0.3524,0.6433,
15.124608,0.0952,1.0121,0.0662,-1.6462,0.5434,0.4343,0.0934,-0.5168,0.7905,
15.157600,0.1502,1.0085,0.0759,-1.6462,0.5434,0.4343,0.0934,-0.5168,0.7905,
15.177769,0.1502,1.0085,0.0759,-1.6462,0.5434,0.4343,0.1678,-0.7143,1.1226,
15.181294,0.1502,1.0085,0.0759,-1.0428,0.6149,0.5420,0.1678,-0.7143,1.1226,
15.223803,0.2083,1.0544,0.0154,-1.0428,0.6149,0.5420,0.1678,-0.7143,1.1226,
15.239069,0.2083,1.0544,0.0154,-1.0428,0.6149,0.5420,0.1690,-0.7167,1.3122,
15.241047,0.2083,1.0544,0.0154,-1.5710,1.6090,-0.0454,0.1690,-0.7167,1.3122,
15.279457,0.1418,1.1228,-0.0692,-1.5710,1.6090,-0.0454,0.1690,-0.7167,1.3122,
15.294900,0.1418,1.1228,-0.0692,-1.5710,1.6090,-0.0454,0.2331,-0.9173,1.6689,
15.297562,0.1418,1.1228,-0.0692,-3.3810,2.8493,-0.0007,0.2331,-0.9173,1.6689,
15.331287,-0.2022,1.5185,-0.0098,-3.3810,2.8493,-0.0007,0.2331,-0.9173,1.6689,
15.354599,-0.2022,1.5185,-0.0098,-3.3810,2.8493,-0.0007,0.4838,-1.2720,2.1867,
15.357458,-0.2022,1.5185,-0.0098,-10.6131,8.2322,0.5936,0.4838,-1.2720,2.1867,
15.392118,-0.7051,1.5036,-0.2189,-10.6131,8.2322,0.5936,0.4838,-1.2720,2.1867,
15.409402,-0.7051,1.5036,-0.2189,-10.6131,8.2322,0.5936,0.4091,-3.2488,3.5838,
15.411226,-0.7051,1.5036,-0.2189,-7.1985,5.6836,-0.5307,0.4091,-3.2488,3.5838,
15.449103,1.0622,1.1536,-0.4238,-7.1985,5.6836,-0.5307,0.4091,-3.2488,3.5838,
15.469371,1.0622,1.1536,-0.4238,-7.1985,5.6836,-0.5307,0.6880,-2.0853,3.1256,
15.472440,1.0622,1.1536,-0.4238,2.5694,4.0492,0.0034,0.6880,-2.0853,3.1256,
15.506866,0.6163,0.4620,-0.1752,2.5694,4.0492,0.0034,0.6880,-2.0853,3.1256,
15.527411,0.6163,0.4620,-0.1752,2.5694,4.0492,0.0034,-1.1476,-0.4052,0.0794,
15.531164,0.6163,0.4620,-0.1752,-3.1333,-3.0573,2.0593,-1.1476,-0.4052,0.0794,
15.564919,-0.0830,0.1744,-0.1398,-3.1333,-3.0573,2.0593,-1.1476,-0.4052,0.0794,
15.587214,-0.0830,0.1744,-0.1398,-3.1333,-3.0573,2.0593,-1.1560,-0.1073,-2.2168,
15.590626,-0.0830,0.1744,-0.1398,-7.1223,-3.8845,0.6074,-1.1560,-0.1073,-2.2168,
15.624163,0.1174,0.5309,-0.2511,-7.1223,-3.8845,0.6074,-1.1560,-0.1073,-2.2168,
15.644986,0.1174,0.5309,-0.2511,-2.0500,-2.6678,0.4555,-1.1560,-0.1073,-2.2168,
15.648851,0.1174,0.5309,-0.2511,-2.0500,-2.6678,0.4555,-1.7833,-1.2922,-3.8059,
15.683496,0.2396,0.7299,-0.2222,-2.0500,-2.6678,0.4555,-1.7833,-1.2922,-3.8059,
15.710415,0.2396,0.7299,-0.2222,0.4471,-0.6456,-1.3440,-1.7833,-1.2922,-3.8059,
15.715517,0.2396,0.7299,-0.2222,0.4471,-0.6456,-1.3440,-2.3639,-1.5316,-5.2722,
15.739355,0.3858,1.4486,-0.4538,0.4471,-0.6456,-1.3440,-2.3639,-1.5316,-5.2722,
15.762250,0.3858,1.4486,-0.4538,7.5214,6.7694,-4.9635,-2.3639,-1.5316,-5.2722,
15.765160,0.3858,1.4486,-0.4538,7.5214,6.7694,-4.9635,-2.7660,-0.4473,-5.5257,
15.799059,1.0025,1.4495,-0.3555,7.5214,6.7694,-4.9635,-2.7660,-0.4473,-5.5257,
15.818880,1.0025,1.4495,-0.3555,7.5214,6.7694,-4.9635,-2.0291,1.4842,-3.4090,
15.821296,1.0025,1.4495,-0.3555,14.5217,3.2201,-3.3870,-2.0291,1.4842,-3.4090,
15.857759,1.0515,0.9677,-0.3583,14.5217,3.2201,-3.3870,-2.0291,1.4842,-3.4090,
15.877308,1.0515,0.9677,-0.3583,14.5217,3.2201,-3.3870,-0.2279,2.0069,0.5498,
15.881200,1.0515,0.9677,-0.3583,11.5231,0.8743,-5.9032,-0.2279,2.0069,0.5498,
15.916108,-0.9551,1.6190,-0.0568,11.5231,0.8743,-5.9032,-0.2279,2.0069,0.5498,
15.938670,-0.9551,1.6190,-0.0568,-10.1048,7.3819,1.3539,-0.2279,2.0069,0.5498,
15.943671,-0.9551,1.6190,-0.0568,-10.1048,7.3819,1.3539,-0.1024,2.4345,0.4382,
15.973617,0.1781,1.0090,-0.3099,-10.1048,7.3819,1.3539,-0.1024,2.4345,0.4382,
15.994170,0.1781,1.0090,-0.3099,-10.1048,7.3819,1.3539,0.1682,-0.0089,2.7249,
15.997476,0.1781,1.0090,-0.3099,4.4853,-2.3213,-0.1048,0.1682,-0.0089,2.7249,
16.031739,0.0175,0.9541,0.1560,4.4853,-2.3213,-0.1048,0.1682,-0.0089,2.7249,
16.051747,0.0175,0.9541,0.1560,4.4853,-2.3213,-0.1048,0.2885,-0.0957,1.5612,
16.054801,0.0175,0.9541,0.1560,1.4360,0.6221,-0.4313,0.2885,-0.0957,1.5612,
16.091131,0.0546,1.0157,-0.0936,1.4360,0.6221,-0.4313,0.2885,-0.0957,1.5612,
16.111764,0.0546,1.0157,-0.0936,1.4360,0.6221,-0.4313,0.1684,0.2362,0.9854,
16.115736,0.0546,1.0157,-0.0936,-0.1784,0.2463,-0.2709,0.1684,0.2362,0.9854,
16.148996,0.0763,0.9964,-0.0196,-0.1784,0.2463,-0.2709,0.1684,0.2362,0.9854,
16.170521,0.0763,0.9964,-0.0196,-0.1784,0.2463,-0.2709,0.1219,-0.0256,0.8406,
16.173984,0.0763,0.9964,-0.0196,-0.1652,0.1422,0.1656,0.1219,-0.0256,0.8406,
16.207142,0.0582,1.0191,-0.0326,-0.1652,0.1422,0.1656,0.1219,-0.0256,0.8406,
16.227543,0.0582,1.0191,-0.0326,-0.1652,0.1422,0.1656,0.1435,-0.3612,0.8060,
16.230656,0.0582,1.0191,-0.0326,-0.1507,0.3484,0.3959,0.1435,-0.3612,0.8060,
16.266391,0.1138,0.9933,0.0013,-0.1507,0.3484,0.3959,0.1435,-0.3612,0.8060,
16.288120,0.1138,0.9933,0.0013,-0.6047,0.1071,0.4584,0.1435,-0.3612,0.8060,
16.291178,0.1138,0.9933,0.0013,-0.6047,0.1071,0.4584,0.2105,-0.2720,0.7516,
16.324008,0.0823,0.9943,-0.0214,-0.6047,0.1071,0.4584,0.2105,-0.2720,0.7516,
16.344453,0.0823,0.9943,-0.0214,-0.9259,0.3571,0.6447,0.2105,-0.2720,0.7516,
16.347659,0.0823,0.9943,-0.0214,-0.9259,0.3571,0.6447,0.3036,-0.3535,0.9330,
16.383591,0.1480,1.0034,-0.0824,-0.9259,0.3571,0.6447,0.3036,-0.3535,0.9330,
16.404872,0.1480,1.0034,-0.0824,-0.9259,0.3571,0.6447,0.4007,-0.3209,1.0916,
16.408641,0.1480,1.0034,-0.0824,-1.3027,0.6233,-0.0845,0.4007,-0.3209,1.0916,
16.442083,0.0793,1.0911,-0.0693,-1.3027,0.6233,-0.0845,0.4007,-0.3209,1.0916,
16.461602,0.0793,1.0911,-0.0693,-1.3027,0.6233,-0.0845,0.7017,-0.0130,1.4584,
16.465563,0.0793,1.0911,-0.0693,-2.4893,1.9386,1.3829,0.7017,-0.0130,1.4584,
16.499113,0.0559,1.1810,-0.0287,-2.4893,1.9386,1.3829,0.7017,-0.0130,1.4584,
16.517949,0.0559,1.1810,-0.0287,-2.4893,1.9386,1.3829,1.0643,-0.4317,1.8546,
16.519542,0.0559,1.1810,-0.0287,-4.5059,4.4512,1.4984,1.0643,-0.4317,1.8546,
16.556971,-0.5950,1.6569,-0.1187,-4.5059,4.4512,1.4984,1.0643,-0.4317,1.8546,
16.576705,-0.5950,1.6569,-0.1187,-4.5059,4.4512,1.4984,1.3455,-0.6703,2.4368,
16.579680,-0.5950,1.6569,-0.1187,-12.9265,8.6756,1.6760,1.3455,-0.6703,2.4368,
16.616115,-0.0457,1.4676,-0.0435,-12.9265,8.6756,1.6760,1.3455,-0.6703,2.4368,
16.635092,-0.0457,1.4676,-0.0435,-12.9265,8.6756,1.6760,1.3241,-1.6558,3.7347,
16.639176,-0.0457,1.4676,-0.0435,0.1389,6.5101,3.0538,1.3241,-1.6558,3.7347,
16.680266,0.9078,0.9421,-0.2841,0.1389,6.5101,3.0538,1.3241,-1.6558,3.7347,
16.692973,0.9078,0.9421,-0.2841,0.1389,6.5101,3.0538,0.7764,-0.0517,1.4800,
16.695597,0.9078,0.9421,-0.2841,0.2542,0.8018,0.9274,0.7764,-0.0517,1.4800,
16.731439,0.4100,0.2972,-0.1251,0.2542,0.8018,0.9274,0.7764,-0.0517,1.4800,
16.752320,0.4100,0.2972,-0.1251,-4.2249,-4.6758,3.4812,0.7764,-0.0517,1.4800,
16.754272,0.4100,0.2972,-0.1251,-4.2249,-4.6758,3.4812,-0.9448,0.6579,-1.2203,
16.791835,0.0555,0.1862,-0.0207,-4.2249,-4.6758,3.4812,-0.9448,0.6579,-1.2203,
16.809934,0.0555,0.1862,-0.0207,-4.2249,-4.6758,3.4812,-1.5410,-0.0501,-3.1635,
16.813316,0.0555,0.1862,-0.0207,-3.5742,-4.6785,1.8539,-1.5410,-0.0501,-3.1635,
16.848985,0.2558,0.5359,-0.1594,-3.5742,-4.6785,1.8539,-1.5410,-0.0501,-3.1635,
16.868876,0.2558,0.5359,-0.1594,-3.5742,-4.6785,1.8539,-2.3653,-0.6410,-4.8087,
16.872042,0.2558,0.5359,-0.1594,-0.5554,-2.9001,0.9148,-2.3653,-0.6410,-4.8087,
16.907857,0.1449,1.0124,-0.2127,-0.5554,-2.9001,0.9148,-2.3653,-0.6410,-4.8087,
16.926910,0.1449,1.0124,-0.2127,-0.5554,-2.9001,0.9148,-2.8990,-1.1175,-5.3402,
16.931746,0.1449,1.0124,-0.2127,3.0598,3.7469,-2.9513,-2.8990,-1.1175,-5.3402,
16.965199,0.5148,1.7257,-0.4751,3.0598,3.7469,-2.9513,-2.8990,-1.1175,-5.3402,
16.985205,0.5148,1.7257,-0.4751,3.0598,3.7469,-2.9513,-2.8601,-0.6697,-4.7389,
16.988996,0.5148,1.7257,-0.4751,9.0646,6.6146,-5.6344,-2.8601,-0.6697,-4.7389,
17.023964,0.7788,1.2403,-0.3629,9.0646,6.6146,-5.6344,-2.8601,-0.6697,-4.7389,
17.043460,0.7788,1.2403,-0.3629,11.0989,2.0616,-5.2730,-2.8601,-0.6697,-4.7389,
17.045879,0.7788,1.2403,-0.3629,11.0989,2.0616,-5.2730,-1.4034,1.0269,-2.0315,
17.082855,0.6701,1.0543,-0.4388,11.0989,2.0616,-5.2730,-1.4034,1.0269,-2.0315,
17.101684,0.6701,1.0543,-0.4388,11.0989,2.0616,-5.2730,0.0399,1.9711,1.2820,
17.106939,0.6701,1.0543,-0.4388,5.3765,3.0679,-4.4924,0.0399,1.9711,1.2820,
17.140270,-1.2365,1.5933,0.1905,5.3765,3.0679,-4.4924,0.0399,1.9711,1.2820,
17.160880,-1.2365,1.5933,0.1905,5.3765,3.0679,-4.4924,0.4647,2.2698,1.5347,
17.164985,-1.2365,1.5933,0.1905,-5.5324,4.6452,-0.6841,0.4647,2.2698,1.5347,
17.199388,0.3369,0.8723,-0.1884,-5.5324,4.6452,-0.6841,0.4647,2.2698,1.5347,
17.218926,0.3369,0.8723,-0.1884,-5.5324,4.6452,-0.6841,0.2453,0.3476,2.0743,
17.223820,0.3369,0.8723,-0.1884,2.3714,-1.0853,0.9022,0.2453,0.3476,2.0743,
17.257093,0.0445,1.0114,0.0264,2.3714,-1.0853,0.9022,0.2453,0.3476,2.0743,
17.276011,0.0445,1.0114,0.0264,2.3714,-1.0853,0.9022,0.2533,0.0778,1.3460,
17.277846,0.0445,1.0114,0.0264,1.4607,0.5074,-0.5701,0.2533,0.0778,1.3460,
17.316149,-0.0356,1.0265,-0.0469,1.4607,0.5074,-0.5701,0.2533,0.0778,1.3460,
17.335064,-0.0356,1.0265,-0.0469,1.4607,0.5074,-0.5701,0.1134,0.2018,0.9424,
17.337583,-0.0356,1.0265,-0.0469,-0.1352,0.3337,-0.1088,0.1134,0.2018,0.9424,
17.373987,-0.0056,0.9990,0.0319,-0.1352,0.3337,-0.1088,0.1134,0.2018,0.9424,
17.395033,-0.0056,0.9990,0.0319,-0.4347,0.0981,0.3169,0.1134,0.2018,0.9424,
17.403580,-0.0056,0.9990,0.0319,-0.4347,0.0981,0.3169,0.1427,-0.0729,0.8868,
17.431749,0.0641,1.0028,0.0220,-0.4347,0.0981,0.3169,0.1427,-0.0729,0.8868,
17.451450,0.0641,1.0028,0.0220,-0.4347,0.0981,0.3169,0.2050,-0.1674,0.8538,
17.454738,0.0641,1.0028,0.0220,-0.0966,0.1954,0.3182,0.2050,-0.1674,0.8538,
17.490708,0.1031,0.9852,-0.0169,-0.0966,0.1954,0.3182,0.2050,-0.1674,0.8538,
17.510626,0.1031,0.9852,-0.0169,-0.2248,0.0111,0.0647,0.2050,-0.1674,0.8538,
17.515620,0.1031,0.9852,-0.0169,-0.2248,0.0111,0.0647,0.2494,-0.1543,0.8182,
17.548323,0.0872,0.9789,-0.0268,-0.2248,0.0111,0.0647,0.2494,-0.1543,0.8182,
17.568818,0.0872,0.9789,-0.0268,-0.2248,0.0111,0.0647,0.2545,-0.1435,0.9080,
17.572351,0.0872,0.9789,-0.0268,-0.7883,0.1958,0.2431,0.2545,-0.1435,0.9080,
17.607698,0.2074,0.9780,-0.0129,-0.7883,0.1958,0.2431,0.2545,-0.1435,0.9080,
17.627244,0.2074,0.9780,-0.0129,-0.7883,0.1958,0.2431,0.3123,-0.0997,0.9709,
17.631157,0.2074,0.9780,-0.0129,-0.1060,0.1777,0.4268,0.3123,-0.0997,0.9709,
17.665917,0.1946,0.9867,-0.0172,-0.1060,0.1777,0.4268,0.3123,-0.0997,0.9709,
17.686189,0.1946,0.9867,-0.0172,-0.1060,0.1777,0.4268,0.3647,-0.3353,1.0031,
17.689595,0.1946,0.9867,-0.0172,-0.8880,0.4409,0.8792,0.3647,-0.3353,1.0031,
17.723833,0.1972,1.0130,0.0027,-0.8880,0.4409,0.8792,0.3647,-0.3353,1.0031,
17.743956,0.1972,1.0130,0.0027,-0.8880,0.4409,0.8792,0.4139,-0.9476,1.2183,
17.747207,0.1972,1.0130,0.0027,-1.8292,1.1933,1.1313,0.4139,-0.9476,1.2183,
17.782120,0.1053,1.1079,-0.0264,-1.8292,1.1933,1.1313,0.4139,-0.9476,1.2183,
17.802058,0.1053,1.1079,-0.0264,-1.8292,1.1933,1.1313,0.6086,-1.4351,1.8308,
17.806461,0.1053,1.1079,-0.0264,-3.2906,3.4243,1.5488,0.6086,-1.4351,1.8308,
17.842077,-0.0563,1.5999,-0.0618,-3.2906,3.4243,1.5488,0.6086,-1.4351,1.8308,
17.859623,-0.0563,1.5999,-0.0618,-3.2906,3.4243,1.5488,0.7758,-2.1246,2.5402,
17.861679,-0.0563,1.5999,-0.0618,-5.0674,7.6249,2.2668,0.7758,-2.1246,2.5402,
17.897946,0.4329,1.1316,-0.0247,-5.0674,7.6249,2.2668,0.7758,-2.1246,2.5402,
17.917456,0.4329,1.1316,-0.0247,-5.0674,7.6249,2.2668,0.1340,-3.1219,2.7874,
17.919072,0.4329,1.1316,-0.0247,0.9146,2.2232,2.7448,0.1340,-3.1219,2.7874,
17.957347,0.8857,0.6773,-0.3129,0.9146,2.2232,2.7448,0.1340,-3.1219,2.7874,
17.976925,0.8857,0.6773,-0.3129,0.9146,2.2232,2.7448,-1.3844,-2.4335,2.1751,
17.981226,0.8857,0.6773,-0.3129,1.0749,-1.6581,1.1105,-1.3844,-2.4335,2.1751,
18.014825,0.3354,0.3264,-0.4875,1.0749,-1.6581,1.1105,-1.3844,-2.4335,2.1751,
18.035597,0.3354,0.3264,-0.4875,1.0749,-1.6581,1.1105,-2.7025,-1.7090,1.1071,
18.038997,0.3354,0.3264,-0.4875,-2.8874,-3.5362,-2.7812,-2.7025,-1.7090,1.1071,
18.074125,0.3217,0.3133,-0.6234,-2.8874,-3.5362,-2.7812,-2.7025,-1.7090,1.1071,
18.093655,0.3217,0.3133,-0.6234,-2.8874,-3.5362,-2.7812,-3.5319,-0.8434,-0.1661,
18.096487,0.3217,0.3133,-0.6234,-3.1279,-4.2758,-3.4274,-3.5319,-0.8434,-0.1661,
18.133424,-0.0720,0.4467,-0.7901,-3.1279,-4.2758,-3.4274,-3.5319,-0.8434,-0.1661,
18.151967,-0.0720,0.4467,-0.7901,-3.1279,-4.2758,-3.4274,-2.8503,-2.7340,-1.2070,
18.155575,-0.0720,0.4467,-0.7901,-5.8514,-2.4872,-6.9058,-2.8503,-2.7340,-1.2070,
18.193984,0.0812,0.7815,-0.9636,-5.8514,-2.4872,-6.9058,-2.8503,-2.7340,-1.2070,
18.215596,0.0812,0.7815,-0.9636,-1.9326,-0.3958,-6.9829,-2.8503,-2.7340,-1.2070,
18.218268,0.0812,0.7815,-0.9636,-1.9326,-0.3958,-6.9829,-2.1368,-3.9501,-1.2543,
18.247993,0.0837,0.9129,-0.8433,-1.9326,-0.3958,-6.9829,-2.1368,-3.9501,-1.2543,
18.268459,0.0837,0.9129,-0.8433,-1.9326,-0.3958,-6.9829,-1.7956,-3.2738,-2.0047,
18.271956,0.0837,0.9129,-0.8433,-2.5201,0.1798,-5.5114,-1.7956,-3.2738,-2.0047,
18.306244,-0.1821,1.1113,-0.6465,-2.5201,0.1798,-5.5114,-1.7956,-3.2738,-2.0047,
18.327902,-0.1821,1.1113,-0.6465,-2.1336,1.8560,-4.6853,-1.7956,-3.2738,-2.0047,
18.332403,-0.1821,1.1113,-0.6465,-2.1336,1.8560,-4.6853,-1.2435,-4.0560,-2.1641,
18.365861,-0.1264,1.1770,-0.6073,-2.1336,1.8560,-4.6853,-1.2435,-4.0560,-2.1641,
18.385755,-0.1264,1.1770,-0.6073,0.1443,2.0032,-4.4399,-1.2435,-4.0560,-2.1641,
18.389703,-0.1264,1.1770,-0.6073,0.1443,2.0032,-4.4399,-0.6272,-4.2596,-2.1293,
18.424038,0.0095,1.1083,-0.4200,0.1443,2.0032,-4.4399,-0.6272,-4.2596,-2.1293,
18.444618,0.0095,1.1083,-0.4200,0.1443,2.0032,-4.4399,-0.3054,-3.0014,-1.7456,
18.450193,0.0095,1.1083,-0.4200,2.6761,0.9276,-2.3055,-0.3054,-3.0014,-1.7456,
18.482507,0.0168,0.9570,-0.1446,2.6761,0.9276,-2.3055,-0.3054,-3.0014,-1.7456,
18.502075,0.0168,0.9570,-0.1446,2.6761,0.9276,-2.3055,0.0939,-2.1042,-1.2535,
18.505752,0.0168,0.9570,-0.1446,2.2853,-0.1395,-0.1317,0.0939,-2.1042,-1.2535,
18.542878,-0.1282,0.9118,0.0103,2.2853,-0.1395,-0.1317,0.0939,-2.1042,-1.2535,
18.560359,-0.1282,0.9118,0.0103,2.2796,-0.1386,0.6806,0.0939,-2.1042,-1.2535,
18.564867,-0.1282,0.9118,0.0103,2.2796,-0.1386,0.6806,0.3643,-2.8255,-0.5013,
18.598875,-0.0160,0.9167,0.0977,2.2796,-0.1386,0.6806,0.3643,-2.8255,-0.5013,
18.619015,-0.0160,0.9167,0.0977,2.2796,-0.1386,0.6806,0.5064,-3.2343,0.2765,
18.622876,-0.0160,0.9167,0.0977,3.4002,-0.2721,0.7322,0.5064,-3.2343,0.2765,
18.658569,0.2391,0.9196,0.0808,3.4002,-0.2721,0.7322,0.5064,-3.2343,0.2765,
18.675993,0.2391,0.9196,0.0808,3.4002,-0.2721,0.7322,0.5473,-2.0513,0.8998,
18.678125,0.2391,0.9196,0.0808,5.3715,-0.0732,0.6100,0.5473,-2.0513,0.8998,
18.715316,0.1370,0.9069,-0.0155,5.3715,-0.0732,0.6100,0.5473,-2.0513,0.8998,
18.734890,0.1370,0.9069,-0.0155,5.3715,-0.0732,0.6100,-0.1283,0.3340,0.7180,
18.738362,0.1370,0.9069,-0.0155,-1.8353,-0.3847,0.1278,-0.1283,0.3340,0.7180,
18.773811,-0.8642,1.5403,0.0386,-1.8353,-0.3847,0.1278,-0.1283,0.3340,0.7180,
18.793621,-0.8642,1.5403,0.0386,-1.8353,-0.3847,0.1278,-0.1145,1.3317,0.7652,
18.796818,-0.8642,1.5403,0.0386,-1.8706,6.1063,-2.7460,-0.1145,1.3317,0.7652,
18.831594,-0.1034,0.8767,0.0491,-1.8706,6.1063,-2.7460,-0.1145,1.3317,0.7652,
18.850709,-0.1034,0.8767,0.0491,-1.8706,6.1063,-2.7460,-0.3708,0.4936,1.3085,
18.853006,-0.1034,0.8767,0.0491,-0.8754,-1.7141,3.8674,-0.3708,0.4936,1.3085,
18.890337,-0.0695,0.9968,0.2224,-0.8754,-1.7141,3.8674,-0.3708,0.4936,1.3085,
18.910966,-0.0695,0.9968,0.2224,-0.8754,-1.7141,3.8674,0.0163,-0.9157,1.2008,
18.914925,-0.0695,0.9968,0.2224,-0.5107,0.1800,0.0288,0.0163,-0.9157,1.2008,
18.948232,0.1779,1.0335,-0.0662,-0.5107,0.1800,0.0288,0.0163,-0.9157,1.2008,
18.967993,0.1779,1.0335,-0.0662,-0.5107,0.1800,0.0288,-0.0876,-0.3364,0.8117,
18.971055,0.1779,1.0335,-0.0662,1.4621,0.2616,-0.0975,-0.0876,-0.3364,0.8117,
19.006462,-0.0920,0.9841,0.1496,1.4621,0.2616,-0.0975,-0.0876,-0.3364,0.8117,
19.027680,-0.0920,0.9841,0.1496,-1.5791,0.1766,0.8880,-0.0876,-0.3364,0.8117,
19.031301,-0.0920,0.9841,0.1496,-1.5791,0.1766,0.8880,0.0334,-0.0737,0.6801,
19.070065,0.0983,1.0096,0.0431,-1.5791,0.1766,0.8880,0.0334,-0.0737,0.6801,
19.085315,0.0983,1.0096,0.0431,-1.5791,0.1766,0.8880,0.0945,-0.4553,0.7773,
19.088084,0.0983,1.0096,0.0431,0.3242,0.2183,0.0483,0.0945,-0.4553,0.7773,
19.123912,0.0851,0.9946,0.0760,0.3242,0.2183,0.0483,0.0945,-0.4553,0.7773,
19.146466,0.0851,0.9946,0.0760,0.3242,0.2183,0.0483,0.1268,-0.2995,0.6685,
19.150075,0.0851,0.9946,0.0760,-0.7359,0.1526,0.5309,0.1268,-0.2995,0.6685,
19.182279,0.0729,1.0072,0.0458,-0.7359,0.1526,0.5309,0.1268,-0.2995,0.6685,
19.201779,0.0729,1.0072,0.0458,-0.7359,0.1526,0.5309,0.1631,-0.4840,0.8286,
19.205796,0.0729,1.0072,0.0458,-1.1068,0.3407,0.3347,0.1631,-0.4840,0.8286,
19.241189,0.0848,1.0104,0.0578,-1.1068,0.3407,0.3347,0.1631,-0.4840,0.8286,
19.260833,0.0848,1.0104,0.0578,-1.1068,0.3407,0.3347,0.2156,-0.4923,1.0770,
19.264008,0.0848,1.0104,0.0578,-1.1162,0.5988,0.5652,0.2156,-0.4923,1.0770,
19.298289,0.2031,1.0143,0.0046,-1.1162,0.5988,0.5652,0.2156,-0.4923,1.0770,
19.317570,0.2031,1.0143,0.0046,-1.1162,0.5988,0.5652,0.2614,-0.4551,1.1945,
19.319793,0.2031,1.0143,0.0046,-1.2271,0.8446,0.4497,0.2614,-0.4551,1.1945,
19.357201,0.1438,1.0929,0.0197,-1.2271,0.8446,0.4497,0.2614,-0.4551,1.1945,
19.376997,0.1438,1.0929,0.0197,-2.5097,1.9899,0.3705,0.2614,-0.4551,1.1945,
19.380210,0.1438,1.0929,0.0197,-2.5097,1.9899,0.3705,0.3596,-0.5455,1.5154,
19.415251,0.2067,1.1212,-0.0952,-2.5097,1.9899,0.3705,0.3596,-0.5455,1.5154,
19.435820,0.2067,1.1212,-0.0952,-2.5097,1.9899,0.3705,0.4500,-0.8827,1.8375,
19.439248,0.2067,1.1212,-0.0952,-3.0525,2.9962,-0.2084,0.4500,-0.8827,1.8375,
19.473364,-0.3123,1.5526,-0.1465,-3.0525,2.9962,-0.2084,0.4500,-0.8827,1.8375,
19.497143,-0.3123,1.5526,-0.1465,-3.0525,2.9962,-0.2084,0.7171,-0.9831,2.1509,
19.499239,-0.3123,1.5526,-0.1465,-12.1315,8.6863,0.1842,0.7171,-0.9831,2.1509,
19.532454,-0.6051,1.5093,-0.1730,-12.1315,8.6863,0.1842,0.7171,-0.9831,2.1509,
19.550413,-0.6051,1.5093,-0.1730,-12.1315,8.6863,0.1842,0.6964,-2.6345,3.6608,
19.553052,-0.6051,1.5093,-0.1730,-4.9081,6.8400,1.0108,0.6964,-2.6345,3.6608,
19.589667,1.0603,1.1787,-0.2721,-4.9081,6.8400,1.0108,0.6964,-2.6345,3.6608,
19.613530,1.0603,1.1787,-0.2721,-4.9081,6.8400,1.0108,0.6648,-1.1134,2.3162,
19.617221,1.0603,1.1787,-0.2721,1.7331,3.5089,0.9113,0.6648,-1.1134,2.3162,
19.648112,0.5546,0.4302,-0.1434,1.7331,3.5089,0.9113,0.6648,-1.1134,2.3162,
19.668815,0.5546,0.4302,-0.1434,1.7331,3.5089,0.9113,-0.9053,0.1810,-0.7234,
19.672934,0.5546,0.4302,-0.1434,-3.8180,-3.7999,2.9200,-0.9053,0.1810,-0.7234,
19.706317,-0.0249,0.1642,-0.0199,-3.8180,-3.7999,2.9200,-0.9053,0.1810,-0.7234,
19.728583,-0.0249,0.1642,-0.0199,-3.8180,-3.7999,2.9200,-0.6946,-0.3586,-2.9051,
19.731207,-0.0249,0.1642,-0.0199,-5.7175,-4.0495,1.7480,-0.6946,-0.3586,-2.9051,
19.765121,0.2190,0.6095,-0.1707,-5.7175,-4.0495,1.7480,-0.6946,-0.3586,-2.9051,
19.786128,0.2190,0.6095,-0.1707,-5.7175,-4.0495,1.7480,-1.4329,-1.4184,-4.2820,
19.790023,0.2190,0.6095,-0.1707,-0.3352,-1.7754,1.0094,-1.4329,-1.4184,-4.2820,
19.823263,0.3111,0.8698,-0.2086,-0.3352,-1.7754,1.0094,-1.4329,-1.4184,-4.2820,
19.854597,0.3111,0.8698,-0.2086,-0.3352,-1.7754,1.0094,-2.2602,-0.9073,-5.2897,
19.857153,0.3111,0.8698,-0.2086,2.8034,0.4355,-1.0685,-2.2602,-0.9073,-5.2897,
19.881353,0.5320,1.3865,-0.4132,2.8034,0.4355,-1.0685,-2.2602,-0.9073,-5.2897,
19.900770,0.5320,1.3865,-0.4132,2.8034,0.4355,-1.0685,-2.4801,0.4673,-5.3555,
19.902898,0.5320,1.3865,-0.4132,8.7720,5.3969,-3.7440,-2.4801,0.4673,-5.3555,
19.939770,0.9253,1.4264,-0.2456,8.7720,5.3969,-3.7440,-2.4801,0.4673,-5.3555,
19.960661,0.9253,1.4264,-0.2456,8.7720,5.3969,-3.7440,-1.8269,1.5579,-3.2966,
19.963429,0.9253,1.4264,-0.2456,13.3060,3.9944,-1.9293,-1.8269,1.5579,-3.2966,
19.998528,0.8227,1.0659,-0.1363,13.3060,3.9944,-1.9293,-1.8269,1.5579,-3.2966,
20.018817,0.8227,1.0659,-0.1363,10.8247,1.0319,-2.8458,-1.8269,1.5579,-3.2966,
20.022106,0.8227,1.0659,-0.1363,10.8247,1.0319,-2.8458,-0.3718,1.6033,0.5742,
20.057595,-0.3776,1.2255,-0.4956,10.8247,1.0319,-2.8458,-0.3718,1.6033,0.5742,
20.080137,-0.3776,1.2255,-0.4956,10.8247,1.0319,-2.8458,-0.1153,3.1397,0.6030,
20.086545,-0.3776,1.2255,-0.4956,-8.8694,5.7630,-2.6613,-0.1153,3.1397,0.6030,
20.115726,-0.3335,1.4027,-0.3583,-8.8694,5.7630,-2.6613,-0.1153,3.1397,0.6030,
20.135973,-0.3335,1.4027,-0.3583,-8.8694,5.7630,-2.6613,0.0297,1.1173,2.8412,
20.139085,-0.3335,1.4027,-0.3583,4.6364,-0.0024,-0.8723,0.0297,1.1173,2.8412,
20.173419,-0.0235,0.8365,0.3854,4.6364,-0.0024,-0.8723,0.0297,1.1173,2.8412,
20.192385,-0.0235,0.8365,0.3854,4.6364,-0.0024,-0.8723,0.2044,-0.2712,1.7799,
20.195568,-0.0235,0.8365,0.3854,0.9364,0.0676,1.8229,0.2044,-0.2712,1.7799,
20.233438,0.2619,1.0492,-0.2442,0.9364,0.0676,1.8229,0.2044,-0.2712,1.7799,
20.253820,0.2619,1.0492,-0.2442,0.9364,0.0676,1.8229,0.1203,0.5023,0.9890,
20.256848,0.2619,1.0492,-0.2442,1.2532,0.3259,-1.0012,0.1203,0.5023,0.9890,
20.289846,-0.0312,1.0005,-0.0183,1.2532,0.3259,-1.0012,0.1203,0.5023,0.9890,
20.313975,-0.0312,1.0005,-0.0183,1.2532,0.3259,-1.0012,0.0142,0.5879,0.7636,
20.317918,-0.0312,1.0005,-0.0183,-0.9349,0.1547,0.8944,0.0142,0.5879,0.7636,
20.347874,0.0484,0.9811,-0.0490,-0.9349,0.1547,0.8944,0.0142,0.5879,0.7636,
20.367600,0.0484,0.9811,-0.0490,-0.9349,0.1547,0.8944,0.0977,0.1279,0.8778,
20.369669,0.0484,0.9811,-0.0490,-0.1660,0.1541,0.2739,0.0977,0.1279,0.8778,
20.407365,0.0137,1.0025,-0.0169,-0.1660,0.1541,0.2739,0.0977,0.1279,0.8778,
20.429171,0.0137,1.0025,-0.0169,-0.1660,0.1541,0.2739,0.2405,0.1096,0.9854,
20.432987,0.0137,1.0025,-0.0169,-1.4244,0.2336,0.9113,0.2405,0.1096,0.9854,
20.466789,0.0486,1.0239,-0.0709,-1.4244,0.2336,0.9113,0.2405,0.1096,0.9854,
20.486393,0.0486,1.0239,-0.0709,-1.4244,0.2336,0.9113,0.3191,-0.4302,1.2733,
20.489187,0.0486,1.0239,-0.0709,-1.6443,0.7061,0.0764,0.3191,-0.4302,1.2733,
20.524055,0.1183,1.0385,-0.1109,-1.6443,0.7061,0.0764,0.3191,-0.4302,1.2733,
20.546369,0.1183,1.0385,-0.1109,-1.6443,0.7061,0.0764,0.5449,-0.3127,1.6683,
20.549460,0.1183,1.0385,-0.1109,-1.9517,1.4743,0.9297,0.5449,-0.3127,1.6683,
20.583278,0.0056,1.2681,-0.0390,-1.9517,1.4743,0.9297,0.5449,-0.3127,1.6683,
20.601804,0.0056,1.2681,-0.0390,-1.9517,1.4743,0.9297,1.0138,-0.4378,2.2409,
20.604233,0.0056,1.2681,-0.0390,-4.7048,5.7910,1.1143,1.0138,-0.4378,2.2409,
20.640326,-0.6000,1.9331,-0.2267,-4.7048,5.7910,1.1143,1.0138,-0.4378,2.2409,
20.660355,-0.6000,1.9331,-0.2267,-4.7048,5.7910,1.1143,1.4249,-1.3258,2.8404,
20.663841,-0.6000,1.9331,-0.2267,-13.6273,10.8894,0.9405,1.4249,-1.3258,2.8404,
20.701136,-0.0844,1.2548,-0.1961,-13.6273,10.8894,0.9405,1.4249,-1.3258,2.8404,
20.719022,-0.0844,1.2548,-0.1961,0.5804,3.6115,2.3236,1.4249,-1.3258,2.8404,
20.721590,-0.0844,1.2548,-0.1961,0.5804,3.6115,2.3236,1.2439,-2.6882,3.6868,
20.756461,0.9774,0.7026,-0.4159,0.5804,3.6115,2.3236,1.2439,-2.6882,3.6868,
20.777101,0.9774,0.7026,-0.4159,0.5804,3.6115,2.3236,0.1900,-0.0802,1.2389,
20.779806,0.9774,0.7026,-0.4159,0.5968,-1.0763,0.0289,0.1900,-0.0802,1.2389,
20.815532,0.2604,0.2198,-0.2088,0.5968,-1.0763,0.0289,0.1900,-0.0802,1.2389,
20.835486,0.2604,0.2198,-0.2088,0.5968,-1.0763,0.0289,-1.6775,0.8349,-1.3080,
20.839081,0.2604,0.2198,-0.2088,-5.0022,-5.2434,2.8363,-1.6775,0.8349,-1.3080,
20.873274,0.0355,0.1916,-0.1183,-5.0022,-5.2434,2.8363,-1.6775,0.8349,-1.3080,
20.892980,0.0355,0.1916,-0.1183,-5.0022,-5.2434,2.8363,-1.9823,0.0652,-2.9710,
20.897412,0.0355,0.1916,-0.1183,-3.6145,-5.0854,1.0417,-1.9823,0.0652,-2.9710,
20.933283,0.1232,0.4956,-0.1587,-3.6145,-5.0854,1.0417,-1.9823,0.0652,-2.9710,
20.954072,0.1232,0.4956,-0.1587,-3.6145,-5.0854,1.0417,-2.2655,-0.8670,-4.7163,
20.958070,0.1232,0.4956,-0.1587,-1.2523,-3.1753,0.4147,-2.2655,-0.8670,-4.7163,
20.989488,0.0902,1.0438,-0.3136,-1.2523,-3.1753,0.4147,-2.2655,-0.8670,-4.7163,
21.010530,0.0902,1.0438,-0.3136,-1.2523,-3.1753,0.4147,-2.5846,-1.0517,-5.4467,
21.014257,0.0902,1.0438,-0.3136,2.9193,4.5029,-3.6360,-2.5846,-1.0517,-5.4467,
21.052333,0.5145,1.8277,-0.4732,2.9193,4.5029,-3.6360,-2.5846,-1.0517,-5.4467,
21.070758,0.5145,1.8277,-0.4732,2.9193,4.5029,-3.6360,-2.6577,0.0546,-4.9676,
21.074211,0.5145,1.8277,-0.4732,8.6558,7.2055,-4.3309,-2.6577,0.0546,-4.9676,
21.105995,0.5506,1.2124,-0.1174,8.6558,7.2055,-4.3309,-2.6577,0.0546,-4.9676,
21.126287,0.5506,1.2124,-0.1174,9.5778,2.0465,-2.7336,-2.6577,0.0546,-4.9676,
21.129810,0.5506,1.2124,-0.1174,9.5778,2.0465,-2.7336,-1.1735,0.9713,-1.8206,
21.166132,0.4858,0.9734,-0.2202,9.5778,2.0465,-2.7336,-1.1735,0.9713,-1.8206,
21.186881,0.4858,0.9734,-0.2202,9.5778,2.0465,-2.7336,0.2008,1.2181,1.5013,
21.190626,0.4858,0.9734,-0.2202,6.2662,1.4521,-3.7259,0.2008,1.2181,1.5013,
21.223234,-1.1440,1.4387,0.0995,6.2662,1.4521,-3.7259,0.2008,1.2181,1.5013,
21.242277,-1.1440,1.4387,0.0995,6.2662,1.4521,-3.7259,0.0607,1.9167,1.1468,
21.244494,-1.1440,1.4387,0.0995,-6.4892,6.2022,0.8847,0.0607,1.9167,1.1468,
21.282819,0.2829,1.1067,-0.3936,-6.4892,6.2022,0.8847,0.0607,1.9167,1.1468,
21.302204,0.2829,1.1067,-0.3936,-6.4892,6.2022,0.8847,0.3457,0.4769,2.2171,
21.305512,0.2829,1.1067,-0.3936,3.3983,-1.1385,-1.8576,0.3457,0.4769,2.2171,
21.339269,0.1042,0.9563,0.1188,3.3983,-1.1385,-1.8576,0.3457,0.4769,2.2171,
21.358370,0.1042,0.9563,0.1188,3.3983,-1.1385,-1.8576,0.0489,0.0939,1.0963,
21.359479,0.1042,0.9563,0.1188,1.5248,0.3219,-0.1051,0.0489,0.0939,1.0963,
21.398719,-0.1057,1.0357,-0.0365,1.5248,0.3219,-0.1051,0.0489,0.0939,1.0963,
21.417678,-0.1057,1.0357,-0.0365,1.5248,0.3219,-0.1051,-0.0766,-0.0069,0.7117,
21.421301,-0.1057,1.0357,-0.0365,-0.3263,0.5374,-0.1787,-0.0766,-0.0069,0.7117,
21.457294,-0.1314,1.0068,0.0973,-0.3263,0.5374,-0.1787,-0.0766,-0.0069,0.7117,
21.475929,-0.1314,1.0068,0.0973,-0.3263,0.5374,-0.1787,0.0586,-0.0936,0.7628,
21.477205,-0.1314,1.0068,0.0973,-0.8047,0.1169,1.0323,0.0586,-0.0936,0.7628,
21.517548,-0.0133,0.9828,0.0829,-0.8047,0.1169,1.0323,0.0586,-0.0936,0.7628,
21.535025,-0.0133,0.9828,0.0829,-0.8047,0.1169,1.0323,0.2115,-0.1480,0.8597,
21.538350,-0.0133,0.9828,0.0829,-0.3074,-0.0619,0.7276,0.2115,-0.1480,0.8597,
21.572528,-0.0282,0.9865,0.0882,-0.3074,-0.0619,0.7276,0.2115,-0.1480,0.8597,
21.593202,-0.0282,0.9865,0.0882,-0.3074,-0.0619,0.7276,0.3468,-0.0275,0.9843,
21.598004,-0.0282,0.9865,0.0882,-0.6548,-0.0227,0.9872,0.3468,-0.0275,0.9843,
21.632309,0.0973,0.9660,0.0061,-0.6548,-0.0227,0.9872,0.3468,-0.0275,0.9843,
21.651307,0.0973,0.9660,0.0061,-0.6548,-0.0227,0.9872,0.3832,-0.1621,1.0143,
21.655090,0.0973,0.9660,0.0061,-0.2409,-0.1956,0.2185,0.3832,-0.1621,1.0143,
21.690688,0.1462,0.9780,-0.0655,-0.2409,-0.1956,0.2185,0.3832,-0.1621,1.0143,
21.709760,0.1462,0.9780,-0.0655,-0.2409,-0.1956,0.2185,0.3201,-0.3490,0.9937,
21.713253,0.1462,0.9780,-0.0655,-0.0634,0.1692,-0.0787,0.3201,-0.3490,0.9937,
21.748306,0.1953,0.9810,-0.0300,-0.0634,0.1692,-0.0787,0.3201,-0.3490,0.9937,
21.768768,0.1953,0.9810,-0.0300,-0.0634,0.1692,-0.0787,0.2926,-0.5640,0.9285,
21.772248,0.1953,0.9810,-0.0300,-0.5375,0.3344,0.6420,0.2926,-0.5640,0.9285,
21.806169,0.1519,1.0244,-0.0212,-0.5375,0.3344,0.6420,0.2926,-0.5640,0.9285,
21.826237,0.1519,1.0244,-0.0212,-0.5375,0.3344,0.6420,0.3449,-0.9470,1.1381,
21.829327,0.1519,1.0244,-0.0212,-1.8218,1.1731,1.0055,0.3449,-0.9470,1.1381,
21.866724,-0.0690,1.2831,0.0090,-1.8218,1.1731,1.0055,0.3449,-0.9470,1.1381,
21.885369,-0.0690,1.2831,0.0090,-4.8948,6.2583,1.5976,0.3449,-0.9470,1.1381,
21.889770,-0.0690,1.2831,0.0090,-4.8948,6.2583,1.5976,0.2753,-1.6400,1.9049,
21.923143,-0.0372,1.6988,-0.1447,-4.8948,6.2583,1.5976,0.2753,-1.6400,1.9049,
21.942864,-0.0372,1.6988,-0.1447,-4.8948,6.2583,1.5976,-0.3150,-3.0708,2.6907,
21.946667,-0.0372,1.6988,-0.1447,-2.6437,5.4888,0.3125,-0.3150,-3.0708,2.6907,
21.985176,0.7965,0.7952,-0.1916,-2.6437,5.4888,0.3125,-0.3150,-3.0708,2.6907,
22.000400,0.7965,0.7952,-0.1916,2.4789,-2.0849,0.1135,-0.3150,-3.0708,2.6907,
22.003831,0.7965,0.7952,-0.1916,2.4789,-2.0849,0.1135,-2.0220,-3.6467,2.4443,
22.039962,0.2581,0.3503,-0.3961,2.4789,-2.0849,0.1135,-2.0220,-3.6467,2.4443,
22.059610,0.2581,0.3503,-0.3961,2.4789,-2.0849,0.1135,-3.1205,-3.7493,0.9957,
22.063339,0.2581,0.3503,-0.3961,-4.8514,-4.5077,-3.4547,-3.1205,-3.7493,0.9957,
22.099217,0.0488,0.4030,-0.7982,-4.8514,-4.5077,-3.4547,-3.1205,-3.7493,0.9957,
22.118516,0.0488,0.4030,-0.7982,-4.8514,-4.5077,-3.4547,-3.2735,-4.3984,0.5009,
22.122533,0.0488,0.4030,-0.7982,-3.6414,-3.9612,-5.9364,-3.2735,-4.3984,0.5009,
22.156813,0.0196,0.5482,-0.7887,-3.6414,-3.9612,-5.9364,-3.2735,-4.3984,0.5009,
22.176436,0.0196,0.5482,-0.7887,-4.5434,-2.2261,-6.1304,-3.2735,-4.3984,0.5009,
22.180382,0.0196,0.5482,-0.7887,-4.5434,-2.2261,-6.1304,-3.0090,-4.3889,-1.0492,
22.215042,-0.1048,0.9072,-0.7550,-4.5434,-2.2261,-6.1304,-3.0090,-4.3889,-1.0492,
22.233938,-0.1048,0.9072,-0.7550,-4.5434,-2.2261,-6.1304,-2.3541,-4.7269,-1.7831,
22.236413,-0.1048,0.9072,-0.7550,-2.9587,0.5181,-5.5632,-2.3541,-4.7269,-1.7831,
22.274055,0.0215,1.0342,-0.6583,-2.9587,0.5181,-5.5632,-2.3541,-4.7269,-1.7831,
22.293943,0.0215,1.0342,-0.6583,-2.9587,0.5181,-5.5632,-1.6770,-4.4579,-2.3365,
22.296720,0.0215,1.0342,-0.6583,-0.5328,1.0429,-5.0508,-1.6770,-4.4579,-2.3365,
22.331300,0.0342,1.1844,-0.4948,-0.5328,1.0429,-5.0508,-1.6770,-4.4579,-2.3365,
22.354543,0.0342,1.1844,-0.4948,-0.5328,1.0429,-5.0508,-0.9648,-3.4948,-2.7251,
22.356617,0.0342,1.1844,-0.4948,1.1095,2.1381,-3.3731,-0.9648,-3.4948,-2.7251,
22.389457,0.0138,1.1947,-0.3145,1.1095,2.1381,-3.3731,-0.9648,-3.4948,-2.7251,
22.408753,0.0138,1.1947,-0.3145,1.1095,2.1381,-3.3731,-0.2690,-3.0091,-2.1991,
22.410994,0.0138,1.1947,-0.3145,2.4102,1.9577,-2.3965,-0.2690,-3.0091,-2.1991,
22.454300,0.1104,1.0389,-0.1729,2.4102,1.9577,-2.3965,-0.2690,-3.0091,-2.1991,
22.468844,0.1104,1.0389,-0.1729,2.4102,1.9577,-2.3965,0.2065,-2.2457,-0.9238,
22.472337,0.1104,1.0389,-0.1729,3.9106,0.3048,-1.4566,0.2065,-2.2457,-0.9238,
22.506299,0.1339,0.9111,-0.1020,3.9106,0.3048,-1.4566,0.2065,-2.2457,-0.9238,
22.525715,0.1339,0.9111,-0.1020,3.9106,0.3048,-1.4566,0.6337,-1.2903,0.1782,
22.528130,0.1339,0.9111,-0.1020,3.6673,-0.6172,-0.3958,0.6337,-1.2903,0.1782,
22.564994,0.1649,0.8751,0.0531,3.6673,-0.6172,-0.3958,0.6337,-1.2903,0.1782,
22.584737,0.1649,0.8751,0.0531,3.6673,-0.6172,-0.3958,0.6760,-0.8183,0.9149,
22.587725,0.1649,0.8751,0.0531,3.5987,-0.9049,1.7604,0.6760,-0.8183,0.9149,
22.623947,0.1413,0.8844,0.3084,3.5987,-0.9049,1.7604,0.6760,-0.8183,0.9149,
22.643762,0.1413,0.8844,0.3084,3.5987,-0.9049,1.7604,0.2545,-1.2093,0.8442,
22.646782,0.1413,0.8844,0.3084,0.5248,-0.8962,4.1937,0.2545,-1.2093,0.8442,
22.681019,-0.6103,1.4766,0.4479,0.5248,-0.8962,4.1937,0.2545,-1.2093,0.8442,
22.701178,-0.6103,1.4766,0.4479,0.5248,-0.8962,4.1937,-0.1096,-0.5766,0.5486,
22.704718,-0.6103,1.4766,0.4479,-2.1819,7.4966,0.7174,-0.1096,-0.5766,0.5486,
22.741607,0.0482,0.9523,-0.5613,-2.1819,7.4966,0.7174,-0.1096,-0.5766,0.5486,
22.759017,0.0482,0.9523,-0.5613,-2.1819,7.4966,0.7174,0.0026,0.8526,1.0470,
22.760736,0.0482,0.9523,-0.5613,0.3479,-2.3634,-2.8896,0.0026,0.8526,1.0470,
22.798121,0.0158,1.0852,0.2074,0.3479,-2.3634,-2.8896,0.0026,0.8526,1.0470,
22.820086,0.0158,1.0852,0.2074,0.3479,-2.3634,-2.8896,-0.3971,0.2989,0.6502,
22.824421,0.0158,1.0852,0.2074,-0.7920,0.4811,2.8249,-0.3971,0.2989,0.6502,
22.855796,-0.0457,1.0115,-0.0129,-0.7920,0.4811,2.8249,-0.3971,0.2989,0.6502,
22.876130,-0.0457,1.0115,-0.0129,-0.7920,0.4811,2.8249,-0.2159,-0.8022,0.7314,
22.878455,-0.0457,1.0115,-0.0129,0.9558,0.5873,-0.7768,-0.2159,-0.8022,0.7314,
22.916041,0.0754,0.9940,0.0353,0.9558,0.5873,-0.7768,-0.2159,-0.8022,0.7314,
22.935051,0.0754,0.9940,0.0353,-0.6608,0.0027,0.8352,-0.2159,-0.8022,0.7314,
22.939285,0.0754,0.9940,0.0353,-0.6608,0.0027,0.8352,-0.2374,-0.0108,0.3543,
22.973103,0.0107,0.9990,0.0844,-0.6608,0.0027,0.8352,-0.2374,-0.0108,0.3543,
22.993182,0.0107,0.9990,0.0844,-0.6608,0.0027,0.8352,-0.1079,-0.5210,0.4173,
22.996933,0.0107,0.9990,0.0844,-0.0542,0.2108,0.2678,-0.1079,-0.5210,0.4173,
23.032903,0.0424,1.0043,0.0637,-0.0542,0.2108,0.2678,-0.1079,-0.5210,0.4173,
23.051498,0.0424,1.0043,0.0637,-0.0542,0.2108,0.2678,-0.0377,-0.2209,0.3806,
23.055442,0.0424,1.0043,0.0637,-0.9377,0.0366,0.6262,-0.0377,-0.2209,0.3806,
23.089524,0.0189,1.0049,0.0679,-0.9377,0.0366,0.6262,-0.0377,-0.2209,0.3806,
23.110117,0.0189,1.0049,0.0679,-0.9377,0.0366,0.6262,0.0334,-0.3698,0.5641,
23.114304,0.0189,1.0049,0.0679,-0.7728,0.2543,0.2218,0.0334,-0.3698,0.5641,
23.147519,0.0546,0.9921,0.0694,-0.7728,0.2543,0.2218,0.0334,-0.3698,0.5641,
23.168060,0.0546,0.9921,0.0694,-0.7728,0.2543,0.2218,0.0717,-0.1863,0.7424,
23.169677,0.0546,0.9921,0.0694,-0.8790,0.1120,0.7889,0.0717,-0.1863,0.7424,
23.206802,0.0685,1.0260,0.0539,-0.8790,0.1120,0.7889,0.0717,-0.1863,0.7424,
23.227268,0.0685,1.0260,0.0539,-0.8790,0.1120,0.7889,0.1228,-0.3201,0.9236,
23.230424,0.0685,1.0260,0.0539,-1.0586,0.7352,0.0041,0.1228,-0.3201,0.9236,
23.265026,0.1635,1.0183,0.0177,-1.0586,0.7352,0.0041,0.1228,-0.3201,0.9236,
23.285866,0.1635,1.0183,0.0177,-1.2196,0.7120,0.6086,0.1228,-0.3201,0.9236,
23.288889,0.1635,1.0183,0.0177,-1.2196,0.7120,0.6086,0.1613,-0.3209,1.0819,
23.324045,0.0275,1.0819,0.0949,-1.2196,0.7120,0.6086,0.1613,-0.3209,1.0819,
23.343189,0.0275,1.0819,0.0949,-1.2196,0.7120,0.6086,0.3826,-0.6452,1.5201,
23.347724,0.0275,1.0819,0.0949,-3.4532,1.7289,1.5179,0.3826,-0.6452,1.5201,
23.383088,0.0575,1.1945,0.0854,-3.4532,1.7289,1.5179,0.3826,-0.6452,1.5201,
23.401131,0.0575,1.1945,0.0854,-3.4532,1.7289,1.5179,0.6031,-1.3158,2.2716,
23.403712,0.0575,1.1945,0.0854,-4.3120,4.3684,1.5032,0.6031,-1.3158,2.2716,
23.439757,-0.3812,1.7142,-0.0142,-4.3120,4.3684,1.5032,0.6031,-1.3158,2.2716,
23.458877,-0.3812,1.7142,-0.0142,-4.3120,4.3684,1.5032,0.7986,-2.0724,2.9919,
23.461256,-0.3812,1.7142,-0.0142,-12.3332,10.2463,1.3401,0.7986,-2.0724,2.9919,
23.497425,-0.3388,1.4844,-0.2310,-12.3332,10.2463,1.3401,0.7986,-2.0724,2.9919,
23.519103,-0.3388,1.4844,-0.2310,-12.3332,10.2463,1.3401,0.5960,-3.8601,4.1786,
23.520974,-0.3388,1.4844,-0.2310,-2.2917,4.8522,0.3252,0.5960,-3.8601,4.1786,
23.555496,1.1127,0.7677,-0.5368,-2.2917,4.8522,0.3252,0.5960,-3.8601,4.1786,
23.575788,1.1127,0.7677,-0.5368,-2.2917,4.8522,0.3252,-0.1320,-1.1197,2.2319,
23.578886,1.1127,0.7677,-0.5368,2.1035,-0.0166,-2.4422,-0.1320,-1.1197,2.2319,
23.614585,0.4497,0.1674,-0.5337,2.1035,-0.0166,-2.4422,-0.1320,-1.1197,2.2319,
23.637969,0.4497,0.1674,-0.5337,2.1035,-0.0166,-2.4422,-2.6652,0.7589,-0.6931,
23.642497,0.4497,0.1674,-0.5337,-6.4850,-5.3929,-1.1813,-2.6652,0.7589,-0.6931,
23.672442,-0.3033,0.1946,-0.5279,-6.4850,-5.3929,-1.1813,-2.6652,0.7589,-0.6931,
23.692647,-0.3033,0.1946,-0.5279,-6.4850,-5.3929,-1.1813,-3.0167,-0.3679,-2.2810,
23.696798,-0.3033,0.1946,-0.5279,-7.1129,-4.0077,-4.3059,-3.0167,-0.3679,-2.2810,
23.731776,0.0089,0.5696,-0.6611,-7.1129,-4.0077,-4.3059,-3.0167,-0.3679,-2.2810,
23.753493,0.0089,0.5696,-0.6611,-7.1129,-4.0077,-4.3059,-2.9690,-2.3317,-3.9077,
23.757689,0.0089,0.5696,-0.6611,-4.3682,-2.3580,-5.1745,-2.9690,-2.3317,-3.9077,
23.788990,-0.1170,0.9003,-0.6719,-4.3682,-2.3580,-5.1745,-2.9690,-2.3317,-3.9077,
23.810069,-0.1170,0.9003,-0.6719,-4.3682,-2.3580,-5.1745,-2.3347,-3.4013,-4.6021,
23.812840,-0.1170,0.9003,-0.6719,-1.0714,1.3008,-6.9165,-2.3347,-3.4013,-4.6021,
23.847278,0.4082,1.4407,-0.6830,-1.0714,1.3008,-6.9165,-2.3347,-3.4013,-4.6021,
23.867918,0.4082,1.4407,-0.6830,6.1243,5.3414,-5.9016,-2.3347,-3.4013,-4.6021,
23.869867,0.4082,1.4407,-0.6830,6.1243,5.3414,-5.9016,-2.2431,-1.5923,-5.0002,
23.907515,0.3263,1.4096,-0.2731,6.1243,5.3414,-5.9016,-2.2431,-1.5923,-5.0002,
23.925256,0.3263,1.4096,-0.2731,6.1243,5.3414,-5.9016,-1.2900,-1.0413,-3.3734,
23.927363,0.3263,1.4096,-0.2731,7.1811,3.5196,-3.3659,-1.2900,-1.0413,-3.3734,
23.963990,0.7417,1.0362,-0.1820,7.1811,3.5196,-3.3659,-1.2900,-1.0413,-3.3734,
23.987463,0.7417,1.0362,-0.1820,7.1811,3.5196,-3.3659,0.0660,-0.4602,-0.0497,
23.990917,0.7417,1.0362,-0.1820,10.5796,0.7272,-2.6188,0.0660,-0.4602,-0.0497,
24.025647,0.1574,1.2279,0.1839,10.5796,0.7272,-2.6188,0.0660,-0.4602,-0.0497,
24.042437,0.1574,1.2279,0.1839,10.5796,0.7272,-2.6188,-0.2586,0.7408,1.0521,
24.045642,0.1574,1.2279,0.1839,-2.6252,5.6117,4.1322,-0.2586,0.7408,1.0521,
24.080840,-0.3314,1.3753,-0.1623,-2.6252,5.6117,4.1322,-0.2586,0.7408,1.0521,
24.100830,-0.3314,1.3753,-0.1623,2.5123,0.5990,-5.9887,-0.2586,0.7408,1.0521,
24.104140,-0.3314,1.3753,-0.1623,2.5123,0.5990,-5.9887,0.9935,0.6056,2.2832,
24.145357,0.1345,0.9375,0.1791,2.5123,0.5990,-5.9887,0.9935,0.6056,2.2832,
24.158848,0.1345,0.9375,0.1791,2.5123,0.5990,-5.9887,0.1462,0.1430,1.4327,
24.160537,0.1345,0.9375,0.1791,2.4569,-0.0092,1.0743,0.1462,0.1430,1.4327,
24.197485,0.0169,1.0205,0.0412,2.4569,-0.0092,1.0743,0.1462,0.1430,1.4327,
24.221988,0.0169,1.0205,0.0412,-0.2179,0.5251,-0.4655,0.1462,0.1430,1.4327,
24.223828,0.0169,1.0205,0.0412,-0.2179,0.5251,-0.4655,0.0653,0.0088,0.8166,
24.256247,0.0117,1.0157,0.0886,-0.2179,0.5251,-0.4655,0.0653,0.0088,0.8166,
24.276037,0.0117,1.0157,0.0886,-0.8797,0.2525,0.5999,0.0653,0.0088,0.8166,
24.279114,0.0117,1.0157,0.0886,-0.8797,0.2525,0.5999,0.0888,0.2193,0.7286,
24.316078,-0.0586,0.9845,0.1686,-0.8797,0.2525,0.5999,0.0888,0.2193,0.7286,
24.337350,-0.0586,0.9845,0.1686,-0.5153,-0.1512,0.7939,0.0888,0.2193,0.7286,
24.340362,-0.0586,0.9845,0.1686,-0.5153,-0.1512,0.7939,0.2421,-0.1696,0.9646,
24.372324,0.0754,1.0035,0.0575,-0.5153,-0.1512,0.7939,0.2421,-0.1696,0.9646,
24.393746,0.0754,1.0035,0.0575,-0.5153,-0.1512,0.7939,0.2531,-0.1553,0.9554,
24.396874,0.0754,1.0035,0.0575,-0.8166,0.3093,0.0169,0.2531,-0.1553,0.9554,
24.430941,0.1395,0.9911,0.0365,-0.8166,0.3093,0.0169,0.2531,-0.1553,0.9554,
24.455341,0.1395,0.9911,0.0365,-0.8166,0.3093,0.0169,0.2197,-0.2871,1.0403,
24.459167,0.1395,0.9911,0.0365,-0.4919,0.2708,0.1513,0.2197,-0.2871,1.0403,
24.489266,0.1008,1.0156,0.0065,-0.4919,0.2708,0.1513,0.2197,-0.2871,1.0403,
24.510739,0.1008,1.0156,0.0065,-1.5659,0.4961,0.2290,0.2197,-0.2871,1.0403,
24.513768,0.1008,1.0156,0.0065,-1.5659,0.4961,0.2290,0.1535,-0.6005,1.2171,
24.548297,0.2285,1.0265,0.0995,-1.5659,0.4961,0.2290,0.1535,-0.6005,1.2171,
24.570603,0.2285,1.0265,0.0995,-1.5659,0.4961,0.2290,0.2297,-0.7742,1.4388,
24.573771,0.2285,1.0265,0.0995,-1.2087,1.2227,0.8735,0.2297,-0.7742,1.4388,
24.606144,0.1462,1.0938,-0.0212,-1.2087,1.2227,0.8735,0.2297,-0.7742,1.4388,
24.626589,0.1462,1.0938,-0.0212,-1.2087,1.2227,0.8735,0.4009,-0.9515,1.7982,
24.629735,0.1462,1.0938,-0.0212,-2.7389,2.2744,-0.0018,0.4009,-0.9515,1.7982,
24.669162,-0.0139,1.4142,-0.0820,-2.7389,2.2744,-0.0018,0.4009,-0.9515,1.7982,
24.684141,-0.0139,1.4142,-0.0820,-2.7389,2.2744,-0.0018,0.5689,-1.5231,2.2610,
24.685507,-0.0139,1.4142,-0.0820,-8.3747,8.5845,0.7510,0.5689,-1.5231,2.2610,
24.723424,-0.8242,1.8246,-0.1079,-8.3747,8.5845,0.7510,0.5689,-1.5231,2.2610,
24.743713,-0.8242,1.8246,-0.1079,-8.3747,8.5845,0.7510,0.4934,-3.7352,3.3193,
24.747222,-0.8242,1.8246,-0.1079,-10.3674,7.4308,0.6411,0.4934,-3.7352,3.3193,
24.785222,0.9177,0.9855,-0.4158,-10.3674,7.4308,0.6411,0.4934,-3.7352,3.3193,
24.800226,0.9177,0.9855,-0.4158,-10.3674,7.4308,0.6411,0.3402,-3.0388,3.2077,
24.802502,0.9177,0.9855,-0.4158,3.7670,2.1687,-0.5485,0.3402,-3.0388,3.2077,
24.847715,0.7541,0.3435,-0.4861,3.7670,2.1687,-0.5485,0.3402,-3.0388,3.2077,
24.860270,0.7541,0.3435,-0.4861,-1.1826,-4.2945,-0.4271,0.3402,-3.0388,3.2077,
24.863341,0.7541,0.3435,-0.4861,-1.1826,-4.2945,-0.4271,-1.6117,-0.2618,0.5394,
24.897759,-0.0714,0.0762,-0.1879,-1.1826,-4.2945,-0.4271,-1.6117,-0.2618,0.5394,
24.918190,-0.0714,0.0762,-0.1879,-1.1826,-4.2945,-0.4271,-2.2384,0.3922,-2.0841,
24.921153,-0.0714,0.0762,-0.1879,-7.8409,-5.7493,0.5866,-2.2384,0.3922,-2.0841,
24.956770,0.0369,0.3810,-0.3221,-7.8409,-5.7493,0.5866,-2.2384,0.3922,-2.0841,
24.976427,0.0369,0.3810,-0.3221,-7.8409,-5.7493,0.5866,-2.2806,-0.8483,-3.6744,
24.980531,0.0369,0.3810,-0.3221,-3.2360,-3.8260,-1.3365,-2.2806,-0.8483,-3.6744,
25.015814,0.0544,0.6750,-0.2462,-3.2360,-3.8260,-1.3365,-2.2806,-0.8483,-3.6744,
25.035444,0.0544,0.6750,-0.2462,-3.2360,-3.8260,-1.3365,-2.4787,-1.6829,-5.0502,
25.038965,0.0544,0.6750,-0.2462,-0.7364,-0.9509,-1.8610,-2.4787,-1.6829,-5.0502,
25.072294,0.2206,1.5776,-0.3703,-0.7364,-0.9509,-1.8610,-2.4787,-1.6829,-5.0502,
25.091284,0.2206,1.5776,-0.3703,-0.7364,-0.9509,-1.8610,-2.8774,-1.7666,-5.2606,
25.093621,0.2206,1.5776,-0.3703,4.9865,8.2548,-5.0312,-2.8774,-1.7666,-5.2606,
25.131465,0.5564,1.5501,-0.3361,4.9865,8.2548,-5.0312,-2.8774,-1.7666,-5.2606,
25.149990,0.5564,1.5501,-0.3361,4.9865,8.2548,-5.0312,-1.8856,-2.0578,-2.7774,
25.151737,0.5564,1.5501,-0.3361,9.0060,3.8613,-4.9008,-1.8856,-2.0578,-2.7774,
25.190324,0.7510,0.8851,-0.6824,9.0060,3.8613,-4.9008,-1.8856,-2.0578,-2.7774,
25.214695,0.7510,0.8851,-0.6824,8.3616,1.3367,-8.6958,-1.8856,-2.0578,-2.7774,
25.217144,0.7510,0.8851,-0.6824,8.3616,1.3367,-8.6958,0.3189,-0.7006,0.9019,
25.247063,-0.4568,1.6355,-0.0518,8.3616,1.3367,-8.6958,0.3189,-0.7006,0.9019,
25.266934,-0.4568,1.6355,-0.0518,8.3616,1.3367,-8.6958,0.6899,3.4810,1.2824,
25.268855,-0.4568,1.6355,-0.0518,-2.7714,4.7854,-0.1004,0.6899,3.4810,1.2824,
25.306526,-0.1526,0.8958,0.1441,-2.7714,4.7854,-0.1004,0.6899,3.4810,1.2824,
25.329394,-0.1526,0.8958,0.1441,-2.7714,4.7854,-0.1004,0.5392,-0.3068,1.6331,
25.332445,-0.1526,0.8958,0.1441,-1.1055,-0.9386,0.3945,0.5392,-0.3068,1.6331,
25.365165,0.4331,1.0769,-0.1404,-1.1055,-0.9386,0.3945,0.5392,-0.3068,1.6331,
25.385691,0.4331,1.0769,-0.1404,2.9669,0.5060,-1.5076,0.5392,-0.3068,1.6331,
25.389239,0.4331,1.0769,-0.1404,2.9669,0.5060,-1.5076,0.1879,-0.0770,0.8534,
25.426530,-0.0929,1.0345,0.0576,2.9669,0.5060,-1.5076,0.1879,-0.0770,0.8534,
25.443311,-0.0929,1.0345,0.0576,2.9669,0.5060,-1.5076,0.0226,0.1269,0.4667,
25.447818,-0.0929,1.0345,0.0576,-0.6521,0.4012,0.3787,0.0226,0.1269,0.4667,
25.482283,0.0097,0.9935,0.1056,-0.6521,0.4012,0.3787,0.0226,0.1269,0.4667,
25.500989,0.0097,0.9935,0.1056,-0.6521,0.4012,0.3787,0.0770,-0.3160,0.4981,
25.503563,0.0097,0.9935,0.1056,-0.2135,0.0551,0.5206,0.0770,-0.3160,0.4981,
25.539841,-0.0127,0.9818,0.1305,-0.2135,0.0551,0.5206,0.0770,-0.3160,0.4981,
25.560085,-0.0127,0.9818,0.1305,-0.2135,0.0551,0.5206,0.1934,-0.1727,0.5728,
25.565502,-0.0127,0.9818,0.1305,-0.8312,0.0765,0.5862,0.1934,-0.1727,0.5728,
25.600496,0.0233,0.9847,0.0908,-0.8312,0.0765,0.5862,0.1934,-0.1727,0.5728,
25.617755,0.0233,0.9847,0.0908,-0.8312,0.0765,0.5862,0.3258,-0.3115,0.7384,
25.620227,0.0233,0.9847,0.0908,-0.6924,-0.0615,0.5833,0.3258,-0.3115,0.7384,
25.656830,0.1090,0.9848,0.0201,-0.6924,-0.0615,0.5833,0.3258,-0.3115,0.7384,
25.676529,0.1090,0.9848,0.0201,-0.0389,0.1000,-0.1309,0.3258,-0.3115,0.7384,
25.682019,0.1090,0.9848,0.0201,-0.0389,0.1000,-0.1309,0.3451,-0.3009,0.8151,
25.715923,0.1778,0.9785,-0.0184,-0.0389,0.1000,-0.1309,0.3451,-0.3009,0.8151,
25.735233,0.1778,0.9785,-0.0184,-0.0389,0.1000,-0.1309,0.2726,-0.2828,0.7455,
25.737716,0.1778,0.9785,-0.0184,0.0036,0.0910,0.0266,0.2726,-0.2828,0.7455,
25.772414,0.2124,0.9882,0.0024,0.0036,0.0910,0.0266,0.2726,-0.2828,0.7455,
25.793837,0.2124,0.9882,0.0024,-0.5646,0.3998,0.4111,0.2726,-0.2828,0.7455,
25.797491,0.2124,0.9882,0.0024,-0.5646,0.3998,0.4111,0.2553,-0.3474,0.6653,
25.830575,0.1611,1.0065,0.0197,-0.5646,0.3998,0.4111,0.2553,-0.3474,0.6653,
25.851050,0.1611,1.0065,0.0197,-0.5646,0.3998,0.4111,0.4144,-0.6860,0.8613,
25.854619,0.1611,1.0065,0.0197,-1.2488,0.5715,0.8517,0.4144,-0.6860,0.8613,
25.889807,0.0260,1.1596,0.0993,-1.2488,0.5715,0.8517,0.4144,-0.6860,0.8613,
25.909900,0.0260,1.1596,0.0993,-4.0882,4.4719,3.0639,0.4144,-0.6860,0.8613,
25.915043,0.0260,1.1596,0.0993,-4.0882,4.4719,3.0639,0.7047,-1.2054,1.3936,
25.947363,-0.3728,1.7184,0.2254,-4.0882,4.4719,3.0639,0.7047,-1.2054,1.3936,
25.967679,-0.3728,1.7184,0.2254,-4.0882,4.4719,3.0639,0.1916,-3.8045,2.7237,
25.971241,-0.3728,1.7184,0.2254,-7.4813,7.0257,2.2085,0.1916,-3.8045,2.7237,
26.005240,0.3103,1.0996,-0.2805,-7.4813,7.0257,2.2085,0.1916,-3.8045,2.7237,
26.025750,0.3103,1.0996,-0.2805,-7.4813,7.0257,2.2085,-0.8446,-5.6365,3.5309,
26.029387,0.3103,1.0996,-0.2805,0.8629,1.1650,0.5082,-0.8446,-5.6365,3.5309,
26.064805,0.5606,0.6260,-0.4318,0.8629,1.1650,0.5082,-0.8446,-5.6365,3.5309,
26.083598,0.5606,0.6260,-0.4318,0.8629,1.1650,0.5082,-2.2629,-3.6654,2.2122,
26.085876,0.5606,0.6260,-0.4318,-2.0615,-2.4018,-1.7473,-2.2629,-3.6654,2.2122,
26.124450,0.0276,0.3986,-0.7157,-2.0615,-2.4018,-1.7473,-2.2629,-3.6654,2.2122,
26.148435,0.0276,0.3986,-0.7157,-5.4630,-3.6066,-4.6517,-2.2629,-3.6654,2.2122,
26.153010,0.0276,0.3986,-0.7157,-5.4630,-3.6066,-4.6517,-3.0267,-2.5100,1.0918,
26.181465,-0.0761,0.5350,-0.6651,-5.4630,-3.6066,-4.6517,-3.0267,-2.5100,1.0918,
26.201758,-0.0761,0.5350,-0.6651,-5.4630,-3.6066,-4.6517,-3.2914,-2.5724,-0.3048,
26.208211,-0.0761,0.5350,-0.6651,-6.2964,-2.0712,-4.3101,-3.2914,-2.5724,-0.3048,
26.240799,-0.3283,0.7862,-0.7889,-6.2964,-2.0712,-4.3101,-3.2914,-2.5724,-0.3048,
26.261680,-0.3283,0.7862,-0.7889,-6.2964,-2.0712,-4.3101,-2.6437,-4.4581,-1.1397,
26.267141,-0.3283,0.7862,-0.7889,-5.7093,-0.1526,-6.2402,-2.6437,-4.4581,-1.1397,
26.297342,0.0238,1.0333,-0.8137,-5.7093,-0.1526,-6.2402,-2.6437,-4.4581,-1.1397,
26.317283,0.0238,1.0333,-0.8137,-5.7093,-0.1526,-6.2402,-2.2441,-3.4502,-1.7961,
26.320481,0.0238,1.0333,-0.8137,-1.3386,1.1137,-5.5242,-2.2441,-3.4502,-1.7961,
26.356573,-0.0180,1.0781,-0.4797,-1.3386,1.1137,-5.5242,-2.2441,-3.4502,-1.7961,
26.375663,-0.0180,1.0781,-0.4797,-1.4021,1.3328,-2.8452,-2.2441,-3.4502,-1.7961,
26.379225,-0.0180,1.0781,-0.4797,-1.4021,1.3328,-2.8452,-1.8375,-2.1842,-2.5113,
26.415378,-0.1043,1.2005,-0.2221,-1.4021,1.3328,-2.8452,-1.8375,-2.1842,-2.5113,
26.435395,-0.1043,1.2005,-0.2221,-1.4021,1.3328,-2.8452,-1.2399,-2.9735,-2.2276,
26.438170,-0.1043,1.2005,-0.2221,0.1232,2.3302,-1.6380,-1.2399,-2.9735,-2.2276,
26.474157,-0.0580,1.0491,-0.0706,0.1232,2.3302,-1.6380,-1.2399,-2.9735,-2.2276,
26.493030,-0.0580,1.0491,-0.0706,0.1232,2.3302,-1.6380,-0.4686,-5.2960,-1.4496,
26.495506,-0.0580,1.0491,-0.0706,1.1317,-0.1564,-2.1283,-0.4686,-5.2960,-1.4496,
26.531993,0.3718,0.8707,-0.6129,1.1317,-0.1564,-2.1283,-0.4686,-5.2960,-1.4496,
26.551245,0.3718,0.8707,-0.6129,1.1317,-0.1564,-2.1283,0.3710,-5.2423,0.3812,
26.554365,0.3718,0.8707,-0.6129,7.9731,-2.0757,-7.5058,0.3710,-5.2423,0.3812,
26.588706,0.9288,0.8635,-0.3221,7.9731,-2.0757,-7.5058,0.3710,-5.2423,0.3812,
26.610966,0.9288,0.8635,-0.3221,6.2566,1.1789,2.0529,0.3710,-5.2423,0.3812,
26.615590,0.9288,0.8635,-0.3221,6.2566,1.1789,2.0529,-0.3034,1.0587,0.1250,
26.648515,-0.7058,1.3974,0.5632,6.2566,1.1789,2.0529,-0.3034,1.0587,0.1250,
26.666757,-0.7058,1.3974,0.5632,6.2566,1.1789,2.0529,0.3533,1.2480,0.0727,
26.668642,-0.7058,1.3974,0.5632,-7.8956,3.0244,0.0293,0.3533,1.2480,0.0727,
26.706378,0.0068,1.0010,-0.2460,-7.8956,3.0244,0.0293,0.3533,1.2480,0.0727,
26.726929,0.0068,1.0010,-0.2460,-7.8956,3.0244,0.0293,0.2207,-0.8943,0.9501,
26.729107,0.0068,1.0010,-0.2460,3.6361,-0.0960,-1.6173,0.2207,-0.8943,0.9501,
26.765088,-0.0831,0.9832,0.1868,3.6361,-0.0960,-1.6173,0.2207,-0.8943,0.9501,
26.784923,-0.0831,0.9832,0.1868,3.6361,-0.0960,-1.6173,0.0633,-0.0096,0.3405,
26.788507,-0.0831,0.9832,0.1868,-1.9748,-0.0336,1.4635,0.0633,-0.0096,0.3405,
26.823614,0.1150,1.0068,0.0595,-1.9748,-0.0336,1.4635,0.0633,-0.0096,0.3405,
26.845639,0.1150,1.0068,0.0595,-1.9748,-0.0336,1.4635,0.0869,-0.4286,0.4046,
26.848809,0.1150,1.0068,0.0595,1.2962,0.2582,-0.0716,0.0869,-0.4286,0.4046,
26.881199,0.0112,1.0016,0.0649,1.2962,0.2582,-0.0716,0.0869,-0.4286,0.4046,
26.901213,0.0112,1.0016,0.0649,1.2962,0.2582,-0.0716,0.0766,-0.1441,0.1503,
26.904468,0.0112,1.0016,0.0649,0.1810,0.2606,0.2244,0.0766,-0.1441,0.1503,
26.940160,0.0734,1.0250,0.0415,0.1810,0.2606,0.2244,0.0766,-0.1441,0.1503,
26.964861,0.0734,1.0250,0.0415,0.1810,0.2606,0.2244,0.1038,-0.1545,-0.0839,
26.968296,0.0734,1.0250,0.0415,0.0650,0.1030,0.4039,0.1038,-0.1545,-0.0839,
26.997862,-0.0025,0.9686,0.1129,0.0650,0.1030,0.4039,0.1038,-0.1545,-0.0839,
27.017897,-0.0025,0.9686,0.1129,0.0650,0.1030,0.4039,0.1527,-0.2172,-0.1191,
27.020709,-0.0025,0.9686,0.1129,-0.2133,-0.1840,1.0123,0.1527,-0.2172,-0.1191,
27.056720,-0.0952,0.9812,0.1234,-0.2133,-0.1840,1.0123,0.1527,-0.2172,-0.1191,
27.076169,-0.0952,0.9812,0.1234,-0.2133,-0.1840,1.0123,0.3172,-0.2350,0.0513,
27.079415,-0.0952,0.9812,0.1234,-1.1452,-0.1007,0.9920,0.3172,-0.2350,0.0513,
27.115317,-0.0503,0.9947,0.0861,-1.1452,-0.1007,0.9920,0.3172,-0.2350,0.0513,
27.135895,-0.0503,0.9947,0.0861,-0.5217,0.1522,0.8541,0.3172,-0.2350,0.0513,
27.139131,-0.0503,0.9947,0.0861,-0.5217,0.1522,0.8541,0.4956,-0.2861,0.3101,
27.172689,-0.0750,0.9916,0.0502,-0.5217,0.1522,0.8541,0.4956,-0.2861,0.3101,
27.194849,-0.0750,0.9916,0.0502,-0.5217,0.1522,0.8541,0.6275,-0.8648,0.4561,
27.197969,-0.0750,0.9916,0.0502,-1.5186,-0.1672,1.2064,0.6275,-0.8648,0.4561,
27.230587,-0.0969,1.0677,-0.0241,-1.5186,-0.1672,1.2064,0.6275,-0.8648,0.4561,
27.250666,-0.0969,1.0677,-0.0241,-1.5186,-0.1672,1.2064,0.8902,-0.8487,0.8402,
27.253706,-0.0969,1.0677,-0.0241,-1.9366,1.2117,0.3887,0.8902,-0.8487,0.8402,
27.290043,-0.1336,1.0678,-0.0865,-1.9366,1.2117,0.3887,0.8902,-0.8487,0.8402,
27.310647,-0.1336,1.0678,-0.0865,-1.9366,1.2117,0.3887,1.0997,-1.1172,1.3213,
27.314605,-0.1336,1.0678,-0.0865,-3.5108,1.5397,1.3341,1.0997,-1.1172,1.3213,
27.347079,-0.2613,1.3188,0.0424,-3.5108,1.5397,1.3341,1.0997,-1.1172,1.3213,
27.370936,-0.2613,1.3188,0.0424,-3.5108,1.5397,1.3341,0.8061,-2.2066,2.2209,
27.373448,-0.2613,1.3188,0.0424,-2.5853,5.0534,3.0949,0.8061,-2.2066,2.2209,
27.407652,0.0899,1.4488,0.1014,-2.5853,5.0534,3.0949,0.8061,-2.2066,2.2209,
27.428809,0.0899,1.4488,0.1014,-2.5853,5.0534,3.0949,-0.0493,-3.4583,2.5864,
27.431161,0.0899,1.4488,0.1014,-3.0372,3.7050,2.8022,-0.0493,-3.4583,2.5864,
27.464414,0.1196,0.9574,-0.4503,-3.0372,3.7050,2.8022,-0.0493,-3.4583,2.5864,
27.483512,0.1196,0.9574,-0.4503,-3.0372,3.7050,2.8022,-0.1731,-3.2349,2.1128,
27.486334,0.1196,0.9574,-0.4503,-1.8790,-0.5745,-2.2403,-0.1731,-3.2349,2.1128,
27.523263,0.1677,0.5689,-0.5267,-1.8790,-0.5745,-2.2403,-0.1731,-3.2349,2.1128,
27.544400,0.1677,0.5689,-0.5267,-1.8790,-0.5745,-2.2403,-0.9057,-0.0558,-0.0932,
27.549327,0.1677,0.5689,-0.5267,-2.7577,-3.8939,-1.6366,-0.9057,-0.0558,-0.0932,
27.581770,-0.1830,0.4402,-0.3545,-2.7577,-3.8939,-1.6366,-0.9057,-0.0558,-0.0932,
27.601268,-0.1830,0.4402,-0.3545,-2.7577,-3.8939,-1.6366,-1.2091,1.2486,-2.3337,
27.605414,-0.1830,0.4402,-0.3545,-4.7411,-3.9366,-0.5148,-1.2091,1.2486,-2.3337,
27.639470,-0.2005,0.8109,-0.2049,-4.7411,-3.9366,-0.5148,-1.2091,1.2486,-2.3337,
27.662192,-0.2005,0.8109,-0.2049,-4.7411,-3.9366,-0.5148,-1.2500,0.2625,-3.3561,
27.666225,-0.2005,0.8109,-0.2049,-1.8998,-0.1364,-0.3057,-1.2500,0.2625,-3.3561,
27.697966,-0.0336,1.1799,-0.2075,-1.8998,-0.1364,-0.3057,-1.2500,0.2625,-3.3561,
27.716820,-0.0336,1.1799,-0.2075,1.6121,2.5193,-1.5487,-1.2500,0.2625,-3.3561,
27.719303,-0.0336,1.1799,-0.2075,1.6121,2.5193,-1.5487,-1.5455,-0.3474,-3.3716,
27.756523,0.0462,1.2211,-0.2331,1.6121,2.5193,-1.5487,-1.5455,-0.3474,-3.3716,
27.778893,0.0462,1.2211,-0.2331,1.6121,2.5193,-1.5487,-1.2596,0.0088,-2.7980,
27.785597,0.0462,1.2211,-0.2331,2.9425,2.1178,-2.1321,-1.2596,0.0088,-2.7980,
27.814159,0.0168,1.0021,-0.2019,2.9425,2.1178,-2.1321,-1.2596,0.0088,-2.7980,
27.833746,0.0168,1.0021,-0.2019,2.9425,2.1178,-2.1321,-0.6021,0.6510,-1.4300,
27.836510,0.0168,1.0021,-0.2019,4.0850,0.1209,-2.4472,-0.6021,0.6510,-1.4300,
27.873498,0.0483,0.8271,-0.2474,4.0850,0.1209,-2.4472,-0.6021,0.6510,-1.4300,
27.894357,0.0483,0.8271,-0.2474,3.9437,-0.9667,-1.9672,-0.6021,0.6510,-1.4300,
27.898375,0.0483,0.8271,-0.2474,3.9437,-0.9667,-1.9672,-0.0348,1.8740,-0.2056,
27.930189,0.0117,0.8589,-0.1826,3.9437,-0.9667,-1.9672,-0.0348,1.8740,-0.2056,
27.950383,0.0117,0.8589,-0.1826,3.9437,-0.9667,-1.9672,0.1820,2.3661,0.6832,
27.952770,0.0117,0.8589,-0.1826,3.2283,-0.3225,-0.2394,0.1820,2.3661,0.6832,
27.989128,-0.1976,0.9767,0.1208,3.2283,-0.3225,-0.2394,0.1820,2.3661,0.6832,
28.009333,-0.1976,0.9767,0.1208,3.2283,-0.3225,-0.2394,-0.3124,1.6341,0.7504,
28.013302,-0.1976,0.9767,0.1208,-4.2580,0.4426,2.7726,-0.3124,1.6341,0.7504,
28.058274,-1.1068,1.6168,0.2039,-4.2580,0.4426,2.7726,-0.3124,1.6341,0.7504,
28.066985,-1.1068,1.6168,0.2039,-4.2580,0.4426,2.7726,0.1107,-0.8723,1.4323,
28.068343,-1.1068,1.6168,0.2039,-1.4390,6.4836,-0.7160,0.1107,-0.8723,1.4323,
28.105406,0.3989,0.7773,-0.4694,-1.4390,6.4836,-0.7160,0.1107,-0.8723,1.4323,
28.126134,0.3989,0.7773,-0.4694,-1.4390,6.4836,-0.7160,-0.3050,-0.0287,1.3602,
28.129066,0.3989,0.7773,-0.4694,3.2143,-1.8817,0.1535,-0.3050,-0.0287,1.3602,
28.164426,-0.0010,0.9931,0.1794,3.2143,-1.8817,0.1535,-0.3050,-0.0287,1.3602,
28.183156,-0.0010,0.9931,0.1794,3.2143,-1.8817,0.1535,-0.0226,0.5673,0.5783,
28.185047,-0.0010,0.9931,0.1794,-0.6165,0.0025,1.1618,-0.0226,0.5673,0.5783,
28.222521,-0.2121,1.0303,-0.0359,-0.6165,0.0025,1.1618,-0.0226,0.5673,0.5783,
28.245573,-0.2121,1.0303,-0.0359,-0.6284,0.1462,0.5905,-0.0226,0.5673,0.5783,
28.249340,-0.2121,1.0303,-0.0359,-0.6284,0.1462,0.5905,0.0260,-0.1073,0.7445,
28.281634,0.0120,0.9729,0.0121,-0.6284,0.1462,0.5905,0.0260,-0.1073,0.7445,
28.301617,0.0120,0.9729,0.0121,-0.6284,0.1462,0.5905,0.1665,0.4677,0.7129,
28.304631,0.0120,0.9729,0.0121,-0.3350,0.0438,0.7313,0.1665,0.4677,0.7129,
28.340303,-0.0389,1.0311,-0.0694,-0.3350,0.0438,0.7313,0.1665,0.4677,0.7129,
28.361524,-0.0389,1.0311,-0.0694,-0.3350,0.0438,0.7313,0.2038,0.0568,0.8084,
28.364665,-0.0389,1.0311,-0.0694,0.2367,0.2412,0.0922,0.2038,0.0568,0.8084,
28.398064,0.1582,0.9806,-0.0815,0.2367,0.2412,0.0922,0.2038,0.0568,0.8084,
28.417485,0.1582,0.9806,-0.0815,0.2367,0.2412,0.0922,0.1513,0.2254,0.5142,
28.420752,0.1582,0.9806,-0.0815,0.3527,0.0387,0.2738,0.1513,0.2254,0.5142,
28.455580,0.0556,0.9994,-0.0633,0.3527,0.0387,0.2738,0.1513,0.2254,0.5142,
28.478550,0.0556,0.9994,-0.0633,0.3527,0.0387,0.2738,0.2085,0.1100,0.4539,
28.481758,0.0556,0.9994,-0.0633,-0.6728,0.2390,0.3907,0.2085,0.1100,0.4539,
28.515966,0.0726,1.0021,-0.0535,-0.6728,0.2390,0.3907,0.2085,0.1100,0.4539,
28.535175,0.0726,1.0021,-0.0535,-0.6728,0.2390,0.3907,0.3231,0.1338,0.5850,
28.538764,0.0726,1.0021,-0.0535,-0.6568,0.2797,0.8103,0.3231,0.1338,0.5850,
28.572319,0.0783,0.9989,-0.0680,-0.6568,0.2797,0.8103,0.3231,0.1338,0.5850,
28.596174,0.0783,0.9989,-0.0680,-0.6568,0.2797,0.8103,0.4754,-0.0338,0.7553,
28.599299,0.0783,0.9989,-0.0680,-0.5304,0.2530,0.6853,0.4754,-0.0338,0.7553,
28.630455,0.1648,1.0130,-0.1125,-0.5304,0.2530,0.6853,0.4754,-0.0338,0.7553,
28.651282,0.1648,1.0130,-0.1125,-0.5304,0.2530,0.6853,0.6410,-0.1476,0.7838,
28.655252,0.1648,1.0130,-0.1125,-0.7467,0.7911,0.5379,0.6410,-0.1476,0.7838,
28.690500,0.1225,1.0431,-0.1631,-0.7467,0.7911,0.5379,0.6410,-0.1476,0.7838,
28.713184,0.1225,1.0431,-0.1631,-0.7467,0.7911,0.5379,0.9088,-0.0305,1.0104,
28.716592,0.1225,1.0431,-0.1631,-1.4986,1.1496,0.6970,0.9088,-0.0305,1.0104,
28.747281,0.1039,1.1474,-0.2497,-1.4986,1.1496,0.6970,0.9088,-0.0305,1.0104,
28.768904,0.1039,1.1474,-0.2497,-1.4986,1.1496,0.6970,1.2071,0.0621,1.2796,
28.771963,0.1039,1.1474,-0.2497,-2.4269,3.5905,0.0093,1.2071,0.0621,1.2796,
28.805940,-0.2154,1.4400,-0.3045,-2.4269,3.5905,0.0093,1.2071,0.0621,1.2796,
28.826540,-0.2154,1.4400,-0.3045,-2.4269,3.5905,0.0093,1.5616,0.0733,1.4997,
28.829475,-0.2154,1.4400,-0.3045,-8.6128,6.1114,1.0787,1.5616,0.0733,1.4997,
28.863464,-0.3289,1.3129,-0.1062,-8.6128,6.1114,1.0787,1.5616,0.0733,1.4997,
28.883714,-0.3289,1.3129,-0.1062,-8.6128,6.1114,1.0787,1.6290,-0.6966,2.3840,
28.886234,-0.3289,1.3129,-0.1062,-2.5630,4.4159,3.6578,1.6290,-0.6966,2.3840,
28.923265,0.8493,1.0756,-0.1674,-2.5630,4.4159,3.6578,1.6290,-0.6966,2.3840,
28.943105,0.8493,1.0756,-0.1674,-2.5630,4.4159,3.6578,1.5210,0.7451,1.4268,
28.946017,0.8493,1.0756,-0.1674,1.6711,2.9692,3.4482,1.5210,0.7451,1.4268,
28.981244,0.5906,0.6768,-0.0223,1.6711,2.9692,3.4482,1.5210,0.7451,1.4268,
29.000661,0.5906,0.6768,-0.0223,-0.8787,-0.4484,4.4355,1.5210,0.7451,1.4268,
29.004029,0.5906,0.6768,-0.0223,-0.8787,-0.4484,4.4355,0.8147,2.1955,-0.3765,
29.038545,0.2776,0.4311,0.1808,-0.8787,-0.4484,4.4355,0.8147,2.1955,-0.3765,
29.058057,0.2776,0.4311,0.1808,-0.8787,-0.4484,4.4355,0.6094,1.7437,-2.1244,
29.059778,0.2776,0.4311,0.1808,-2.3272,-3.3013,5.7775,0.6094,1.7437,-2.1244,
29.097438,0.4654,0.4448,0.0691,-2.3272,-3.3013,5.7775,0.6094,1.7437,-2.1244,
29.116147,0.4654,0.4448,0.0691,-2.3272,-3.3013,5.7775,0.3848,0.8703,-3.7957,
29.117460,0.4654,0.4448,0.0691,0.0653,-2.7283,4.4450,0.3848,0.8703,-3.7957,
29.155889,0.3895,0.7742,0.0468,0.0653,-2.7283,4.4450,0.3848,0.8703,-3.7957,
29.174299,0.3895,0.7742,0.0468,0.0653,-2.7283,4.4450,-0.6168,0.9118,-4.8772,
29.176725,0.3895,0.7742,0.0468,1.8943,-0.0726,3.4531,-0.6168,0.9118,-4.8772,
29.213646,0.4157,1.0918,-0.0306,1.8943,-0.0726,3.4531,-0.6168,0.9118,-4.8772,
29.232719,0.4157,1.0918,-0.0306,4.8264,2.5869,1.5515,-0.6168,0.9118,-4.8772,
29.234239,0.4157,1.0918,-0.0306,4.8264,2.5869,1.5515,-1.8414,1.5203,-5.2013,
29.271611,0.5342,1.4302,-0.1203,4.8264,2.5869,1.5515,-1.8414,1.5203,-5.2013,
29.291094,0.5342,1.4302,-0.1203,4.8264,2.5869,1.5515,-2.3537,2.4305,-4.9549,
29.293858,0.5342,1.4302,-0.1203,8.6526,4.7970,-0.2904,-2.3537,2.4305,-4.9549,
29.329721,0.6422,1.3239,-0.1345,8.6526,4.7970,-0.2904,-2.3537,2.4305,-4.9549,
29.349270,0.6422,1.3239,-0.1345,8.6526,4.7970,-0.2904,-1.9898,3.3079,-3.1236,
29.350851,0.6422,1.3239,-0.1345,9.9364,3.2019,-0.4099,-1.9898,3.3079,-3.1236,
29.388447,0.4799,1.0056,-0.1353,9.9364,3.2019,-0.4099,-1.9898,3.3079,-3.1236,
29.408220,0.4799,1.0056,-0.1353,9.9364,3.2019,-0.4099,-0.8864,2.9489,0.2220,
29.410716,0.4799,1.0056,-0.1353,8.2718,0.8283,-0.7158,-0.8864,2.9489,0.2220,
29.446819,-0.1158,0.9626,-0.5060,8.2718,0.8283,-0.7158,-0.8864,2.9489,0.2220,
29.467653,-0.1158,0.9626,-0.5060,-6.3339,2.1044,-4.4094,-0.8864,2.9489,0.2220,
29.470218,-0.1158,0.9626,-0.5060,-6.3339,2.1044,-4.4094,-0.2645,2.7754,0.5622,
29.505209,-0.7899,1.5591,-0.5053,-6.3339,2.1044,-4.4094,-0.2645,2.7754,0.5622,
29.524612,-0.7899,1.5591,-0.5053,-6.3339,2.1044,-4.4094,-0.1996,1.1024,2.1030,
29.526723,-0.7899,1.5591,-0.5053,2.7231,3.3747,-2.7391,-0.1996,1.1024,2.1030,
29.563324,0.1469,0.7282,0.1231,2.7231,3.3747,-2.7391,-0.1996,1.1024,2.1030,
29.582869,0.1469,0.7282,0.1231,2.7231,3.3747,-2.7391,-0.4712,0.3122,1.2299,
29.584662,0.1469,0.7282,0.1231,0.7940,-1.2653,4.4321,-0.4712,0.3122,1.2299,
29.621981,-0.0514,1.0316,-0.0723,0.7940,-1.2653,4.4321,-0.4712,0.3122,1.2299,
29.640931,-0.0514,1.0316,-0.0723,0.7940,-1.2653,4.4321,-0.1012,-0.1663,0.8770,
29.642434,-0.0514,1.0316,-0.0723,0.7750,0.6439,-0.8225,-0.1012,-0.1663,0.8770,
29.680417,-0.0767,0.9898,-0.1362,0.7750,0.6439,-0.8225,-0.1012,-0.1663,0.8770,
29.700556,-0.0767,0.9898,-0.1362,0.7750,0.6439,-0.8225,-0.0927,0.9929,0.6245,
29.702490,-0.0767,0.9898,-0.1362,-1.0670,-0.0137,1.0768,-0.0927,0.9929,0.6245,
29.738383,-0.1866,1.0112,0.0068,-1.0670,-0.0137,1.0768,-0.0927,0.9929,0.6245,
29.758035,-0.1866,1.0112,0.0068,-1.0670,-0.0137,1.0768,0.1606,0.1434,1.0033,
29.760369,-0.1866,1.0112,0.0068,-0.9343,0.1620,0.8140,0.1606,0.1434,1.0033,
29.797746,0.1005,0.9933,-0.1489,-0.9343,0.1620,0.8140,0.1606,0.1434,1.0033,
29.818912,0.1005,0.9933,-0.1489,-0.9343,0.1620,0.8140,0.2262,0.2822,0.9760,
29.820858,0.1005,0.9933,-0.1489,0.7232,0.0081,0.1205,0.2262,0.2822,0.9760,
29.854782,0.1261,0.9632,-0.1060,0.7232,0.0081,0.1205,0.2262,0.2822,0.9760,
29.874631,0.1261,0.9632,-0.1060,0.7232,0.0081,0.1205,0.2024,0.1075,0.7186,
29.876460,0.1261,0.9632,-0.1060,0.2193,0.0562,0.3041,0.2024,0.1075,0.7186,
29.913879,0.1940,0.9865,-0.1808,0.2193,0.0562,0.3041,0.2024,0.1075,0.7186,
29.935731,0.1940,0.9865,-0.1808,0.2193,0.0562,0.3041,0.2089,0.0676,0.5011,
29.937567,0.1940,0.9865,-0.1808,0.3246,0.1684,0.0079,0.2089,0.0676,0.5011,
29.971495,0.1082,1.0011,-0.1667,0.3246,0.1684,0.0079,0.2089,0.0676,0.5011,
29.991138,0.1082,1.0011,-0.1667,0.3246,0.1684,0.0079,0.2236,0.0548,0.4374,
29.992819,0.1082,1.0011,-0.1667,-0.7906,0.5551,0.1758,0.2236,0.0548,0.4374,
30.029679,0.0883,1.0188,-0.1402,-0.7906,0.5551,0.1758,0.2236,0.0548,0.4374,
30.048997,0.0883,1.0188,-0.1402,-0.7906,0.5551,0.1758,0.3942,-0.0627,0.6486,
30.050104,0.0883,1.0188,-0.1402,-1.0670,0.6366,0.8704,0.3942,-0.0627,0.6486,
30.087926,0.0321,1.0341,-0.0985,-1.0670,0.6366,0.8704,0.3942,-0.0627,0.6486,
30.108027,0.0321,1.0341,-0.0985,-1.0670,0.6366,0.8704,0.7550,-0.0533,1.0326,
