
time,gFx,gFy,gFz,ax,ay,az,wx,wy,wz,
0.062701,-0.0149,1.0179,0.1126,0.0000,0.0000,0.0000,0.0000,0.0000,0.0000,
0.063514,-0.0149,1.0179,0.1126,0.0000,0.0000,0.0000,0.0000,0.0000,0.0000,
0.063783,-0.0149,1.0179,0.1126,0.0000,0.0000,0.0000,0.0000,0.0000,0.0000,
0.064091,-0.0149,1.0179,0.1126,0.0000,0.0000,0.0000,-0.5571,-0.5601,0.0100,
0.064700,-0.0149,1.0179,0.1126,0.0695,0.0032,0.0777,-0.5571,-0.5601,0.0100,
0.120962,-0.0859,1.0152,-0.0566,0.0695,0.0032,0.0777,-0.5571,-0.5601,0.0100,
0.122036,-0.0564,0.9852,-0.0718,0.0695,0.0032,0.0777,-0.5571,-0.5601,0.0100,
0.122715,-0.0352,0.9376,-0.0874,0.0695,0.0032,0.0777,-0.5571,-0.5601,0.0100,
0.123350,-0.0352,0.9376,-0.0874,0.0695,0.0032,0.0777,0.1610,0.1963,-0.2443,
0.124021,-0.0352,0.9376,-0.0874,-0.1405,-0.2533,-1.0885,0.1610,0.1963,-0.2443,
0.179601,-0.0352,0.9376,-0.0874,0.3185,-0.7931,-0.3380,0.1610,0.1963,-0.2443,
0.180527,-0.0415,0.9083,-0.0493,0.3185,-0.7931,-0.3380,0.1610,0.1963,-0.2443,
0.181029,-0.0178,0.8956,-0.0139,0.3185,-0.7931,-0.3380,0.1610,0.1963,-0.2443,
0.181468,-0.0010,0.8861,0.0093,0.3185,-0.7931,-0.3380,0.1610,0.1963,-0.2443,
0.181996,-0.0010,0.8861,0.0093,0.3185,-0.7931,-0.3380,0.1670,0.4183,-0.3036,
0.237399,-0.0461,0.8282,-0.0005,0.3185,-0.7931,-0.3380,0.1670,0.4183,-0.3036,
0.238423,-0.1045,0.8170,-0.0452,0.3185,-0.7931,-0.3380,0.1670,0.4183,-0.3036,
0.238867,-0.1594,1.0309,-0.0164,0.3185,-0.7931,-0.3380,0.1670,0.4183,-0.3036,
0.239427,-0.1594,1.0309,-0.0164,0.3185,-0.7931,-0.3380,-0.0365,-0.1216,-0.0195,
0.240226,-0.1594,1.0309,-0.0164,-0.3902,-0.6701,-0.3108,-0.0365,-0.1216,-0.0195,
0.296437,-0.1594,1.0309,-0.0164,-1.2040,2.2627,-0.4378,-0.0365,-0.1216,-0.0195,
0.297549,-0.2234,1.3749,-0.0430,-1.2040,2.2627,-0.4378,-0.0365,-0.1216,-0.0195,
0.298317,-0.2385,1.2782,-0.0828,-1.2040,2.2627,-0.4378,-0.0365,-0.1216,-0.0195,
0.299032,-0.1753,1.0589,0.0007,-1.2040,2.2627,-0.4378,-0.0365,-0.1216,-0.0195,
0.299733,-0.1753,1.0589,0.0007,-1.2040,2.2627,-0.4378,-0.0037,-0.1830,-0.0281,
0.354298,-0.1485,0.9112,0.0540,-1.2040,2.2627,-0.4378,-0.0037,-0.1830,-0.0281,
0.355413,-0.0855,0.8643,0.1094,-1.2040,2.2627,-0.4378,-0.0037,-0.1830,-0.0281,
0.356172,-0.0466,0.9330,0.1494,-1.2040,2.2627,-0.4378,-0.0037,-0.1830,-0.0281,
0.356882,-0.0466,0.9330,0.1494,-1.2040,2.2627,-0.4378,0.0430,-0.0755,0.1975,
0.357474,-0.0466,0.9330,0.1494,-0.1308,-0.8786,0.8686,0.0430,-0.0755,0.1975,
0.412799,-0.0466,0.9330,0.1494,-0.3814,0.3307,0.8041,0.0430,-0.0755,0.1975,
0.413904,-0.0584,0.9957,0.1257,-0.3814,0.3307,0.8041,0.0430,-0.0755,0.1975,
0.414418,-0.1172,1.0531,0.1262,-0.3814,0.3307,0.8041,0.0430,-0.0755,0.1975,
0.415017,-0.1287,1.0494,0.0564,-0.3814,0.3307,0.8041,0.0430,-0.0755,0.1975,
0.415623,-0.1287,1.0494,0.0564,-0.3814,0.3307,0.8041,0.1230,-0.1301,0.3995,
0.473533,-0.1287,1.0494,0.0564,0.2944,-0.1057,0.5490,0.1230,-0.1301,0.3995,
0.476542,-0.0574,1.0267,0.0093,0.2944,-0.1057,0.5490,0.1230,-0.1301,0.3995,
0.478297,0.0181,0.9942,0.0842,0.2944,-0.1057,0.5490,0.1230,-0.1301,0.3995,
0.480072,0.0396,0.9444,0.0864,0.2944,-0.1057,0.5490,0.1230,-0.1301,0.3995,
0.481805,0.0396,0.9444,0.0864,0.2944,-0.1057,0.5490,0.4064,0.0377,0.4936,
0.530295,0.0527,0.9632,-0.0137,0.2944,-0.1057,0.5490,0.4064,0.0377,0.4936,
0.532414,0.0178,1.0521,-0.1062,0.2944,-0.1057,0.5490,0.4064,0.0377,0.4936,
0.534520,-0.0010,1.0487,-0.0684,0.2944,-0.1057,0.5490,0.4064,0.0377,0.4936,
0.536468,-0.0010,1.0487,-0.0684,0.2944,-0.1057,0.5490,0.4345,0.0607,0.2780,
0.538596,-0.0010,1.0487,-0.0684,0.3256,0.1937,-0.3644,0.4345,0.0607,0.2780,
0.589767,0.0237,1.0028,-0.0916,0.3256,0.1937,-0.3644,0.4345,0.0607,0.2780,
0.595021,0.0278,0.9891,-0.1233,0.3256,0.1937,-0.3644,0.4345,0.0607,0.2780,
0.597698,0.0718,1.0003,-0.1448,0.3256,0.1937,-0.3644,0.4345,0.0607,0.2780,
0.600027,0.0718,1.0003,-0.1448,0.3256,0.1937,-0.3644,0.3995,-0.0293,0.1566,
0.601755,0.0718,1.0003,-0.1448,0.3747,-0.0298,-0.6324,0.3995,-0.0293,0.1566,
0.645802,0.0979,1.0126,-0.1431,0.3747,-0.0298,-0.6324,0.3995,-0.0293,0.1566,
0.647167,0.0603,0.9916,-0.1182,0.3747,-0.0298,-0.6324,0.3995,-0.0293,0.1566,
0.647890,-0.0100,0.9923,-0.0547,0.3747,-0.0298,-0.6324,0.3995,-0.0293,0.1566,
0.648633,-0.0100,0.9923,-0.0547,0.3747,-0.0298,-0.6324,0.2999,0.1937,-0.0470,
0.649306,-0.0100,0.9923,-0.0547,0.4359,-0.0048,-0.2919,0.2999,0.1937,-0.0470,
0.704391,-0.0193,1.0116,-0.0227,0.4359,-0.0048,-0.2919,0.2999,0.1937,-0.0470,
0.706083,-0.0286,1.0052,-0.0503,0.4359,-0.0048,-0.2919,0.2999,0.1937,-0.0470,
0.707158,-0.0566,1.0240,-0.0544,0.4359,-0.0048,-0.2919,0.2999,0.1937,-0.0470,
0.708340,-0.0566,1.0240,-0.0544,0.4359,-0.0048,-0.2919,0.2987,0.1552,-0.1767,
0.709594,-0.0566,1.0240,-0.0544,-0.2734,0.1428,0.4562,0.2987,0.1552,-0.1767,
0.763949,-0.1272,1.0328,0.0056,-0.2734,0.1428,0.4562,0.2987,0.1552,-0.1767,
0.766597,-0.2273,1.0629,0.0432,-0.2734,0.1428,0.4562,0.2987,0.1552,-0.1767,
0.768632,-0.0410,1.1249,-0.0969,-0.2734,0.1428,0.4562,0.2987,0.1552,-0.1767,
0.770554,-0.0410,1.1249,-0.0969,-0.2734,0.1428,0.4562,0.4386,0.0330,-0.1832,
0.772494,-0.0410,1.1249,-0.0969,-1.0413,0.7026,0.8967,0.4386,0.0330,-0.1832,
0.825531,0.0388,1.1200,-0.3680,-1.0413,0.7026,0.8967,0.4386,0.0330,-0.1832,
0.828764,-0.0735,1.1307,-0.2447,-1.0413,0.7026,0.8967,0.4386,0.0330,-0.1832,
0.831040,-0.2561,1.1578,-0.1963,-1.0413,0.7026,0.8967,0.4386,0.0330,-0.1832,
0.833234,-0.2561,1.1578,-0.1963,-1.0413,0.7026,0.8967,0.4184,-0.2284,0.0978,
0.835591,-0.2561,1.1578,-0.1963,-0.6898,1.2544,-1.2624,0.4184,-0.2284,0.0978,
0.880349,-0.3758,1.2252,-0.3062,-0.6898,1.2544,-1.2624,0.4184,-0.2284,0.0978,
0.883319,-0.5027,1.2387,-0.2517,-0.6898,1.2544,-1.2624,0.4184,-0.2284,0.0978,
0.885086,-0.3999,1.1183,-0.1033,-0.6898,1.2544,-1.2624,0.4184,-0.2284,0.0978,
0.886798,-0.3999,1.1183,-0.1033,-0.6898,1.2544,-1.2624,-0.0377,-0.6827,0.5692,
0.889312,-0.3999,1.1183,-0.1033,-3.9271,1.7010,-0.7563,-0.0377,-0.6827,0.5692,
0.939226,-0.3999,1.1183,-0.1033,-3.6473,-0.0930,-0.3850,-0.0377,-0.6827,0.5692,
0.943400,-0.3047,1.0699,-0.1655,-3.6473,-0.0930,-0.3850,-0.0377,-0.6827,0.5692,
0.946770,-0.3858,1.0729,-0.1673,-3.6473,-0.0930,-0.3850,-0.0377,-0.6827,0.5692,
0.949420,-0.4285,0.9015,-0.1177,-3.6473,-0.0930,-0.3850,-0.0377,-0.6827,0.5692,
0.951803,-0.4285,0.9015,-0.1177,-3.6473,-0.0930,-0.3850,-0.5816,-2.1366,1.0652,
0.997212,-0.4778,0.8126,-0.1738,-3.6473,-0.0930,-0.3850,-0.5816,-2.1366,1.0652,
1.000488,-0.4793,0.7659,-0.3765,-3.6473,-0.0930,-0.3850,-0.5816,-2.1366,1.0652,
1.002750,-0.3623,0.7601,-0.4744,-3.6473,-0.0930,-0.3850,-0.5816,-2.1366,1.0652,
1.005177,-0.3623,0.7601,-0.4744,-3.6473,-0.0930,-0.3850,-0.3855,-3.1451,0.4661,
1.007866,-0.3623,0.7601,-0.4744,-4.1542,-2.2841,-2.3360,-0.3855,-3.1451,0.4661,
1.060027,-0.1961,0.7740,-0.4341,-4.1542,-2.2841,-2.3360,-0.3855,-3.1451,0.4661,
1.064814,-0.1292,0.8031,-0.3457,-4.1542,-2.2841,-2.3360,-0.3855,-3.1451,0.4661,
1.069327,-0.1226,0.8084,-0.3008,-4.1542,-2.2841,-2.3360,-0.3855,-3.1451,0.4661,
1.071466,-0.1226,0.8084,-0.3008,-4.1542,-2.2841,-2.3360,-0.5616,-2.3579,-0.4111,
1.074467,-0.1226,0.8084,-0.3008,-0.9014,-2.0363,-2.7320,-0.5616,-2.3579,-0.4111,
1.113897,-0.1624,0.8011,-0.2510,-0.9014,-2.0363,-2.7320,-0.5616,-2.3579,-0.4111,
1.116905,-0.1821,0.8070,-0.2031,-0.9014,-2.0363,-2.7320,-0.5616,-2.3579,-0.4111,
1.119036,-0.1558,0.8719,-0.1448,-0.9014,-2.0363,-2.7320,-0.5616,-2.3579,-0.4111,
1.121261,-0.1558,0.8719,-0.1448,-0.3563,-1.6041,-1.5111,-0.5616,-2.3579,-0.4111,
1.124191,-0.1558,0.8719,-0.1448,-0.3563,-1.6041,-1.5111,-0.6308,-1.4431,-1.1295,
1.174366,-0.0964,0.9652,-0.1138,-0.3563,-1.6041,-1.5111,-0.6308,-1.4431,-1.1295,
1.176771,-0.0576,0.9969,-0.0664,-0.3563,-1.6041,-1.5111,-0.6308,-1.4431,-1.1295,
1.178939,-0.1001,1.0045,-0.0510,-0.3563,-1.6041,-1.5111,-0.6308,-1.4431,-1.1295,
1.181110,-0.1001,1.0045,-0.0510,-0.3563,-1.6041,-1.5111,-0.4767,-1.4032,-1.2115,
1.183734,-0.1001,1.0045,-0.0510,1.0951,0.0894,-0.6777,-0.4767,-1.4032,-1.2115,
1.230960,-0.1463,0.9471,-0.1033,1.0951,0.0894,-0.6777,-0.4767,-1.4032,-1.2115,
1.234711,-0.0735,0.9137,-0.1235,1.0951,0.0894,-0.6777,-0.4767,-1.4032,-1.2115,
1.237359,-0.0044,0.8573,-0.1946,1.0951,0.0894,-0.6777,-0.4767,-1.4032,-1.2115,
1.239759,-0.0044,0.8573,-0.1946,1.0951,0.0894,-0.6777,-0.0868,-2.0959,-0.7363,
1.242465,-0.0044,0.8573,-0.1946,1.5199,-0.6026,-1.5387,-0.0868,-2.0959,-0.7363,
1.288941,0.1995,0.8397,-0.1494,1.5199,-0.6026,-1.5387,-0.0868,-2.0959,-0.7363,
1.291246,0.3848,0.8131,-0.1626,1.5199,-0.6026,-1.5387,-0.0868,-2.0959,-0.7363,
1.292766,0.5687,0.7572,-0.3594,1.5199,-0.6026,-1.5387,-0.0868,-2.0959,-0.7363,
1.294739,0.5687,0.7572,-0.3594,1.5199,-0.6026,-1.5387,0.2120,-2.8607,0.3615,
1.296074,0.5687,0.7572,-0.3594,5.5172,-1.5857,-2.4880,0.2120,-2.8607,0.3615,
1.346152,0.7769,0.6295,-0.4156,5.5172,-1.5857,-2.4880,0.2120,-2.8607,0.3615,
1.348170,0.9361,0.7503,-0.4495,5.5172,-1.5857,-2.4880,0.2120,-2.8607,0.3615,
1.349730,0.5025,1.4521,-0.4324,5.5172,-1.5857,-2.4880,0.2120,-2.8607,0.3615,
1.350928,0.5025,1.4521,-0.4324,5.5172,-1.5857,-2.4880,-0.0713,-0.7770,1.0000,
1.353162,0.5025,1.4521,-0.4324,8.0684,-0.2790,-4.4525,-0.0713,-0.7770,1.0000,
1.405665,-0.9601,2.4329,1.0177,8.0684,-0.2790,-4.4525,-0.0713,-0.7770,1.0000,
1.409091,-1.0502,1.9064,0.5557,8.0684,-0.2790,-4.4525,-0.0713,-0.7770,1.0000,
1.411182,-0.3916,0.8175,-0.9049,8.0684,-0.2790,-4.4525,-0.0713,-0.7770,1.0000,
1.412357,-0.3916,0.8175,-0.9049,-6.9233,7.0071,1.9848,-0.0713,-0.7770,1.0000,
1.413868,-0.3916,0.8175,-0.9049,-6.9233,7.0071,1.9848,0.0381,1.9285,0.3869,
1.463393,-0.2520,0.6089,-0.5174,-6.9233,7.0071,1.9848,0.0381,1.9285,0.3869,
1.465235,0.4800,0.7318,0.4329,-6.9233,7.0071,1.9848,0.0381,1.9285,0.3869,
1.466462,0.8944,1.0152,0.2959,-6.9233,7.0071,1.9848,0.0381,1.9285,0.3869,
1.467569,0.8944,1.0152,0.2959,-6.9233,7.0071,1.9848,-0.1462,-0.4752,1.5518,
1.469524,0.8944,1.0152,0.2959,3.5466,-2.0993,0.3877,-0.1462,-0.4752,1.5518,
1.524416,0.4346,1.0267,0.0964,3.5466,-2.0993,0.3877,-0.1462,-0.4752,1.5518,
1.529245,-0.2791,1.0692,-0.1172,3.5466,-2.0993,0.3877,-0.1462,-0.4752,1.5518,
1.531650,-0.3616,1.1302,-0.1394,3.5466,-2.0993,0.3877,-0.1462,-0.4752,1.5518,
1.533881,-0.3616,1.1302,-0.1394,3.5466,-2.0993,0.3877,0.0157,0.1334,0.5539,
1.535641,-0.3616,1.1302,-0.1394,-1.0662,0.7242,-0.7904,0.0157,0.1334,0.5539,
1.580488,0.0562,1.0677,-0.0620,-1.0662,0.7242,-0.7904,0.0157,0.1334,0.5539,
1.581966,0.0964,1.0463,-0.0483,-1.0662,0.7242,-0.7904,0.0157,0.1334,0.5539,
1.583740,0.1055,0.9325,0.0725,-1.0662,0.7242,-0.7904,0.0157,0.1334,0.5539,
1.584713,0.1055,0.9325,0.0725,-1.0662,0.7242,-0.7904,-0.1527,-0.3972,0.7512,
1.585970,0.1055,0.9325,0.0725,0.0131,0.1607,-0.4465,-0.1527,-0.3972,0.7512,
1.640494,0.1367,1.0069,0.1870,0.0131,0.1607,-0.4465,-0.1527,-0.3972,0.7512,
1.644007,0.0547,0.9435,0.2078,0.0131,0.1607,-0.4465,-0.1527,-0.3972,0.7512,
1.646856,-0.0029,0.9552,0.2019,0.0131,0.1607,-0.4465,-0.1527,-0.3972,0.7512,
1.649519,-0.0029,0.9552,0.2019,0.0131,0.1607,-0.4465,-0.0014,-0.5149,0.6659,
1.651785,-0.0029,0.9552,0.2019,-0.5824,-0.2507,1.5997,-0.0014,-0.5149,0.6659,
1.698704,0.0881,1.0262,0.0764,-0.5824,-0.2507,1.5997,-0.0014,-0.5149,0.6659,
1.702228,0.0603,1.0104,0.1504,-0.5824,-0.2507,1.5997,-0.0014,-0.5149,0.6659,
1.706823,-0.0315,0.9818,0.1726,-0.5824,-0.2507,1.5997,-0.0014,-0.5149,0.6659,
1.709752,-0.0315,0.9818,0.1726,-1.2365,0.1747,1.1231,-0.0014,-0.5149,0.6659,
1.713673,-0.0315,0.9818,0.1726,-1.2365,0.1747,1.1231,0.2936,-0.4874,0.8043,
1.755365,-0.0122,0.9542,0.2083,-1.2365,0.1747,1.1231,0.2936,-0.4874,0.8043,
1.757504,0.1028,0.9322,0.1270,-1.2365,0.1747,1.1231,0.2936,-0.4874,0.8043,
1.758870,0.2405,0.9427,-0.0342,-1.2365,0.1747,1.1231,0.2936,-0.4874,0.8043,
1.759935,0.2405,0.9427,-0.0342,-1.2365,0.1747,1.1231,0.6351,-0.6147,1.1908,
1.760932,0.2405,0.9427,-0.0342,-1.1657,-0.2967,1.1882,0.6351,-0.6147,1.1908,
1.814795,0.2456,0.9696,-0.0693,-1.1657,-0.2967,1.1882,0.6351,-0.6147,1.1908,
1.818618,0.2058,0.9784,-0.0752,-1.1657,-0.2967,1.1882,0.6351,-0.6147,1.1908,
1.821431,0.3455,0.9471,-0.1421,-1.1657,-0.2967,1.1882,0.6351,-0.6147,1.1908,
1.824490,0.3455,0.9471,-0.1421,-1.1657,-0.2967,1.1882,0.7544,-0.4589,1.3138,
1.828403,0.3455,0.9471,-0.1421,-0.3445,0.1338,-0.2396,0.7544,-0.4589,1.3138,
1.871399,0.4190,0.9540,-0.1997,-0.3445,0.1338,-0.2396,0.7544,-0.4589,1.3138,
1.872234,0.3743,0.9457,-0.1878,-0.3445,0.1338,-0.2396,0.7544,-0.4589,1.3138,
1.872728,0.2742,0.9510,-0.1402,-0.3445,0.1338,-0.2396,0.7544,-0.4589,1.3138,
1.873437,0.2742,0.9510,-0.1402,-0.3445,0.1338,-0.2396,0.5414,-0.6113,1.2271,
1.874302,0.2742,0.9510,-0.1402,-0.0837,0.2429,-0.6005,0.5414,-0.6113,1.2271,
1.928507,0.2539,1.0021,-0.1038,-0.0837,0.2429,-0.6005,0.5414,-0.6113,1.2271,
1.929161,0.3255,1.0587,-0.0825,-0.0837,0.2429,-0.6005,0.5414,-0.6113,1.2271,
1.929484,0.2759,1.1029,-0.0772,-0.0837,0.2429,-0.6005,0.5414,-0.6113,1.2271,
1.929811,0.2759,1.1029,-0.0772,-0.0837,0.2429,-0.6005,0.5878,-0.8920,1.3056,
1.930191,0.2759,1.1029,-0.0772,-1.3422,1.5605,0.7476,0.5878,-0.8920,1.3056,
1.988271,0.2556,1.0677,-0.1604,-1.3422,1.5605,0.7476,0.5878,-0.8920,1.3056,
1.989452,0.2478,1.1678,-0.2110,-1.3422,1.5605,0.7476,0.5878,-0.8920,1.3056,
1.990160,0.2381,1.1737,-0.3567,-1.3422,1.5605,0.7476,0.5878,-0.8920,1.3056,
1.990865,0.2381,1.1737,-0.3567,-1.3422,1.5605,0.7476,0.9108,-0.7974,1.5333,
1.991538,0.2381,1.1737,-0.3567,-2.3193,2.7848,-0.1069,0.9108,-0.7974,1.5333,
2.047018,0.1416,1.1796,-0.3660,-2.3193,2.7848,-0.1069,0.9108,-0.7974,1.5333,
2.049368,-0.0176,1.3671,-0.2437,-2.3193,2.7848,-0.1069,0.9108,-0.7974,1.5333,
2.050855,-0.2830,1.7548,-0.0808,-2.3193,2.7848,-0.1069,0.9108,-0.7974,1.5333,
2.052036,-0.2830,1.7548,-0.0808,-5.6973,6.1682,0.8006,0.9108,-0.7974,1.5333,
2.054194,-0.2830,1.7548,-0.0808,-5.6973,6.1682,0.8006,1.0704,-1.0364,1.6233,
2.106470,-0.2830,1.7548,-0.0808,-14.1922,9.5055,5.3822,1.0704,-1.0364,1.6233,
2.110424,-0.8902,2.0124,0.1787,-14.1922,9.5055,5.3822,1.0704,-1.0364,1.6233,
2.113476,-1.3871,1.8481,0.2337,-14.1922,9.5055,5.3822,1.0704,-1.0364,1.6233,
2.116299,-0.4561,1.2572,-0.0183,-14.1922,9.5055,5.3822,1.0704,-1.0364,1.6233,
2.118392,-0.4561,1.2572,-0.0183,-14.1922,9.5055,5.3822,1.1690,-2.1370,2.1621,
2.163151,0.6292,1.2042,-0.6487,-14.1922,9.5055,5.3822,1.1690,-2.1370,2.1621,
2.165271,1.3209,1.2628,-0.5193,-14.1922,9.5055,5.3822,1.1690,-2.1370,2.1621,
2.167938,1.2037,0.8753,-0.7349,-14.1922,9.5055,5.3822,1.1690,-2.1370,2.1621,
2.169238,1.2037,0.8753,-0.7349,-14.1922,9.5055,5.3822,1.6795,-3.2081,3.6204,
2.170538,1.2037,0.8753,-0.7349,4.4893,5.2150,-0.4474,1.6795,-3.2081,3.6204,
2.221794,0.7012,0.6627,-0.9535,4.4893,5.2150,-0.4474,1.6795,-3.2081,3.6204,
2.224346,0.4908,0.5755,-0.9703,4.4893,5.2150,-0.4474,1.6795,-3.2081,3.6204,
2.226107,0.3421,0.2481,-0.4979,4.4893,5.2150,-0.4474,1.6795,-3.2081,3.6204,
2.227761,0.3421,0.2481,-0.4979,4.4893,5.2150,-0.4474,-0.4496,-0.3081,1.3946,
2.230306,0.3421,0.2481,-0.4979,-1.1107,-0.5079,-2.1221,-0.4496,-0.3081,1.3946,
2.280669,0.1221,0.0518,-0.2178,-1.1107,-0.5079,-2.1221,-0.4496,-0.3081,1.3946,
2.284517,0.0137,-0.0076,-0.1843,-1.1107,-0.5079,-2.1221,-0.4496,-0.3081,1.3946,
2.286539,0.0115,0.1133,-0.3855,-1.1107,-0.5079,-2.1221,-0.4496,-0.3081,1.3946,
2.288637,0.0115,0.1133,-0.3855,-1.1107,-0.5079,-2.1221,-2.5744,0.2313,-1.2852,
2.290681,0.0115,0.1133,-0.3855,-5.1239,-5.9409,2.1857,-2.5744,0.2313,-1.2852,
2.338882,0.0396,0.2918,-0.5735,-5.1239,-5.9409,2.1857,-2.5744,0.2313,-1.2852,
2.342101,0.0154,0.4183,-0.5836,-5.1239,-5.9409,2.1857,-2.5744,0.2313,-1.2852,
2.345886,0.0581,0.4341,-0.4786,-5.1239,-5.9409,2.1857,-2.5744,0.2313,-1.2852,
2.348483,0.0581,0.4341,-0.4786,-5.1239,-5.9409,2.1857,-3.3508,-0.3789,-3.0645,
2.350763,0.0581,0.4341,-0.4786,-3.7377,-4.2968,-1.8617,-3.3508,-0.3789,-3.0645,
2.397884,0.0730,0.5071,-0.4935,-3.7377,-4.2968,-1.8617,-3.3508,-0.3789,-3.0645,
2.401981,0.0315,0.6800,-0.4981,-3.7377,-4.2968,-1.8617,-3.3508,-0.3789,-3.0645,
2.406443,0.1643,0.8910,-0.6099,-3.7377,-4.2968,-1.8617,-3.3508,-0.3789,-3.0645,
2.409168,0.1643,0.8910,-0.6099,-3.7377,-4.2968,-1.8617,-3.9861,-1.5463,-4.3612,
2.413495,0.1643,0.8910,-0.6099,-0.7430,-2.5302,-3.4562,-3.9861,-1.5463,-4.3612,
2.455352,0.4761,1.1681,-0.9061,-0.7430,-2.5302,-3.4562,-3.9861,-1.5463,-4.3612,
2.459305,0.7135,1.2748,-0.9637,-0.7430,-2.5302,-3.4562,-3.9861,-1.5463,-4.3612,
2.463577,0.6588,1.1962,-0.7203,-0.7430,-2.5302,-3.4562,-3.9861,-1.5463,-4.3612,
2.466311,0.6588,1.1962,-0.7203,7.0343,2.2880,-8.6413,-3.9861,-1.5463,-4.3612,
2.468622,0.6588,1.1962,-0.7203,7.0343,2.2880,-8.6413,-3.9234,-0.2669,-4.9615,
2.512539,0.6690,1.2040,-0.8702,7.0343,2.2880,-8.6413,-3.9234,-0.2669,-4.9615,
2.515256,0.8101,1.0860,-0.7733,7.0343,2.2880,-8.6413,-3.9234,-0.2669,-4.9615,
2.517094,0.8922,0.9957,-0.3721,7.0343,2.2880,-8.6413,-3.9234,-0.2669,-4.9615,
2.518305,0.8922,0.9957,-0.3721,7.0343,2.2880,-8.6413,-2.4991,1.6457,-3.5550,
2.519658,0.8922,0.9957,-0.3721,10.5362,1.6293,-7.7351,-2.4991,1.6457,-3.5550,
2.571516,0.6697,0.9691,-0.1914,10.5362,1.6293,-7.7351,-2.4991,1.6457,-3.5550,
2.575279,0.5865,0.9413,-0.1829,10.5362,1.6293,-7.7351,-2.4991,1.6457,-3.5550,
2.578721,0.4495,1.1285,-0.4915,10.5362,1.6293,-7.7351,-2.4991,1.6457,-3.5550,
2.581278,0.4495,1.1285,-0.4915,10.5362,1.6293,-7.7351,0.1079,1.9776,0.4606,
2.583778,0.4495,1.1285,-0.4915,8.0566,0.7288,-3.5061,0.1079,1.9776,0.4606,
2.630301,-0.5916,1.8420,0.2088,8.0566,0.7288,-3.5061,0.1079,1.9776,0.4606,
2.632200,-1.9411,2.2065,1.3270,8.0566,0.7288,-3.5061,0.1079,1.9776,0.4606,
2.633942,-0.0386,1.1363,-0.1848,8.0566,0.7288,-3.5061,0.1079,1.9776,0.4606,
2.635529,-0.0386,1.1363,-0.1848,-6.4029,7.4070,4.0304,0.1079,1.9776,0.4606,
2.637378,-0.0386,1.1363,-0.1848,-6.4029,7.4070,4.0304,0.3001,1.7149,1.2535,
2.689899,-0.0386,1.1363,-0.1848,4.8436,-2.3321,-3.6784,0.3001,1.7149,1.2535,
2.694635,0.2561,0.7440,-1.5431,4.8436,-2.3321,-3.6784,0.3001,1.7149,1.2535,
2.696374,0.4568,0.7037,-0.2510,4.8436,-2.3321,-3.6784,0.3001,1.7149,1.2535,
2.697528,0.6422,0.8014,0.5997,4.8436,-2.3321,-3.6784,0.3001,1.7149,1.2535,
2.698503,0.6422,0.8014,0.5997,4.8436,-2.3321,-3.6784,0.9136,-0.0057,2.6274,
2.746369,0.3074,1.0458,-0.0164,4.8436,-2.3321,-3.6784,0.9136,-0.0057,2.6274,
2.750807,0.2288,1.0465,-0.2305,4.8436,-2.3321,-3.6784,0.9136,-0.0057,2.6274,
2.753971,0.0903,1.0477,-0.2635,4.8436,-2.3321,-3.6784,0.9136,-0.0057,2.6274,
2.755430,0.0903,1.0477,-0.2635,4.8436,-2.3321,-3.6784,0.5950,-0.0116,1.0697,
2.757996,0.0903,1.0477,-0.2635,1.8212,0.5726,-1.0845,0.5950,-0.0116,1.0697,
2.805153,0.0903,1.0477,-0.2635,-0.7420,0.3792,-0.0645,0.5950,-0.0116,1.0697,
2.807340,-0.0903,1.0885,-0.1345,-0.7420,0.3792,-0.0645,0.5950,-0.0116,1.0697,
2.808730,-0.0403,1.0250,-0.1025,-0.7420,0.3792,-0.0645,0.5950,-0.0116,1.0697,
2.810262,0.1165,0.9574,-0.0320,-0.7420,0.3792,-0.0645,0.5950,-0.0116,1.0697,
2.811474,0.1165,0.9574,-0.0320,-0.7420,0.3792,-0.0645,0.4170,0.1472,0.8506,
2.863153,0.0652,1.0074,-0.0259,-0.7420,0.3792,-0.0645,0.4170,0.1472,0.8506,
2.865847,-0.0054,0.9894,-0.0425,-0.7420,0.3792,-0.0645,0.4170,0.1472,0.8506,
2.868782,0.0527,0.9383,-0.0366,-0.7420,0.3792,-0.0645,0.4170,0.1472,0.8506,
2.870489,0.0527,0.9383,-0.0366,-0.7420,0.3792,-0.0645,0.5237,-0.0112,0.9008,
2.872371,0.0527,0.9383,-0.0366,-0.8158,0.0146,0.7508,0.5237,-0.0112,0.9008,
2.921922,0.0806,0.9610,-0.0344,-0.8158,0.0146,0.7508,0.5237,-0.0112,0.9008,
2.924505,0.0847,0.9908,-0.0371,-0.8158,0.0146,0.7508,0.5237,-0.0112,0.9008,
2.926733,0.1746,0.9459,-0.0850,-0.8158,0.0146,0.7508,0.5237,-0.0112,0.9008,
2.928882,0.1746,0.9459,-0.0850,-0.8158,0.0146,0.7508,0.6677,-0.3244,1.0688,
2.931323,0.1746,0.9459,-0.0850,-0.6287,0.0339,0.9622,0.6677,-0.3244,1.0688,
2.979899,0.2332,0.9374,-0.1577,-0.6287,0.0339,0.9622,0.6677,-0.3244,1.0688,
2.985045,0.2002,0.9488,-0.2053,-0.6287,0.0339,0.9622,0.6677,-0.3244,1.0688,
2.987113,0.1953,0.9657,-0.2092,-0.6287,0.0339,0.9622,0.6677,-0.3244,1.0688,
2.988559,0.1953,0.9657,-0.2092,-0.6287,0.0339,0.9622,0.7440,-0.3592,1.1063,
2.990481,0.1953,0.9657,-0.2092,-0.2470,0.0865,0.0504,0.7440,-0.3592,1.1063,
3.038612,0.2234,0.9884,-0.2019,-0.2470,0.0865,0.0504,0.7440,-0.3592,1.1063,
3.040863,0.1956,1.0116,-0.2232,-0.2470,0.0865,0.0504,0.7440,-0.3592,1.1063,
3.043034,0.1997,1.0179,-0.2337,-0.2470,0.0865,0.0504,0.7440,-0.3592,1.1063,
3.045287,0.1997,1.0179,-0.2337,-0.2470,0.0865,0.0504,0.7715,-0.3545,1.1452,
3.047266,0.1997,1.0179,-0.2337,-0.8271,0.8814,0.2264,0.7715,-0.3545,1.1452,
3.098851,0.2012,1.0106,-0.2437,-0.8271,0.8814,0.2264,0.7715,-0.3545,1.1452,
3.101256,0.1565,1.0284,-0.2456,-0.8271,0.8814,0.2264,0.7715,-0.3545,1.1452,
3.103531,0.1343,1.0721,-0.2007,-0.8271,0.8814,0.2264,0.7715,-0.3545,1.1452,
3.106062,0.1343,1.0721,-0.2007,-0.8271,0.8814,0.2264,0.9941,-0.2822,1.2556,
3.107961,0.1343,1.0721,-0.2007,-1.8073,1.5420,0.6727,0.9941,-0.2822,1.2556,
3.156768,0.1155,1.1468,-0.2007,-1.8073,1.5420,0.6727,0.9941,-0.2822,1.2556,
3.158928,0.0867,1.1595,-0.2180,-1.8073,1.5420,0.6727,0.9941,-0.2822,1.2556,
3.160729,-0.0085,1.3092,-0.2029,-1.8073,1.5420,0.6727,0.9941,-0.2822,1.2556,
3.162680,-0.0085,1.3092,-0.2029,-1.8073,1.5420,0.6727,1.4931,-0.2787,1.4751,
3.164821,-0.0085,1.3092,-0.2029,-3.3823,3.7329,1.6508,1.4931,-0.2787,1.4751,
3.216101,-0.1931,1.7844,-0.0654,-3.3823,3.7329,1.6508,1.4931,-0.2787,1.4751,
3.218942,-0.7970,2.0193,0.1226,-3.3823,3.7329,1.6508,1.4931,-0.2787,1.4751,
3.223281,-1.0399,1.8029,0.1087,-3.3823,3.7329,1.6508,1.4931,-0.2787,1.4751,
3.226198,-1.0399,1.8029,0.1087,-3.3823,3.7329,1.6508,1.9283,-0.8978,1.5964,
3.228501,-1.0399,1.8029,0.1087,-10.9375,10.9121,5.2147,1.9283,-0.8978,1.5964,
3.271265,-0.2420,1.3781,0.0327,-10.9375,10.9121,5.2147,1.9283,-0.8978,1.5964,
3.274335,0.7015,1.1967,-0.3997,-10.9375,10.9121,5.2147,1.9283,-0.8978,1.5964,
3.276469,1.3253,1.2284,-0.4751,-10.9375,10.9121,5.2147,1.9283,-0.8978,1.5964,
3.278535,1.3253,1.2284,-0.4751,-10.9375,10.9121,5.2147,2.0340,-1.9326,2.9247,
3.280421,1.3253,1.2284,-0.4751,0.9709,6.3264,3.1856,2.0340,-1.9326,2.9247,
3.330750,1.3253,1.2284,-0.4751,2.2583,1.5723,0.2339,2.0340,-1.9326,2.9247,
3.332829,0.9806,0.9598,-0.5428,2.2583,1.5723,0.2339,2.0340,-1.9326,2.9247,
3.334138,0.7257,0.6426,-0.6353,2.2583,1.5723,0.2339,2.0340,-1.9326,2.9247,
3.335696,0.6085,0.5005,-0.6986,2.2583,1.5723,0.2339,2.0340,-1.9326,2.9247,
3.336818,0.6085,0.5005,-0.6986,2.2583,1.5723,0.2339,1.2967,-0.0246,1.2252,
3.389153,0.4463,0.3638,-0.3824,2.2583,1.5723,0.2339,1.2967,-0.0246,1.2252,
3.392300,0.3333,0.1958,-0.1218,2.2583,1.5723,0.2339,1.2967,-0.0246,1.2252,
3.394412,0.2302,0.1145,-0.0671,2.2583,1.5723,0.2339,1.2967,-0.0246,1.2252,
3.396190,0.2302,0.1145,-0.0671,2.2583,1.5723,0.2339,-1.0922,0.8259,-0.7711,
3.399214,0.2302,0.1145,-0.0671,-2.0101,-3.6580,3.8168,-1.0922,0.8259,-0.7711,
3.447099,0.1829,0.1426,-0.1177,-2.0101,-3.6580,3.8168,-1.0922,0.8259,-0.7711,
3.450160,0.1865,0.2346,-0.2237,-2.0101,-3.6580,3.8168,-1.0922,0.8259,-0.7711,
3.451607,0.2212,0.3626,-0.3719,-2.0101,-3.6580,3.8168,-1.0922,0.8259,-0.7711,
3.453183,0.2212,0.3626,-0.3719,-2.0101,-3.6580,3.8168,-2.2545,0.1362,-2.5823,
3.455441,0.2212,0.3626,-0.3719,-2.3895,-4.7833,2.4050,-2.2545,0.1362,-2.5823,
3.506164,0.2334,0.4861,-0.3846,-2.3895,-4.7833,2.4050,-2.2545,0.1362,-2.5823,
3.510051,0.2298,0.5374,-0.2691,-2.3895,-4.7833,2.4050,-2.2545,0.1362,-2.5823,
3.512288,0.3340,0.6158,-0.2720,-2.3895,-4.7833,2.4050,-2.2545,0.1362,-2.5823,
3.514775,0.3340,0.6158,-0.2720,-2.3895,-4.7833,2.4050,-3.5932,-0.1641,-3.7259,
3.516968,0.3340,0.6158,-0.2720,0.0687,-3.3639,0.0527,-3.5932,-0.1641,-3.7259,
3.563793,0.3936,0.8223,-0.3858,0.0687,-3.3639,0.0527,-3.5932,-0.1641,-3.7259,
3.567860,0.3982,1.1747,-0.4009,0.0687,-3.3639,0.0527,-3.5932,-0.1641,-3.7259,
3.570089,0.3880,1.5392,-0.6019,0.0687,-3.3639,0.0527,-3.5932,-0.1641,-3.7259,
3.572506,0.3880,1.5392,-0.6019,0.0687,-3.3639,0.0527,-4.4294,-0.3311,-4.5056,
3.574853,0.3880,1.5392,-0.6019,3.7200,1.9583,-3.7596,-4.4294,-0.3311,-4.5056,
3.622566,0.3804,1.6510,-0.6944,3.7200,1.9583,-3.7596,-4.4294,-0.3311,-4.5056,
3.628336,0.6317,1.5268,-0.5330,3.7200,1.9583,-3.7596,-4.4294,-0.3311,-4.5056,
3.630828,0.8326,1.2111,-0.3081,3.7200,1.9583,-3.7596,-4.4294,-0.3311,-4.5056,
3.634167,0.8326,1.2111,-0.3081,3.7200,1.9583,-3.7596,-4.4414,-0.4614,-3.8833,
3.635561,0.8326,1.2111,-0.3081,7.8996,4.9961,-6.6198,-4.4414,-0.4614,-3.8833,
3.679911,0.6216,1.0799,-0.4832,7.8996,4.9961,-6.6198,-4.4414,-0.4614,-3.8833,
3.684034,0.5110,0.8705,-0.7095,7.8996,4.9961,-6.6198,-4.4414,-0.4614,-3.8833,
3.686350,0.5611,0.6773,-0.5276,7.8996,4.9961,-6.6198,-4.4414,-0.4614,-3.8833,
3.688437,0.5611,0.6773,-0.5276,7.8996,4.9961,-6.6198,-1.9570,0.5439,-1.3217,
3.690489,0.5611,0.6773,-0.5276,8.0514,-0.3376,-8.0513,-1.9570,0.5439,-1.3217,
3.738045,0.5606,0.7913,-0.5042,8.0514,-0.3376,-8.0513,-1.9570,0.5439,-1.3217,
3.741771,0.4427,0.9840,-1.0309,8.0514,-0.3376,-8.0513,-1.9570,0.5439,-1.3217,
3.744518,-0.6343,1.6545,0.0088,8.0514,-0.3376,-8.0513,-1.9570,0.5439,-1.3217,
3.746818,-0.6343,1.6545,0.0088,3.3464,2.0034,-6.6023,-1.9570,0.5439,-1.3217,
3.749117,-0.6343,1.6545,0.0088,3.3464,2.0034,-6.6023,0.6471,2.5355,1.2167,
3.797367,-2.4290,1.8608,1.0343,3.3464,2.0034,-6.6023,0.6471,2.5355,1.2167,
3.800868,-0.5950,1.4970,-0.4710,3.3464,2.0034,-6.6023,0.6471,2.5355,1.2167,
3.803026,0.7528,1.1232,-0.7635,3.3464,2.0034,-6.6023,0.6471,2.5355,1.2167,
3.805086,0.7528,1.1232,-0.7635,3.3464,2.0034,-6.6023,1.0012,2.3857,1.2800,
3.807138,0.7528,1.1232,-0.7635,-5.7062,5.1388,-1.4379,1.0012,2.3857,1.2800,
3.854898,0.1506,0.7691,0.2700,-5.7062,5.1388,-1.4379,1.0012,2.3857,1.2800,
3.858327,0.1585,0.7611,-0.0220,-5.7062,5.1388,-1.4379,1.0012,2.3857,1.2800,
3.860149,0.5364,1.0138,-0.1773,-5.7062,5.1388,-1.4379,1.0012,2.3857,1.2800,
3.861805,0.5364,1.0138,-0.1773,3.4206,-1.3166,-0.1655,1.0012,2.3857,1.2800,
3.864791,0.5364,1.0138,-0.1773,3.4206,-1.3166,-0.1655,0.6925,-0.2087,1.7791,
3.913061,0.4720,1.1300,-0.2356,3.4206,-1.3166,-0.1655,0.6925,-0.2087,1.7791,
3.916546,0.0566,0.9762,-0.0696,3.4206,-1.3166,-0.1655,0.6925,-0.2087,1.7791,
3.918193,-0.1890,1.0321,-0.0269,3.4206,-1.3166,-0.1655,0.6925,-0.2087,1.7791,
3.920308,-0.1890,1.0321,-0.0269,3.4206,-1.3166,-0.1655,0.2631,0.3160,0.7139,
3.922223,-0.1890,1.0321,-0.0269,1.3489,0.5908,-1.3050,0.2631,0.3160,0.7139,
3.971457,-0.1228,1.0809,0.0559,1.3489,0.5908,-1.3050,0.2631,0.3160,0.7139,
3.973571,0.0391,0.9706,0.1480,1.3489,0.5908,-1.3050,0.2631,0.3160,0.7139,
3.974338,0.0669,0.9598,0.1536,1.3489,0.5908,-1.3050,0.2631,0.3160,0.7139,
3.975078,0.0669,0.9598,0.1536,1.3489,0.5908,-1.3050,0.2093,0.0238,0.6319,
3.975841,0.0669,0.9598,0.1536,-0.1685,0.1689,1.0482,0.2093,0.0238,0.6319,
4.029314,0.1074,0.9779,0.0774,-0.1685,0.1689,1.0482,0.2093,0.0238,0.6319,
4.031894,0.0835,0.9830,0.0381,-0.1685,0.1689,1.0482,0.2093,0.0238,0.6319,
4.033411,-0.0366,0.9969,0.0911,-0.1685,0.1689,1.0482,0.2093,0.0238,0.6319,
4.034812,-0.0366,0.9969,0.0911,-0.1685,0.1689,1.0482,0.3651,-0.1285,0.5604,
4.036766,-0.0366,0.9969,0.0911,0.0735,0.0027,0.7506,0.3651,-0.1285,0.5604,
4.088836,-0.0637,1.0043,0.1214,0.0735,0.0027,0.7506,0.3651,-0.1285,0.5604,
4.092552,-0.0427,0.9930,0.1182,0.0735,0.0027,0.7506,0.3651,-0.1285,0.5604,
4.094874,0.0278,0.9569,0.0725,0.0735,0.0027,0.7506,0.3651,-0.1285,0.5604,
4.096295,0.0278,0.9569,0.0725,0.0735,0.0027,0.7506,0.6609,-0.2150,0.6895,
4.098234,0.0278,0.9569,0.0725,-1.0543,0.0257,1.4504,0.6609,-0.2150,0.6895,
4.147689,0.0711,0.9488,0.0220,-1.0543,0.0257,1.4504,0.6609,-0.2150,0.6895,
4.150922,0.1060,0.9300,-0.0982,-1.0543,0.0257,1.4504,0.6609,-0.2150,0.6895,
4.153461,0.1477,0.9178,-0.1712,-1.0543,0.0257,1.4504,0.6609,-0.2150,0.6895,
4.155106,0.1477,0.9178,-0.1712,-0.2056,-0.3942,0.1357,0.6609,-0.2150,0.6895,
4.156894,0.1477,0.9178,-0.1712,-0.2056,-0.3942,0.1357,0.8766,-0.4034,0.8742,
4.206616,0.1494,0.9347,-0.2085,-0.2056,-0.3942,0.1357,0.8766,-0.4034,0.8742,
4.210516,0.2117,0.9037,-0.2429,-0.2056,-0.3942,0.1357,0.8766,-0.4034,0.8742,
4.212518,0.2959,0.9005,-0.2073,-0.2056,-0.3942,0.1357,0.8766,-0.4034,0.8742,
4.215400,0.2959,0.9005,-0.2073,-0.2056,-0.3942,0.1357,0.6864,-0.6960,0.8440,
4.217408,0.2959,0.9005,-0.2073,0.4540,-0.4562,-0.7555,0.6864,-0.6960,0.8440,
4.263331,0.2429,0.9342,-0.1377,0.4540,-0.4562,-0.7555,0.6864,-0.6960,0.8440,
4.265955,0.1653,0.9750,-0.0930,0.4540,-0.4562,-0.7555,0.6864,-0.6960,0.8440,
4.268003,0.0479,1.0194,-0.0352,0.4540,-0.4562,-0.7555,0.6864,-0.6960,0.8440,
4.269886,0.0479,1.0194,-0.0352,0.4540,-0.4562,-0.7555,0.5583,-0.9825,0.6836,
4.271825,0.0479,1.0194,-0.0352,-0.4744,0.2840,0.9224,0.5583,-0.9825,0.6836,
4.321294,-0.0686,1.1258,-0.0742,-0.4744,0.2840,0.9224,0.5583,-0.9825,0.6836,
4.325431,-0.1040,1.2384,-0.0352,-0.4744,0.2840,0.9224,0.5583,-0.9825,0.6836,
4.327285,-0.1926,1.3766,0.0630,-0.4744,0.2840,0.9224,0.5583,-0.9825,0.6836,
4.329318,-0.1926,1.3766,0.0630,-0.4744,0.2840,0.9224,0.8870,-1.4836,1.0751,
4.331322,-0.1926,1.3766,0.0630,-3.4897,3.1300,2.2625,0.8870,-1.4836,1.0751,
4.380008,-0.0313,1.6115,-0.0230,-3.4897,3.1300,2.2625,0.8870,-1.4836,1.0751,
4.383559,0.1047,1.7619,-0.1443,-3.4897,3.1300,2.2625,0.8870,-1.4836,1.0751,
4.385776,-0.0708,1.5524,-0.3611,-3.4897,3.1300,2.2625,0.8870,-1.4836,1.0751,
4.387779,-0.0708,1.5524,-0.3611,-3.4897,3.1300,2.2625,0.6728,-2.5463,2.1792,
4.389790,-0.0708,1.5524,-0.3611,-2.9494,7.3235,1.4084,0.6728,-2.5463,2.1792,
4.438886,-0.0842,1.2413,-0.5350,-2.9494,7.3235,1.4084,0.6728,-2.5463,2.1792,
4.443268,0.1226,0.9039,-0.5638,-2.9494,7.3235,1.4084,0.6728,-2.5463,2.1792,
4.445085,0.3575,0.5933,-0.6551,-2.9494,7.3235,1.4084,0.6728,-2.5463,2.1792,
4.446962,0.3575,0.5933,-0.6551,-2.0826,0.6178,-1.8733,0.6728,-2.5463,2.1792,
4.448944,0.3575,0.5933,-0.6551,-2.0826,0.6178,-1.8733,-0.5241,-5.0250,2.9756,
4.498370,0.5159,0.4551,-0.7967,-2.0826,0.6178,-1.8733,-0.5241,-5.0250,2.9756,
4.504970,0.4119,0.4612,-0.8639,-2.0826,0.6178,-1.8733,-0.5241,-5.0250,2.9756,
4.507794,0.1399,0.4502,-0.8702,-2.0826,0.6178,-1.8733,-0.5241,-5.0250,2.9756,
4.510061,0.1399,0.4502,-0.8702,-2.0826,0.6178,-1.8733,-2.0161,-5.0392,3.0228,
4.513074,0.1399,0.4502,-0.8702,-0.1762,-3.6447,-4.2693,-2.0161,-5.0392,3.0228,
4.554936,-0.1421,0.3423,-0.8387,-0.1762,-3.6447,-4.2693,-2.0161,-5.0392,3.0228,
4.558493,-0.3538,0.3228,-0.8492,-0.1762,-3.6447,-4.2693,-2.0161,-5.0392,3.0228,
4.561195,-0.4549,0.3914,-0.7789,-0.1762,-3.6447,-4.2693,-2.0161,-5.0392,3.0228,
4.564255,-0.4549,0.3914,-0.7789,-0.1762,-3.6447,-4.2693,-2.8972,-4.2357,1.8947,
4.566938,-0.4549,0.3914,-0.7789,-6.6190,-4.8129,-4.4658,-2.8972,-4.2357,1.8947,
4.612780,-0.4019,0.4302,-0.6824,-6.6190,-4.8129,-4.4658,-2.8972,-4.2357,1.8947,
4.615900,-0.3809,0.5284,-0.7596,-6.6190,-4.8129,-4.4658,-2.8972,-4.2357,1.8947,
4.618003,-0.3379,0.6043,-0.8336,-6.6190,-4.8129,-4.4658,-2.8972,-4.2357,1.8947,
4.620043,-0.3379,0.6043,-0.8336,-6.6190,-4.8129,-4.4658,-2.7147,-4.8643,0.5995,
4.622056,-0.3379,0.6043,-0.8336,-6.4000,-3.5180,-4.1942,-2.7147,-4.8643,0.5995,
4.672078,-0.2661,0.6351,-0.7794,-6.4000,-3.5180,-4.1942,-2.7147,-4.8643,0.5995,
4.677281,-0.1768,0.7603,-0.7135,-6.4000,-3.5180,-4.1942,-2.7147,-4.8643,0.5995,
4.679535,-0.1404,0.9637,-0.6905,-6.4000,-3.5180,-4.1942,-2.7147,-4.8643,0.5995,
4.681543,-0.1404,0.9637,-0.6905,-6.4000,-3.5180,-4.1942,-2.5414,-5.1295,-1.0790,
4.684535,-0.1404,0.9637,-0.6905,-3.1522,-1.4457,-4.5147,-2.5414,-5.1295,-1.0790,
4.729977,-0.0178,1.1776,-0.7760,-3.1522,-1.4457,-4.5147,-2.5414,-5.1295,-1.0790,
4.734040,0.1997,1.2794,-0.6832,-3.1522,-1.4457,-4.5147,-2.5414,-5.1295,-1.0790,
4.736892,0.1267,1.2030,-0.4673,-3.1522,-1.4457,-4.5147,-2.5414,-5.1295,-1.0790,
4.743266,0.1267,1.2030,-0.4673,-3.1522,-1.4457,-4.5147,-2.1336,-3.3561,-2.0820,
4.746261,0.1267,1.2030,-0.4673,1.2960,2.4476,-4.6504,-2.1336,-3.3561,-2.0820,
4.788036,-0.0320,1.1490,-0.3653,1.2960,2.4476,-4.6504,-2.1336,-3.3561,-2.0820,
4.791601,-0.0085,1.1229,-0.2466,1.2960,2.4476,-4.6504,-2.1336,-3.3561,-2.0820,
4.795304,0.0588,1.0973,-0.1817,1.2960,2.4476,-4.6504,-2.1336,-3.3561,-2.0820,
4.797880,0.0588,1.0973,-0.1817,1.2960,2.4476,-4.6504,-1.3877,-1.7308,-1.8802,
4.800203,0.0588,1.0973,-0.1817,1.4936,1.4712,-1.7722,-1.3877,-1.7308,-1.8802,
4.847370,0.0537,1.0531,-0.0952,1.4936,1.4712,-1.7722,-1.3877,-1.7308,-1.8802,
4.852360,0.0063,0.9562,-0.0183,1.4936,1.4712,-1.7722,-1.3877,-1.7308,-1.8802,
4.855074,-0.0640,0.9129,0.0178,1.4936,1.4712,-1.7722,-1.3877,-1.7308,-1.8802,
4.856808,-0.0640,0.9129,0.0178,1.4936,1.4712,-1.7722,-0.5321,-2.1561,-0.9631,
4.859174,-0.0640,0.9129,0.0178,1.9866,0.0880,-0.0125,-0.5321,-2.1561,-0.9631,
4.903901,-0.1306,0.9012,0.0251,1.9866,0.0880,-0.0125,-0.5321,-2.1561,-0.9631,
4.906226,-0.1226,0.8763,0.0491,1.9866,0.0880,-0.0125,-0.5321,-2.1561,-0.9631,
4.907276,-0.0483,0.8734,0.0515,1.9866,0.0880,-0.0125,-0.5321,-2.1561,-0.9631,
4.908239,-0.0483,0.8734,0.0515,1.9866,0.0880,-0.0125,0.0464,-3.1486,-0.2702,
4.910542,-0.0483,0.8734,0.0515,1.1608,-0.7533,0.3406,0.0464,-3.1486,-0.2702,
4.963971,-0.0066,0.8656,0.0835,1.1608,-0.7533,0.3406,0.0464,-3.1486,-0.2702,
4.966628,0.0542,0.8705,0.0859,1.1608,-0.7533,0.3406,0.0464,-3.1486,-0.2702,
4.968008,0.1008,0.8956,0.0732,1.1608,-0.7533,0.3406,0.0464,-3.1486,-0.2702,
4.969606,0.1008,0.8956,0.0732,1.1608,-0.7533,0.3406,0.1678,-3.1026,0.1953,
4.971393,0.1008,0.8956,0.0732,2.4418,-0.8282,0.4279,0.1678,-3.1026,0.1953,
5.020394,0.1223,0.9095,0.1245,2.4418,-0.8282,0.4279,0.1678,-3.1026,0.1953,
5.022413,0.1707,0.9200,0.1883,2.4418,-0.8282,0.4279,0.1678,-3.1026,0.1953,
5.023491,0.2520,0.9469,0.1702,2.4418,-0.8282,0.4279,0.1678,-3.1026,0.1953,
5.024372,0.2520,0.9469,0.1702,2.4418,-0.8282,0.4279,0.1822,-2.0169,0.3710,
5.025178,0.2520,0.9469,0.1702,3.4238,-0.3927,1.0774,0.1822,-2.0169,0.3710,
5.080347,0.2305,0.9510,0.1438,3.4238,-0.3927,1.0774,0.1822,-2.0169,0.3710,
5.084602,0.2012,0.9364,0.0967,3.4238,-0.3927,1.0774,0.1822,-2.0169,0.3710,
5.086433,0.1167,0.9627,-0.0090,3.4238,-0.3927,1.0774,0.1822,-2.0169,0.3710,
5.088089,0.1167,0.9627,-0.0090,3.4238,-0.3927,1.0774,0.1674,-0.6137,0.4551,
5.089769,0.1167,0.9627,-0.0090,3.1126,-0.1933,0.2877,0.1674,-0.6137,0.4551,
5.140122,-0.2329,1.0953,0.1194,3.1126,-0.1933,0.2877,0.1674,-0.6137,0.4551,
5.145282,-0.7784,1.4584,0.3343,3.1126,-0.1933,0.2877,0.1674,-0.6137,0.4551,
5.147293,-0.8326,1.5028,0.1204,3.1126,-0.1933,0.2877,0.1674,-0.6137,0.4551,
5.149185,-0.8326,1.5028,0.1204,3.1126,-0.1933,0.2877,-0.1415,1.1949,-0.0262,
5.151733,-0.8326,1.5028,0.1204,-4.5783,3.6910,1.3969,-0.1415,1.1949,-0.0262,
5.197280,-0.8326,1.5028,0.1204,-2.8034,0.6363,-1.9766,-0.1415,1.1949,-0.0262,
5.201127,-0.5103,1.1979,-0.3619,-2.8034,0.6363,-1.9766,-0.1415,1.1949,-0.0262,
5.204286,-0.3699,1.0521,-0.3506,-2.8034,0.6363,-1.9766,-0.1415,1.1949,-0.0262,
5.206723,-0.2600,0.8990,0.1524,-2.8034,0.6363,-1.9766,-0.1415,1.1949,-0.0262,
5.208281,-0.2600,0.8990,0.1524,-2.8034,0.6363,-1.9766,0.4052,0.9949,1.0568,
5.254452,0.1250,0.9093,0.3877,-2.8034,0.6363,-1.9766,0.4052,0.9949,1.0568,
5.256468,0.2505,0.9908,0.2852,-2.8034,0.6363,-1.9766,0.4052,0.9949,1.0568,
5.258436,0.0022,0.9630,0.2466,-2.8034,0.6363,-1.9766,0.4052,0.9949,1.0568,
5.260171,0.0022,0.9630,0.2466,1.3643,-0.3358,2.9694,0.4052,0.9949,1.0568,
5.261948,0.0022,0.9630,0.2466,1.3643,-0.3358,2.9694,0.2850,-0.0659,1.3610,
5.313376,-0.1997,0.9476,0.2703,1.3643,-0.3358,2.9694,0.2850,-0.0659,1.3610,
5.317016,-0.0437,1.0182,-0.0537,1.3643,-0.3358,2.9694,0.2850,-0.0659,1.3610,
5.318947,0.2383,1.0484,-0.2740,1.3643,-0.3358,2.9694,0.2850,-0.0659,1.3610,
5.320718,0.2383,1.0484,-0.2740,1.3643,-0.3358,2.9694,0.4834,-1.2388,1.2071,
5.322342,0.2383,1.0484,-0.2740,-0.5501,0.1727,0.0694,0.4834,-1.2388,1.2071,
5.371548,0.4312,0.9684,-0.2417,-0.5501,0.1727,0.0694,0.4834,-1.2388,1.2071,
5.375615,0.2774,0.9725,-0.0430,-0.5501,0.1727,0.0694,0.4834,-1.2388,1.2071,
5.377241,0.0808,1.0143,0.0117,-0.5501,0.1727,0.0694,0.4834,-1.2388,1.2071,
5.378855,0.0808,1.0143,0.0117,-0.5501,0.1727,0.0694,0.3681,0.2354,0.7720,
5.380854,0.0808,1.0143,0.0117,1.5775,0.0209,-0.4340,0.3681,0.2354,0.7720,
5.430082,0.0127,1.0314,-0.0203,1.5775,0.0209,-0.4340,0.3681,0.2354,0.7720,
5.433598,0.0439,1.0165,-0.0425,1.5775,0.0209,-0.4340,0.3681,0.2354,0.7720,
5.434525,0.1231,1.0135,-0.0969,1.5775,0.0209,-0.4340,0.3681,0.2354,0.7720,
5.435231,0.1231,1.0135,-0.0969,1.5775,0.0209,-0.4340,0.3127,-0.0698,0.5702,
5.436002,0.1231,1.0135,-0.0969,-0.7190,0.4095,0.1146,0.3127,-0.0698,0.5702,
5.489112,0.1868,1.0191,-0.0569,-0.7190,0.4095,0.1146,0.3127,-0.0698,0.5702,
5.493308,0.0925,0.9935,-0.0149,-0.7190,0.4095,0.1146,0.3127,-0.0698,0.5702,
5.495386,0.0471,0.9911,0.0066,-0.7190,0.4095,0.1146,0.3127,-0.0698,0.5702,
5.497026,0.0471,0.9911,0.0066,-0.7190,0.4095,0.1146,0.2961,-0.1954,0.5313,
5.498838,0.0471,0.9911,0.0066,-0.5189,0.2741,0.5951,0.2961,-0.1954,0.5313,
5.546312,0.0842,0.9764,0.0864,-0.5189,0.2741,0.5951,0.2961,-0.1954,0.5313,
5.549261,0.0630,0.9837,0.0183,-0.5189,0.2741,0.5951,0.2961,-0.1954,0.5313,
5.550883,0.0681,1.0060,-0.0356,-0.5189,0.2741,0.5951,0.2961,-0.1954,0.5313,
5.552781,0.0681,1.0060,-0.0356,-0.5189,0.2741,0.5951,0.4500,-0.2453,0.6712,
5.554812,0.0681,1.0060,-0.0356,-1.2192,0.2411,1.2864,0.4500,-0.2453,0.6712,
5.604910,0.1060,0.9889,-0.0454,-1.2192,0.2411,1.2864,0.4500,-0.2453,0.6712,
5.607894,0.1336,0.9879,-0.0376,-1.2192,0.2411,1.2864,0.4500,-0.2453,0.6712,
5.609718,0.0906,1.0018,-0.0212,-1.2192,0.2411,1.2864,0.4500,-0.2453,0.6712,
5.611529,0.0906,1.0018,-0.0212,-1.2192,0.2411,1.2864,0.6161,-0.3584,0.9139,
5.613323,0.0906,1.0018,-0.0212,-1.2957,0.4345,1.0837,0.6161,-0.3584,0.9139,
5.663918,0.1380,0.9991,-0.0537,-1.2957,0.4345,1.0837,0.6161,-0.3584,0.9139,
5.668099,0.2014,0.9730,-0.1038,-1.2957,0.4345,1.0837,0.6161,-0.3584,0.9139,
5.669995,0.1228,1.0065,-0.1282,-1.2957,0.4345,1.0837,0.6161,-0.3584,0.9139,
5.671368,0.1228,1.0065,-0.1282,-1.4156,0.6794,0.9652,0.6161,-0.3584,0.9139,
5.673571,0.1228,1.0065,-0.1282,-1.4156,0.6794,0.9652,0.7658,-0.5196,1.1705,
5.722437,0.1543,1.0504,-0.1282,-1.4156,0.6794,0.9652,0.7658,-0.5196,1.1705,
5.726089,0.2156,1.0743,-0.0437,-1.4156,0.6794,0.9652,0.7658,-0.5196,1.1705,
5.727739,0.1626,1.1285,-0.0171,-1.4156,0.6794,0.9652,0.7658,-0.5196,1.1705,
5.729095,0.1626,1.1285,-0.0171,-1.4156,0.6794,0.9652,0.9961,-0.7167,1.4826,
5.731081,0.1626,1.1285,-0.0171,-1.8274,1.9552,1.8999,0.9961,-0.7167,1.4826,
5.780263,0.1404,1.1691,-0.1572,-1.8274,1.9552,1.8999,0.9961,-0.7167,1.4826,
5.783950,0.1870,1.1615,-0.2549,-1.8274,1.9552,1.8999,0.9961,-0.7167,1.4826,
5.785824,0.1382,1.3449,-0.2891,-1.8274,1.9552,1.8999,0.9961,-0.7167,1.4826,
5.788197,0.1382,1.3449,-0.2891,-1.8274,1.9552,1.8999,1.4245,-0.9698,1.8027,
5.790204,0.1382,1.3449,-0.2891,-2.7106,3.9290,1.1243,1.4245,-0.9698,1.8027,
5.838300,-0.1426,1.7016,-0.0391,-2.7106,3.9290,1.1243,1.4245,-0.9698,1.8027,
5.841564,-0.6964,1.8911,0.0247,-2.7106,3.9290,1.1243,1.4245,-0.9698,1.8027,
5.843621,-1.1144,1.9821,-0.0203,-2.7106,3.9290,1.1243,1.4245,-0.9698,1.8027,
5.845670,-1.1144,1.9821,-0.0203,-2.7106,3.9290,1.1243,1.8676,-1.0680,1.9326,
5.847875,-1.1144,1.9821,-0.0203,-11.0379,10.8956,4.3410,1.8676,-1.0680,1.9326,
5.897544,-0.8214,1.5214,-0.0259,-11.0379,10.8956,4.3410,1.8676,-1.0680,1.9326,
5.902226,0.1541,1.0406,-0.4546,-11.0379,10.8956,4.3410,1.8676,-1.0680,1.9326,
5.905687,1.2008,1.0316,-0.7115,-11.0379,10.8956,4.3410,1.8676,-1.0680,1.9326,
5.907899,1.2008,1.0316,-0.7115,-3.2768,5.8419,2.0436,1.8676,-1.0680,1.9326,
5.910621,1.2008,1.0316,-0.7115,-3.2768,5.8419,2.0436,1.8692,-2.7693,3.3132,
5.955256,1.3529,0.9046,-0.7218,-3.2768,5.8419,2.0436,1.8692,-2.7693,3.3132,
5.958490,0.8128,0.6409,-0.8009,-3.2768,5.8419,2.0436,1.8692,-2.7693,3.3132,
5.960485,0.5823,0.3824,-0.9608,-3.2768,5.8419,2.0436,1.8692,-2.7693,3.3132,
5.962523,0.5823,0.3824,-0.9608,-3.2768,5.8419,2.0436,1.2240,-0.9829,1.9833,
5.965538,0.5823,0.3824,-0.9608,3.6305,1.4206,-1.4737,1.2240,-0.9829,1.9833,
6.013105,0.4908,0.3243,-0.6043,3.6305,1.4206,-1.4737,1.2240,-0.9829,1.9833,
6.015299,0.2771,0.1812,-0.2368,3.6305,1.4206,-1.4737,1.2240,-0.9829,1.9833,
6.016231,-0.0391,0.0510,-0.0405,3.6305,1.4206,-1.4737,1.2240,-0.9829,1.9833,
6.016906,-0.0391,0.0510,-0.0405,3.6305,1.4206,-1.4737,-2.0269,0.6927,-0.4510,
6.018223,-0.0391,0.0510,-0.0405,-3.0182,-3.8753,2.8661,-2.0269,0.6927,-0.4510,
6.071799,-0.0391,0.0510,-0.0405,-5.0277,-4.8603,1.7620,-2.0269,0.6927,-0.4510,
6.077104,-0.1836,0.0723,-0.1380,-5.0277,-4.8603,1.7620,-2.0269,0.6927,-0.4510,
6.078689,-0.0535,0.2327,-0.3350,-5.0277,-4.8603,1.7620,-2.0269,0.6927,-0.4510,
6.079759,0.0859,0.3807,-0.4031,-5.0277,-4.8603,1.7620,-2.0269,0.6927,-0.4510,
6.080468,0.0859,0.3807,-0.4031,-5.0277,-4.8603,1.7620,-2.6705,0.3004,-2.3038,
6.128524,0.0754,0.4908,-0.3372,-5.0277,-4.8603,1.7620,-2.6705,0.3004,-2.3038,
6.130364,0.0271,0.5501,-0.3211,-5.0277,-4.8603,1.7620,-2.6705,0.3004,-2.3038,
6.131740,0.0344,0.6634,-0.2566,-5.0277,-4.8603,1.7620,-2.6705,0.3004,-2.3038,
6.132995,0.0344,0.6634,-0.2566,-2.1343,-3.0598,0.1966,-2.6705,0.3004,-2.3038,
6.134078,0.0344,0.6634,-0.2566,-2.1343,-3.0598,0.1966,-3.6145,-1.1802,-3.5658,
6.188455,0.0288,0.9000,-0.4319,-2.1343,-3.0598,0.1966,-3.6145,-1.1802,-3.5658,
6.192355,0.1975,1.2086,-0.6531,-2.1343,-3.0598,0.1966,-3.6145,-1.1802,-3.5658,
6.195926,0.5587,1.4765,-0.7323,-2.1343,-3.0598,0.1966,-3.6145,-1.1802,-3.5658,
6.198385,0.5587,1.4765,-0.7323,-2.1343,-3.0598,0.1966,-4.3352,-2.3197,-3.9053,
6.200638,0.5587,1.4765,-0.7323,2.3101,2.1829,-4.8047,-4.3352,-2.3197,-3.9053,
6.248204,0.7994,1.6620,-0.7872,2.3101,2.1829,-4.8047,-4.3352,-2.3197,-3.9053,
6.251988,0.7896,1.5275,-0.6583,2.3101,2.1829,-4.8047,-4.3352,-2.3197,-3.9053,
6.255169,0.6077,1.1227,-0.2073,2.3101,2.1829,-4.8047,-4.3352,-2.3197,-3.9053,
6.257346,0.6077,1.1227,-0.2073,8.9176,4.6970,-6.6555,-4.3352,-2.3197,-3.9053,
6.259618,0.6077,1.1227,-0.2073,8.9176,4.6970,-6.6555,-4.5534,0.0153,-3.8175,
6.305426,0.4051,1.0687,-0.0996,8.9176,4.6970,-6.6555,-4.5534,0.0153,-3.8175,
6.310189,0.5931,0.9918,-0.3841,8.9176,4.6970,-6.6555,-4.5534,0.0153,-3.8175,
6.312731,0.8614,0.7528,-0.5569,8.9176,4.6970,-6.6555,-4.5534,0.0153,-3.8175,
6.314196,0.8614,0.7528,-0.5569,8.9176,4.6970,-6.6555,-1.7571,0.9803,-1.3978,
6.315245,0.8614,0.7528,-0.5569,8.5310,0.1469,-5.3764,-1.7571,0.9803,-1.3978,
6.363274,0.9952,0.7083,-0.6505,8.5310,0.1469,-5.3764,-1.7571,0.9803,-1.3978,
6.367276,0.6895,1.0931,-1.0121,8.5310,0.1469,-5.3764,-1.7571,0.9803,-1.3978,
6.369491,-0.7471,1.6298,0.2056,8.5310,0.1469,-5.3764,-1.7571,0.9803,-1.3978,
6.371732,-0.7471,1.6298,0.2056,8.5310,0.1469,-5.3764,0.7990,3.2541,1.5392,
6.373481,-0.7471,1.6298,0.2056,4.9203,1.8649,-5.7730,0.7990,3.2541,1.5392,
6.421958,-2.4815,1.5807,0.8844,4.9203,1.8649,-5.7730,0.7990,3.2541,1.5392,
6.425359,-0.7567,1.5236,-0.5967,4.9203,1.8649,-5.7730,0.7990,3.2541,1.5392,
6.426907,0.4817,1.2284,-1.3756,4.9203,1.8649,-5.7730,0.7990,3.2541,1.5392,
6.428171,0.4817,1.2284,-1.3756,4.9203,1.8649,-5.7730,1.1014,2.8609,1.2065,
6.429683,0.4817,1.2284,-1.3756,-7.5823,4.5841,-3.6367,1.1014,2.8609,1.2065,
6.480457,0.0386,0.8131,0.1436,-7.5823,4.5841,-3.6367,1.1014,2.8609,1.2065,
6.484743,0.0088,0.7147,0.1204,-7.5823,4.5841,-3.6367,1.1014,2.8609,1.2065,
6.486377,0.3985,1.0292,0.0313,-7.5823,4.5841,-3.6367,1.1014,2.8609,1.2065,
6.488248,0.3985,1.0292,0.0313,-7.5823,4.5841,-3.6367,0.5441,-0.3358,1.9652,
6.489963,0.3985,1.0292,0.0313,1.7516,-1.2923,1.1664,0.5441,-0.3358,1.9652,
6.538120,0.4847,1.0570,-0.1804,1.7516,-1.2923,1.1664,0.5441,-0.3358,1.9652,
6.541252,0.1863,0.9877,0.0674,1.7516,-1.2923,1.1664,0.5441,-0.3358,1.9652,
6.543712,-0.1096,1.0318,0.0364,1.7516,-1.2923,1.1664,0.5441,-0.3358,1.9652,
6.545522,-0.1096,1.0318,0.0364,1.7516,-1.2923,1.1664,0.4296,-0.1456,1.0994,
6.547495,-0.1096,1.0318,0.0364,1.4879,0.4070,0.1900,0.4296,-0.1456,1.0994,
6.596175,-0.0298,1.0653,0.0352,1.4879,0.4070,0.1900,0.4296,-0.1456,1.0994,
6.599208,0.0349,1.0052,0.0654,1.4879,0.4070,0.1900,0.4296,-0.1456,1.0994,
6.600830,-0.0132,0.9586,0.1521,1.4879,0.4070,0.1900,0.4296,-0.1456,1.0994,
6.602392,-0.0132,0.9586,0.1521,1.4879,0.4070,0.1900,0.5154,0.1079,1.0126,
6.604110,-0.0132,0.9586,0.1521,-0.9285,0.3019,1.5245,0.5154,0.1079,1.0126,
6.655257,0.0642,0.9713,0.0085,-0.9285,0.3019,1.5245,0.5154,0.1079,1.0126,
6.658966,0.2659,0.9544,-0.0701,-0.9285,0.3019,1.5245,0.5154,0.1079,1.0126,
6.660873,0.2117,0.9645,-0.1013,-0.9285,0.3019,1.5245,0.5154,0.1079,1.0126,
6.662232,0.2117,0.9645,-0.1013,-0.9285,0.3019,1.5245,0.6184,-0.0336,1.1149,
6.664542,0.2117,0.9645,-0.1013,0.2447,-0.0409,0.5055,0.6184,-0.0336,1.1149,
6.713264,0.0957,1.0077,-0.1162,0.2447,-0.0409,0.5055,0.6184,-0.0336,1.1149,
6.717467,0.0374,1.0292,-0.0772,0.2447,-0.0409,0.5055,0.6184,-0.0336,1.1149,
6.719076,0.0615,1.0235,-0.0273,0.2447,-0.0409,0.5055,0.6184,-0.0336,1.1149,
6.721322,0.0615,1.0235,-0.0273,0.2447,-0.0409,0.5055,0.6597,0.0259,1.0745,
6.723265,0.0615,1.0235,-0.0273,-1.4562,0.6648,0.6641,0.6597,0.0259,1.0745,
6.770776,0.1419,1.0221,-0.0361,-1.4562,0.6648,0.6641,0.6597,0.0259,1.0745,
6.774261,0.2581,1.0238,-0.0689,-1.4562,0.6648,0.6641,0.6597,0.0259,1.0745,
6.775887,0.2412,1.0213,-0.0674,-1.4562,0.6648,0.6641,0.6597,0.0259,1.0745,
6.777510,0.2412,1.0213,-0.0674,-1.4562,0.6648,0.6641,0.7493,-0.3748,1.3246,
6.779258,0.2412,1.0213,-0.0674,-0.6615,0.9298,1.2575,0.7493,-0.3748,1.3246,
6.830326,0.1348,0.9637,-0.1257,-0.6615,0.9298,1.2575,0.7493,-0.3748,1.3246,
6.834852,0.1150,0.9369,-0.2444,-0.6615,0.9298,1.2575,0.7493,-0.3748,1.3246,
6.836892,0.2122,0.9867,-0.3421,-0.6615,0.9298,1.2575,0.7493,-0.3748,1.3246,
6.838913,0.2122,0.9867,-0.3421,-0.6615,0.9298,1.2575,0.7731,-0.7760,1.4826,
6.840528,0.2122,0.9867,-0.3421,-1.8907,0.6926,0.0372,0.7731,-0.7760,1.4826,
6.888285,0.2041,1.0274,-0.3824,-1.8907,0.6926,0.0372,0.7731,-0.7760,1.4826,
6.892361,0.1924,0.9994,-0.3191,-1.8907,0.6926,0.0372,0.7731,-0.7760,1.4826,
6.894778,0.1353,1.0743,-0.1909,-1.8907,0.6926,0.0372,0.7731,-0.7760,1.4826,
6.896933,0.1353,1.0743,-0.1909,-1.8907,0.6926,0.0372,1.1103,-0.2708,1.5901,
6.898737,0.1353,1.0743,-0.1909,-2.3692,1.8827,0.0543,1.1103,-0.2708,1.5901,
6.947024,0.0454,1.2206,-0.1250,-2.3692,1.8827,0.0543,1.1103,-0.2708,1.5901,
6.950360,-0.1079,1.5053,-0.0085,-2.3692,1.8827,0.0543,1.1103,-0.2708,1.5901,
6.952017,-0.6429,1.9946,0.1594,-2.3692,1.8827,0.0543,1.1103,-0.2708,1.5901,
6.953753,-0.6429,1.9946,0.1594,-2.3692,1.8827,0.0543,1.5400,-0.6436,1.7194,
6.954609,-0.6429,1.9946,0.1594,-6.9554,7.7931,3.8646,1.5400,-0.6436,1.7194,
7.008172,-1.1898,2.0952,-0.0063,-6.9554,7.7931,3.8646,1.5400,-0.6436,1.7194,
7.012174,-0.8353,1.5924,-0.1426,-6.9554,7.7931,3.8646,1.5400,-0.6436,1.7194,
7.014299,0.1211,1.1036,-0.3777,-6.9554,7.7931,3.8646,1.5400,-0.6436,1.7194,
7.015666,0.1211,1.1036,-0.3777,-6.9554,7.7931,3.8646,1.6949,-2.1439,2.4907,
7.016780,0.1211,1.1036,-0.3777,-11.1473,9.0237,3.3214,1.6949,-2.1439,2.4907,
7.061593,1.0641,1.1493,-0.5650,-11.1473,9.0237,3.3214,1.6949,-2.1439,2.4907,
7.063687,1.3148,1.0253,-0.5455,-11.1473,9.0237,3.3214,1.6949,-2.1439,2.4907,
7.064818,0.9779,0.7135,-0.7594,-11.1473,9.0237,3.3214,1.6949,-2.1439,2.4907,
7.065906,0.9779,0.7135,-0.7594,-11.1473,9.0237,3.3214,1.7678,-2.2712,2.8624,
7.067158,0.9779,0.7135,-0.7594,5.7070,4.1696,0.2136,1.7678,-2.2712,2.8624,
7.120041,0.7342,0.5108,-0.8558,5.7070,4.1696,0.2136,1.7678,-2.2712,2.8624,
7.121565,0.5936,0.4358,-0.5491,5.7070,4.1696,0.2136,1.7678,-2.2712,2.8624,
7.122231,0.3142,0.2173,-0.1563,5.7070,4.1696,0.2136,1.7678,-2.2712,2.8624,
7.123822,0.3142,0.2173,-0.1563,5.7070,4.1696,0.2136,-0.5205,0.3755,0.3616,
7.124871,0.3142,0.2173,-0.1563,-0.1350,-1.5150,0.9276,-0.5205,0.3755,0.3616,
7.179434,0.1079,0.0877,0.0215,-0.1350,-1.5150,0.9276,-0.5205,0.3755,0.3616,
7.183008,-0.0061,0.0916,-0.1072,-0.1350,-1.5150,0.9276,-0.5205,0.3755,0.3616,
7.186331,0.0015,0.2329,-0.1980,-0.1350,-1.5150,0.9276,-0.5205,0.3755,0.3616,
7.188561,0.0015,0.2329,-0.1980,-0.1350,-1.5150,0.9276,-1.9574,0.6292,-2.0594,
7.190657,0.0015,0.2329,-0.1980,-4.5709,-5.1553,4.1571,-1.9574,0.6292,-2.0594,
7.238869,0.1421,0.3684,-0.2896,-4.5709,-5.1553,4.1571,-1.9574,0.6292,-2.0594,
7.243256,0.2613,0.4786,-0.3565,-4.5709,-5.1553,4.1571,-1.9574,0.6292,-2.0594,
7.245581,0.2793,0.5384,-0.3377,-4.5709,-5.1553,4.1571,-1.9574,0.6292,-2.0594,
7.248599,0.2793,0.5384,-0.3377,-4.5709,-5.1553,4.1571,-2.8403,-0.4333,-3.3763,
7.250967,0.2793,0.5384,-0.3377,-1.1050,-3.4904,0.7427,-2.8403,-0.4333,-3.3763,
7.296556,0.2720,0.5794,-0.2334,-1.1050,-3.4904,0.7427,-2.8403,-0.4333,-3.3763,
7.300645,0.2139,0.7491,-0.2620,-1.1050,-3.4904,0.7427,-2.8403,-0.4333,-3.3763,
7.303163,0.1951,1.0931,-0.5379,-1.1050,-3.4904,0.7427,-2.8403,-0.4333,-3.3763,
7.305147,0.1951,1.0931,-0.5379,-1.1050,-3.4904,0.7427,-3.8668,-1.2083,-4.4939,
7.307823,0.1951,1.0931,-0.5379,1.3661,-1.3292,-1.2239,-3.8668,-1.2083,-4.4939,
7.353913,0.4380,1.5011,-0.7721,1.3661,-1.3292,-1.2239,-3.8668,-1.2083,-4.4939,
7.356075,0.7137,1.6542,-0.8536,1.3661,-1.3292,-1.2239,-3.8668,-1.2083,-4.4939,
7.357279,0.8499,1.4760,-0.7708,1.3661,-1.3292,-1.2239,-3.8668,-1.2083,-4.4939,
7.358480,0.8499,1.4760,-0.7708,1.3661,-1.3292,-1.2239,-4.2199,-0.1171,-4.4968,
7.359626,0.8499,1.4760,-0.7708,8.0314,5.6492,-7.8497,-4.2199,-0.1171,-4.4968,
7.413481,1.0502,1.1417,-0.5982,8.0314,5.6492,-7.8497,-4.2199,-0.1171,-4.4968,
7.415100,0.7869,0.9852,-0.5105,8.0314,5.6492,-7.8497,-4.2199,-0.1171,-4.4968,
7.415925,0.5384,0.9215,-0.4417,8.0314,5.6492,-7.8497,-4.2199,-0.1171,-4.4968,
7.416616,0.5384,0.9215,-0.4417,10.6211,0.8992,-5.9925,-4.2199,-0.1171,-4.4968,
7.417400,0.5384,0.9215,-0.4417,10.6211,0.8992,-5.9925,-2.4726,2.3058,-2.6725,
7.469828,0.5396,0.8045,-0.4415,10.6211,0.8992,-5.9925,-2.4726,2.3058,-2.6725,
7.471265,0.6419,0.9820,-0.8949,10.6211,0.8992,-5.9925,-2.4726,2.3058,-2.6725,
7.472002,-0.0906,1.7021,-0.6307,10.6211,0.8992,-5.9925,-2.4726,2.3058,-2.6725,
7.472847,-0.0906,1.7021,-0.6307,10.6211,0.8992,-5.9925,0.3563,2.6445,1.0169,
7.474165,-0.0906,1.7021,-0.6307,5.8960,2.1349,-6.6159,0.3563,2.6445,1.0169,
7.528565,-2.1491,2.0163,1.4921,5.8960,2.1349,-6.6159,0.3563,2.6445,1.0169,
7.530426,-0.6749,1.1363,-0.2886,5.8960,2.1349,-6.6159,0.3563,2.6445,1.0169,
7.531214,0.6932,0.7620,-1.1361,5.8960,2.1349,-6.6159,0.3563,2.6445,1.0169,
7.532097,0.6932,0.7620,-1.1361,5.8960,2.1349,-6.6159,1.2392,1.8656,1.7133,
7.533153,0.6932,0.7620,-1.1361,-5.4923,3.3049,0.9013,1.2392,1.8656,1.7133,
7.587248,0.6468,0.7811,0.0237,-5.4923,3.3049,0.9013,1.2392,1.8656,1.7133,
7.589325,0.0488,0.9183,-0.1384,-5.4923,3.3049,0.9013,1.2392,1.8656,1.7133,
7.590259,0.1560,1.0951,-0.1880,-5.4923,3.3049,0.9013,1.2392,1.8656,1.7133,
7.591053,0.1560,1.0951,-0.1880,-5.4923,3.3049,0.9013,0.6347,0.2751,1.6646,
7.591933,0.1560,1.0951,-0.1880,3.2592,-0.4117,0.0664,0.6347,0.2751,1.6646,
7.647854,0.2969,1.1046,-0.2903,3.2592,-0.4117,0.0664,0.6347,0.2751,1.6646,
7.651508,0.1626,0.9698,-0.1609,3.2592,-0.4117,0.0664,0.6347,0.2751,1.6646,
7.653855,-0.0452,0.9828,-0.1900,3.2592,-0.4117,0.0664,0.6347,0.2751,1.6646,
7.655692,-0.0452,0.9828,-0.1900,3.2592,-0.4117,0.0664,0.4213,0.4211,0.9220,
7.657610,-0.0452,0.9828,-0.1900,1.2672,0.4564,-0.7876,0.4213,0.4211,0.9220,
7.709207,0.0029,1.0365,-0.1917,1.2672,0.4564,-0.7876,0.4213,0.4211,0.9220,
7.713652,0.0908,0.9884,-0.1235,1.2672,0.4564,-0.7876,0.4213,0.4211,0.9220,
7.714364,0.1438,0.9452,-0.1062,1.2672,0.4564,-0.7876,0.4213,0.4211,0.9220,
7.715151,0.1438,0.9452,-0.1062,1.2672,0.4564,-0.7876,0.1814,0.1155,0.6950,
7.715942,0.1438,0.9452,-0.1062,0.2898,0.1943,0.0291,0.1814,0.1155,0.6950,
7.763228,0.1773,0.9469,-0.0964,0.2898,0.1943,0.0291,0.1814,0.1155,0.6950,
7.766315,0.1577,0.9259,-0.1316,0.2898,0.1943,0.0291,0.1814,0.1155,0.6950,
7.768209,0.0879,0.9593,-0.1690,0.2898,0.1943,0.0291,0.1814,0.1155,0.6950,
7.770048,0.0879,0.9593,-0.1690,0.6104,-0.2267,0.1576,0.1814,0.1155,0.6950,
7.771990,0.0879,0.9593,-0.1690,0.6104,-0.2267,0.1576,0.0977,0.0743,0.4842,
7.821834,0.0403,1.0094,-0.1350,0.6104,-0.2267,0.1576,0.0977,0.0743,0.4842,
7.824861,0.0559,0.9815,-0.0801,0.6104,-0.2267,0.1576,0.0977,0.0743,0.4842,
7.826654,0.1072,0.9391,-0.0291,0.6104,-0.2267,0.1576,0.0977,0.0743,0.4842,
7.828504,0.1072,0.9391,-0.0291,0.6104,-0.2267,0.1576,0.1095,0.0181,0.3781,
7.830078,0.1072,0.9391,-0.0291,-0.3117,0.1199,0.7046,0.1095,0.0181,0.3781,
7.879599,0.0745,0.9356,0.0105,-0.3117,0.1199,0.7046,0.1095,0.0181,0.3781,
7.883502,-0.0518,0.9613,0.0889,-0.3117,0.1199,0.7046,0.1095,0.0181,0.3781,
7.885805,-0.0261,1.0108,-0.0466,-0.3117,0.1199,0.7046,0.1095,0.0181,0.3781,
7.887466,-0.0261,1.0108,-0.0466,-0.3117,0.1199,0.7046,0.3722,-0.0110,0.4830,
7.889541,-0.0261,1.0108,-0.0466,-1.2307,0.1115,1.8483,0.3722,-0.0110,0.4830,
7.936589,0.1328,0.9803,-0.2678,-1.2307,0.1115,1.8483,0.3722,-0.0110,0.4830,
7.938490,0.1704,0.9837,-0.2539,-1.2307,0.1115,1.8483,0.3722,-0.0110,0.4830,
7.939406,0.2320,0.9584,-0.2110,-1.2307,0.1115,1.8483,0.3722,-0.0110,0.4830,
7.940151,0.2320,0.9584,-0.2110,-1.2307,0.1115,1.8483,0.4807,-0.4461,0.6761,
7.941033,0.2320,0.9584,-0.2110,0.2051,0.2606,-0.4124,0.4807,-0.4461,0.6761,
7.994534,0.2791,0.9281,-0.1673,0.2051,0.2606,-0.4124,0.4807,-0.4461,0.6761,
7.995882,0.2395,0.9203,-0.1216,0.2051,0.2606,-0.4124,0.4807,-0.4461,0.6761,
7.996403,0.1423,0.9283,-0.0735,0.2051,0.2606,-0.4124,0.4807,-0.4461,0.6761,
7.996941,0.1423,0.9283,-0.0735,0.2051,0.2606,-0.4124,0.4559,-0.5424,0.5028,
7.997518,0.1423,0.9283,-0.0735,0.4057,-0.1088,1.0773,0.4559,-0.5424,0.5028,
8.053544,0.0706,0.9625,-0.0579,0.4057,-0.1088,1.0773,0.4559,-0.5424,0.5028,
8.055054,0.0393,1.0133,-0.0330,0.4057,-0.1088,1.0773,0.4559,-0.5424,0.5028,
8.055650,0.0188,1.1075,-0.0325,0.4057,-0.1088,1.0773,0.4559,-0.5424,0.5028,
8.056207,0.0188,1.1075,-0.0325,0.4057,-0.1088,1.0773,0.7770,-1.0203,0.5616,
8.056768,0.0188,1.1075,-0.0325,-1.4562,1.0495,2.3400,0.7770,-1.0203,0.5616,
8.111032,-0.1331,1.3031,0.0200,-1.4562,1.0495,2.3400,0.7770,-1.0203,0.5616,
8.112484,-0.2888,1.6091,0.0115,-1.4562,1.0495,2.3400,0.7770,-1.0203,0.5616,
8.113411,-0.1861,1.7514,-0.1167,-1.4562,1.0495,2.3400,0.7770,-1.0203,0.5616,
8.114100,-0.1861,1.7514,-0.1167,-4.1757,6.4939,3.2526,0.7770,-1.0203,0.5616,
8.114865,-0.1861,1.7514,-0.1167,-4.1757,6.4939,3.2526,1.3290,-1.3156,1.2148,
8.169537,0.2705,1.5341,0.0200,-4.1757,6.4939,3.2526,1.3290,-1.3156,1.2148,
8.170742,0.2017,1.2704,-0.1951,-4.1757,6.4939,3.2526,1.3290,-1.3156,1.2148,
8.171402,0.2752,1.1698,-0.2654,-4.1757,6.4939,3.2526,1.3290,-1.3156,1.2148,
8.172032,0.2752,1.1698,-0.2654,-4.1757,6.4939,3.2526,0.4944,-3.3473,2.7214,
8.172682,0.2752,1.1698,-0.2654,-0.3193,4.6694,2.7806,0.4944,-3.3473,2.7214,
8.228104,0.6011,0.9442,-0.3206,-0.3193,4.6694,2.7806,0.4944,-3.3473,2.7214,
8.229788,0.4612,0.7362,-0.3545,-0.3193,4.6694,2.7806,0.4944,-3.3473,2.7214,
8.230521,0.2442,0.6492,-0.4781,-0.3193,4.6694,2.7806,0.4944,-3.3473,2.7214,
8.231401,0.2442,0.6492,-0.4781,-0.3193,4.6694,2.7806,-1.1034,-4.9267,3.3172,
8.232951,0.2442,0.6492,-0.4781,1.1819,-0.4138,0.7630,-1.1034,-4.9267,3.3172,
8.286245,0.1729,0.6495,-0.5882,1.1819,-0.4138,0.7630,-1.1034,-4.9267,3.3172,
8.287599,0.1096,0.6165,-0.6514,1.1819,-0.4138,0.7630,-1.1034,-4.9267,3.3172,
8.288320,0.1192,0.5779,-0.6810,1.1819,-0.4138,0.7630,-1.1034,-4.9267,3.3172,
8.289011,0.1192,0.5779,-0.6810,1.1819,-0.4138,0.7630,-1.7247,-4.8285,3.3761,
8.289671,0.1192,0.5779,-0.6810,-2.0050,-1.7990,-1.6072,-1.7247,-4.8285,3.3761,
8.345691,0.0657,0.5281,-0.7130,-2.0050,-1.7990,-1.6072,-1.7247,-4.8285,3.3761,
8.348133,-0.0220,0.5274,-0.6978,-2.0050,-1.7990,-1.6072,-1.7247,-4.8285,3.3761,
8.349147,-0.0921,0.5872,-0.6790,-2.0050,-1.7990,-1.6072,-1.7247,-4.8285,3.3761,
8.350211,-0.0921,0.5872,-0.6790,-2.0050,-1.7990,-1.6072,-2.0342,-3.5945,3.0666,
8.351225,-0.0921,0.5872,-0.6790,-3.8364,-2.3341,-2.3097,-2.0342,-3.5945,3.0666,
8.405228,-0.2061,0.6234,-0.6204,-3.8364,-2.3341,-2.3097,-2.0342,-3.5945,3.0666,
8.409621,-0.3399,0.6260,-0.5740,-3.8364,-2.3341,-2.3097,-2.0342,-3.5945,3.0666,
8.412062,-0.4239,0.6773,-0.5455,-3.8364,-2.3341,-2.3097,-2.0342,-3.5945,3.0666,
8.414358,-0.4239,0.6773,-0.5455,-6.8619,-1.5757,-1.6114,-2.0342,-3.5945,3.0666,
8.416785,-0.4239,0.6773,-0.5455,-6.8619,-1.5757,-1.6114,-2.2667,-2.5347,1.7035,
8.463930,-0.4153,0.7493,-0.5447,-6.8619,-1.5757,-1.6114,-2.2667,-2.5347,1.7035,
8.469097,-0.4143,0.8145,-0.5284,-6.8619,-1.5757,-1.6114,-2.2667,-2.5347,1.7035,
8.471580,-0.3450,0.9085,-0.5240,-6.8619,-1.5757,-1.6114,-2.2667,-2.5347,1.7035,
8.473733,-0.3450,0.9085,-0.5240,-6.8619,-1.5757,-1.6114,-2.2877,-2.9214,0.4311,
8.474789,-0.3450,0.9085,-0.5240,-6.9601,-0.2104,-1.5952,-2.2877,-2.9214,0.4311,
8.519751,-0.2586,0.9945,-0.5428,-6.9601,-0.2104,-1.5952,-2.2877,-2.9214,0.4311,
8.521757,-0.2251,1.0311,-0.5350,-6.9601,-0.2104,-1.5952,-2.2877,-2.9214,0.4311,
8.522923,-0.1880,1.0487,-0.5186,-6.9601,-0.2104,-1.5952,-2.2877,-2.9214,0.4311,
8.524033,-0.1880,1.0487,-0.5186,-6.9601,-0.2104,-1.5952,-2.4836,-3.6173,-0.5381,
8.525297,-0.1880,1.0487,-0.5186,-4.2781,1.1780,-2.2332,-2.4836,-3.6173,-0.5381,
8.578778,-0.1511,1.0785,-0.4979,-4.2781,1.1780,-2.2332,-2.4836,-3.6173,-0.5381,
8.581436,-0.1433,1.1085,-0.4600,-4.2781,1.1780,-2.2332,-2.4836,-3.6173,-0.5381,
8.582730,-0.1526,1.1127,-0.4068,-4.2781,1.1780,-2.2332,-2.4836,-3.6173,-0.5381,
8.583834,-0.1526,1.1127,-0.4068,-4.2781,1.1780,-2.2332,-2.5229,-3.5489,-1.3192,
8.584877,-0.1526,1.1127,-0.4068,-2.2856,1.4132,-2.4666,-2.5229,-3.5489,-1.3192,
8.637742,-0.1204,1.1110,-0.3592,-2.2856,1.4132,-2.4666,-2.5229,-3.5489,-1.3192,
8.641691,-0.0100,1.1107,-0.3479,-2.2856,1.4132,-2.4666,-2.5229,-3.5489,-1.3192,
8.644350,0.0388,1.0694,-0.2713,-2.2856,1.4132,-2.4666,-2.5229,-3.5489,-1.3192,
8.646667,0.0388,1.0694,-0.2713,-2.2856,1.4132,-2.4666,-2.1067,-3.0892,-1.6261,
8.648955,0.0388,1.0694,-0.2713,0.0368,1.1662,-2.2867,-2.1067,-3.0892,-1.6261,
8.696659,-0.0537,1.0028,-0.1590,0.0368,1.1662,-2.2867,-2.1067,-3.0892,-1.6261,
8.700535,-0.2129,1.0067,-0.1397,0.0368,1.1662,-2.2867,-2.1067,-3.0892,-1.6261,
8.704150,-0.2932,1.0282,-0.2092,0.0368,1.1662,-2.2867,-2.1067,-3.0892,-1.6261,
8.706880,-0.2932,1.0282,-0.2092,0.0368,1.1662,-2.2867,-1.1796,-2.3769,-1.6888,
8.709163,-0.2932,1.0282,-0.2092,-0.4715,0.3789,-1.4978,-1.1796,-2.3769,-1.6888,
8.755700,-0.0903,0.9605,-0.2986,-0.4715,0.3789,-1.4978,-1.1796,-2.3769,-1.6888,
8.759181,0.1651,0.9146,-0.2762,-0.4715,0.3789,-1.4978,-1.1796,-2.3769,-1.6888,
8.761168,0.2959,0.8844,-0.2056,-0.4715,0.3789,-1.4978,-1.1796,-2.3769,-1.6888,
8.763117,0.2959,0.8844,-0.2056,-0.4715,0.3789,-1.4978,-0.3203,-2.3038,-0.6799,
8.764887,0.2959,0.8844,-0.2056,2.8871,-0.4608,-2.7333,-0.3203,-2.3038,-0.6799,
8.813464,0.2498,0.8629,-0.1314,2.8871,-0.4608,-2.7333,-0.3203,-2.3038,-0.6799,
8.818007,0.1819,0.8687,-0.0320,2.8871,-0.4608,-2.7333,-0.3203,-2.3038,-0.6799,
8.820038,0.2171,0.8922,0.0029,2.8871,-0.4608,-2.7333,-0.3203,-2.3038,-0.6799,
8.822004,0.2171,0.8922,0.0029,2.8871,-0.4608,-2.7333,0.4490,-0.8576,0.0137,
8.824190,0.2171,0.8922,0.0029,3.7164,-0.8937,-0.5361,0.4490,-0.8576,0.0137,
8.871207,0.2171,0.8922,0.0029,4.8637,-0.4390,0.5342,0.4490,-0.8576,0.0137,
8.874234,0.3067,0.9149,0.0186,4.8637,-0.4390,0.5342,0.4490,-0.8576,0.0137,
8.876242,0.4229,0.9364,0.0190,4.8637,-0.4390,0.5342,0.4490,-0.8576,0.0137,
8.878083,0.4671,0.9281,-0.0444,4.8637,-0.4390,0.5342,0.4490,-0.8576,0.0137,
8.879701,0.4671,0.9281,-0.0444,4.8637,-0.4390,0.5342,1.0582,-0.0796,1.0090,
8.930259,0.2901,1.0038,0.2976,4.8637,-0.4390,0.5342,1.0582,-0.0796,1.0090,
8.933777,-0.3765,1.1088,0.9156,4.8637,-0.4390,0.5342,1.0582,-0.0796,1.0090,
8.935657,-0.2383,1.5338,-0.5870,4.8637,-0.4390,0.5342,1.0582,-0.0796,1.0090,
8.937737,-0.2383,1.5338,-0.5870,4.8637,-0.4390,0.5342,0.2464,0.8208,0.6076,
8.939764,-0.2383,1.5338,-0.5870,-0.4692,2.3353,2.7276,0.2464,0.8208,0.6076,
8.987097,-0.3755,1.6542,-0.6734,-0.4692,2.3353,2.7276,0.2464,0.8208,0.6076,
8.988973,-0.3264,0.9410,-0.1099,-0.4692,2.3353,2.7276,0.2464,0.8208,0.6076,
8.990118,-0.1682,0.7974,-0.5079,-0.4692,2.3353,2.7276,0.2464,0.8208,0.6076,
8.991274,-0.1682,0.7974,-0.5079,-0.4692,2.3353,2.7276,0.3130,0.4702,0.9850,
8.992383,-0.1682,0.7974,-0.5079,-2.7752,1.4782,-3.2955,0.3130,0.4702,0.9850,
9.045034,0.2007,1.0553,-0.4383,-2.7752,1.4782,-3.2955,0.3130,0.4702,0.9850,
9.046793,0.2920,1.1332,0.0122,-2.7752,1.4782,-3.2955,0.3130,0.4702,0.9850,
9.047585,-0.0454,0.9833,0.2525,-2.7752,1.4782,-3.2955,0.3130,0.4702,0.9850,
9.048356,-0.0454,0.9833,0.2525,-2.7752,1.4782,-3.2955,-0.2916,0.5087,0.9585,
9.049545,-0.0454,0.9833,0.2525,0.9499,0.7415,0.1822,-0.2916,0.5087,0.9585,
9.105281,-0.1089,0.9300,0.1904,0.9499,0.7415,0.1822,-0.2916,0.5087,0.9585,
9.110656,0.1343,1.0157,0.0107,0.9499,0.7415,0.1822,-0.2916,0.5087,0.9585,
9.113396,0.2749,1.0607,-0.1328,0.9499,0.7415,0.1822,-0.2916,0.5087,0.9585,
9.114709,0.2749,1.0607,-0.1328,0.9499,0.7415,0.1822,-0.1613,-0.6220,0.7882,
9.115871,0.2749,1.0607,-0.1328,0.0525,0.2243,0.8959,-0.1613,-0.6220,0.7882,
9.163857,0.2498,0.9757,-0.1143,0.0525,0.2243,0.8959,-0.1613,-0.6220,0.7882,
9.167277,0.1209,0.9698,-0.0852,0.0525,0.2243,0.8959,-0.1613,-0.6220,0.7882,
9.169251,0.0762,1.0204,-0.0269,0.0525,0.2243,0.8959,-0.1613,-0.6220,0.7882,
9.171140,0.0762,1.0204,-0.0269,0.0525,0.2243,0.8959,-0.1324,-0.4209,0.4850,
9.173463,0.0762,1.0204,-0.0269,0.2713,0.1148,-0.1129,-0.1324,-0.4209,0.4850,
9.223438,0.0278,0.9962,0.0855,0.2713,0.1148,-0.1129,-0.1324,-0.4209,0.4850,
9.228242,0.0056,0.9964,0.0654,0.2713,0.1148,-0.1129,-0.1324,-0.4209,0.4850,
9.230360,0.1001,1.0082,0.0056,0.2713,0.1148,-0.1129,-0.1324,-0.4209,0.4850,
9.232319,0.1001,1.0082,0.0056,-0.9983,0.2639,1.1642,-0.1324,-0.4209,0.4850,
9.236920,0.1001,1.0082,0.0056,-0.9983,0.2639,1.1642,0.0230,-0.4335,0.5011,
9.280036,0.1585,0.9898,-0.0139,-0.9983,0.2639,1.1642,0.0230,-0.4335,0.5011,
9.282513,0.1443,0.9625,-0.0364,-0.9983,0.2639,1.1642,0.0230,-0.4335,0.5011,
9.284142,0.1113,0.9791,-0.0129,-0.9983,0.2639,1.1642,0.0230,-0.4335,0.5011,
9.286392,0.1113,0.9791,-0.0129,-0.9983,0.2639,1.1642,0.1769,-0.5605,0.6225,
9.288588,0.1113,0.9791,-0.0129,-0.3967,0.1012,0.5867,0.1769,-0.5605,0.6225,
9.337529,0.1343,1.0035,-0.0188,-0.3967,0.1012,0.5867,0.1769,-0.5605,0.6225,
9.340444,0.1521,0.9918,-0.0728,-0.3967,0.1012,0.5867,0.1769,-0.5605,0.6225,
9.342097,0.1499,0.9820,-0.0579,-0.3967,0.1012,0.5867,0.1769,-0.5605,0.6225,
9.343929,0.1499,0.9820,-0.0579,-0.3967,0.1012,0.5867,0.2928,-0.4477,0.7241,
9.345911,0.1499,0.9820,-0.0579,-0.6874,0.3425,0.5078,0.2928,-0.4477,0.7241,
9.396460,0.1270,0.9898,-0.0256,-0.6874,0.3425,0.5078,0.2928,-0.4477,0.7241,
9.399790,0.0642,0.9859,-0.0361,-0.6874,0.3425,0.5078,0.2928,-0.4477,0.7241,
9.401549,0.1795,0.9532,-0.1228,-0.6874,0.3425,0.5078,0.2928,-0.4477,0.7241,
9.403649,0.1795,0.9532,-0.1228,-0.6874,0.3425,0.5078,0.4170,-0.5703,0.9216,
9.405462,0.1795,0.9532,-0.1228,-1.3415,0.3329,0.6857,0.4170,-0.5703,0.9216,
9.455470,0.2786,0.9903,-0.1709,-1.3415,0.3329,0.6857,0.4170,-0.5703,0.9216,
9.458823,0.2200,1.0177,-0.1538,-1.3415,0.3329,0.6857,0.4170,-0.5703,0.9216,
9.460618,0.2466,0.9706,-0.1502,-1.3415,0.3329,0.6857,0.4170,-0.5703,0.9216,
9.462201,0.2466,0.9706,-0.1502,-1.3415,0.3329,0.6857,0.4573,-0.7957,1.1000,
9.464892,0.2466,0.9706,-0.1502,-0.6244,0.7027,0.1098,0.4573,-0.7957,1.1000,
9.512912,0.2669,1.0047,-0.1189,-0.6244,0.7027,0.1098,0.4573,-0.7957,1.1000,
9.516886,0.1812,1.0787,-0.0982,-0.6244,0.7027,0.1098,0.4573,-0.7957,1.1000,
9.518394,0.0559,1.1073,-0.0544,-0.6244,0.7027,0.1098,0.4573,-0.7957,1.1000,
9.520235,0.0559,1.1073,-0.0544,-0.6244,0.7027,0.1098,0.6104,-0.6076,1.2474,
9.522092,0.0559,1.1073,-0.0544,-1.9593,1.6782,1.1882,0.6104,-0.6076,1.2474,
9.571317,0.1438,1.0973,-0.1558,-1.9593,1.6782,1.1882,0.6104,-0.6076,1.2474,
9.574504,0.2588,1.0895,-0.2271,-1.9593,1.6782,1.1882,0.6104,-0.6076,1.2474,
9.577186,0.2127,1.1251,-0.2581,-1.9593,1.6782,1.1882,0.6104,-0.6076,1.2474,
9.579222,0.2127,1.1251,-0.2581,-1.9593,1.6782,1.1882,0.9104,-0.7332,1.6879,
9.581219,0.2127,1.1251,-0.2581,-2.2916,2.5493,0.5924,0.9104,-0.7332,1.6879,
9.627874,0.0833,1.2970,-0.2110,-2.2916,2.5493,0.5924,0.9104,-0.7332,1.6879,
9.629386,-0.1123,1.7438,-0.0486,-2.2916,2.5493,0.5924,0.9104,-0.7332,1.6879,
9.630235,-0.7088,1.9165,0.1831,-2.2916,2.5493,0.5924,0.9104,-0.7332,1.6879,
9.631130,-0.7088,1.9165,0.1831,-2.2916,2.5493,0.5924,1.2138,-1.0252,1.7215,
9.632008,-0.7088,1.9165,0.1831,-7.2014,8.4647,3.2203,1.2138,-1.0252,1.7215,
9.686602,-1.1024,1.8107,0.1265,-7.2014,8.4647,3.2203,1.2138,-1.0252,1.7215,
9.688485,-0.8018,1.5805,0.0610,-7.2014,8.4647,3.2203,1.2138,-1.0252,1.7215,
9.689347,0.2691,1.2179,-0.3391,-7.2014,8.4647,3.2203,1.2138,-1.0252,1.7215,
9.690212,0.2691,1.2179,-0.3391,-7.2014,8.4647,3.2203,1.4712,-1.7452,2.8532,
9.690968,0.2691,1.2179,-0.3391,-10.7253,8.3972,4.0500,1.4712,-1.7452,2.8532,
9.745506,1.2482,1.2951,-0.5467,-10.7253,8.3972,4.0500,1.4712,-1.7452,2.8532,
9.748123,1.2428,1.1012,-0.5777,-10.7253,8.3972,4.0500,1.4712,-1.7452,2.8532,
9.749560,0.7772,0.7928,-0.7525,-10.7253,8.3972,4.0500,1.4712,-1.7452,2.8532,
9.750859,0.7772,0.7928,-0.7525,4.6018,5.3716,-0.3389,1.4712,-1.7452,2.8532,
9.751999,0.7772,0.7928,-0.7525,4.6018,5.3716,-0.3389,1.8867,-1.8014,3.3971,
9.805369,0.5015,0.5665,-0.8272,4.6018,5.3716,-0.3389,1.8867,-1.8014,3.3971,
9.810551,0.3470,0.3106,-0.5606,4.6018,5.3716,-0.3389,1.8867,-1.8014,3.3971,
9.813909,0.2097,0.1072,-0.1975,4.6018,5.3716,-0.3389,1.8867,-1.8014,3.3971,
9.815739,0.2097,0.1072,-0.1975,4.6018,5.3716,-0.3389,-0.9296,-0.2661,0.5816,
9.818615,0.2097,0.1072,-0.1975,-2.6470,-1.9046,0.4315,-0.9296,-0.2661,0.5816,
9.861402,0.0056,0.0376,-0.1123,-2.6470,-1.9046,0.4315,-0.9296,-0.2661,0.5816,
9.862844,-0.1016,0.1069,-0.2405,-2.6470,-1.9046,0.4315,-0.9296,-0.2661,0.5816,
9.863971,-0.0647,0.2752,-0.3653,-2.6470,-1.9046,0.4315,-0.9296,-0.2661,0.5816,
9.864797,-0.0647,0.2752,-0.3653,-2.6470,-1.9046,0.4315,-2.2311,-0.0063,-2.0855,
9.865859,-0.0647,0.2752,-0.3653,-5.8137,-5.0469,2.4729,-2.2311,-0.0063,-2.0855,
9.919751,0.0452,0.4263,-0.4927,-5.8137,-5.0469,2.4729,-2.2311,-0.0063,-2.0855,
9.921785,0.1050,0.5191,-0.5755,-5.8137,-5.0469,2.4729,-2.2311,-0.0063,-2.0855,
9.923043,0.1336,0.5420,-0.5201,-5.8137,-5.0469,2.4729,-2.2311,-0.0063,-2.0855,
9.924164,0.1336,0.5420,-0.5201,-5.8137,-5.0469,2.4729,-3.0766,-0.9430,-3.6709,
9.925305,0.1336,0.5420,-0.5201,-2.5160,-3.2231,-1.4192,-3.0766,-0.9430,-3.6709,
9.979021,0.0872,0.6385,-0.3247,-2.5160,-3.2231,-1.4192,-3.0766,-0.9430,-3.6709,
9.982283,0.0801,0.8377,-0.4383,-2.5160,-3.2231,-1.4192,-3.0766,-0.9430,-3.6709,
9.984855,0.3536,1.1305,-0.7945,-2.5160,-3.2231,-1.4192,-3.0766,-0.9430,-3.6709,
9.987292,0.3536,1.1305,-0.7945,-2.5160,-3.2231,-1.4192,-3.8184,-1.6174,-4.7299,
9.989802,0.3536,1.1305,-0.7945,0.9416,-0.7879,-3.0301,-3.8184,-1.6174,-4.7299,
10.036276,0.7430,1.3683,-1.0265,0.9416,-0.7879,-3.0301,-3.8184,-1.6174,-4.7299,
10.038296,0.9034,1.2860,-0.9374,0.9416,-0.7879,-3.0301,-3.8184,-1.6174,-4.7299,
10.039501,1.0414,1.1456,-0.7564,0.9416,-0.7879,-3.0301,-3.8184,-1.6174,-4.7299,
10.040646,1.0414,1.1456,-0.7564,0.9416,-0.7879,-3.0301,-4.0440,-0.0195,-4.6959,
10.041683,1.0414,1.1456,-0.7564,10.4472,2.9852,-8.8849,-4.0440,-0.0195,-4.6959,
10.095223,0.8827,1.2338,-0.5159,10.4472,2.9852,-8.8849,-4.0440,-0.0195,-4.6959,
10.097922,0.5894,1.2785,-0.2696,10.4472,2.9852,-8.8849,-4.0440,-0.0195,-4.6959,
10.099268,0.5643,0.9405,-0.2451,10.4472,2.9852,-8.8849,-4.0440,-0.0195,-4.6959,
10.100795,0.5643,0.9405,-0.2451,10.4472,2.9852,-8.8849,-2.4201,1.8365,-2.8165,
10.102076,0.5643,0.9405,-0.2451,9.7452,2.2947,-4.3081,-2.4201,1.8365,-2.8165,
10.154696,0.5689,0.7760,-0.2864,9.7452,2.2947,-4.3081,-2.4201,1.8365,-2.8165,
10.158746,0.6199,0.8614,-0.5164,9.7452,2.2947,-4.3081,-2.4201,1.8365,-2.8165,
10.161178,0.3455,1.2882,-0.8731,9.7452,2.2947,-4.3081,-2.4201,1.8365,-2.8165,
10.163862,0.3455,1.2882,-0.8731,9.7452,2.2947,-4.3081,0.2590,1.3881,1.0965,
10.166274,0.3455,1.2882,-0.8731,7.4686,0.3751,-5.9316,0.2590,1.3881,1.0965,
10.216327,-1.4262,1.9711,0.7034,7.4686,0.3751,-5.9316,0.2590,1.3881,1.0965,
10.219700,-1.7927,1.6801,0.5948,7.4686,0.3751,-5.9316,0.2590,1.3881,1.0965,
10.221804,0.1870,1.0616,-0.7203,7.4686,0.3751,-5.9316,0.2590,1.3881,1.0965,
10.224671,0.1870,1.0616,-0.7203,7.4686,0.3751,-5.9316,0.6817,2.1647,1.0945,
10.227248,0.1870,1.0616,-0.7203,-7.8872,5.9686,2.0376,0.6817,2.1647,1.0945,
10.271187,0.5999,0.8788,-0.8280,-7.8872,5.9686,2.0376,0.6817,2.1647,1.0945,
10.275455,0.4368,0.7559,0.2932,-7.8872,5.9686,2.0376,0.6817,2.1647,1.0945,
10.277297,0.1590,0.8790,0.3509,-7.8872,5.9686,2.0376,0.6817,2.1647,1.0945,
10.279197,0.1590,0.8790,0.3509,-7.8872,5.9686,2.0376,0.6449,0.4702,2.3421,
10.280952,0.1590,0.8790,0.3509,4.5373,-1.3646,-0.0424,0.6449,0.4702,2.3421,
10.329612,-0.0051,1.0860,-0.1270,4.5373,-1.3646,-0.0424,0.6449,0.4702,2.3421,
10.333212,0.2136,1.0548,-0.3245,4.5373,-1.3646,-0.0424,0.6449,0.4702,2.3421,
10.335760,0.2471,1.0467,-0.2774,4.5373,-1.3646,-0.0424,0.6449,0.4702,2.3421,
10.337769,0.2471,1.0467,-0.2774,4.5373,-1.3646,-0.0424,0.6033,-0.4284,1.2892,
10.339751,0.2471,1.0467,-0.2774,1.3954,0.8276,-1.4635,0.6033,-0.4284,1.2892,
10.386600,0.0269,1.0582,-0.1702,1.3954,0.8276,-1.4635,0.6033,-0.4284,1.2892,
10.388283,-0.0134,0.9747,-0.1260,1.3954,0.8276,-1.4635,0.6033,-0.4284,1.2892,
10.389461,-0.0027,0.9647,-0.0276,1.3954,0.8276,-1.4635,0.6033,-0.4284,1.2892,
10.390731,-0.0027,0.9647,-0.0276,1.3954,0.8276,-1.4635,0.4327,0.3175,0.8638,
10.391906,-0.0027,0.9647,-0.0276,-0.5508,0.2461,0.0913,0.4327,0.3175,0.8638,
10.446607,-0.0295,1.0113,0.0107,-0.5508,0.2461,0.0913,0.4327,0.3175,0.8638,
10.449829,0.0103,0.9737,0.0095,-0.5508,0.2461,0.0913,0.4327,0.3175,0.8638,
10.451813,0.1231,0.9447,-0.0776,-0.5508,0.2461,0.0913,0.4327,0.3175,0.8638,
10.453680,0.1231,0.9447,-0.0776,-0.5508,0.2461,0.0913,0.5048,-0.1871,1.0010,
10.454621,0.1231,0.9447,-0.0776,-0.7743,0.1108,1.2312,0.5048,-0.1871,1.0010,
10.506951,0.2144,0.9557,-0.1497,-0.7743,0.1108,1.2312,0.5048,-0.1871,1.0010,
10.510797,0.1912,0.9686,-0.1333,-0.7743,0.1108,1.2312,0.5048,-0.1871,1.0010,
10.513761,0.1358,0.9801,-0.1377,-0.7743,0.1108,1.2312,0.5048,-0.1871,1.0010,
10.515463,0.1358,0.9801,-0.1377,-0.7743,0.1108,1.2312,0.6363,-0.2050,0.9947,
10.517211,0.1358,0.9801,-0.1377,0.1270,0.1644,0.4026,0.6363,-0.2050,0.9947,
10.564071,0.1655,0.9772,-0.1748,0.1270,0.1644,0.4026,0.6363,-0.2050,0.9947,
10.568268,0.1824,0.9691,-0.2009,0.1270,0.1644,0.4026,0.6363,-0.2050,0.9947,
10.569981,0.1536,0.9693,-0.1941,0.1270,0.1644,0.4026,0.6363,-0.2050,0.9947,
10.571730,0.1536,0.9693,-0.1941,0.1270,0.1644,0.4026,0.6897,-0.2160,0.9577,
10.574580,0.1536,0.9693,-0.1941,-0.4857,0.3795,0.3053,0.6897,-0.2160,0.9577,
10.622130,0.1402,0.9715,-0.1885,-0.4857,0.3795,0.3053,0.6897,-0.2160,0.9577,
10.626199,0.2017,0.9828,-0.2105,-0.4857,0.3795,0.3053,0.6897,-0.2160,0.9577,
10.627616,0.2112,1.0177,-0.2229,-0.4857,0.3795,0.3053,0.6897,-0.2160,0.9577,
10.629198,0.2112,1.0177,-0.2229,-0.4857,0.3795,0.3053,0.7575,-0.3579,1.0546,
10.631160,0.2112,1.0177,-0.2229,-0.8085,0.8021,0.5742,0.7575,-0.3579,1.0546,
10.680275,0.1909,1.0072,-0.2737,-0.8085,0.8021,0.5742,0.7575,-0.3579,1.0546,
10.695081,0.1773,0.9684,-0.2864,-0.8085,0.8021,0.5742,0.7575,-0.3579,1.0546,
10.696101,0.1907,1.0213,-0.2432,-0.8085,0.8021,0.5742,0.7575,-0.3579,1.0546,
10.697409,0.1907,1.0213,-0.2432,-0.8085,0.8021,0.5742,0.9648,-0.2439,1.1265,
10.698516,0.1907,1.0213,-0.2432,-1.3012,1.2142,0.5053,0.9648,-0.2439,1.1265,
10.736540,0.1414,1.1222,-0.1880,-1.3012,1.2142,0.5053,0.9648,-0.2439,1.1265,
10.743539,0.0608,1.1466,-0.1646,-1.3012,1.2142,0.5053,0.9648,-0.2439,1.1265,
10.744368,-0.0427,1.2274,-0.1148,-1.3012,1.2142,0.5053,0.9648,-0.2439,1.1265,
10.744960,-0.0427,1.2274,-0.1148,-1.3012,1.2142,0.5053,1.4341,-0.0656,1.2822,
10.745681,-0.0427,1.2274,-0.1148,-3.1616,3.3373,2.2715,1.4341,-0.0656,1.2822,
10.795255,-0.2591,1.5624,0.0364,-3.1616,3.3373,2.2715,1.4341,-0.0656,1.2822,
10.796071,-0.6868,1.9699,0.0632,-3.1616,3.3373,2.2715,1.4341,-0.0656,1.2822,
10.796505,-1.0148,1.9956,0.0354,-3.1616,3.3373,2.2715,1.4341,-0.0656,1.2822,
10.796931,-1.0148,1.9956,0.0354,-3.1616,3.3373,2.2715,2.0336,-0.8835,1.6765,
10.797348,-1.0148,1.9956,0.0354,-10.4312,10.6967,5.2627,2.0336,-0.8835,1.6765,
10.853975,-0.5826,1.6359,0.0391,-10.4312,10.6967,5.2627,2.0336,-0.8835,1.6765,
10.855692,0.3643,1.2032,-0.2952,-10.4312,10.6967,5.2627,2.0336,-0.8835,1.6765,
10.856587,1.3214,1.2020,-0.5533,-10.4312,10.6967,5.2627,2.0336,-0.8835,1.6765,
10.857499,1.3214,1.2020,-0.5533,-10.4312,10.6967,5.2627,2.2588,-1.7153,2.8534,
10.858385,1.3214,1.2020,-0.5533,-0.9599,7.1618,3.4336,2.2588,-1.7153,2.8534,
10.914018,1.3214,1.2020,-0.5533,4.3316,1.9120,-1.4540,2.2588,-1.7153,2.8534,
10.917003,1.4731,0.9662,-0.6942,4.3316,1.9120,-1.4540,2.2588,-1.7153,2.8534,
10.918424,0.9078,0.7110,-0.9769,4.3316,1.9120,-1.4540,2.2588,-1.7153,2.8534,
10.919827,0.5342,0.4773,-0.7679,4.3316,1.9120,-1.4540,2.2588,-1.7153,2.8534,
10.921107,0.5342,0.4773,-0.7679,4.3316,1.9120,-1.4540,1.5791,0.3364,1.2995,
10.971757,0.4063,0.3440,-0.3211,4.3316,1.9120,-1.4540,1.5791,0.3364,1.2995,
10.975981,0.2249,0.1663,-0.0625,4.3316,1.9120,-1.4540,1.5791,0.3364,1.2995,
10.977850,0.1516,0.0620,0.0535,4.3316,1.9120,-1.4540,1.5791,0.3364,1.2995,
10.979823,0.1516,0.0620,0.0535,4.3316,1.9120,-1.4540,-1.0982,1.1914,-0.7884,
10.982502,0.1516,0.0620,0.0535,-2.7676,-3.8292,4.6371,-1.0982,1.1914,-0.7884,
11.030014,0.1233,0.0794,-0.1174,-2.7676,-3.8292,4.6371,-1.0982,1.1914,-0.7884,
11.033790,0.2024,0.2136,-0.2281,-2.7676,-3.8292,4.6371,-1.0982,1.1914,-0.7884,
11.035524,0.2659,0.3621,-0.3914,-2.7676,-3.8292,4.6371,-1.0982,1.1914,-0.7884,
11.037858,0.2659,0.3621,-0.3914,-2.4959,-4.7741,2.5079,-1.0982,1.1914,-0.7884,
11.040559,0.2659,0.3621,-0.3914,-2.4959,-4.7741,2.5079,-1.9965,0.0462,-2.3469,
11.088239,0.3047,0.4671,-0.4395,-2.4959,-4.7741,2.5079,-1.9965,0.0462,-2.3469,
11.092080,0.2718,0.5123,-0.3391,-2.4959,-4.7741,2.5079,-1.9965,0.0462,-2.3469,
11.093749,0.2322,0.5445,-0.1826,-2.4959,-4.7741,2.5079,-1.9965,0.0462,-2.3469,
11.094821,0.2322,0.5445,-0.1826,-2.4959,-4.7741,2.5079,-3.4347,-0.3447,-3.5011,
11.096097,0.2322,0.5445,-0.1826,-0.1195,-3.4587,0.2857,-3.4347,-0.3447,-3.5011,
11.145597,0.1831,0.6986,-0.2722,-0.1195,-3.4587,0.2857,-3.4347,-0.3447,-3.5011,
11.148759,0.2014,0.9584,-0.5181,-0.1195,-3.4587,0.2857,-3.4347,-0.3447,-3.5011,
11.150672,0.3470,1.2269,-0.5301,-0.1195,-3.4587,0.2857,-3.4347,-0.3447,-3.5011,
11.152718,0.3470,1.2269,-0.5301,1.8575,0.0110,-2.9415,-3.4347,-0.3447,-3.5011,
11.155535,0.3470,1.2269,-0.5301,1.8575,0.0110,-2.9415,-4.1617,-0.9175,-4.0667,
11.204046,0.5667,1.5221,-0.5503,1.8575,0.0110,-2.9415,-4.1617,-0.9175,-4.0667,
11.207669,0.4632,1.7260,-0.5665,1.8575,0.0110,-2.9415,-4.1617,-0.9175,-4.0667,
11.210177,0.4698,1.4921,-0.4913,1.8575,0.0110,-2.9415,-4.1617,-0.9175,-4.0667,
11.212076,0.4698,1.4921,-0.4913,1.8575,0.0110,-2.9415,-4.3687,-0.1535,-4.1952,
11.215327,0.4698,1.4921,-0.4913,6.5780,6.0849,-6.1811,-4.3687,-0.1535,-4.1952,
11.262236,0.3504,1.1857,-0.1814,6.5780,6.0849,-6.1811,-4.3687,-0.1535,-4.1952,
11.264916,0.2754,0.9171,-0.2273,6.5780,6.0849,-6.1811,-4.3687,-0.1535,-4.1952,
11.266147,0.4136,0.8570,-0.4681,6.5780,6.0849,-6.1811,-4.3687,-0.1535,-4.1952,
11.267265,0.4136,0.8570,-0.4681,6.5780,6.0849,-6.1811,-2.6948,0.4924,-2.1932,
11.268410,0.4136,0.8570,-0.4681,6.1952,0.8042,-5.0727,-2.6948,0.4924,-2.1932,
11.322102,0.5699,0.7972,-0.4375,6.1952,0.8042,-5.0727,-2.6948,0.4924,-2.1932,
11.326821,0.4322,0.7911,-0.3040,6.1952,0.8042,-5.0727,-2.6948,0.4924,-2.1932,
11.329357,0.4024,0.9217,-0.5677,6.1952,0.8042,-5.0727,-2.6948,0.4924,-2.1932,
11.331606,0.4024,0.9217,-0.5677,6.1952,0.8042,-5.0727,0.2181,1.3898,0.6856,
11.333562,0.4024,0.9217,-0.5677,7.0860,-0.7850,-6.0399,0.2181,1.3898,0.6856,
11.380270,0.4024,0.9217,-0.5677,-7.1759,6.7867,2.0111,0.2181,1.3898,0.6856,
11.384441,-0.0955,1.4347,-0.5950,-7.1759,6.7867,2.0111,0.2181,1.3898,0.6856,
11.386104,-1.8737,1.8964,1.0729,-7.1759,6.7867,2.0111,0.2181,1.3898,0.6856,
11.388014,-0.9747,1.5758,0.5069,-7.1759,6.7867,2.0111,0.2181,1.3898,0.6856,
11.389757,-0.9747,1.5758,0.5069,-7.1759,6.7867,2.0111,0.4738,2.4305,0.7325,
11.437154,0.5228,1.1896,-1.0577,-7.1759,6.7867,2.0111,0.4738,2.4305,0.7325,
11.440627,-0.0474,0.9278,-0.5823,-7.1759,6.7867,2.0111,0.4738,2.4305,0.7325,
11.442465,0.0781,0.6771,0.2571,-7.1759,6.7867,2.0111,0.4738,2.4305,0.7325,
11.444763,0.0781,0.6771,0.2571,-7.1759,6.7867,2.0111,1.5121,0.5496,2.4362,
11.446537,0.0781,0.6771,0.2571,2.8942,-0.4277,-4.7396,1.5121,0.5496,2.4362,
11.496022,0.2412,0.9024,0.0083,2.8942,-0.4277,-4.7396,1.5121,0.5496,2.4362,
11.499434,0.3897,1.0541,-0.0606,2.8942,-0.4277,-4.7396,1.5121,0.5496,2.4362,
11.501248,0.2854,1.0550,-0.1133,2.8942,-0.4277,-4.7396,1.5121,0.5496,2.4362,
11.503475,0.2854,1.0550,-0.1133,2.8942,-0.4277,-4.7396,0.7192,-0.2005,1.4166,
11.505556,0.2854,1.0550,-0.1133,3.2333,0.2197,-0.3588,0.7192,-0.2005,1.4166,
11.554763,0.0523,0.9581,-0.0164,3.2333,0.2197,-0.3588,0.7192,-0.2005,1.4166,
11.557807,-0.0435,0.9972,-0.1109,3.2333,0.2197,-0.3588,0.7192,-0.2005,1.4166,
11.559202,-0.0305,1.0355,-0.0689,3.2333,0.2197,-0.3588,0.7192,-0.2005,1.4166,
11.560880,-0.0305,1.0355,-0.0689,3.2333,0.2197,-0.3588,0.3787,0.2030,0.8341,
11.563414,-0.0305,1.0355,-0.0689,-0.2978,0.1554,-0.2432,0.3787,0.2030,0.8341,
11.611672,0.0017,1.0228,0.0330,-0.2978,0.1554,-0.2432,0.3787,0.2030,0.8341,
11.615409,0.0449,0.9981,0.0278,-0.2978,0.1554,-0.2432,0.3787,0.2030,0.8341,
11.617124,0.1533,0.9457,-0.0127,-0.2978,0.1554,-0.2432,0.3787,0.2030,0.8341,
11.618941,0.1533,0.9457,-0.0127,-0.2978,0.1554,-0.2432,0.3319,-0.1535,0.8487,
11.620495,0.1533,0.9457,-0.0127,-0.0433,0.1071,0.7328,0.3319,-0.1535,0.8487,
11.670462,0.1868,0.9657,0.0002,-0.0433,0.1071,0.7328,0.3319,-0.1535,0.8487,
11.673659,0.1560,1.0060,-0.0042,-0.0433,0.1071,0.7328,0.3319,-0.1535,0.8487,
11.675462,0.1272,1.0372,-0.0879,-0.0433,0.1071,0.7328,0.3319,-0.1535,0.8487,
11.677833,0.1272,1.0372,-0.0879,-0.0433,0.1071,0.7328,0.4353,-0.0798,0.6952,
11.679717,0.1272,1.0372,-0.0879,0.4468,0.2939,0.5137,0.4353,-0.0798,0.6952,
11.728999,0.0374,1.0003,-0.1016,0.4468,0.2939,0.5137,0.4353,-0.0798,0.6952,
11.731538,0.0552,0.9923,-0.0852,0.4468,0.2939,0.5137,0.4353,-0.0798,0.6952,
11.734011,0.0896,1.0052,-0.1216,0.4468,0.2939,0.5137,0.4353,-0.0798,0.6952,
11.735690,0.0896,1.0052,-0.1216,-0.8327,0.3271,0.0807,0.4353,-0.0798,0.6952,
11.737501,0.0896,1.0052,-0.1216,-0.8327,0.3271,0.0807,0.5003,0.0153,0.6359,
11.787409,0.0706,0.9537,-0.1011,-0.8327,0.3271,0.0807,0.5003,0.0153,0.6359,
11.790530,0.1375,0.9381,-0.1043,-0.8327,0.3271,0.0807,0.5003,0.0153,0.6359,
11.792241,0.1524,0.9779,-0.1206,-0.8327,0.3271,0.0807,0.5003,0.0153,0.6359,
11.793716,0.1524,0.9779,-0.1206,-0.8327,0.3271,0.0807,0.5162,-0.1364,0.7860,
11.794530,0.1524,0.9779,-0.1206,-0.6609,0.0205,0.3148,0.5162,-0.1364,0.7860,
11.846914,0.1267,0.9740,-0.1052,-0.6609,0.0205,0.3148,0.5162,-0.1364,0.7860,
11.850810,0.1607,0.9198,-0.1043,-0.6609,0.0205,0.3148,0.5162,-0.1364,0.7860,
11.852560,0.1963,0.9361,-0.1006,-0.6609,0.0205,0.3148,0.5162,-0.1364,0.7860,
11.854574,0.1963,0.9361,-0.1006,-0.6609,0.0205,0.3148,0.5524,-0.3887,0.9025,
11.856372,0.1963,0.9361,-0.1006,-0.6990,0.0484,0.7009,0.5524,-0.3887,0.9025,
11.904012,0.2434,0.9549,-0.1316,-0.6990,0.0484,0.7009,0.5524,-0.3887,0.9025,
11.906010,0.2278,0.9681,-0.1497,-0.6990,0.0484,0.7009,0.5524,-0.3887,0.9025,
11.906733,0.1944,0.9713,-0.1597,-0.6990,0.0484,0.7009,0.5524,-0.3887,0.9025,
11.907509,0.1944,0.9713,-0.1597,-0.6990,0.0484,0.7009,0.5553,-0.7821,1.0285,
11.908363,0.1944,0.9713,-0.1597,-0.5528,0.4638,0.6718,0.5553,-0.7821,1.0285,
11.963433,0.1670,1.0118,-0.1372,-0.5528,0.4638,0.6718,0.5553,-0.7821,1.0285,
11.966356,0.1892,1.0345,-0.1497,-0.5528,0.4638,0.6718,0.5553,-0.7821,1.0285,
11.968378,0.2080,1.0760,-0.0977,-0.5528,0.4638,0.6718,0.5553,-0.7821,1.0285,
11.970202,0.2080,1.0760,-0.0977,-0.5528,0.4638,0.6718,0.5795,-1.4113,1.3089,
11.972129,0.2080,1.0760,-0.0977,-1.3390,1.4908,1.3773,0.5795,-1.4113,1.3089,
12.021319,0.2222,1.2220,-0.0977,-1.3390,1.4908,1.3773,0.5795,-1.4113,1.3089,
12.025625,0.1646,1.5773,-0.0586,-1.3390,1.4908,1.3773,0.5795,-1.4113,1.3089,
12.027633,-0.0454,1.7311,-0.2349,-1.3390,1.4908,1.3773,0.5795,-1.4113,1.3089,
12.029649,-0.0454,1.7311,-0.2349,-1.3390,1.4908,1.3773,0.6719,-1.9875,1.7746,
12.033363,-0.0454,1.7311,-0.2349,-2.5535,6.4564,2.0544,0.6719,-1.9875,1.7746,
12.077942,-0.1255,1.5236,-0.4329,-2.5535,6.4564,2.0544,0.6719,-1.9875,1.7746,
12.079285,0.0227,1.1656,-0.5357,-2.5535,6.4564,2.0544,0.6719,-1.9875,1.7746,
12.080195,0.3462,0.7813,-0.5877,-2.5535,6.4564,2.0544,0.6719,-1.9875,1.7746,
12.081035,0.3462,0.7813,-0.5877,-2.5535,6.4564,2.0544,0.0680,-3.6206,2.5640,
12.081775,0.3462,0.7813,-0.5877,-3.2229,3.5304,-0.8777,0.0680,-3.6206,2.5640,
12.135778,0.6802,0.5472,-0.7012,-3.2229,3.5304,-0.8777,0.0680,-3.6206,2.5640,
12.136956,0.7823,0.4349,-0.7603,-3.2229,3.5304,-0.8777,0.0680,-3.6206,2.5640,
12.137521,0.6441,0.4270,-0.7669,-3.2229,3.5304,-0.8777,0.0680,-3.6206,2.5640,
12.138185,0.6441,0.4270,-0.7669,-3.2229,3.5304,-0.8777,-1.2712,-4.5151,3.1894,
12.139065,0.6441,0.4270,-0.7669,2.5988,-2.7231,-2.4978,-1.2712,-4.5151,3.1894,
12.194850,0.3843,0.4107,-0.7989,2.5988,-2.7231,-2.4978,-1.2712,-4.5151,3.1894,
12.197380,0.0237,0.3301,-0.6744,2.5988,-2.7231,-2.4978,-1.2712,-4.5151,3.1894,
12.198311,-0.2105,0.2508,-0.6885,2.5988,-2.7231,-2.4978,-1.2712,-4.5151,3.1894,
12.199272,-0.2105,0.2508,-0.6885,2.5988,-2.7231,-2.4978,-2.6740,-3.8413,2.7302,
12.200277,-0.2105,0.2508,-0.6885,-3.6731,-4.0699,-2.4107,-2.6740,-3.8413,2.7302,
12.254450,-0.2862,0.3062,-0.8531,-3.6731,-4.0699,-2.4107,-2.6740,-3.8413,2.7302,
12.258981,-0.1629,0.3787,-0.8951,-3.6731,-4.0699,-2.4107,-2.6740,-3.8413,2.7302,
12.261233,-0.0195,0.4661,-0.9100,-3.6731,-4.0699,-2.4107,-2.6740,-3.8413,2.7302,
12.263378,-0.0195,0.4661,-0.9100,-3.6731,-4.0699,-2.4107,-2.9200,-4.0138,2.0701,
12.265836,-0.0195,0.4661,-0.9100,-5.5891,-3.7425,-4.2287,-2.9200,-4.0138,2.0701,
12.313940,-0.0044,0.5916,-0.9081,-5.5891,-3.7425,-4.2287,-2.9200,-4.0138,2.0701,
12.317541,0.0100,0.5794,-0.8197,-5.5891,-3.7425,-4.2287,-2.9200,-4.0138,2.0701,
12.319513,-0.0283,0.5608,-0.7393,-5.5891,-3.7425,-4.2287,-2.9200,-4.0138,2.0701,
12.321373,-0.0283,0.5608,-0.7393,-5.5891,-3.7425,-4.2287,-3.0621,-3.6611,0.7437,
12.323759,-0.0283,0.5608,-0.7393,-3.5091,-2.3851,-4.1089,-3.0621,-3.6611,0.7437,
12.372126,-0.0896,0.6500,-0.7110,-3.5091,-2.3851,-4.1089,-3.0621,-3.6611,0.7437,
12.378341,-0.0547,0.7181,-0.7374,-3.5091,-2.3851,-4.1089,-3.0621,-3.6611,0.7437,
12.380665,0.0530,0.7887,-0.7349,-3.5091,-2.3851,-4.1089,-3.0621,-3.6611,0.7437,
12.383091,0.0530,0.7887,-0.7349,-2.7113,-1.5611,-3.6771,-3.0621,-3.6611,0.7437,
12.385522,0.0530,0.7887,-0.7349,-2.7113,-1.5611,-3.6771,-2.4810,-3.7263,-0.3587,
12.431237,0.1199,0.8538,-0.6426,-2.7113,-1.5611,-3.6771,-2.4810,-3.7263,-0.3587,
12.435933,0.1211,0.8851,-0.5584,-2.7113,-1.5611,-3.6771,-2.4810,-3.7263,-0.3587,
12.438568,0.0557,0.8792,-0.4854,-2.7113,-1.5611,-3.6771,-2.4810,-3.7263,-0.3587,
12.441051,0.0557,0.8792,-0.4854,-2.7113,-1.5611,-3.6771,-2.0609,-3.4209,-1.1052,
12.443640,0.0557,0.8792,-0.4854,-0.2440,-0.5343,-2.7049,-2.0609,-3.4209,-1.1052,
12.487293,-0.0227,0.8932,-0.4078,-0.2440,-0.5343,-2.7049,-2.0609,-3.4209,-1.1052,
12.491111,-0.0486,0.9613,-0.3531,-0.2440,-0.5343,-2.7049,-2.0609,-3.4209,-1.1052,
12.493591,-0.0359,1.0431,-0.2993,-0.2440,-0.5343,-2.7049,-2.0609,-3.4209,-1.1052,
12.496253,-0.0359,1.0431,-0.2993,-0.2440,-0.5343,-2.7049,-1.6854,-3.1517,-1.9020,
12.498594,-0.0359,1.0431,-0.2993,-0.0909,0.0889,-1.4496,-1.6854,-3.1517,-1.9020,
12.546970,0.0156,1.0929,-0.2366,-0.0909,0.0889,-1.4496,-1.6854,-3.1517,-1.9020,
12.553507,0.0728,1.1034,-0.2107,-0.0909,0.0889,-1.4496,-1.6854,-3.1517,-1.9020,
12.555968,0.0527,1.0765,-0.1773,-0.0909,0.0889,-1.4496,-1.6854,-3.1517,-1.9020,
12.557924,0.0527,1.0765,-0.1773,-0.0909,0.0889,-1.4496,-1.3529,-2.7788,-1.9818,
12.560238,0.0527,1.0765,-0.1773,2.0288,1.2773,-0.9036,-1.3529,-2.7788,-1.9818,
12.606870,0.0586,1.0030,-0.1099,2.0288,1.2773,-0.9036,-1.3529,-2.7788,-1.9818,
12.612153,0.1016,0.9962,-0.0584,2.0288,1.2773,-0.9036,-1.3529,-2.7788,-1.9818,
12.614429,0.1104,1.0585,0.0222,2.0288,1.2773,-0.9036,-1.3529,-2.7788,-1.9818,
12.615456,0.1104,1.0585,0.0222,2.0288,1.2773,-0.9036,-0.9860,-2.5041,-1.3302,
12.616500,0.1104,1.0585,0.0222,3.2283,0.6753,-0.1706,-0.9860,-2.5041,-1.3302,
12.662408,0.1372,0.9720,0.1072,3.2283,0.6753,-0.1706,-0.9860,-2.5041,-1.3302,
12.666526,0.2281,0.8778,0.0754,3.2283,0.6753,-0.1706,-0.9860,-2.5041,-1.3302,
12.668521,0.3055,0.9205,0.0684,3.2283,0.6753,-0.1706,-0.9860,-2.5041,-1.3302,
12.671269,0.3055,0.9205,0.0684,3.2283,0.6753,-0.1706,-0.1939,-2.4351,-0.0299,
12.673800,0.3055,0.9205,0.0684,4.4825,-0.2573,0.6660,-0.1939,-2.4351,-0.0299,
12.721131,0.2906,0.9625,0.0129,4.4825,-0.2573,0.6660,-0.1939,-2.4351,-0.0299,
12.726008,-0.0178,0.9964,0.0671,4.4825,-0.2573,0.6660,-0.1939,-2.4351,-0.0299,
12.728346,-0.7464,1.1742,0.5364,4.4825,-0.2573,0.6660,-0.1939,-2.4351,-0.0299,
12.730623,-0.7464,1.1742,0.5364,4.4825,-0.2573,0.6660,0.1596,-1.5103,0.8245,
12.732914,-0.7464,1.1742,0.5364,0.2694,0.8131,1.7312,0.1596,-1.5103,0.8245,
12.779327,-0.7764,1.4357,0.6148,0.2694,0.8131,1.7312,0.1596,-1.5103,0.8245,
12.781731,0.1770,1.3825,-0.2544,0.2694,0.8131,1.7312,0.1596,-1.5103,0.8245,
12.783042,0.0711,1.1080,-0.7603,0.2694,0.8131,1.7312,0.1596,-1.5103,0.8245,
12.783959,0.0711,1.1080,-0.7603,-0.3620,3.2676,-1.3803,0.1596,-1.5103,0.8245,
12.784981,0.0711,1.1080,-0.7603,-0.3620,3.2676,-1.3803,0.2775,0.3944,0.8369,
12.841045,-0.3694,1.0179,-0.3116,-0.3620,3.2676,-1.3803,0.2775,0.3944,0.8369,
12.844491,-0.3120,0.9073,0.1790,-0.3620,3.2676,-1.3803,0.2775,0.3944,0.8369,
12.846745,-0.0232,0.9549,0.2652,-0.3620,3.2676,-1.3803,0.2775,0.3944,0.8369,
12.848547,-0.0232,0.9549,0.2652,-0.3620,3.2676,-1.3803,-0.0198,1.3466,1.1806,
12.851130,-0.0232,0.9549,0.2652,-1.5703,-0.2170,0.4205,-0.0198,1.3466,1.1806,
12.897268,-0.0232,0.9549,0.2652,1.0947,0.3940,0.9356,-0.0198,1.3466,1.1806,
12.901168,0.1790,1.0638,0.1336,1.0947,0.3940,0.9356,-0.0198,1.3466,1.1806,
12.903862,0.1172,1.0438,0.1309,1.0947,0.3940,0.9356,-0.0198,1.3466,1.1806,
12.906594,0.0247,0.9701,0.0247,1.0947,0.3940,0.9356,-0.0198,1.3466,1.1806,
12.908404,0.0247,0.9701,0.0247,1.0947,0.3940,0.9356,0.0454,-0.5084,1.1849,
12.953483,0.0772,1.0338,-0.1091,1.0947,0.3940,0.9356,0.0454,-0.5084,1.1849,
12.956013,0.1716,1.0609,-0.1218,1.0947,0.3940,0.9356,0.0454,-0.5084,1.1849,
12.957397,0.1682,0.9676,0.0054,1.0947,0.3940,0.9356,0.0454,-0.5084,1.1849,
12.958866,0.1682,0.9676,0.0054,1.0947,0.3940,0.9356,0.0322,-0.4850,0.8021,
12.960284,0.1682,0.9676,0.0054,0.9412,0.3463,-0.7101,0.0322,-0.4850,0.8021,
13.012452,0.0142,0.9923,0.1038,0.9412,0.3463,-0.7101,0.0322,-0.4850,0.8021,
13.015823,-0.1795,1.0199,0.1829,0.9412,0.3463,-0.7101,0.0322,-0.4850,0.8021,
13.017616,-0.1448,0.9950,0.2212,0.9412,0.3463,-0.7101,0.0322,-0.4850,0.8021,
13.019200,-0.1448,0.9950,0.2212,0.9412,0.3463,-0.7101,0.1503,0.0350,0.6070,
13.027047,-0.1448,0.9950,0.2212,-1.7464,0.1845,1.7389,0.1503,0.0350,0.6070,
13.071534,0.0740,0.9930,0.0508,-1.7464,0.1845,1.7389,0.1503,0.0350,0.6070,
13.075273,0.1543,0.9986,0.0056,-1.7464,0.1845,1.7389,0.1503,0.0350,0.6070,
13.076968,0.0747,0.9908,0.0139,-1.7464,0.1845,1.7389,0.1503,0.0350,0.6070,
13.078922,0.0747,0.9908,0.0139,-0.2028,0.1528,0.5416,0.1503,0.0350,0.6070,
13.080893,0.0747,0.9908,0.0139,-0.2028,0.1528,0.5416,0.3765,-0.5172,0.8361,
13.129201,0.0308,0.9889,0.0520,-0.2028,0.1528,0.5416,0.3765,-0.5172,0.8361,
13.132805,0.0178,0.9815,0.0603,-0.2028,0.1528,0.5416,0.3765,-0.5172,0.8361,
13.134473,0.1223,0.9730,-0.0249,-0.2028,0.1528,0.5416,0.3765,-0.5172,0.8361,
13.135893,0.1223,0.9730,-0.0249,-0.2028,0.1528,0.5416,0.5390,-0.2574,0.9271,
13.138028,0.1223,0.9730,-0.0249,-1.1248,0.1164,0.9031,0.5390,-0.2574,0.9271,
13.187166,0.1621,0.9881,-0.0640,-1.1248,0.1164,0.9031,0.5390,-0.2574,0.9271,
13.190054,0.1585,0.9774,-0.0544,-1.1248,0.1164,0.9031,0.5390,-0.2574,0.9271,
13.191688,0.2193,0.9776,-0.0923,-1.1248,0.1164,0.9031,0.5390,-0.2574,0.9271,
13.193446,0.2193,0.9776,-0.0923,-1.1248,0.1164,0.9031,0.5807,-0.3883,1.0705,
13.194410,0.2193,0.9776,-0.0923,-0.4820,0.2613,0.2887,0.5807,-0.3883,1.0705,
13.246404,0.2285,1.0013,-0.1038,-0.4820,0.2613,0.2887,0.5807,-0.3883,1.0705,
13.249832,0.2019,1.0255,-0.1096,-0.4820,0.2613,0.2887,0.5807,-0.3883,1.0705,
13.251505,0.1897,1.0213,-0.1214,-0.4820,0.2613,0.2887,0.5807,-0.3883,1.0705,
13.253445,0.1897,1.0213,-0.1214,-0.4820,0.2613,0.2887,0.5663,-0.4555,1.0967,
13.255460,0.1897,1.0213,-0.1214,-0.7680,0.7910,0.2525,0.5663,-0.4555,1.0967,
13.303706,0.2456,1.0060,-0.1206,-0.7680,0.7910,0.2525,0.5663,-0.4555,1.0967,
13.306397,0.2793,1.0213,-0.1069,-0.7680,0.7910,0.2525,0.5663,-0.4555,1.0967,
13.307942,0.1868,1.0609,-0.0833,-0.7680,0.7910,0.2525,0.5663,-0.4555,1.0967,
13.309870,0.1868,1.0609,-0.0833,-0.7680,0.7910,0.2525,0.5496,-0.7119,1.2159,
13.311775,0.1868,1.0609,-0.0833,-1.0273,1.1705,0.7365,0.5496,-0.7119,1.2159,
13.362755,0.0837,1.0851,-0.1121,-1.0273,1.1705,0.7365,0.5496,-0.7119,1.2159,
13.365991,0.0474,1.1415,-0.0899,-1.0273,1.1705,0.7365,0.5496,-0.7119,1.2159,
13.367986,0.0547,1.1710,-0.0913,-1.0273,1.1705,0.7365,0.5496,-0.7119,1.2159,
13.369588,0.0547,1.1710,-0.0913,-3.3582,2.5650,1.3788,0.5496,-0.7119,1.2159,
13.371573,0.0547,1.1710,-0.0913,-3.3582,2.5650,1.3788,0.8456,-0.8314,1.5135,
13.424282,0.0547,1.1710,-0.0913,-5.0152,5.1185,1.8541,0.8456,-0.8314,1.5135,
13.427795,0.0398,1.1683,-0.1738,-5.0152,5.1185,1.8541,0.8456,-0.8314,1.5135,
13.429674,0.0176,1.2435,-0.1936,-5.0152,5.1185,1.8541,0.8456,-0.8314,1.5135,
13.431438,-0.1748,1.5746,-0.0544,-5.0152,5.1185,1.8541,0.8456,-0.8314,1.5135,
13.433130,-0.1748,1.5746,-0.0544,-5.0152,5.1185,1.8541,1.2966,-1.2121,1.9872,
13.479007,-0.7105,1.8613,-0.0137,-5.0152,5.1185,1.8541,1.2966,-1.2121,1.9872,
13.481682,-1.1332,1.8344,-0.0603,-5.0152,5.1185,1.8541,1.2966,-1.2121,1.9872,
13.483937,-0.5377,1.4020,-0.1084,-5.0152,5.1185,1.8541,1.2966,-1.2121,1.9872,
13.485864,-0.5377,1.4020,-0.1084,-5.0152,5.1185,1.8541,1.5799,-1.9167,2.3541,
13.487944,-0.5377,1.4020,-0.1084,-12.7785,9.6199,3.8089,1.5799,-1.9167,2.3541,
13.537482,0.5276,1.0900,-0.4532,-12.7785,9.6199,3.8089,1.5799,-1.9167,2.3541,
13.541455,1.3676,1.1691,-0.6199,-12.7785,9.6199,3.8089,1.5799,-1.9167,2.3541,
13.544270,1.1503,1.0038,-0.7435,-12.7785,9.6199,3.8089,1.5799,-1.9167,2.3541,
13.546856,1.1503,1.0038,-0.7435,-12.7785,9.6199,3.8089,1.8666,-2.4097,3.2122,
13.550243,1.1503,1.0038,-0.7435,4.4192,5.0842,-0.1029,1.8666,-2.4097,3.2122,
13.596226,0.7169,0.6590,-0.7950,4.4192,5.0842,-0.1029,1.8666,-2.4097,3.2122,
13.600480,0.6085,0.4759,-0.7828,4.4192,5.0842,-0.1029,1.8666,-2.4097,3.2122,
13.603034,0.4939,0.3377,-0.4019,4.4192,5.0842,-0.1029,1.8666,-2.4097,3.2122,
13.605597,0.4939,0.3377,-0.4019,4.4192,5.0842,-0.1029,-0.0868,-0.0544,0.8481,
13.607975,0.4939,0.3377,-0.4019,0.1632,-0.5086,-0.6345,-0.0868,-0.0544,0.8481,
13.655772,0.2583,0.1423,-0.0225,0.1632,-0.5086,-0.6345,-0.0868,-0.0544,0.8481,
13.659640,-0.0337,0.0569,0.0630,0.1632,-0.5086,-0.6345,-0.0868,-0.0544,0.8481,
13.661922,-0.1306,0.1411,-0.1204,0.1632,-0.5086,-0.6345,-0.0868,-0.0544,0.8481,
13.664176,-0.1306,0.1411,-0.1204,0.1632,-0.5086,-0.6345,-2.0470,0.3804,-1.4722,
13.667363,-0.1306,0.1411,-0.1204,-4.9992,-5.2474,4.6673,-2.0470,0.3804,-1.4722,
13.713465,0.0305,0.3328,-0.2964,-4.9992,-5.2474,4.6673,-2.0470,0.3804,-1.4722,
13.717269,0.1624,0.5389,-0.4268,-4.9992,-5.2474,4.6673,-2.0470,0.3804,-1.4722,
13.719645,0.1594,0.6382,-0.4244,-4.9992,-5.2474,4.6673,-2.0470,0.3804,-1.4722,
13.721735,0.1594,0.6382,-0.4244,-4.9992,-5.2474,4.6673,-2.6088,-0.8088,-2.8006,
13.724659,0.1594,0.6382,-0.4244,-2.7373,-2.8233,0.3088,-2.6088,-0.8088,-2.8006,
13.770076,0.2107,0.6129,-0.3042,-2.7373,-2.8233,0.3088,-2.6088,-0.8088,-2.8006,
13.774221,0.2544,0.6717,-0.2996,-2.7373,-2.8233,0.3088,-2.6088,-0.8088,-2.8006,
13.776788,0.1907,0.8512,-0.3738,-2.7373,-2.8233,0.3088,-2.6088,-0.8088,-2.8006,
13.778995,0.1907,0.8512,-0.3738,-2.7373,-2.8233,0.3088,-3.7691,-1.6294,-3.9957,
13.781419,0.1907,0.8512,-0.3738,0.5386,-2.1096,-0.7362,-3.7691,-1.6294,-3.9957,
13.830549,0.1826,1.1063,-0.5779,0.5386,-2.1096,-0.7362,-3.7691,-1.6294,-3.9957,
13.834284,0.4126,1.4374,-0.7767,0.5386,-2.1096,-0.7362,-3.7691,-1.6294,-3.9957,
13.835802,0.6463,1.6083,-0.8980,0.5386,-2.1096,-0.7362,-3.7691,-1.6294,-3.9957,
13.837071,0.6463,1.6083,-0.8980,0.5386,-2.1096,-0.7362,-4.1753,-0.8656,-4.3506,
13.838230,0.6463,1.6083,-0.8980,4.8321,3.9882,-7.0421,-4.1753,-0.8656,-4.3506,
13.886447,0.7088,1.3539,-0.8194,4.8321,3.9882,-7.0421,-4.1753,-0.8656,-4.3506,
13.889765,0.9613,1.0277,-0.5648,4.8321,3.9882,-7.0421,-4.1753,-0.8656,-4.3506,
13.891901,0.7430,1.0052,-0.3396,4.8321,3.9882,-7.0421,-4.1753,-0.8656,-4.3506,
13.895070,0.7430,1.0052,-0.3396,10.5324,1.9374,-6.8177,-4.1753,-0.8656,-4.3506,
13.897926,0.7430,1.0052,-0.3396,10.5324,1.9374,-6.8177,-3.3386,1.7408,-3.5994,
13.944701,0.3953,1.0172,-0.3033,10.5324,1.9374,-6.8177,-3.3386,1.7408,-3.5994,
13.947503,0.4390,0.9510,-0.2830,10.5324,1.9374,-6.8177,-3.3386,1.7408,-3.5994,
13.948625,0.5914,0.8421,-0.2461,10.5324,1.9374,-6.8177,-3.3386,1.7408,-3.5994,
13.949728,0.5914,0.8421,-0.2461,7.5436,0.1563,-3.7706,-3.3386,1.7408,-3.5994,
13.950884,0.5914,0.8421,-0.2461,7.5436,0.1563,-3.7706,-0.5767,2.1629,-0.3828,
14.003088,0.4964,1.0765,-0.6392,7.5436,0.1563,-3.7706,-0.5767,2.1629,-0.3828,
14.005820,-0.6153,1.6274,0.1001,7.5436,0.1563,-3.7706,-0.5767,2.1629,-0.3828,
14.006844,-2.0715,1.6886,0.6898,7.5436,0.1563,-3.7706,-0.5767,2.1629,-0.3828,
14.007855,-2.0715,1.6886,0.6898,7.5436,0.1563,-3.7706,0.4249,2.2075,0.9459,
14.008696,-2.0715,1.6886,0.6898,-4.5905,5.0725,0.0205,0.4249,2.2075,0.9459,
14.063458,-0.4353,1.2579,-0.2200,-4.5905,5.0725,0.0205,0.4249,2.2075,0.9459,
14.067451,0.4380,1.0287,-1.0375,-4.5905,5.0725,0.0205,0.4249,2.2075,0.9459,
14.069537,0.1514,0.9005,-0.3684,-4.5905,5.0725,0.0205,0.4249,2.2075,0.9459,
14.071196,0.1514,0.9005,-0.3684,-4.5905,5.0725,0.0205,1.3441,1.4176,2.2213,
14.073347,0.1514,0.9005,-0.3684,1.8237,0.8658,-4.7908,1.3441,1.4176,2.2213,
14.121320,0.2310,0.7589,0.1963,1.8237,0.8658,-4.7908,1.3441,1.4176,2.2213,
14.124579,0.2075,0.8941,0.3802,1.8237,0.8658,-4.7908,1.3441,1.4176,2.2213,
14.125985,0.0540,1.0870,0.0847,1.8237,0.8658,-4.7908,1.3441,1.4176,2.2213,
14.128250,0.0540,1.0870,0.0847,1.8237,0.8658,-4.7908,0.4184,0.3761,1.6520,
14.130137,0.0540,1.0870,0.0847,1.9576,-0.6496,2.8882,0.4184,0.3761,1.6520,
14.179830,0.1643,1.0384,-0.3440,1.9576,-0.6496,2.8882,0.4184,0.3761,1.6520,
14.183084,0.1929,1.0553,-0.3431,1.9576,-0.6496,2.8882,0.4184,0.3761,1.6520,
14.185003,0.0654,1.0409,-0.2522,1.9576,-0.6496,2.8882,0.4184,0.3761,1.6520,
14.186773,0.0654,1.0409,-0.2522,1.9576,-0.6496,2.8882,0.4608,-0.0480,1.1057,
14.188710,0.0654,1.0409,-0.2522,1.0952,0.6489,-2.0464,0.4608,-0.0480,1.1057,
14.237650,0.0593,0.9808,-0.1331,1.0952,0.6489,-2.0464,0.4608,-0.0480,1.1057,
14.240271,0.0598,1.0016,-0.0647,1.0952,0.6489,-2.0464,0.4608,-0.0480,1.1057,
14.241999,-0.0105,1.0438,-0.0696,1.0952,0.6489,-2.0464,0.4608,-0.0480,1.1057,
14.243791,-0.0105,1.0438,-0.0696,1.0952,0.6489,-2.0464,0.2590,0.4460,0.8163,
14.245864,-0.0105,1.0438,-0.0696,-0.4082,0.3305,0.2734,0.2590,0.4460,0.8163,
14.296112,-0.0349,1.0077,-0.0640,-0.4082,0.3305,0.2734,0.2590,0.4460,0.8163,
14.299482,0.1025,1.0021,-0.0857,-0.4082,0.3305,0.2734,0.2590,0.4460,0.8163,
14.301434,0.1668,0.9989,-0.1223,-0.4082,0.3305,0.2734,0.2590,0.4460,0.8163,
14.304503,0.1668,0.9989,-0.1223,-0.4082,0.3305,0.2734,0.3026,-0.1395,0.8658,
14.306169,0.1668,0.9989,-0.1223,-0.4599,0.3397,0.4284,0.3026,-0.1395,0.8658,
14.355270,0.1392,0.9544,-0.0745,-0.4599,0.3397,0.4284,0.3026,-0.1395,0.8658,
14.359511,0.1380,0.9476,-0.0422,-0.4599,0.3397,0.4284,0.3026,-0.1395,0.8658,
14.361443,0.1248,0.9664,-0.0520,-0.4599,0.3397,0.4284,0.3026,-0.1395,0.8658,
14.364668,0.1248,0.9664,-0.0520,-0.4599,0.3397,0.4284,0.4078,-0.0771,0.8440,
14.366327,0.1248,0.9664,-0.0520,-0.3648,-0.0122,0.9801,0.4078,-0.0771,0.8440,
14.413334,0.1160,0.9830,-0.0950,-0.3648,-0.0122,0.9801,0.4078,-0.0771,0.8440,
14.417158,0.1399,0.9896,-0.1472,-0.3648,-0.0122,0.9801,0.4078,-0.0771,0.8440,
14.418980,0.1834,0.9803,-0.1607,-0.3648,-0.0122,0.9801,0.4078,-0.0771,0.8440,
14.420536,0.1834,0.9803,-0.1607,-0.3648,-0.0122,0.9801,0.5007,-0.2964,0.9210,
14.422320,0.1834,0.9803,-0.1607,-0.7019,0.4089,0.5120,0.5007,-0.2964,0.9210,
14.470488,0.1692,0.9774,-0.1590,-0.7019,0.4089,0.5120,0.5007,-0.2964,0.9210,
14.474502,0.1467,0.9960,-0.1626,-0.7019,0.4089,0.5120,0.5007,-0.2964,0.9210,
14.476553,0.1592,0.9857,-0.1729,-0.7019,0.4089,0.5120,0.5007,-0.2964,0.9210,
14.478352,0.1592,0.9857,-0.1729,-0.7019,0.4089,0.5120,0.6001,-0.3443,1.0499,
14.480338,0.1592,0.9857,-0.1729,-1.0850,0.6353,0.5710,0.6001,-0.3443,1.0499,
14.527700,0.1306,1.0316,-0.1209,-1.0850,0.6353,0.5710,0.6001,-0.3443,1.0499,
14.529704,0.0784,1.1022,-0.0723,-1.0850,0.6353,0.5710,0.6001,-0.3443,1.0499,
14.530981,0.0732,1.1400,-0.0581,-1.0850,0.6353,0.5710,0.6001,-0.3443,1.0499,
14.532227,0.0732,1.1400,-0.0581,-1.0850,0.6353,0.5710,0.9637,-0.2999,1.3168,
14.533907,0.0732,1.1400,-0.0581,-2.3134,1.9952,1.8824,0.9637,-0.2999,1.3168,
14.587678,0.0501,1.1539,-0.0911,-2.3134,1.9952,1.8824,0.9637,-0.2999,1.3168,
14.590969,0.0439,1.2338,-0.1463,-2.3134,1.9952,1.8824,0.9637,-0.2999,1.3168,
14.592823,0.0032,1.4982,-0.1248,-2.3134,1.9952,1.8824,0.9637,-0.2999,1.3168,
14.593987,0.0032,1.4982,-0.1248,-2.3134,1.9952,1.8824,1.5414,-0.7623,1.7899,
14.595002,0.0032,1.4982,-0.1248,-3.5911,4.5787,2.3945,1.5414,-0.7623,1.7899,
14.646233,-0.3609,1.8090,-0.0913,-3.5911,4.5787,2.3945,1.5414,-0.7623,1.7899,
14.649085,-0.9022,2.0002,-0.1387,-3.5911,4.5787,2.3945,1.5414,-0.7623,1.7899,
14.651091,-1.0765,1.8405,-0.1431,-3.5911,4.5787,2.3945,1.5414,-0.7623,1.7899,
14.653106,-1.0765,1.8405,-0.1431,-3.5911,4.5787,2.3945,2.0415,-1.2863,2.0185,
14.655266,-1.0765,1.8405,-0.1431,-11.9329,11.1488,3.5258,2.0415,-1.2863,2.0185,
14.705711,-0.2854,1.1730,-0.1709,-11.9329,11.1488,3.5258,2.0415,-1.2863,2.0185,
14.707795,0.7679,0.9288,-0.5882,-11.9329,11.1488,3.5258,2.0415,-1.2863,2.0185,
14.708668,1.4982,0.9237,-0.5369,-11.9329,11.1488,3.5258,2.0415,-1.2863,2.0185,
14.709523,1.4982,0.9237,-0.5369,-11.9329,11.1488,3.5258,2.1586,-2.2488,3.1539,
14.710408,1.4982,0.9237,-0.5369,1.6681,4.0354,1.9081,2.1586,-2.2488,3.1539,
14.763130,1.4982,0.9237,-0.5369,2.2587,-0.0667,-1.0852,2.1586,-2.2488,3.1539,
14.766726,1.0936,0.7159,-0.7476,2.2587,-0.0667,-1.0852,2.1586,-2.2488,3.1539,
14.768783,0.6480,0.4827,-0.8998,2.2587,-0.0667,-1.0852,2.1586,-2.2488,3.1539,
14.770587,0.5291,0.3716,-0.6683,2.2587,-0.0667,-1.0852,2.1586,-2.2488,3.1539,
14.772465,0.5291,0.3716,-0.6683,2.2587,-0.0667,-1.0852,1.0057,0.0000,0.9721,
14.820256,0.4256,0.2986,-0.2261,2.2587,-0.0667,-1.0852,1.0057,0.0000,0.9721,
14.824293,0.1878,0.1804,0.0044,2.2587,-0.0667,-1.0852,1.0057,0.0000,0.9721,
14.826272,-0.0374,0.1162,0.0654,2.2587,-0.0667,-1.0852,1.0057,0.0000,0.9721,
14.828189,-0.0374,0.1162,0.0654,2.2587,-0.0667,-1.0852,-1.6748,1.2637,-1.0714,
14.830933,-0.0374,0.1162,0.0654,-3.3123,-4.0960,4.9467,-1.6748,1.2637,-1.0714,
14.878874,-0.0989,0.1890,-0.1130,-3.3123,-4.0960,4.9467,-1.6748,1.2637,-1.0714,
14.882865,0.0085,0.3565,-0.2581,-3.3123,-4.0960,4.9467,-1.6748,1.2637,-1.0714,
14.885258,0.1392,0.4937,-0.3120,-3.3123,-4.0960,4.9467,-1.6748,1.2637,-1.0714,
14.887324,0.1392,0.4937,-0.3120,-3.3123,-4.0960,4.9467,-2.2272,-0.2297,-2.5858,
14.890092,0.1392,0.4937,-0.3120,-3.8869,-3.9419,2.3677,-2.2272,-0.2297,-2.5858,
14.937264,0.2302,0.5867,-0.3076,-3.8869,-3.9419,2.3677,-2.2272,-0.2297,-2.5858,
14.941330,0.3340,0.6429,-0.3037,-3.8869,-3.9419,2.3677,-2.2272,-0.2297,-2.5858,
14.943848,0.4268,0.7135,-0.2852,-3.8869,-3.9419,2.3677,-2.2272,-0.2297,-2.5858,
14.946195,0.4268,0.7135,-0.2852,-3.8869,-3.9419,2.3677,-3.3633,-1.2649,-3.6719,
14.948577,0.4268,0.7135,-0.2852,1.1944,-2.3785,0.2933,-3.3633,-1.2649,-3.6719,
14.995514,0.3855,0.9281,-0.4146,1.1944,-2.3785,0.2933,-3.3633,-1.2649,-3.6719,
14.998626,0.3465,1.2819,-0.5247,1.1944,-2.3785,0.2933,-3.3633,-1.2649,-3.6719,
15.000325,0.4786,1.5824,-0.6446,1.1944,-2.3785,0.2933,-3.3633,-1.2649,-3.6719,
15.001973,0.4786,1.5824,-0.6446,1.1944,-2.3785,0.2933,-4.2260,-0.7173,-4.5174,
15.004016,0.4786,1.5824,-0.6446,4.3561,2.8807,-4.1068,-4.2260,-0.7173,-4.5174,
15.053218,0.4896,1.7277,-0.5892,4.3561,2.8807,-4.1068,-4.2260,-0.7173,-4.5174,
15.055135,0.5342,1.5446,-0.4590,4.3561,2.8807,-4.1068,-4.2260,-0.7173,-4.5174,
15.056313,0.6822,1.1705,-0.1172,4.3561,2.8807,-4.1068,-4.2260,-0.7173,-4.5174,
15.057321,0.6822,1.1705,-0.1172,4.3561,2.8807,-4.1068,-4.2348,1.0065,-3.8694,
15.058738,0.6822,1.1705,-0.1172,7.9885,5.2665,-4.8770,-4.2348,1.0065,-3.8694,
15.112200,0.5689,0.9171,-0.0950,7.9885,5.2665,-4.8770,-4.2348,1.0065,-3.8694,
15.115738,0.2576,0.9371,-0.3301,7.9885,5.2665,-4.8770,-4.2348,1.0065,-3.8694,
15.118346,0.2027,0.8770,-0.3582,7.9885,5.2665,-4.8770,-4.2348,1.0065,-3.8694,
15.120630,0.2027,0.8770,-0.3582,7.9885,5.2665,-4.8770,-2.0768,1.5076,-1.4292,
15.123022,0.2027,0.8770,-0.3582,6.5641,0.0950,-4.3861,-2.0768,1.5076,-1.4292,
15.170073,0.2896,0.7396,-0.2727,6.5641,0.0950,-4.3861,-2.0768,1.5076,-1.4292,
15.174185,0.3882,0.7967,-0.5118,6.5641,0.0950,-4.3861,-2.0768,1.5076,-1.4292,
15.176711,0.2046,1.1754,-0.8907,6.5641,0.0950,-4.3861,-2.0768,1.5076,-1.4292,
15.178994,0.2046,1.1754,-0.8907,6.5641,0.0950,-4.3861,0.4052,1.1774,1.2690,
15.180892,0.2046,1.1754,-0.8907,5.4488,-0.2194,-6.7612,0.4052,1.1774,1.2690,
15.227986,-1.1532,1.6374,0.2075,5.4488,-0.2194,-6.7612,0.4052,1.1774,1.2690,
15.229566,-1.9460,1.5353,0.5872,5.4488,-0.2194,-6.7612,0.4052,1.1774,1.2690,
15.230495,-0.1370,1.4569,-0.2302,5.4488,-0.2194,-6.7612,0.4052,1.1774,1.2690,
15.231492,-0.1370,1.4569,-0.2302,5.4488,-0.2194,-6.7612,0.5316,2.4812,0.8451,
15.232499,-0.1370,1.4569,-0.2302,-8.1783,5.7984,1.1643,0.5316,2.4812,0.8451,
15.287602,0.6580,1.1947,-0.8958,-8.1783,5.7984,1.1643,0.5316,2.4812,0.8451,
15.290908,0.3709,0.8426,0.1045,-8.1783,5.7984,1.1643,0.5316,2.4812,0.8451,
15.292869,0.1318,0.6365,0.5252,-8.1783,5.7984,1.1643,0.5316,2.4812,0.8451,
15.294599,0.1318,0.6365,0.5252,-8.1783,5.7984,1.1643,0.8827,0.8172,2.2617,
15.296346,0.1318,0.6365,0.5252,4.8764,-0.8311,-0.9476,0.8827,0.8172,2.2617,
15.346888,-0.0330,0.9532,0.0088,4.8764,-0.8311,-0.9476,0.8827,0.8172,2.2617,
15.349630,0.1665,1.1842,-0.2913,4.8764,-0.8311,-0.9476,0.8827,0.8172,2.2617,
15.351895,0.2259,1.0853,-0.2522,4.8764,-0.8311,-0.9476,0.8827,0.8172,2.2617,
15.353843,0.2259,1.0853,-0.2522,4.8764,-0.8311,-0.9476,0.5583,-0.1600,1.2539,
15.355730,0.2259,1.0853,-0.2522,1.5332,0.8956,-1.4903,0.5583,-0.1600,1.2539,
15.405247,-0.0330,0.9886,-0.0906,1.5332,0.8956,-1.4903,0.5583,-0.1600,1.2539,
15.408194,-0.0637,1.0133,-0.1118,1.5332,0.8956,-1.4903,0.5583,-0.1600,1.2539,
15.409848,0.0159,1.0096,0.0730,1.5332,0.8956,-1.4903,0.5583,-0.1600,1.2539,
15.411253,0.0159,1.0096,0.0730,1.5332,0.8956,-1.4903,0.2578,0.2558,0.8296,
15.413112,0.0159,1.0096,0.0730,-0.3701,0.2012,-0.0205,0.2578,0.2558,0.8296,
15.464372,-0.0466,1.0077,0.0984,-0.3701,0.2012,-0.0205,0.2578,0.2558,0.8296,
15.467311,0.0105,0.9913,0.0181,-0.3701,0.2012,-0.0205,0.2578,0.2558,0.8296,
15.468958,0.1499,0.9603,-0.0088,-0.3701,0.2012,-0.0205,0.2578,0.2558,0.8296,
15.470723,0.1499,0.9603,-0.0088,-0.3701,0.2012,-0.0205,0.2914,-0.2429,0.8392,
15.472470,0.1499,0.9603,-0.0088,-0.1950,0.0544,0.9081,0.2914,-0.2429,0.8392,
15.520631,0.1360,0.9779,-0.0063,-0.1950,0.0544,0.9081,0.2914,-0.2429,0.8392,
15.523525,0.1133,0.9791,-0.0059,-0.1950,0.0544,0.9081,0.2914,-0.2429,0.8392,
15.524998,0.1155,0.9513,-0.0002,-0.1950,0.0544,0.9081,0.2914,-0.2429,0.8392,
15.526916,0.1155,0.9513,-0.0002,0.2124,-0.0634,0.7193,0.2914,-0.2429,0.8392,
15.528708,0.1155,0.9513,-0.0002,0.2124,-0.0634,0.7193,0.3771,-0.1130,0.7384,
15.581018,0.1038,0.9564,0.0408,0.2124,-0.0634,0.7193,0.3771,-0.1130,0.7384,
15.584694,0.1306,0.9366,0.0215,0.2124,-0.0634,0.7193,0.3771,-0.1130,0.7384,
15.586725,0.1680,0.9273,-0.0630,0.2124,-0.0634,0.7193,0.3771,-0.1130,0.7384,
15.588310,0.1680,0.9273,-0.0630,-0.0639,-0.2705,1.0145,0.3771,-0.1130,0.7384,
15.590273,0.1680,0.9273,-0.0630,-0.0639,-0.2705,1.0145,0.4995,0.0450,0.7156,
15.640053,0.1990,0.9520,-0.1152,-0.0639,-0.2705,1.0145,0.4995,0.0450,0.7156,
15.645280,0.2019,0.9662,-0.1670,-0.0639,-0.2705,1.0145,0.4995,0.0450,0.7156,
15.646929,0.1240,1.0184,-0.1878,-0.0639,-0.2705,1.0145,0.4995,0.0450,0.7156,
15.649022,0.1240,1.0184,-0.1878,-0.0398,0.2030,-0.2320,0.4995,0.0450,0.7156,
15.650827,0.1240,1.0184,-0.1878,-0.0398,0.2030,-0.2320,0.5200,0.0397,0.6801,
15.696323,0.0488,1.0104,-0.1353,-0.0398,0.2030,-0.2320,0.5200,0.0397,0.6801,
15.700246,0.0918,0.9435,-0.1282,-0.0398,0.2030,-0.2320,0.5200,0.0397,0.6801,
15.702072,0.2268,0.9593,-0.1318,-0.0398,0.2030,-0.2320,0.5200,0.0397,0.6801,
15.705245,0.2268,0.9593,-0.1318,-0.0398,0.2030,-0.2320,0.5147,-0.2297,0.7601,
15.706638,0.2268,0.9593,-0.1318,-0.9321,0.2524,0.3134,0.5147,-0.2297,0.7601,
15.753311,0.2205,0.9981,-0.1091,-0.9321,0.2524,0.3134,0.5147,-0.2297,0.7601,
15.756420,0.1643,0.9752,-0.1231,-0.9321,0.2524,0.3134,0.5147,-0.2297,0.7601,
15.758352,0.1848,0.9642,-0.1306,-0.9321,0.2524,0.3134,0.5147,-0.2297,0.7601,
15.759903,0.1848,0.9642,-0.1306,-0.9321,0.2524,0.3134,0.5416,-0.6127,0.8703,
15.761676,0.1848,0.9642,-0.1306,-0.6618,0.4988,0.7804,0.5416,-0.6127,0.8703,
15.812983,0.2066,1.0028,-0.0991,-0.6618,0.4988,0.7804,0.5416,-0.6127,0.8703,
15.814548,0.1799,0.9269,-0.0332,-0.6618,0.4988,0.7804,0.5416,-0.6127,0.8703,
15.815303,0.1934,1.0045,-0.0056,-0.6618,0.4988,0.7804,0.5416,-0.6127,0.8703,
15.815969,0.1934,1.0045,-0.0056,-0.6618,0.4988,0.7804,0.7705,-0.9175,1.1047,
15.816665,0.1934,1.0045,-0.0056,-1.0680,0.7532,2.0312,0.7705,-0.9175,1.1047,
15.871602,0.0620,1.3561,0.0552,-1.0680,0.7532,2.0312,0.7705,-0.9175,1.1047,
15.873283,-0.1658,1.6452,0.0759,-1.0680,0.7532,2.0312,0.7705,-0.9175,1.1047,
15.874019,-0.1336,1.6491,-0.1077,-1.0680,0.7532,2.0312,0.7705,-0.9175,1.1047,
15.874736,-0.1336,1.6491,-0.1077,-1.0680,0.7532,2.0312,1.0527,-1.6167,1.7489,
15.875487,-0.1336,1.6491,-0.1077,-4.2668,6.7568,3.3383,1.0527,-1.6167,1.7489,
15.927949,-0.0684,1.5077,-0.4422,-4.2668,6.7568,3.3383,1.0527,-1.6167,1.7489,
15.930630,0.2051,1.2137,-0.6036,-4.2668,6.7568,3.3383,1.0527,-1.6167,1.7489,
15.932427,0.5347,0.9066,-0.5484,-4.2668,6.7568,3.3383,1.0527,-1.6167,1.7489,
15.934391,0.5347,0.9066,-0.5484,-4.2668,6.7568,3.3383,0.5025,-3.3282,3.0242,
15.936267,0.5347,0.9066,-0.5484,-1.9493,4.1360,-0.9399,0.5025,-3.3282,3.0242,
15.986576,0.7699,0.6712,-0.5525,-1.9493,4.1360,-0.9399,0.5025,-3.3282,3.0242,
15.989534,0.7305,0.4844,-0.6417,-1.9493,4.1360,-0.9399,0.5025,-3.3282,3.0242,
15.990976,0.4283,0.3909,-0.6063,-1.9493,4.1360,-0.9399,0.5025,-3.3282,3.0242,
15.992403,0.4283,0.3909,-0.6063,-1.9493,4.1360,-0.9399,-1.1171,-3.6269,3.1379,
15.995289,0.4283,0.3909,-0.6063,1.7268,-2.1276,-1.1516,-1.1171,-3.6269,3.1379,
16.045215,0.1233,0.2683,-0.5894,1.7268,-2.1276,-1.1516,-1.1171,-3.6269,3.1379,
16.048354,-0.1321,0.2017,-0.6795,1.7268,-2.1276,-1.1516,-1.1171,-3.6269,3.1379,
16.050491,-0.1980,0.2913,-0.8653,1.7268,-2.1276,-1.1516,-1.1171,-3.6269,3.1379,
16.052781,-0.1980,0.2913,-0.8653,1.7268,-2.1276,-1.1516,-2.5984,-3.7253,2.3891,
16.055171,-0.1980,0.2913,-0.8653,-5.1319,-4.6913,-2.2940,-2.5984,-3.7253,2.3891,
16.103655,-0.0725,0.3904,-0.9564,-5.1319,-4.6913,-2.2940,-2.5984,-3.7253,2.3891,
16.107541,-0.0063,0.4549,-0.9442,-5.1319,-4.6913,-2.2940,-2.5984,-3.7253,2.3891,
16.109501,-0.0564,0.5064,-0.9059,-5.1319,-4.6913,-2.2940,-2.5984,-3.7253,2.3891,
16.111625,-0.0564,0.5064,-0.9059,-5.1319,-4.6913,-2.2940,-3.0344,-4.1122,1.8214,
16.114140,-0.0564,0.5064,-0.9059,-4.5052,-3.0586,-4.6739,-3.0344,-4.1122,1.8214,
16.161449,-0.1441,0.5530,-0.8516,-4.5052,-3.0586,-4.6739,-3.0344,-4.1122,1.8214,
16.164867,-0.2019,0.6424,-0.8507,-4.5052,-3.0586,-4.6739,-3.0344,-4.1122,1.8214,
16.167064,-0.2124,0.6944,-0.8971,-4.5052,-3.0586,-4.6739,-3.0344,-4.1122,1.8214,
16.169430,-0.2124,0.6944,-0.8971,-4.5052,-3.0586,-4.6739,-3.1932,-4.7703,0.6752,
16.171873,-0.2124,0.6944,-0.8971,-4.9115,-1.9197,-4.3571,-3.1932,-4.7703,0.6752,
16.219280,-0.1260,0.7301,-0.9159,-4.9115,-1.9197,-4.3571,-3.1932,-4.7703,0.6752,
16.221848,-0.0212,0.8253,-0.8709,-4.9115,-1.9197,-4.3571,-3.1932,-4.7703,0.6752,
16.223817,0.0251,0.8707,-0.8101,-4.9115,-1.9197,-4.3571,-3.1932,-4.7703,0.6752,
16.225403,0.0251,0.8707,-0.8101,-4.9115,-1.9197,-4.3571,-2.7516,-4.8680,-0.1647,
16.227333,0.0251,0.8707,-0.8101,-2.2759,-0.7907,-4.8999,-2.7516,-4.8680,-0.1647,
16.277889,0.0210,0.8792,-0.7071,-2.2759,-0.7907,-4.8999,-2.7516,-4.8680,-0.1647,
16.280166,-0.0071,0.9220,-0.6339,-2.2759,-0.7907,-4.8999,-2.7516,-4.8680,-0.1647,
16.281127,-0.0059,0.9815,-0.5633,-2.2759,-0.7907,-4.8999,-2.7516,-4.8680,-0.1647,
16.281977,-0.0059,0.9815,-0.5633,-2.2759,-0.7907,-4.8999,-2.3920,-3.7676,-1.0947,
16.283227,-0.0059,0.9815,-0.5633,-0.5745,-0.1341,-3.5480,-2.3920,-3.7676,-1.0947,
16.337378,0.0190,1.0077,-0.4942,-0.5745,-0.1341,-3.5480,-2.3920,-3.7676,-1.0947,
16.340853,0.0398,1.0326,-0.4397,-0.5745,-0.1341,-3.5480,-2.3920,-3.7676,-1.0947,
16.343225,0.0720,1.0780,-0.3516,-0.5745,-0.1341,-3.5480,-2.3920,-3.7676,-1.0947,
16.345960,0.0720,1.0780,-0.3516,-0.5745,-0.1341,-3.5480,-1.7271,-2.9350,-1.5756,
16.348263,0.0720,1.0780,-0.3516,1.0483,0.7302,-2.4257,-1.7271,-2.9350,-1.5756,
16.395373,0.0671,1.0609,-0.2644,1.0483,0.7302,-2.4257,-1.7271,-2.9350,-1.5756,
16.398943,0.0635,1.0253,-0.2097,1.0483,0.7302,-2.4257,-1.7271,-2.9350,-1.5756,
16.401509,0.1358,0.9855,-0.2508,1.0483,0.7302,-2.4257,-1.7271,-2.9350,-1.5756,
16.404225,0.1358,0.9855,-0.2508,1.0483,0.7302,-2.4257,-1.0922,-2.9118,-1.0967,
16.406838,0.1358,0.9855,-0.2508,2.2903,0.5460,-1.3576,-1.0922,-2.9118,-1.0967,
16.453555,0.2376,0.9291,-0.2617,2.2903,0.5460,-1.3576,-1.0922,-2.9118,-1.0967,
16.457595,0.2886,0.8893,-0.1768,2.2903,0.5460,-1.3576,-1.0922,-2.9118,-1.0967,
16.459894,0.3055,0.8863,-0.0557,2.2903,0.5460,-1.3576,-1.0922,-2.9118,-1.0967,
16.461617,0.3055,0.8863,-0.0557,2.2903,0.5460,-1.3576,-0.3769,-2.4198,-0.3820,
16.464412,0.3055,0.8863,-0.0557,4.3819,-0.6254,-1.0227,-0.3769,-2.4198,-0.3820,
16.512522,0.2212,0.9242,0.0305,4.3819,-0.6254,-1.0227,-0.3769,-2.4198,-0.3820,
16.516578,0.1599,0.9081,-0.0681,4.3819,-0.6254,-1.0227,-0.3769,-2.4198,-0.3820,
16.519626,0.1082,0.9264,-0.0095,4.3819,-0.6254,-1.0227,-0.3769,-2.4198,-0.3820,
16.523371,0.1082,0.9264,-0.0095,4.3819,-0.6254,-1.0227,0.4005,-0.9855,0.4354,
16.526036,0.1082,0.9264,-0.0095,3.0062,-0.4665,0.5560,0.4005,-0.9855,0.4354,
16.569899,0.1018,0.9137,0.1333,3.0062,-0.4665,0.5560,0.4005,-0.9855,0.4354,
16.572534,-0.1297,0.9730,0.3907,3.0062,-0.4665,0.5560,0.4005,-0.9855,0.4354,
16.575603,-0.2288,1.1527,0.5865,3.0062,-0.4665,0.5560,0.4005,-0.9855,0.4354,
16.577428,-0.2288,1.1527,0.5865,3.0062,-0.4665,0.5560,-0.0835,-0.2716,0.6742,
16.579957,-0.2288,1.1527,0.5865,0.2036,0.3925,4.1990,-0.0835,-0.2716,0.6742,
16.627350,0.0845,1.4059,-0.0544,0.2036,0.3925,4.1990,-0.0835,-0.2716,0.6742,
16.629097,-0.2925,1.4547,-0.5626,0.2036,0.3925,4.1990,-0.0835,-0.2716,0.6742,
16.630150,-0.3938,0.9967,-0.2144,0.2036,0.3925,4.1990,-0.0835,-0.2716,0.6742,
16.631219,-0.3938,0.9967,-0.2144,0.2036,0.3925,4.1990,0.2726,-0.2863,0.8459,
16.632205,-0.3938,0.9967,-0.2144,-1.3620,2.9841,-1.9726,0.2726,-0.2863,0.8459,
16.687141,-0.1819,0.8551,-0.3819,-1.3620,2.9841,-1.9726,0.2726,-0.2863,0.8459,
16.692316,-0.0042,1.0343,-0.4610,-1.3620,2.9841,-1.9726,0.2726,-0.2863,0.8459,
16.693819,0.2346,1.0179,-0.0271,-1.3620,2.9841,-1.9726,0.2726,-0.2863,0.8459,
16.694668,0.2346,1.0179,-0.0271,0.1117,-0.1437,-2.1727,0.2726,-0.2863,0.8459,
16.695592,0.2346,1.0179,-0.0271,0.1117,-0.1437,-2.1727,-0.1981,0.1063,1.1476,
16.745618,0.1958,0.9664,0.2278,0.1117,-0.1437,-2.1727,-0.1981,0.1063,1.1476,
16.747970,0.0291,0.9625,0.2781,0.1117,-0.1437,-2.1727,-0.1981,0.1063,1.1476,
16.749286,-0.0176,1.0316,0.1773,0.1117,-0.1437,-2.1727,-0.1981,0.1063,1.1476,
16.750382,-0.0176,1.0316,0.1773,0.1117,-0.1437,-2.1727,-0.3390,-0.0957,0.8609,
16.751778,-0.0176,1.0316,0.1773,0.1467,0.0327,2.6672,-0.3390,-0.0957,0.8609,
16.803429,0.0532,1.0572,0.0454,0.1467,0.0327,2.6672,-0.3390,-0.0957,0.8609,
16.807103,0.1587,1.0211,-0.0422,0.1467,0.0327,2.6672,-0.3390,-0.0957,0.8609,
16.809023,0.1992,0.9999,-0.0723,0.1467,0.0327,2.6672,-0.3390,-0.0957,0.8609,
16.811150,0.1992,0.9999,-0.0723,0.4149,0.4398,0.2204,-0.3390,-0.0957,0.8609,
16.813404,0.1992,0.9999,-0.0723,0.4149,0.4398,0.2204,-0.0381,-0.8047,0.7316,
16.862127,0.1033,1.0299,-0.0615,0.4149,0.4398,0.2204,-0.0381,-0.8047,0.7316,
16.867253,0.0330,1.0194,0.0049,0.4149,0.4398,0.2204,-0.0381,-0.8047,0.7316,
16.869723,0.0166,1.0025,0.0711,0.4149,0.4398,0.2204,-0.0381,-0.8047,0.7316,
16.871886,0.0166,1.0025,0.0711,0.4149,0.4398,0.2204,0.0364,-0.3993,0.5270,
16.873560,0.0166,1.0025,0.0711,-0.7015,0.3811,0.5292,0.0364,-0.3993,0.5270,
16.923353,0.0166,1.0025,0.0711,-0.3286,0.0848,0.8241,0.0364,-0.3993,0.5270,
16.927206,0.0569,0.9779,0.0464,-0.3286,0.0848,0.8241,0.0364,-0.3993,0.5270,
16.928610,0.1392,0.9808,0.0452,-0.3286,0.0848,0.8241,0.0364,-0.3993,0.5270,
16.929940,0.1726,0.9855,-0.0273,-0.3286,0.0848,0.8241,0.0364,-0.3993,0.5270,
16.931262,0.1726,0.9855,-0.0273,-0.3286,0.0848,0.8241,0.1873,-0.5208,0.6357,
16.979763,0.1590,0.9703,-0.0188,-0.3286,0.0848,0.8241,0.1873,-0.5208,0.6357,
16.982783,0.1404,0.9693,0.0186,-0.3286,0.0848,0.8241,0.1873,-0.5208,0.6357,
16.984289,0.0984,0.9779,0.0073,-0.3286,0.0848,0.8241,0.1873,-0.5208,0.6357,
16.986009,0.0984,0.9779,0.0073,-0.3286,0.0848,0.8241,0.2684,-0.3158,0.6756,
16.988387,0.0984,0.9779,0.0073,-0.5854,0.0752,0.8036,0.2684,-0.3158,0.6756,
17.036598,0.1167,0.9833,-0.0029,-0.5854,0.0752,0.8036,0.2684,-0.3158,0.6756,
17.039179,0.1948,0.9945,-0.0554,-0.5854,0.0752,0.8036,0.2684,-0.3158,0.6756,
17.041006,0.2053,0.9989,-0.1209,-0.5854,0.0752,0.8036,0.2684,-0.3158,0.6756,
17.042577,0.2053,0.9989,-0.1209,-0.5854,0.0752,0.8036,0.3922,-0.2215,0.8418,
17.044863,0.2053,0.9989,-0.1209,-0.6352,0.3859,0.4296,0.3922,-0.2215,0.8418,
17.095647,0.2124,0.9898,-0.1306,-0.6352,0.3859,0.4296,0.3922,-0.2215,0.8418,
17.098344,0.1690,0.9967,-0.1209,-0.6352,0.3859,0.4296,0.3922,-0.2215,0.8418,
17.100179,0.1941,1.0030,-0.1250,-0.6352,0.3859,0.4296,0.3922,-0.2215,0.8418,
17.101795,0.1941,1.0030,-0.1250,-0.8970,0.5782,0.0316,0.3922,-0.2215,0.8418,
17.105291,0.1941,1.0030,-0.1250,-0.8970,0.5782,0.0316,0.3681,-0.3217,0.9072,
17.155150,0.2278,0.9967,-0.0701,-0.8970,0.5782,0.0316,0.3681,-0.3217,0.9072,
17.157732,0.2009,1.0143,-0.0166,-0.8970,0.5782,0.0316,0.3681,-0.3217,0.9072,
17.159780,0.1555,1.0643,-0.0291,-0.8970,0.5782,0.0316,0.3681,-0.3217,0.9072,
17.161529,0.1555,1.0643,-0.0291,-0.8970,0.5782,0.0316,0.4404,-0.4243,1.0727,
17.163691,0.1555,1.0643,-0.0291,-1.3777,1.0670,1.1722,0.4404,-0.4243,1.0727,
17.210941,0.1162,1.0824,-0.0308,-1.3777,1.0670,1.1722,0.4404,-0.4243,1.0727,
17.213047,0.1616,1.0897,-0.0776,-1.3777,1.0670,1.1722,0.4404,-0.4243,1.0727,
17.213976,0.2171,1.1151,-0.1384,-1.3777,1.0670,1.1722,0.4404,-0.4243,1.0727,
17.214577,0.2171,1.1151,-0.1384,-1.3777,1.0670,1.1722,0.7615,-0.6776,1.4942,
17.215201,0.2171,1.1151,-0.1384,-2.3244,2.1211,1.2567,0.7615,-0.6776,1.4942,
17.271317,0.2227,1.1307,-0.1179,-2.3244,2.1211,1.2567,0.7615,-0.6776,1.4942,
17.275068,0.2029,1.1161,-0.2205,-2.3244,2.1211,1.2567,0.7615,-0.6776,1.4942,
17.277548,0.2000,1.2150,-0.2593,-2.3244,2.1211,1.2567,0.7615,-0.6776,1.4942,
17.279645,0.2000,1.2150,-0.2593,-2.3244,2.1211,1.2567,1.0444,-1.0299,1.7695,
17.281680,0.2000,1.2150,-0.2593,-2.5672,3.2305,0.8629,1.0444,-1.0299,1.7695,
17.327051,0.0523,1.4545,-0.1111,-2.5672,3.2305,0.8629,1.0444,-1.0299,1.7695,
17.328434,-0.4031,1.7211,0.0496,-2.5672,3.2305,0.8629,1.0444,-1.0299,1.7695,
17.329274,-0.9618,1.7768,0.0689,-2.5672,3.2305,0.8629,1.0444,-1.0299,1.7695,
17.330184,-0.9618,1.7768,0.0689,-9.3126,8.7033,3.6889,1.0444,-1.0299,1.7695,
17.331054,-0.9618,1.7768,0.0689,-9.3126,8.7033,3.6889,1.2934,-1.1543,1.7595,
17.385663,-0.8685,1.4992,-0.0259,-9.3126,8.7033,3.6889,1.2934,-1.1543,1.7595,
17.387370,-0.0315,1.0990,-0.3179,-9.3126,8.7033,3.6889,1.2934,-1.1543,1.7595,
17.388171,0.8936,1.1747,-0.6102,-9.3126,8.7033,3.6889,1.2934,-1.1543,1.7595,
17.388854,0.8936,1.1747,-0.6102,-9.3126,8.7033,3.6889,1.3502,-2.9085,3.1497,
17.389693,0.8936,1.1747,-0.6102,-5.4568,6.0680,1.9607,1.3502,-2.9085,3.1497,
17.445749,1.0924,1.1432,-0.6226,-5.4568,6.0680,1.9607,1.3502,-2.9085,3.1497,
17.449502,0.7852,0.8734,-0.7359,-5.4568,6.0680,1.9607,1.3502,-2.9085,3.1497,
17.451305,0.5601,0.6009,-0.7342,-5.4568,6.0680,1.9607,1.3502,-2.9085,3.1497,
17.453315,0.5601,0.6009,-0.7342,-5.4568,6.0680,1.9607,1.4312,-2.0049,2.4584,
17.455400,0.5601,0.6009,-0.7342,2.3354,3.5002,-0.6341,1.4312,-2.0049,2.4584,
17.504267,0.6324,0.5137,-0.7533,2.3354,3.5002,-0.6341,1.4312,-2.0049,2.4584,
17.507501,0.4327,0.3340,-0.3846,2.3354,3.5002,-0.6341,1.4312,-2.0049,2.4584,
17.508927,0.1384,0.1809,-0.1926,2.3354,3.5002,-0.6341,1.4312,-2.0049,2.4584,
17.510791,0.1384,0.1809,-0.1926,2.3354,3.5002,-0.6341,-1.3014,0.0452,0.4173,
17.513081,0.1384,0.1809,-0.1926,-1.7986,-1.9790,1.4257,-1.3014,0.0452,0.4173,
17.562197,0.1384,0.1809,-0.1926,-6.0851,-4.3881,1.7820,-1.3014,0.0452,0.4173,
17.566998,-0.1116,0.1257,-0.1878,-6.0851,-4.3881,1.7820,-1.3014,0.0452,0.4173,
17.569792,-0.1514,0.2195,-0.3726,-6.0851,-4.3881,1.7820,-1.3014,0.0452,0.4173,
17.572207,-0.0637,0.3399,-0.3699,-6.0851,-4.3881,1.7820,-1.3014,0.0452,0.4173,
17.574851,-0.0637,0.3399,-0.3699,-6.0851,-4.3881,1.7820,-2.2523,0.4193,-2.0820,
17.621232,0.0889,0.4139,-0.3494,-6.0851,-4.3881,1.7820,-2.2523,0.4193,-2.0820,
17.625863,0.1502,0.5225,-0.4217,-6.0851,-4.3881,1.7820,-2.2523,0.4193,-2.0820,
17.628535,0.1375,0.6363,-0.3948,-6.0851,-4.3881,1.7820,-2.2523,0.4193,-2.0820,
17.630710,0.1375,0.6363,-0.3948,-2.0074,-3.0958,-0.2033,-2.2523,0.4193,-2.0820,
17.633228,0.1375,0.6363,-0.3948,-2.0074,-3.0958,-0.2033,-3.1692,-0.7098,-3.5992,
17.677610,0.0732,0.7723,-0.3311,-2.0074,-3.0958,-0.2033,-3.1692,-0.7098,-3.5992,
17.679337,0.0698,1.0011,-0.5718,-2.0074,-3.0958,-0.2033,-3.1692,-0.7098,-3.5992,
17.680251,0.2793,1.3097,-0.6861,-2.0074,-3.0958,-0.2033,-3.1692,-0.7098,-3.5992,
17.681050,0.2793,1.3097,-0.6861,-2.0074,-3.0958,-0.2033,-3.8000,-1.5937,-4.4443,
17.682722,0.2793,1.3097,-0.6861,0.6828,0.7053,-3.3205,-3.8000,-1.5937,-4.4443,
17.736574,0.6378,1.5190,-0.8079,0.6828,0.7053,-3.3205,-3.8000,-1.5937,-4.4443,
17.744861,0.6754,1.4774,-0.8604,0.6828,0.7053,-3.3205,-3.8000,-1.5937,-4.4443,
17.748190,0.5298,1.2379,-0.6478,0.6828,0.7053,-3.3205,-3.8000,-1.5937,-4.4443,
17.752480,0.5298,1.2379,-0.6478,0.6828,0.7053,-3.3205,-4.0818,0.0813,-4.3439,
17.757979,0.5298,1.2379,-0.6478,7.6113,4.3450,-7.7991,-4.0818,0.0813,-4.3439,
17.795454,0.7044,1.0467,-0.4683,7.6113,4.3450,-7.7991,-4.0818,0.0813,-4.3439,
17.799490,0.7721,1.0284,-0.3079,7.6113,4.3450,-7.7991,-4.0818,0.0813,-4.3439,
17.801653,0.6290,0.9347,-0.3274,7.6113,4.3450,-7.7991,-4.0818,0.0813,-4.3439,
17.803937,0.6290,0.9347,-0.3274,7.6113,4.3450,-7.7991,-2.3118,1.3580,-2.6438,
17.806469,0.6290,0.9347,-0.3274,9.8099,0.7997,-4.8088,-2.3118,1.3580,-2.6438,
17.854796,0.6917,0.8087,-0.3557,9.8099,0.7997,-4.8088,-2.3118,1.3580,-2.6438,
17.858715,0.6666,0.8006,-0.4207,9.8099,0.7997,-4.8088,-2.3118,1.3580,-2.6438,
17.860922,0.4778,1.1107,-0.8204,9.8099,0.7997,-4.8088,-2.3118,1.3580,-2.6438,
17.863760,0.4778,1.1107,-0.8204,8.4684,-0.2811,-5.9438,-2.3118,1.3580,-2.6438,
17.866196,0.4778,1.1107,-0.8204,8.4684,-0.2811,-5.9438,0.2519,1.4103,0.7744,
17.916138,-0.7811,1.9042,0.2686,8.4684,-0.2811,-5.9438,0.2519,1.4103,0.7744,
17.919597,-1.9621,1.9709,1.2382,8.4684,-0.2811,-5.9438,0.2519,1.4103,0.7744,
17.921701,0.0190,1.2670,-0.5743,8.4684,-0.2811,-5.9438,0.2519,1.4103,0.7744,
17.923703,0.0190,1.2670,-0.5743,8.4684,-0.2811,-5.9438,0.3751,1.9285,1.0259,
17.925284,0.0190,1.2670,-0.5743,-6.8101,7.3623,2.7250,0.3751,1.9285,1.0259,
17.970196,0.3184,0.8929,-1.3820,-6.8101,7.3623,2.7250,0.3751,1.9285,1.0259,
17.972169,0.2940,0.7042,0.1045,-6.8101,7.3623,2.7250,0.3751,1.9285,1.0259,
17.973399,0.3938,0.7804,0.6763,-6.8101,7.3623,2.7250,0.3751,1.9285,1.0259,
17.975032,0.3938,0.7804,0.6763,-6.8101,7.3623,2.7250,0.7169,0.3338,2.3185,
17.976550,0.3938,0.7804,0.6763,4.0215,-1.8376,-1.8154,0.7169,0.3338,2.3185,
18.029161,0.1795,1.0741,0.0195,4.0215,-1.8376,-1.8154,0.7169,0.3338,2.3185,
18.032832,0.1179,1.0609,-0.2803,4.0215,-1.8376,-1.8154,0.7169,0.3338,2.3185,
18.034791,0.0845,1.0338,-0.1846,4.0215,-1.8376,-1.8154,0.7169,0.3338,2.3185,
18.036446,0.0845,1.0338,-0.1846,4.0215,-1.8376,-1.8154,0.6155,-0.0087,1.0550,
18.038235,0.0845,1.0338,-0.1846,1.3679,0.7199,-0.9445,0.6155,-0.0087,1.0550,
18.086387,-0.1201,1.0694,-0.1077,1.3679,0.7199,-0.9445,0.6155,-0.0087,1.0550,
18.089102,-0.0742,1.0130,-0.0916,1.3679,0.7199,-0.9445,0.6155,-0.0087,1.0550,
18.090709,0.0818,0.9713,0.0039,1.3679,0.7199,-0.9445,0.6155,-0.0087,1.0550,
18.092461,0.0818,0.9713,0.0039,1.3679,0.7199,-0.9445,0.3496,0.1647,0.8123,
18.095455,0.0818,0.9713,0.0039,-0.6977,0.3558,0.0660,0.3496,0.1647,0.8123,
18.146948,0.0171,1.0065,0.0300,-0.6977,0.3558,0.0660,0.3496,0.1647,0.8123,
