time,gFx,gFy,gFz,ax,ay,az,wx,wy,wz,P
0.002,0.15,0.83,0.58,-0.01,0.00,0.02,-0.02,0.06,-0.01,1005.91
0.014,0.15,0.83,0.58,-0.01,0.00,0.02,-0.02,0.06,-0.01,1005.91
0.014,0.16,0.83,0.54,-0.01,0.00,0.02,-0.02,0.06,-0.01,1005.91
0.014,0.16,0.83,0.57,-0.01,0.00,0.02,-0.02,0.06,-0.01,1005.91
0.014,0.16,0.83,0.57,-0.01,0.00,0.02,0.02,-0.04,-0.01,1005.91
0.015,0.16,0.83,0.57,0.01,0.00,-0.00,0.02,-0.04,-0.01,1005.91
0.069,0.16,0.83,0.57,0.01,0.00,-0.00,0.02,-0.04,-0.01,1005.91
0.07,0.16,0.83,0.56,0.01,0.00,-0.00,0.02,-0.04,-0.01,1005.91
0.07,0.17,0.83,0.57,0.01,0.00,-0.00,0.02,-0.04,-0.01,1005.91
0.071,0.17,0.83,0.57,0.01,0.00,-0.00,-0.00,-0.01,-0.00,1005.91
0.071,0.17,0.83,0.57,0.05,-0.00,0.01,-0.00,-0.01,-0.00,1005.91
0.087,0.17,0.83,0.57,0.05,-0.00,0.01,-0.00,-0.01,-0.00,1005.92
0.121,0.17,0.83,0.57,0.05,-0.00,0.01,-0.00,-0.01,-0.00,1005.92
0.128,0.16,0.83,0.57,0.05,-0.00,0.01,-0.00,-0.01,-0.00,1005.92
0.128,0.16,0.83,0.57,0.05,-0.00,0.01,-0.00,-0.01,-0.00,1005.92
0.129,0.16,0.83,0.57,0.05,-0.00,0.01,-0.00,-0.01,-0.00,1005.92
0.129,0.16,0.83,0.57,0.05,-0.00,0.01,-0.01,0.01,-0.00,1005.92
0.129,0.16,0.83,0.57,0.05,-0.01,0.04,-0.01,0.01,-0.00,1005.92
0.186,0.16,0.83,0.58,0.05,-0.01,0.04,-0.01,0.01,-0.00,1005.92
0.187,0.16,0.82,0.57,0.05,-0.01,0.04,-0.01,0.01,-0.00,1005.92
0.187,0.16,0.81,0.58,0.05,-0.01,0.04,-0.01,0.01,-0.00,1005.92
0.187,0.16,0.81,0.58,0.04,-0.08,0.08,-0.01,0.01,-0.00,1005.92
0.188,0.16,0.81,0.58,0.04,-0.08,0.08,-0.02,0.02,-0.01,1005.92
0.199,0.16,0.81,0.58,0.04,-0.08,0.08,-0.02,0.02,-0.01,1005.91
0.245,0.16,0.82,0.59,0.04,-0.08,0.08,-0.02,0.02,-0.01,1005.91
0.245,0.17,0.83,0.59,0.04,-0.08,0.08,-0.02,0.02,-0.01,1005.91
0.246,0.16,0.85,0.59,0.04,-0.08,0.08,-0.02,0.02,-0.01,1005.91
0.246,0.16,0.85,0.59,0.04,-0.08,0.08,-0.02,0.05,-0.02,1005.91
0.246,0.16,0.85,0.59,0.09,0.02,0.17,-0.02,0.05,-0.02,1005.91
0.281,0.16,0.85,0.59,0.09,0.02,0.17,-0.02,0.05,-0.02,1005.92
0.304,0.16,0.85,0.59,0.10,0.05,0.07,-0.02,0.05,-0.02,1005.92
0.304,0.16,0.85,0.58,0.10,0.05,0.07,-0.02,0.05,-0.02,1005.92
0.304,0.17,0.83,0.59,0.10,0.05,0.07,-0.02,0.05,-0.02,1005.92
0.304,0.17,0.82,0.58,0.10,0.05,0.07,-0.02,0.05,-0.02,1005.92
0.305,0.17,0.82,0.58,0.10,0.05,0.07,-0.03,0.06,0.02,1005.92
0.32,0.17,0.82,0.58,0.10,0.05,0.07,-0.03,0.06,0.02,1005.91
0.363,0.16,0.81,0.56,0.10,0.05,0.07,-0.03,0.06,0.02,1005.91
0.363,0.15,0.81,0.55,0.10,0.05,0.07,-0.03,0.06,0.02,1005.91
0.364,0.15,0.82,0.54,0.10,0.05,0.07,-0.03,0.06,0.02,1005.91
0.364,0.15,0.82,0.54,0.10,0.05,0.07,-0.07,0.10,0.07,1005.91
0.364,0.15,0.82,0.54,-0.02,-0.13,-0.27,-0.07,0.10,0.07,1005.91
0.399,0.15,0.82,0.54,-0.02,-0.13,-0.27,-0.07,0.10,0.07,1005.92
0.42,0.15,0.82,0.54,0.17,0.10,-0.24,-0.07,0.10,0.07,1005.92
0.421,0.16,0.83,0.54,0.17,0.10,-0.24,-0.07,0.10,0.07,1005.92
0.421,0.18,0.83,0.56,0.17,0.10,-0.24,-0.07,0.10,0.07,1005.92
0.421,0.19,0.84,0.56,0.17,0.10,-0.24,-0.07,0.10,0.07,1005.92
0.422,0.19,0.84,0.56,0.17,0.10,-0.24,-0.04,0.02,0.06,1005.92
0.479,0.19,0.84,0.56,0.23,0.08,-0.03,-0.04,0.02,0.06,1005.92
0.479,0.19,0.84,0.57,0.23,0.08,-0.03,-0.04,0.02,0.06,1005.92
0.479,0.18,0.84,0.57,0.23,0.08,-0.03,-0.04,0.02,0.06,1005.92
0.48,0.19,0.82,0.58,0.23,0.08,-0.03,-0.04,0.02,0.06,1005.92
0.48,0.19,0.82,0.58,0.23,0.08,-0.03,0.02,0.07,0.13,1005.92
0.481,0.19,0.82,0.58,0.23,0.08,-0.03,0.02,0.07,0.13,1005.93
0.519,0.19,0.82,0.58,0.23,0.08,-0.03,0.02,0.07,0.13,1005.92
0.536,0.24,0.82,0.59,0.23,0.08,-0.03,0.02,0.07,0.13,1005.92
0.537,0.26,0.82,0.58,0.23,0.08,-0.03,0.02,0.07,0.13,1005.92
0.538,0.28,0.82,0.58,0.23,0.08,-0.03,0.02,0.07,0.13,1005.92
0.538,0.28,0.82,0.58,0.23,0.08,-0.03,-0.02,-0.02,0.45,1005.92
0.538,0.28,0.82,0.58,0.66,-0.02,0.03,-0.02,-0.02,0.45,1005.92
0.595,0.29,0.82,0.58,0.66,-0.02,0.03,-0.02,-0.02,0.45,1005.92
0.596,0.29,0.83,0.57,0.66,-0.02,0.03,-0.02,-0.02,0.45,1005.92
0.596,0.31,0.83,0.56,0.66,-0.02,0.03,-0.02,-0.02,0.45,1005.92
0.597,0.31,0.83,0.56,0.66,-0.02,0.03,-0.02,0.11,0.86,1005.92
0.597,0.31,0.83,0.56,0.66,0.19,-0.12,-0.02,0.11,0.86,1005.92
0.6,0.31,0.83,0.56,0.66,0.19,-0.12,-0.02,0.11,0.86,1005.91
0.653,0.32,0.84,0.57,0.66,0.19,-0.12,-0.02,0.11,0.86,1005.91
0.654,0.34,0.86,0.57,0.66,0.19,-0.12,-0.02,0.11,0.86,1005.91
0.655,0.36,0.91,0.58,0.66,0.19,-0.12,-0.02,0.11,0.86,1005.91
0.655,0.36,0.91,0.58,0.66,0.19,-0.12,0.01,-0.11,1.23,1005.91
0.656,0.36,0.91,0.58,0.46,0.78,-0.04,0.01,-0.11,1.23,1005.91
0.679,0.36,0.91,0.58,0.46,0.78,-0.04,0.01,-0.11,1.23,1005.91
0.711,0.37,0.96,0.59,0.46,0.78,-0.04,0.01,-0.11,1.23,1005.91
0.713,0.40,0.95,0.57,0.46,0.78,-0.04,0.01,-0.11,1.23,1005.91
0.714,0.39,0.89,0.52,0.46,0.78,-0.04,0.01,-0.11,1.23,1005.91
0.714,0.39,0.89,0.52,0.46,0.78,-0.04,-0.11,-0.40,1.36,1005.91
0.715,0.39,0.89,0.52,0.15,1.59,-0.16,-0.11,-0.40,1.36,1005.91
0.719,0.39,0.89,0.52,0.15,1.59,-0.16,-0.11,-0.40,1.36,1005.91
0.771,0.33,0.82,0.47,0.15,1.59,-0.16,-0.11,-0.40,1.36,1005.91
0.773,0.37,0.73,0.37,0.15,1.59,-0.16,-0.11,-0.40,1.36,1005.91
0.774,0.39,0.68,0.30,0.15,1.59,-0.16,-0.11,-0.40,1.36,1005.91
0.775,0.39,0.68,0.30,-0.67,0.07,-1.84,-0.11,-0.40,1.36,1005.91
0.776,0.39,0.68,0.30,-0.67,0.07,-1.84,-0.31,-0.54,1.11,1005.91
0.799,0.39,0.68,0.30,-0.67,0.07,-1.84,-0.31,-0.54,1.11,1005.92
0.828,0.35,0.64,0.25,-0.67,0.07,-1.84,-0.31,-0.54,1.11,1005.92
0.831,0.32,0.59,0.17,-0.67,0.07,-1.84,-0.31,-0.54,1.11,1005.92
0.832,0.25,0.54,0.18,-0.67,0.07,-1.84,-0.31,-0.54,1.11,1005.92
0.832,0.25,0.54,0.18,-0.67,0.07,-1.84,-0.50,-0.78,0.68,1005.92
0.833,0.25,0.54,0.18,-1.71,-1.06,-3.42,-0.50,-0.78,0.68,1005.92
0.879,0.25,0.54,0.18,-1.71,-1.06,-3.42,-0.50,-0.78,0.68,1005.91
0.892,0.25,0.51,0.22,-1.71,-1.06,-3.42,-0.50,-0.78,0.68,1005.91
0.894,0.13,0.60,0.21,-1.71,-1.06,-3.42,-0.50,-0.78,0.68,1005.91
0.896,-0.14,0.72,0.10,-1.71,-1.06,-3.42,-0.50,-0.78,0.68,1005.91
0.897,-0.14,0.72,0.10,-1.71,-1.06,-3.42,-0.26,-1.89,-0.25,1005.91
0.898,-0.14,0.72,0.10,-4.22,-0.81,-3.10,-0.26,-1.89,-0.25,1005.91
0.921,-0.14,0.72,0.10,-4.22,-0.81,-3.10,-0.26,-1.89,-0.25,1005.91
0.945,-0.15,0.73,0.01,-4.22,-0.81,-3.10,-0.26,-1.89,-0.25,1005.91
0.947,0.28,0.64,0.34,-4.22,-0.81,-3.10,-0.26,-1.89,-0.25,1005.91
0.947,1.01,0.53,0.65,-4.22,-0.81,-3.10,-0.26,-1.89,-0.25,1005.91
0.948,1.01,0.53,0.65,-4.22,-0.81,-3.10,-0.32,-4.43,-0.49,1005.91
0.949,1.01,0.53,0.65,-2.08,-0.64,-0.26,-0.32,-4.43,-0.49,1005.91
1.0,1.01,0.53,0.65,-2.08,-0.64,-0.26,-0.32,-4.43,-0.49,1005.92
1.013,0.94,0.58,0.51,-2.08,-0.64,-0.26,-0.32,-4.43,-0.49,1005.92
1.014,0.48,0.62,0.35,-2.08,-0.64,-0.26,-0.32,-4.43,-0.49,1005.92
1.015,0.40,0.72,0.34,-2.08,-0.64,-0.26,-0.32,-4.43,-0.49,1005.92
1.016,0.40,0.72,0.34,-2.08,-0.64,-0.26,1.23,-1.89,-2.41,1005.92
1.017,0.40,0.72,0.34,0.81,-1.52,1.45,1.23,-1.89,-2.41,1005.92
1.062,0.51,0.74,0.42,0.81,-1.52,1.45,1.23,-1.89,-2.41,1005.92
1.064,0.53,0.71,0.49,0.81,-1.52,1.45,1.23,-1.89,-2.41,1005.92
1.065,0.48,0.76,0.46,0.81,-1.52,1.45,1.23,-1.89,-2.41,1005.92
1.066,0.48,0.76,0.46,0.81,-1.52,1.45,1.44,0.53,-2.17,1005.92
1.067,0.48,0.76,0.46,0.86,-1.27,2.47,1.44,0.53,-2.17,1005.92
1.079,0.48,0.76,0.46,0.86,-1.27,2.47,1.44,0.53,-2.17,1005.93
1.129,0.48,0.76,0.46,0.86,-1.27,2.47,1.44,0.53,-2.17,1005.95
1.131,0.37,0.85,0.43,0.86,-1.27,2.47,1.44,0.53,-2.17,1005.95
1.132,0.32,0.97,0.38,0.86,-1.27,2.47,1.44,0.53,-2.17,1005.95
1.133,0.34,1.02,0.33,0.86,-1.27,2.47,1.44,0.53,-2.17,1005.95
1.133,0.34,1.02,0.33,0.86,-1.27,2.47,1.37,0.45,-1.93,1005.95
1.134,0.34,1.02,0.33,0.29,0.26,2.25,1.37,0.45,-1.93,1005.95
1.179,0.36,1.03,0.32,0.29,0.26,2.25,1.37,0.45,-1.93,1005.95
1.181,0.33,1.04,0.32,0.29,0.26,2.25,1.37,0.45,-1.93,1005.95
1.182,0.37,1.03,0.30,0.29,0.26,2.25,1.37,0.45,-1.93,1005.95
1.183,0.37,1.03,0.30,0.29,0.26,2.25,0.60,-0.87,-1.52,1005.95
1.184,0.37,1.03,0.30,1.12,0.80,2.00,0.60,-0.87,-1.52,1005.95
1.202,0.37,1.03,0.30,1.12,0.80,2.00,0.60,-0.87,-1.52,1005.93
1.238,0.40,1.00,0.28,1.12,0.80,2.00,0.60,-0.87,-1.52,1005.93
1.239,0.40,1.00,0.27,1.12,0.80,2.00,0.60,-0.87,-1.52,1005.93
1.24,0.41,0.97,0.25,1.12,0.80,2.00,0.60,-0.87,-1.52,1005.93
1.241,0.41,0.97,0.25,1.12,0.80,2.00,0.41,-0.65,-1.00,1005.93
1.242,0.41,0.97,0.25,2.07,0.21,1.80,0.41,-0.65,-1.00,1005.93
1.281,0.41,0.97,0.25,2.07,0.21,1.80,0.41,-0.65,-1.00,1005.94
1.296,0.37,0.93,0.23,2.07,0.21,1.80,0.41,-0.65,-1.00,1005.94
1.297,0.27,0.91,0.18,2.07,0.21,1.80,0.41,-0.65,-1.00,1005.94
1.298,0.23,0.89,0.07,2.07,0.21,1.80,0.41,-0.65,-1.00,1005.94
1.298,0.23,0.89,0.07,1.32,-0.65,1.04,0.41,-0.65,-1.00,1005.94
1.299,0.23,0.89,0.07,1.32,-0.65,1.04,0.61,0.19,-0.73,1005.94
1.319,0.23,0.89,0.07,1.32,-0.65,1.04,0.61,0.19,-0.73,1005.94
1.354,0.20,0.84,0.07,1.32,-0.65,1.04,0.61,0.19,-0.73,1005.94
1.355,0.03,1.06,0.20,1.32,-0.65,1.04,0.61,0.19,-0.73,1005.94
1.356,0.11,2.05,-0.13,1.32,-0.65,1.04,0.61,0.19,-0.73,1005.94
1.357,0.11,2.05,-0.13,1.32,-0.65,1.04,0.74,-0.20,-0.88,1005.94
1.358,0.11,2.05,-0.13,0.06,3.16,0.32,0.74,-0.20,-0.88,1005.94
1.4,0.11,2.05,-0.13,0.06,3.16,0.32,0.74,-0.20,-0.88,1005.95
1.411,0.70,2.86,-0.33,0.06,3.16,0.32,0.74,-0.20,-0.88,1005.95
1.412,1.25,1.39,-0.01,0.06,3.16,0.32,0.74,-0.20,-0.88,1005.95
1.412,0.20,0.34,0.00,0.06,3.16,0.32,0.74,-0.20,-0.88,1005.95
1.413,0.20,0.34,0.00,0.06,3.16,0.32,0.71,-0.01,-0.65,1005.95
1.413,0.20,0.34,0.00,6.17,5.08,-0.80,0.71,-0.01,-0.65,1005.95
1.471,-0.26,0.15,-0.10,6.17,5.08,-0.80,0.71,-0.01,-0.65,1005.95
1.472,-0.28,0.35,0.03,6.17,5.08,-0.80,0.71,-0.01,-0.65,1005.95
1.473,-0.30,0.88,0.02,6.17,5.08,-0.80,0.71,-0.01,-0.65,1005.95
1.474,-0.30,0.88,0.02,6.17,5.08,-0.80,0.51,-0.34,-1.47,1005.95
1.475,-0.30,0.88,0.02,-2.66,-5.29,0.43,0.51,-0.34,-1.47,1005.95
1.48,-0.30,0.88,0.02,-2.66,-5.29,0.43,0.51,-0.34,-1.47,1005.95
1.52,-0.30,0.88,0.02,-2.66,-5.29,0.43,0.51,-0.34,-1.47,1005.95
1.529,-0.39,1.44,-0.32,-2.66,-5.29,0.43,0.51,-0.34,-1.47,1005.95
1.531,-0.16,1.71,-0.45,-2.66,-5.29,0.43,0.51,-0.34,-1.47,1005.95
1.532,-0.06,1.23,0.03,-2.66,-5.29,0.43,0.51,-0.34,-1.47,1005.95
1.533,-0.06,1.23,0.03,-2.66,-5.29,0.43,0.55,-0.59,-0.83,1005.95
1.536,-0.06,1.23,0.03,-1.37,4.41,-1.48,0.55,-0.59,-0.83,1005.95
1.593,-0.11,0.73,0.18,-1.37,4.41,-1.48,0.55,-0.59,-0.83,1005.95
1.595,-0.12,0.71,-0.12,-1.37,4.41,-1.48,0.55,-0.59,-0.83,1005.95
1.596,-0.12,0.98,-0.23,-1.37,4.41,-1.48,0.55,-0.59,-0.83,1005.95
1.597,-0.12,0.98,-0.23,-0.16,-1.84,0.76,0.55,-0.59,-0.83,1005.95
1.598,-0.12,0.98,-0.23,-0.16,-1.84,0.76,0.77,-0.32,-0.54,1005.95
1.609,-0.12,0.98,-0.23,-0.16,-1.84,0.76,0.77,-0.32,-0.54,1005.95
1.645,-0.28,1.10,-0.41,-0.16,-1.84,0.76,0.77,-0.32,-0.54,1005.95
1.646,-0.34,1.06,-0.34,-0.16,-1.84,0.76,0.77,-0.32,-0.54,1005.95
1.646,-0.23,0.97,-0.20,-0.16,-1.84,0.76,0.77,-0.32,-0.54,1005.95
1.647,-0.23,0.97,-0.20,-1.62,0.51,-1.38,0.77,-0.32,-0.54,1005.95
1.647,-0.23,0.97,-0.20,-1.62,0.51,-1.38,0.60,-0.01,-0.25,1005.95
1.68,-0.23,0.97,-0.20,-1.62,0.51,-1.38,0.60,-0.01,-0.25,1005.95
1.703,-0.10,0.96,-0.22,-1.62,0.51,-1.38,0.60,-0.01,-0.25,1005.95
1.704,-0.13,0.97,-0.27,-1.62,0.51,-1.38,0.60,-0.01,-0.25,1005.95
1.705,-0.12,1.01,-0.28,-1.62,0.51,-1.38,0.60,-0.01,-0.25,1005.95
1.705,-0.12,1.01,-0.28,-1.62,0.51,-1.38,0.47,-0.26,0.04,1005.95
1.706,-0.12,1.01,-0.28,-0.02,-0.05,-0.49,0.47,-0.26,0.04,1005.95
1.721,-0.12,1.01,-0.28,-0.02,-0.05,-0.49,0.47,-0.26,0.04,1005.94
1.762,-0.13,1.00,-0.21,-0.02,-0.05,-0.49,0.47,-0.26,0.04,1005.94
1.763,-0.15,0.96,-0.21,-0.02,-0.05,-0.49,0.47,-0.26,0.04,1005.94
1.764,-0.04,0.95,-0.28,-0.02,-0.05,-0.49,0.47,-0.26,0.04,1005.94
1.765,-0.04,0.95,-0.28,-0.02,-0.05,-0.49,0.36,-0.20,0.10,1005.94
1.766,-0.04,0.95,-0.28,0.07,-0.09,-0.10,0.36,-0.20,0.10,1005.94
1.818,-0.04,0.95,-0.28,0.07,-0.09,-0.10,0.36,-0.20,0.10,1005.95
1.827,0.06,1.01,-0.25,0.07,-0.09,-0.10,0.36,-0.20,0.10,1005.95
1.828,-0.03,1.01,-0.26,0.07,-0.09,-0.10,0.36,-0.20,0.10,1005.95
1.829,-0.19,0.98,-0.22,0.07,-0.09,-0.10,0.36,-0.20,0.10,1005.95
1.829,-0.19,0.98,-0.22,0.07,-0.09,-0.10,0.31,-0.29,-0.00,1005.95
1.831,-0.19,0.98,-0.22,0.61,0.23,-0.03,0.31,-0.29,-0.00,1005.95
1.878,-0.06,0.98,-0.23,0.61,0.23,-0.03,0.31,-0.29,-0.00,1005.95
1.879,0.11,0.92,-0.19,0.61,0.23,-0.03,0.31,-0.29,-0.00,1005.95
1.879,0.02,0.91,-0.14,0.61,0.23,-0.03,0.31,-0.29,-0.00,1005.95
1.879,0.02,0.91,-0.14,0.61,0.23,-0.03,0.35,-0.31,-0.18,1005.95
1.88,0.02,0.91,-0.14,1.47,-0.30,0.67,0.35,-0.31,-0.18,1005.95
1.88,0.02,0.91,-0.14,1.47,-0.30,0.67,0.35,-0.31,-0.18,1005.95
1.919,0.02,0.91,-0.14,1.47,-0.30,0.67,0.35,-0.31,-0.18,1005.95
1.937,-0.15,0.97,-0.17,1.47,-0.30,0.67,0.35,-0.31,-0.18,1005.95
1.938,-0.22,0.91,-0.25,1.47,-0.30,0.67,0.35,-0.31,-0.18,1005.95
1.939,-0.15,0.93,-0.30,1.47,-0.30,0.67,0.35,-0.31,-0.18,1005.95
1.94,-0.15,0.93,-0.30,-0.12,-0.22,0.39,0.35,-0.31,-0.18,1005.95
1.941,-0.15,0.93,-0.30,-0.12,-0.22,0.39,0.47,-0.22,-0.55,1005.95
2.002,-0.12,0.97,-0.32,-0.12,-0.22,0.39,0.47,-0.22,-0.55,1005.95
2.003,-0.26,0.96,-0.39,-0.12,-0.22,0.39,0.47,-0.22,-0.55,1005.95
2.003,-0.34,0.99,-0.29,-0.12,-0.22,0.39,0.47,-0.22,-0.55,1005.95
2.005,-0.34,0.99,-0.29,-0.12,-0.22,0.39,0.63,-0.10,-0.54,1005.95
2.006,-0.34,0.99,-0.29,-0.47,0.30,-0.21,0.63,-0.10,-0.54,1005.95
2.006,-0.34,0.99,-0.29,-0.47,0.30,-0.21,0.63,-0.10,-0.54,1005.95
2.059,-0.34,1.07,-0.23,-0.47,0.30,-0.21,0.63,-0.10,-0.54,1005.95
2.059,-0.20,1.11,-0.21,-0.47,0.30,-0.21,0.63,-0.10,-0.54,1005.95
2.06,0.03,1.18,-0.27,-0.47,0.30,-0.21,0.63,-0.10,-0.54,1005.95
2.06,0.03,1.18,-0.27,-0.47,0.30,-0.21,0.91,-0.27,-0.22,1005.95
2.06,0.03,1.18,-0.27,0.39,1.91,1.18,0.91,-0.27,-0.22,1005.95
2.079,0.03,1.18,-0.27,0.39,1.91,1.18,0.91,-0.27,-0.22,1005.94
2.111,0.03,1.18,-0.27,5.39,4.12,0.77,0.91,-0.27,-0.22,1005.94
2.112,0.20,1.29,-0.32,5.39,4.12,0.77,0.91,-0.27,-0.22,1005.94
2.112,0.33,1.32,-0.36,5.39,4.12,0.77,0.91,-0.27,-0.22,1005.94
2.113,0.43,1.34,-0.37,5.39,4.12,0.77,0.91,-0.27,-0.22,1005.94
2.113,0.43,1.34,-0.37,5.39,4.12,0.77,1.37,-0.01,-0.58,1005.94
2.12,0.43,1.34,-0.37,5.39,4.12,0.77,1.37,-0.01,-0.58,1005.95
2.17,0.46,1.50,-0.26,5.39,4.12,0.77,1.37,-0.01,-0.58,1005.95
2.171,0.48,1.80,-0.01,5.39,4.12,0.77,1.37,-0.01,-0.58,1005.95
2.172,0.53,1.81,0.38,5.39,4.12,0.77,1.37,-0.01,-0.58,1005.95
2.172,0.53,1.81,0.38,5.39,4.12,0.77,2.09,-0.99,-1.09,1005.95
2.172,0.53,1.81,0.38,7.69,8.45,5.28,2.09,-0.99,-1.09,1005.95
2.2,0.53,1.81,0.38,7.69,8.45,5.28,2.09,-0.99,-1.09,1005.95
2.228,0.14,1.38,0.62,7.69,8.45,5.28,2.09,-0.99,-1.09,1005.95
2.229,-0.54,1.26,0.27,7.69,8.45,5.28,2.09,-0.99,-1.09,1005.95
2.23,-1.09,1.73,-0.01,7.69,8.45,5.28,2.09,-0.99,-1.09,1005.95
2.23,-1.09,1.73,-0.01,7.69,8.45,5.28,2.38,-1.87,-2.14,1005.95
2.231,-1.09,1.73,-0.01,-0.41,7.10,8.31,2.38,-1.87,-2.14,1005.95
2.279,-1.09,1.73,-0.01,-0.41,7.10,8.31,2.38,-1.87,-2.14,1005.94
2.293,-1.04,1.66,-0.22,-0.41,7.10,8.31,2.38,-1.87,-2.14,1005.94
2.295,-0.37,1.12,-0.19,-0.41,7.10,8.31,2.38,-1.87,-2.14,1005.94
2.296,-0.06,0.84,-0.12,-0.41,7.10,8.31,2.38,-1.87,-2.14,1005.94
2.297,-0.06,0.84,-0.12,-0.41,7.10,8.31,1.42,-3.29,-1.32,1005.94
2.298,-0.06,0.84,-0.12,1.13,5.37,3.20,1.42,-3.29,-1.32,1005.94
2.322,-0.06,0.84,-0.12,1.13,5.37,3.20,1.42,-3.29,-1.32,1005.92
2.346,0.17,0.51,0.13,1.13,5.37,3.20,1.42,-3.29,-1.32,1005.92
2.347,-0.02,0.37,0.21,1.13,5.37,3.20,1.42,-3.29,-1.32,1005.92
2.348,-0.26,0.47,-0.01,1.13,5.37,3.20,1.42,-3.29,-1.32,1005.92
2.348,-0.26,0.47,-0.01,1.13,5.37,3.20,0.40,-1.89,1.48,1005.92
2.349,-0.26,0.47,-0.01,5.42,-2.39,5.35,0.40,-1.89,1.48,1005.92
2.401,-0.26,0.47,-0.01,5.42,-2.39,5.35,0.40,-1.89,1.48,1005.93
2.406,-0.48,0.58,-0.04,5.42,-2.39,5.35,0.40,-1.89,1.48,1005.93
2.407,-0.57,0.55,-0.05,5.42,-2.39,5.35,0.40,-1.89,1.48,1005.93
2.408,-0.50,0.55,-0.16,5.42,-2.39,5.35,0.40,-1.89,1.48,1005.93
2.409,-0.50,0.55,-0.16,5.42,-2.39,5.35,-0.31,-0.67,3.65,1005.93
2.41,-0.50,0.55,-0.16,-0.71,-2.48,3.05,-0.31,-0.67,3.65,1005.93
2.464,-0.36,0.61,-0.18,-0.71,-2.48,3.05,-0.31,-0.67,3.65,1005.93
2.466,-0.31,0.70,-0.07,-0.71,-2.48,3.05,-0.31,-0.67,3.65,1005.93
2.467,-0.19,0.88,-0.15,-0.71,-2.48,3.05,-0.31,-0.67,3.65,1005.93
2.468,-0.19,0.88,-0.15,-0.71,-2.48,3.05,-1.63,0.00,5.69,1005.93
2.469,-0.19,0.88,-0.15,-1.31,-2.05,1.70,-1.63,0.00,5.69,1005.93
2.48,-0.19,0.88,-0.15,-1.31,-2.05,1.70,-1.63,0.00,5.69,1005.93
2.521,-0.32,1.10,-0.45,-1.31,-2.05,1.70,-1.63,0.00,5.69,1005.93
2.523,-0.67,1.36,-0.47,-1.31,-2.05,1.70,-1.63,0.00,5.69,1005.93
2.523,-0.72,1.52,-0.52,-1.31,-2.05,1.70,-1.63,0.00,5.69,1005.93
2.524,-0.72,1.52,-0.52,-1.31,-2.05,1.70,-2.60,0.65,5.80,1005.93
2.524,-0.72,1.52,-0.52,-1.31,-2.05,1.70,-2.60,0.65,5.80,1005.91
2.525,-0.72,1.52,-0.52,-7.24,3.39,-3.09,-2.60,0.65,5.80,1005.91
2.579,-0.81,1.42,-0.47,-7.24,3.39,-3.09,-2.60,0.65,5.80,1005.91
2.581,-0.97,1.31,-0.22,-7.24,3.39,-3.09,-2.60,0.65,5.80,1005.91
2.582,-0.87,1.26,-0.17,-7.24,3.39,-3.09,-2.60,0.65,5.80,1005.91
2.583,-0.87,1.26,-0.17,-7.24,3.39,-3.09,-2.78,-0.42,5.05,1005.91
2.584,-0.87,1.26,-0.17,-12.77,4.14,-2.55,-2.78,-0.42,5.05,1005.91
2.601,-0.87,1.26,-0.17,-12.77,4.14,-2.55,-2.78,-0.42,5.05,1005.89
2.637,-0.90,1.18,-0.32,-12.77,4.14,-2.55,-2.78,-0.42,5.05,1005.89
2.638,-0.80,0.91,-0.30,-12.77,4.14,-2.55,-2.78,-0.42,5.05,1005.89
2.639,-0.76,0.69,-0.44,-12.77,4.14,-2.55,-2.78,-0.42,5.05,1005.89
2.64,-0.76,0.69,-0.44,-12.77,4.14,-2.55,-1.37,-0.53,1.15,1005.89
2.641,-0.76,0.69,-0.44,-12.51,0.46,-3.71,-1.37,-0.53,1.15,1005.89
2.68,-0.76,0.69,-0.44,-12.51,0.46,-3.71,-1.37,-0.53,1.15,1005.89
2.703,-0.76,0.69,-0.44,-2.83,6.75,-4.53,-1.37,-0.53,1.15,1005.89
2.704,-0.93,0.72,-0.97,-2.83,6.75,-4.53,-1.37,-0.53,1.15,1005.89
2.705,-0.56,1.81,-1.07,-2.83,6.75,-4.53,-1.37,-0.53,1.15,1005.89
2.705,1.66,2.36,0.58,-2.83,6.75,-4.53,-1.37,-0.53,1.15,1005.89
2.706,1.66,2.36,0.58,-2.83,6.75,-4.53,-0.31,-2.31,-2.03,1005.89
2.721,1.66,2.36,0.58,-2.83,6.75,-4.53,-0.31,-2.31,-2.03,1005.89
2.754,1.17,1.81,-0.92,-2.83,6.75,-4.53,-0.31,-2.31,-2.03,1005.89
2.755,-0.21,0.73,-0.97,-2.83,6.75,-4.53,-0.31,-2.31,-2.03,1005.89
2.756,-0.38,0.43,0.74,-2.83,6.75,-4.53,-0.31,-2.31,-2.03,1005.89
2.756,-0.38,0.43,0.74,-2.83,6.75,-4.53,0.21,-1.95,-2.67,1005.89
2.757,-0.38,0.43,0.74,0.03,0.08,-3.05,0.21,-1.95,-2.67,1005.89
2.803,-0.38,0.43,0.74,0.03,0.08,-3.05,0.21,-1.95,-2.67,1005.85
2.814,-0.41,0.76,0.17,0.03,0.08,-3.05,0.21,-1.95,-2.67,1005.85
2.815,-0.43,1.19,0.04,0.03,0.08,-3.05,0.21,-1.95,-2.67,1005.85
2.816,-0.36,1.16,-0.27,0.03,0.08,-3.05,0.21,-1.95,-2.67,1005.85
2.817,-0.36,1.16,-0.27,0.03,0.08,-3.05,0.30,0.32,-1.99,1005.85
2.819,-0.36,1.16,-0.27,-4.59,0.42,0.65,0.30,0.32,-1.99,1005.85
2.871,-0.12,1.04,-0.24,-4.59,0.42,0.65,0.30,0.32,-1.99,1005.85
2.873,0.08,1.07,-0.19,-4.59,0.42,0.65,0.30,0.32,-1.99,1005.85
2.875,0.00,1.04,-0.09,-4.59,0.42,0.65,0.30,0.32,-1.99,1005.85
2.876,0.00,1.04,-0.09,-4.59,0.42,0.65,0.22,-0.28,-1.06,1005.85
2.877,0.00,1.04,-0.09,-0.18,0.52,-0.68,0.22,-0.28,-1.06,1005.85
2.88,0.00,1.04,-0.09,-0.18,0.52,-0.68,0.22,-0.28,-1.06,1005.94
2.921,0.00,1.04,-0.09,-0.18,0.52,-0.68,0.22,-0.28,-1.06,1005.94
2.93,-0.14,1.00,-0.02,-0.18,0.52,-0.68,0.22,-0.28,-1.06,1005.94
2.932,-0.06,0.98,-0.09,-0.18,0.52,-0.68,0.22,-0.28,-1.06,1005.94
2.933,0.02,0.99,-0.13,-0.18,0.52,-0.68,0.22,-0.28,-1.06,1005.94
2.936,0.02,0.99,-0.13,-0.18,0.52,-0.68,0.23,-0.26,-0.95,1005.94
2.937,0.02,0.99,-0.13,-0.08,-0.05,0.36,0.23,-0.26,-0.95,1005.94
2.995,-0.02,1.00,-0.10,-0.08,-0.05,0.36,0.23,-0.26,-0.95,1005.94
2.997,-0.10,1.00,-0.08,-0.08,-0.05,0.36,0.23,-0.26,-0.95,1005.94
2.998,-0.17,0.99,-0.11,-0.08,-0.05,0.36,0.23,-0.26,-0.95,1005.94
2.999,-0.17,0.99,-0.11,-0.08,-0.05,0.36,0.29,0.16,-1.05,1005.94
3.0,-0.17,0.99,-0.11,0.11,0.09,0.32,0.29,0.16,-1.05,1005.94
3.001,-0.17,0.99,-0.11,0.11,0.09,0.32,0.29,0.16,-1.05,1005.95
3.045,-0.16,1.01,-0.11,0.11,0.09,0.32,0.29,0.16,-1.05,1005.95
3.046,-0.13,1.03,-0.10,0.11,0.09,0.32,0.29,0.16,-1.05,1005.95
3.047,-0.10,0.99,-0.09,0.11,0.09,0.32,0.29,0.16,-1.05,1005.95
3.047,-0.10,0.99,-0.09,0.11,0.09,0.32,0.36,0.16,-1.05,1005.95
3.048,-0.10,0.99,-0.09,0.35,0.33,0.52,0.36,0.16,-1.05,1005.95
3.08,-0.10,0.99,-0.09,0.35,0.33,0.52,0.36,0.16,-1.05,1005.94
3.103,-0.01,0.95,-0.14,0.35,0.33,0.52,0.36,0.16,-1.05,1005.94
3.104,0.10,0.92,-0.18,0.35,0.33,0.52,0.36,0.16,-1.05,1005.94
3.105,-0.01,1.00,-0.15,0.35,0.33,0.52,0.36,0.16,-1.05,1005.94
3.105,-0.01,1.00,-0.15,0.35,0.33,0.52,0.48,0.43,-1.36,1005.94
3.105,-0.01,1.00,-0.15,2.58,0.01,0.28,0.48,0.43,-1.36,1005.94
3.122,-0.01,1.00,-0.15,2.58,0.01,0.28,0.48,0.43,-1.36,1005.94
3.162,-0.13,1.18,-0.12,2.58,0.01,0.28,0.48,0.43,-1.36,1005.94
3.163,-0.12,1.20,-0.11,2.58,0.01,0.28,0.48,0.43,-1.36,1005.94
3.164,-0.11,1.13,-0.10,2.58,0.01,0.28,0.48,0.43,-1.36,1005.94
3.165,-0.11,1.13,-0.10,2.14,2.46,1.16,0.48,0.43,-1.36,1005.94
3.165,-0.11,1.13,-0.10,2.14,2.46,1.16,0.85,0.01,-1.89,1005.94
3.203,-0.11,1.13,-0.10,2.14,2.46,1.16,0.85,0.01,-1.89,1005.93
3.224,-0.05,1.16,-0.13,2.14,2.46,1.16,0.85,0.01,-1.89,1005.93
3.225,0.10,1.40,-0.10,2.14,2.46,1.16,0.85,0.01,-1.89,1005.93
3.226,0.45,2.03,0.23,2.14,2.46,1.16,0.85,0.01,-1.89,1005.93
3.226,0.45,2.03,0.23,2.14,2.46,1.16,1.23,0.11,-2.06,1005.93
3.227,0.45,2.03,0.23,5.85,6.51,2.85,1.23,0.11,-2.06,1005.93
3.278,1.22,2.15,0.20,5.85,6.51,2.85,1.23,0.11,-2.06,1005.93
3.279,1.16,1.60,0.09,5.85,6.51,2.85,1.23,0.11,-2.06,1005.93
3.279,0.14,1.13,-0.11,5.85,6.51,2.85,1.23,0.11,-2.06,1005.93
3.28,0.14,1.13,-0.11,5.85,6.51,2.85,1.18,1.15,-2.59,1005.93
3.281,0.14,1.13,-0.11,13.21,8.27,4.24,1.18,1.15,-2.59,1005.93
3.282,0.14,1.13,-0.11,13.21,8.27,4.24,1.18,1.15,-2.59,1005.93
3.322,0.14,1.13,-0.11,13.21,8.27,4.24,1.18,1.15,-2.59,1005.94
3.336,-0.75,1.29,-0.36,13.21,8.27,4.24,1.18,1.15,-2.59,1005.94
3.337,-1.05,1.50,-0.40,13.21,8.27,4.24,1.18,1.15,-2.59,1005.94
3.338,-0.68,1.00,-0.57,13.21,8.27,4.24,1.18,1.15,-2.59,1005.94
3.338,-0.68,1.00,-0.57,-2.30,6.15,0.76,1.18,1.15,-2.59,1005.94
3.339,-0.68,1.00,-0.57,-2.30,6.15,0.76,1.60,2.50,-3.54,1005.94
3.395,-0.55,0.66,-0.42,-2.30,6.15,0.76,1.60,2.50,-3.54,1005.94
3.397,-0.51,0.47,-0.65,-2.30,6.15,0.76,1.60,2.50,-3.54,1005.94
3.398,-0.34,0.34,-0.48,-2.30,6.15,0.76,1.60,2.50,-3.54,1005.94
3.399,-0.34,0.34,-0.48,-2.30,6.15,0.76,-0.34,0.96,-0.69,1005.94
3.4,-0.34,0.34,-0.48,1.14,-1.30,0.23,-0.34,0.96,-0.69,1005.94
3.402,-0.34,0.34,-0.48,1.14,-1.30,0.23,-0.34,0.96,-0.69,1005.93
3.455,-0.34,0.21,-0.23,1.14,-1.30,0.23,-0.34,0.96,-0.69,1005.93
3.457,-0.29,0.14,-0.12,1.14,-1.30,0.23,-0.34,0.96,-0.69,1005.93
3.458,-0.27,0.20,-0.25,1.14,-1.30,0.23,-0.34,0.96,-0.69,1005.93
3.459,-0.27,0.20,-0.25,1.14,-1.30,0.23,-2.23,-0.40,2.21,1005.93
3.461,-0.27,0.20,-0.25,2.01,-5.54,2.29,-2.23,-0.40,2.21,1005.93
3.481,-0.27,0.20,-0.25,2.01,-5.54,2.29,-2.23,-0.40,2.21,1005.90
3.512,-0.26,0.29,-0.41,2.01,-5.54,2.29,-2.23,-0.40,2.21,1005.90
3.518,-0.16,0.35,-0.40,2.01,-5.54,2.29,-2.23,-0.40,2.21,1005.90
3.519,-0.09,0.46,-0.29,2.01,-5.54,2.29,-2.23,-0.40,2.21,1005.90
3.521,-0.09,0.46,-0.29,2.01,-5.54,2.29,-2.66,-1.13,4.46,1005.90
3.522,-0.09,0.46,-0.29,1.34,-5.22,-0.87,-2.66,-1.13,4.46,1005.90
3.522,-0.09,0.46,-0.29,1.34,-5.22,-0.87,-2.66,-1.13,4.46,1005.93
3.571,-0.11,0.59,-0.17,1.34,-5.22,-0.87,-2.66,-1.13,4.46,1005.93
3.572,0.01,0.70,-0.14,1.34,-5.22,-0.87,-2.66,-1.13,4.46,1005.93
3.573,0.05,1.12,-0.55,1.34,-5.22,-0.87,-2.66,-1.13,4.46,1005.93
3.573,0.05,1.12,-0.55,1.34,-5.22,-0.87,-2.47,0.25,5.97,1005.93
3.573,0.05,1.12,-0.55,-0.40,-1.71,-1.37,-2.47,0.25,5.97,1005.93
3.6,0.05,1.12,-0.55,-0.40,-1.71,-1.37,-2.47,0.25,5.97,1005.94
3.628,-0.37,1.81,-0.66,-0.40,-1.71,-1.37,-2.47,0.25,5.97,1005.94
3.629,-0.76,2.07,-0.83,-0.40,-1.71,-1.37,-2.47,0.25,5.97,1005.94
3.63,-1.10,1.69,-0.61,-0.40,-1.71,-1.37,-2.47,0.25,5.97,1005.94
3.631,-1.10,1.69,-0.61,-0.40,-1.71,-1.37,-2.71,0.73,5.66,1005.94
3.631,-1.10,1.69,-0.61,-10.50,8.95,-6.91,-2.71,0.73,5.66,1005.94
3.681,-1.10,1.69,-0.61,-10.50,8.95,-6.91,-2.71,0.73,5.66,1005.93
3.688,-1.08,1.17,-0.10,-10.50,8.95,-6.91,-2.71,0.73,5.66,1005.93
3.689,-0.51,1.04,-0.24,-10.50,8.95,-6.91,-2.71,0.73,5.66,1005.93
3.69,-0.60,1.02,-0.46,-10.50,8.95,-6.91,-2.71,0.73,5.66,1005.93
3.692,-0.60,1.02,-0.46,-11.90,2.10,-3.34,-2.71,0.73,5.66,1005.93
3.693,-0.60,1.02,-0.46,-11.90,2.10,-3.34,-2.11,-1.28,3.29,1005.93
3.721,-0.60,1.02,-0.46,-11.90,2.10,-3.34,-2.11,-1.28,3.29,1005.88
3.745,-0.66,0.74,-0.26,-11.90,2.10,-3.34,-2.11,-1.28,3.29,1005.88
3.747,-0.70,0.77,-0.36,-11.90,2.10,-3.34,-2.11,-1.28,3.29,1005.88
3.748,-0.49,1.29,-0.69,-11.90,2.10,-3.34,-2.11,-1.28,3.29,1005.88
3.748,-0.49,1.29,-0.69,-11.90,2.10,-3.34,0.05,-1.60,-1.71,1005.88
3.749,-0.49,1.29,-0.69,-9.82,0.27,-4.51,0.05,-1.60,-1.71,1005.88
3.801,-0.49,1.29,-0.69,-9.82,0.27,-4.51,0.05,-1.60,-1.71,1005.91
3.816,1.37,1.70,0.25,-9.82,0.27,-4.51,0.05,-1.60,-1.71,1005.91
3.818,2.85,1.53,0.51,-9.82,0.27,-4.51,0.05,-1.60,-1.71,1005.91
3.819,0.14,1.65,-0.79,-9.82,0.27,-4.51,0.05,-1.60,-1.71,1005.91
3.82,0.14,1.65,-0.79,-9.82,0.27,-4.51,-0.28,-1.65,-1.13,1005.91
3.821,0.14,1.65,-0.79,10.90,6.70,-0.11,-0.28,-1.65,-1.13,1005.91
3.862,-1.33,1.17,-1.01,10.90,6.70,-0.11,-0.28,-1.65,-1.13,1005.91
3.864,-0.72,0.56,0.52,10.90,6.70,-0.11,-0.28,-1.65,-1.13,1005.91
3.865,-0.15,0.83,0.17,10.90,6.70,-0.11,-0.28,-1.65,-1.13,1005.91
3.866,-0.15,0.83,0.17,10.90,6.70,-0.11,0.20,0.11,-3.04,1005.91
3.867,-0.15,0.83,0.17,-8.72,-1.27,-0.94,0.20,0.11,-3.04,1005.91
3.881,-0.15,0.83,0.17,-8.72,-1.27,-0.94,0.20,0.11,-3.04,1005.91
3.922,-0.00,1.15,0.17,-8.72,-1.27,-0.94,0.20,0.11,-3.04,1005.91
3.924,-0.05,1.08,-0.15,-8.72,-1.27,-0.94,0.20,0.11,-3.04,1005.91
3.925,-0.17,1.00,-0.16,-8.72,-1.27,-0.94,0.20,0.11,-3.04,1005.91
3.926,-0.17,1.00,-0.16,-8.72,-1.27,-0.94,0.28,-0.39,-1.24,1005.91
3.927,-0.17,1.00,-0.16,-8.72,-1.27,-0.94,0.28,-0.39,-1.24,1005.89
3.927,-0.17,1.00,-0.16,-1.56,0.84,-0.19,0.28,-0.39,-1.24,1005.89
3.981,0.02,1.05,-0.17,-1.56,0.84,-0.19,0.28,-0.39,-1.24,1005.89
3.983,0.09,1.06,-0.11,-1.56,0.84,-0.19,0.28,-0.39,-1.24,1005.89
3.984,0.02,1.03,0.03,-1.56,0.84,-0.19,0.28,-0.39,-1.24,1005.89
3.985,0.02,1.03,0.03,-1.56,0.84,-0.19,0.15,-0.02,-0.81,1005.89
3.986,0.02,1.03,0.03,0.08,0.45,-0.42,0.15,-0.02,-0.81,1005.89
4.001,0.02,1.03,0.03,0.08,0.45,-0.42,0.15,-0.02,-0.81,1005.95
4.037,0.07,0.99,0.05,0.08,0.45,-0.42,0.15,-0.02,-0.81,1005.95
4.038,0.15,0.96,0.06,0.08,0.45,-0.42,0.15,-0.02,-0.81,1005.95
4.039,0.13,0.95,0.04,0.08,0.45,-0.42,0.15,-0.02,-0.81,1005.95
4.039,0.13,0.95,0.04,0.08,0.45,-0.42,0.27,-0.10,-0.90,1005.95
4.041,0.13,0.95,0.04,1.29,-0.27,0.99,0.27,-0.10,-0.90,1005.95
4.084,0.13,0.95,0.04,1.29,-0.27,0.99,0.27,-0.10,-0.90,1005.95
4.096,0.13,0.95,0.04,0.50,-0.11,0.64,0.27,-0.10,-0.90,1005.95
4.097,0.02,0.95,0.00,0.50,-0.11,0.64,0.27,-0.10,-0.90,1005.95
4.098,-0.03,0.97,-0.01,0.50,-0.11,0.64,0.27,-0.10,-0.90,1005.95
4.098,-0.09,1.02,-0.04,0.50,-0.11,0.64,0.27,-0.10,-0.90,1005.95
4.099,-0.09,1.02,-0.04,0.50,-0.11,0.64,0.44,0.30,-1.22,1005.95
4.12,-0.09,1.02,-0.04,0.50,-0.11,0.64,0.44,0.30,-1.22,1005.95
4.153,-0.17,1.03,-0.10,0.50,-0.11,0.64,0.44,0.30,-1.22,1005.95
4.154,-0.18,0.98,-0.12,0.50,-0.11,0.64,0.44,0.30,-1.22,1005.95
4.155,-0.12,0.95,-0.13,0.50,-0.11,0.64,0.44,0.30,-1.22,1005.95
4.155,-0.12,0.95,-0.13,0.50,-0.11,0.64,0.52,0.15,-1.22,1005.95
4.156,-0.12,0.95,-0.13,-0.04,0.05,-0.07,0.52,0.15,-1.22,1005.95
4.205,-0.12,0.95,-0.13,-0.04,0.05,-0.07,0.52,0.15,-1.22,1005.95
4.211,-0.07,0.98,-0.14,-0.04,0.05,-0.07,0.52,0.15,-1.22,1005.95
4.212,-0.07,1.01,-0.14,-0.04,0.05,-0.07,0.52,0.15,-1.22,1005.95
4.213,-0.07,1.04,-0.14,-0.04,0.05,-0.07,0.52,0.15,-1.22,1005.95
4.213,-0.07,1.04,-0.14,-0.04,0.05,-0.07,0.53,0.30,-1.33,1005.95
4.214,-0.07,1.04,-0.14,1.49,0.46,0.01,0.53,0.30,-1.33,1005.95
4.271,-0.03,1.13,-0.14,1.49,0.46,0.01,0.53,0.30,-1.33,1005.95
4.273,-0.01,1.20,-0.13,1.49,0.46,0.01,0.53,0.30,-1.33,1005.95
4.274,-0.00,1.19,-0.09,1.49,0.46,0.01,0.53,0.30,-1.33,1005.95
4.274,-0.00,1.19,-0.09,1.49,0.46,0.01,0.83,-0.07,-1.73,1005.95
4.275,-0.00,1.19,-0.09,2.94,2.34,0.64,0.83,-0.07,-1.73,1005.95
4.28,-0.00,1.19,-0.09,2.94,2.34,0.64,0.83,-0.07,-1.73,1005.94
4.321,-0.00,1.19,-0.09,2.94,2.34,0.64,0.83,-0.07,-1.73,1005.95
4.33,0.07,1.26,-0.08,2.94,2.34,0.64,0.83,-0.07,-1.73,1005.95
4.331,0.18,1.51,-0.08,2.94,2.34,0.64,0.83,-0.07,-1.73,1005.95
4.331,0.45,1.69,-0.09,2.94,2.34,0.64,0.83,-0.07,-1.73,1005.95
4.332,0.45,1.69,-0.09,6.36,5.99,1.66,0.83,-0.07,-1.73,1005.95
4.332,0.45,1.69,-0.09,6.36,5.99,1.66,1.23,0.35,-2.28,1005.95
4.386,0.86,1.79,-0.23,6.36,5.99,1.66,1.23,0.35,-2.28,1005.95
4.387,0.96,1.60,-0.25,6.36,5.99,1.66,1.23,0.35,-2.28,1005.95
4.387,0.01,0.90,-0.19,6.36,5.99,1.66,1.23,0.35,-2.28,1005.95
4.387,0.01,0.90,-0.19,6.36,5.99,1.66,1.36,1.49,-2.71,1005.95
4.387,0.01,0.90,-0.19,10.88,6.29,1.33,1.36,1.49,-2.71,1005.95
4.401,0.01,0.90,-0.19,10.88,6.29,1.33,1.36,1.49,-2.71,1005.95
4.444,-1.19,0.88,-0.39,10.88,6.29,1.33,1.36,1.49,-2.71,1005.95
4.445,-1.60,1.27,-0.46,10.88,6.29,1.33,1.36,1.49,-2.71,1005.95
4.446,-1.13,0.86,-0.26,10.88,6.29,1.33,1.36,1.49,-2.71,1005.95
4.446,-1.13,0.86,-0.26,10.88,6.29,1.33,1.92,0.92,-3.07,1005.95
4.446,-1.13,0.86,-0.26,-6.74,3.49,0.97,1.92,0.92,-3.07,1005.95
4.48,-1.13,0.86,-0.26,-6.74,3.49,0.97,1.92,0.92,-3.07,1005.92
4.502,-0.77,0.40,-0.28,-6.74,3.49,0.97,1.92,0.92,-3.07,1005.92
4.503,-0.60,0.33,-0.31,-6.74,3.49,0.97,1.92,0.92,-3.07,1005.92
4.503,-0.25,0.18,0.01,-6.74,3.49,0.97,1.92,0.92,-3.07,1005.92
4.503,-0.25,0.18,0.01,-6.74,3.49,0.97,0.35,-1.20,0.61,1005.92
4.504,-0.25,0.18,0.01,0.86,-3.46,2.34,0.35,-1.20,0.61,1005.92
4.519,-0.25,0.18,0.01,0.86,-3.46,2.34,0.35,-1.20,0.61,1005.89
4.561,-0.04,-0.09,0.20,0.86,-3.46,2.34,0.35,-1.20,0.61,1005.89
4.562,-0.08,-0.12,0.03,0.86,-3.46,2.34,0.35,-1.20,0.61,1005.89
4.563,-0.22,0.15,-0.20,0.86,-3.46,2.34,0.35,-1.20,0.61,1005.89
4.563,-0.22,0.15,-0.20,0.86,-3.46,2.34,0.22,-1.54,3.29,1005.89
4.564,-0.22,0.15,-0.20,4.00,-7.51,3.81,0.22,-1.54,3.29,1005.89
4.601,-0.22,0.15,-0.20,4.00,-7.51,3.81,0.22,-1.54,3.29,1005.94
4.622,-0.36,0.41,-0.27,4.00,-7.51,3.81,0.22,-1.54,3.29,1005.94
4.624,-0.61,0.54,-0.15,4.00,-7.51,3.81,0.22,-1.54,3.29,1005.94
4.624,-0.70,0.52,-0.23,4.00,-7.51,3.81,0.22,-1.54,3.29,1005.94
4.625,-0.70,0.52,-0.23,4.00,-7.51,3.81,0.43,-2.27,5.10,1005.94
4.626,-0.70,0.52,-0.23,-2.18,-3.60,1.25,0.43,-2.27,5.10,1005.94
4.679,-0.69,0.63,-0.31,-2.18,-3.60,1.25,0.43,-2.27,5.10,1005.94
4.681,-0.62,0.89,-0.32,-2.18,-3.60,1.25,0.43,-2.27,5.10,1005.94
4.682,-0.55,1.16,-0.47,-2.18,-3.60,1.25,0.43,-2.27,5.10,1005.94
4.683,-0.55,1.16,-0.47,-2.18,-3.60,1.25,0.50,-5.16,7.03,1005.94
4.684,-0.55,1.16,-0.47,-5.39,-0.35,-0.51,0.50,-5.16,7.03,1005.94
4.685,-0.55,1.16,-0.47,-5.39,-0.35,-0.51,0.50,-5.16,7.03,1005.95
4.72,-0.55,1.16,-0.47,-5.39,-0.35,-0.51,0.50,-5.16,7.03,1005.92
4.736,-0.46,1.45,-0.48,-5.39,-0.35,-0.51,0.50,-5.16,7.03,1005.92
4.737,-0.55,1.58,-0.37,-5.39,-0.35,-0.51,0.50,-5.16,7.03,1005.92
4.738,-0.53,1.43,-0.05,-5.39,-0.35,-0.51,0.50,-5.16,7.03,1005.92
4.738,-0.53,1.43,-0.05,-5.39,-0.35,-0.51,0.70,-9.09,6.50,1005.92
4.738,-0.53,1.43,-0.05,-5.96,5.59,0.70,0.70,-9.09,6.50,1005.92
4.795,-0.13,1.17,0.20,-5.96,5.59,0.70,0.70,-9.09,6.50,1005.92
4.796,0.02,0.91,0.48,-5.96,5.59,0.70,0.70,-9.09,6.50,1005.92
4.796,-0.92,1.41,-0.13,-5.96,5.59,0.70,0.70,-9.09,6.50,1005.92
4.797,-0.92,1.41,-0.13,-5.96,5.59,0.70,-0.23,-6.70,2.46,1005.92
4.797,-0.92,1.41,-0.13,-4.03,2.47,5.58,-0.23,-6.70,2.46,1005.92
4.801,-0.92,1.41,-0.13,-4.03,2.47,5.58,-0.23,-6.70,2.46,1005.89
4.854,-0.44,1.11,1.48,-4.03,2.47,5.58,-0.23,-6.70,2.46,1005.89
4.855,0.75,0.65,0.76,-4.03,2.47,5.58,-0.23,-6.70,2.46,1005.89
4.855,0.35,1.46,-0.29,-4.03,2.47,5.58,-0.23,-6.70,2.46,1005.89
4.856,0.35,1.46,-0.29,-4.03,2.47,5.58,-0.74,0.54,-0.64,1005.89
4.856,0.35,1.46,-0.29,1.72,1.40,9.62,-0.74,0.54,-0.64,1005.89
4.881,0.35,1.46,-0.29,1.72,1.40,9.62,-0.74,0.54,-0.64,1005.93
4.913,-0.09,1.88,-1.06,1.72,1.40,9.62,-0.74,0.54,-0.64,1005.93
4.914,-0.35,1.15,-0.70,1.72,1.40,9.62,-0.74,0.54,-0.64,1005.93
4.915,-0.06,0.94,-0.37,1.72,1.40,9.62,-0.74,0.54,-0.64,1005.93
4.915,-0.06,0.94,-0.37,1.72,1.40,9.62,-0.37,0.07,-0.65,1005.93
4.916,-0.06,0.94,-0.37,-1.69,3.74,-3.87,-0.37,0.07,-0.65,1005.93
4.923,-0.06,0.94,-0.37,-1.69,3.74,-3.87,-0.37,0.07,-0.65,1005.94
4.969,0.22,0.94,-0.22,-1.69,3.74,-3.87,-0.37,0.07,-0.65,1005.94
4.97,-0.11,0.90,-0.00,-1.69,3.74,-3.87,-0.37,0.07,-0.65,1005.94
4.971,-0.29,0.95,0.04,-1.69,3.74,-3.87,-0.37,0.07,-0.65,1005.94
4.971,-0.29,0.95,0.04,-1.69,3.74,-3.87,-0.44,-1.37,-0.04,1005.94
4.971,-0.29,0.95,0.04,-0.39,-0.18,2.20,-0.44,-1.37,-0.04,1005.94
5.007,-0.29,0.95,0.04,-0.39,-0.18,2.20,-0.44,-1.37,-0.04,1005.92
5.03,-0.20,0.97,-0.16,-0.39,-0.18,2.20,-0.44,-1.37,-0.04,1005.92
5.032,-0.13,1.02,-0.34,-0.39,-0.18,2.20,-0.44,-1.37,-0.04,1005.92
5.032,-0.07,0.99,-0.35,-0.39,-0.18,2.20,-0.44,-1.37,-0.04,1005.92
5.034,-0.07,0.99,-0.35,-0.39,-0.18,2.20,-0.05,-0.24,0.29,1005.92
5.035,-0.07,0.99,-0.35,-1.21,0.38,0.00,-0.05,-0.24,0.29,1005.92
5.08,-0.07,0.99,-0.35,-1.21,0.38,0.00,-0.05,-0.24,0.29,1005.94
5.087,-0.13,0.95,-0.30,-1.21,0.38,0.00,-0.05,-0.24,0.29,1005.94
5.088,-0.18,0.98,-0.29,-1.21,0.38,0.00,-0.05,-0.24,0.29,1005.94
5.089,0.00,0.95,-0.24,-1.21,0.38,0.00,-0.05,-0.24,0.29,1005.94
5.09,0.00,0.95,-0.24,-1.21,0.38,0.00,-0.10,-0.67,0.53,1005.94
5.091,0.00,0.95,-0.24,-1.09,0.06,0.00,-0.10,-0.67,0.53,1005.94
5.121,0.00,0.95,-0.24,-1.09,0.06,0.00,-0.10,-0.67,0.53,1005.94
5.147,0.22,0.91,-0.21,-1.09,0.06,0.00,-0.10,-0.67,0.53,1005.94
5.148,0.18,0.92,-0.18,-1.09,0.06,0.00,-0.10,-0.67,0.53,1005.94
5.149,0.10,0.95,-0.21,-1.09,0.06,0.00,-0.10,-0.67,0.53,1005.94
5.15,0.10,0.95,-0.21,-1.09,0.06,0.00,0.00,-0.50,0.47,1005.94
5.151,0.10,0.95,-0.21,1.38,-0.27,0.76,0.00,-0.50,0.47,1005.94
5.199,0.10,0.95,-0.21,1.38,-0.27,0.76,0.00,-0.50,0.47,1005.94
5.204,0.05,0.98,-0.24,1.38,-0.27,0.76,0.00,-0.50,0.47,1005.94
5.205,0.07,0.97,-0.16,1.38,-0.27,0.76,0.00,-0.50,0.47,1005.94
5.206,0.15,0.92,-0.10,1.38,-0.27,0.76,0.00,-0.50,0.47,1005.94
5.207,0.15,0.92,-0.10,1.38,-0.27,0.76,0.18,-0.47,0.09,1005.94
5.208,0.15,0.92,-0.10,0.63,0.05,1.13,0.18,-0.47,0.09,1005.94
5.262,0.13,0.94,-0.09,0.63,0.05,1.13,0.18,-0.47,0.09,1005.94
5.264,0.01,0.95,-0.20,0.63,0.05,1.13,0.18,-0.47,0.09,1005.94
5.264,-0.09,0.97,-0.29,0.63,0.05,1.13,0.18,-0.47,0.09,1005.94
5.265,-0.09,0.97,-0.29,0.63,0.05,1.13,0.55,-0.47,-0.21,1005.94
5.266,-0.09,0.97,-0.29,0.13,0.08,1.22,0.55,-0.47,-0.21,1005.94
5.287,-0.09,0.97,-0.29,0.13,0.08,1.22,0.55,-0.47,-0.21,1005.94
5.322,-0.10,0.97,-0.29,0.13,0.08,1.22,0.55,-0.47,-0.21,1005.94
5.323,-0.08,0.98,-0.27,0.13,0.08,1.22,0.55,-0.47,-0.21,1005.94
5.323,0.02,1.00,-0.24,0.13,0.08,1.22,0.55,-0.47,-0.21,1005.94
5.324,0.02,1.00,-0.24,0.13,0.08,1.22,0.81,-0.05,-0.07,1005.94
5.324,0.02,1.00,-0.24,0.13,0.08,1.22,0.81,-0.05,-0.07,1005.94
5.331,0.02,1.00,-0.24,-0.51,0.53,0.87,0.81,-0.05,-0.07,1005.94
5.379,0.13,1.00,-0.27,-0.51,0.53,0.87,0.81,-0.05,-0.07,1005.94
5.38,0.24,1.04,-0.26,-0.51,0.53,0.87,0.81,-0.05,-0.07,1005.94
5.381,0.18,1.12,-0.32,-0.51,0.53,0.87,0.81,-0.05,-0.07,1005.94
5.381,0.18,1.12,-0.32,-0.51,0.53,0.87,1.27,0.06,-0.10,1005.94
5.381,0.18,1.12,-0.32,1.84,1.51,1.35,1.27,0.06,-0.10,1005.94
5.4,0.18,1.12,-0.32,1.84,1.51,1.35,1.27,0.06,-0.10,1005.95
5.437,0.01,1.21,-0.43,1.84,1.51,1.35,1.27,0.06,-0.10,1005.95
5.438,0.03,1.43,-0.35,1.84,1.51,1.35,1.27,0.06,-0.10,1005.95
5.438,0.39,1.62,-0.04,1.84,1.51,1.35,1.27,0.06,-0.10,1005.95
5.438,0.39,1.62,-0.04,1.84,1.51,1.35,1.91,-0.55,-0.18,1005.95
5.439,0.39,1.62,-0.04,1.66,5.53,2.40,1.91,-0.55,-0.18,1005.95
5.48,0.39,1.62,-0.04,1.66,5.53,2.40,1.91,-0.55,-0.18,1005.94
5.494,0.67,1.60,0.05,1.66,5.53,2.40,1.91,-0.55,-0.18,1005.94
5.495,0.46,1.52,0.18,1.66,5.53,2.40,1.91,-0.55,-0.18,1005.94
5.495,0.12,1.44,0.34,1.66,5.53,2.40,1.91,-0.55,-0.18,1005.94
5.495,0.12,1.44,0.34,1.66,5.53,2.40,2.55,-2.14,-0.31,1005.94
5.496,0.12,1.44,0.34,5.06,7.22,7.89,2.55,-2.14,-0.31,1005.94
5.52,0.12,1.44,0.34,5.06,7.22,7.89,2.55,-2.14,-0.31,1005.93
5.553,-0.44,1.48,0.24,5.06,7.22,7.89,2.55,-2.14,-0.31,1005.93
5.554,-1.09,1.59,-0.06,5.06,7.22,7.89,2.55,-2.14,-0.31,1005.93
5.555,-0.93,1.36,-0.30,5.06,7.22,7.89,2.55,-2.14,-0.31,1005.93
5.555,-0.93,1.36,-0.30,5.06,7.22,7.89,2.07,-3.05,-1.30,1005.93
5.555,-0.93,1.36,-0.30,-5.27,7.56,6.11,2.07,-3.05,-1.30,1005.93
5.601,-0.93,1.36,-0.30,-5.27,7.56,6.11,2.07,-3.05,-1.30,1005.94
5.621,-0.55,1.16,-0.49,-5.27,7.56,6.11,2.07,-3.05,-1.30,1005.94
5.622,-0.15,0.99,-0.37,-5.27,7.56,6.11,2.07,-3.05,-1.30,1005.94
5.623,0.09,0.71,-0.05,-5.27,7.56,6.11,2.07,-3.05,-1.30,1005.94
5.623,0.09,0.71,-0.05,-5.27,7.56,6.11,0.96,-3.97,0.13,1005.94
5.624,0.09,0.71,-0.05,2.17,2.70,3.02,0.96,-3.97,0.13,1005.94
5.671,-0.06,0.57,0.17,2.17,2.70,3.02,0.96,-3.97,0.13,1005.94
5.672,-0.25,0.57,0.06,2.17,2.70,3.02,0.96,-3.97,0.13,1005.94
5.672,-0.31,0.60,-0.05,2.17,2.70,3.02,0.96,-3.97,0.13,1005.94
5.672,-0.31,0.60,-0.05,2.17,2.70,3.02,-0.63,-3.32,1.56,1005.94
5.673,-0.31,0.60,-0.05,2.48,-1.52,5.38,-0.63,-3.32,1.56,1005.94
5.68,-0.31,0.60,-0.05,2.48,-1.52,5.38,-0.63,-3.32,1.56,1005.93
5.72,-0.31,0.60,-0.05,2.48,-1.52,5.38,-0.63,-3.32,1.56,1005.94
5.736,-0.21,0.56,-0.10,2.48,-1.52,5.38,-0.63,-3.32,1.56,1005.94
5.738,-0.14,0.50,-0.13,2.48,-1.52,5.38,-0.63,-3.32,1.56,1005.94
5.739,-0.18,0.55,-0.09,2.48,-1.52,5.38,-0.63,-3.32,1.56,1005.94
5.739,-0.18,0.55,-0.09,2.48,-1.52,5.38,-1.40,-1.49,3.63,1005.94
5.74,-0.18,0.55,-0.09,1.50,-3.10,2.68,-1.40,-1.49,3.63,1005.94
5.787,-0.21,0.65,-0.11,1.50,-3.10,2.68,-1.40,-1.49,3.63,1005.94
5.789,-0.17,0.82,-0.09,1.50,-3.10,2.68,-1.40,-1.49,3.63,1005.94
5.79,-0.11,1.04,-0.21,1.50,-3.10,2.68,-1.40,-1.49,3.63,1005.94
5.792,-0.11,1.04,-0.21,1.50,-3.10,2.68,-2.06,-0.03,5.08,1005.94
5.793,-0.11,1.04,-0.21,-0.95,-1.08,1.26,-2.06,-0.03,5.08,1005.94
5.801,-0.11,1.04,-0.21,-0.95,-1.08,1.26,-2.06,-0.03,5.08,1005.95
5.85,-0.11,1.04,-0.21,-7.22,5.76,-3.54,-2.06,-0.03,5.08,1005.95
5.852,-0.26,1.32,-0.34,-7.22,5.76,-3.54,-2.06,-0.03,5.08,1005.95
5.852,-0.63,1.64,-0.46,-7.22,5.76,-3.54,-2.06,-0.03,5.08,1005.95
5.853,-0.62,1.67,-0.61,-7.22,5.76,-3.54,-2.06,-0.03,5.08,1005.95
5.853,-0.62,1.67,-0.61,-7.22,5.76,-3.54,-2.96,-0.18,5.60,1005.95
5.88,-0.62,1.67,-0.61,-7.22,5.76,-3.54,-2.96,-0.18,5.60,1005.92
5.903,-0.62,1.46,-0.47,-7.22,5.76,-3.54,-2.96,-0.18,5.60,1005.92
5.904,-0.63,1.27,-0.10,-7.22,5.76,-3.54,-2.96,-0.18,5.60,1005.92
5.904,-0.57,1.24,-0.30,-7.22,5.76,-3.54,-2.96,-0.18,5.60,1005.92
5.904,-0.57,1.24,-0.30,-7.22,5.76,-3.54,-2.72,-0.53,4.59,1005.92
5.905,-0.57,1.24,-0.30,-10.45,4.38,-3.05,-2.72,-0.53,4.59,1005.92
5.92,-0.57,1.24,-0.30,-10.45,4.38,-3.05,-2.72,-0.53,4.59,1005.87
5.961,-0.80,1.05,-0.36,-10.45,4.38,-3.05,-2.72,-0.53,4.59,1005.87
5.962,-0.93,0.79,-0.40,-10.45,4.38,-3.05,-2.72,-0.53,4.59,1005.87
5.962,-0.94,0.76,-0.48,-10.45,4.38,-3.05,-2.72,-0.53,4.59,1005.87
5.963,-0.94,0.76,-0.48,-10.45,4.38,-3.05,-0.86,-0.54,0.16,1005.87
5.963,-0.94,0.76,-0.48,-13.09,-0.05,-4.45,-0.86,-0.54,0.16,1005.87
6.0,-0.94,0.76,-0.48,-13.09,-0.05,-4.45,-0.86,-0.54,0.16,1005.87
6.02,-0.73,1.07,-0.81,-13.09,-0.05,-4.45,-0.86,-0.54,0.16,1005.87
6.02,0.37,1.63,-0.56,-13.09,-0.05,-4.45,-0.86,-0.54,0.16,1005.87
6.021,2.50,1.37,0.10,-13.09,-0.05,-4.45,-0.86,-0.54,0.16,1005.87
6.021,2.50,1.37,0.10,3.32,4.32,-4.00,-0.86,-0.54,0.16,1005.87
6.021,2.50,1.37,0.10,3.32,4.32,-4.00,-0.12,-2.32,-1.58,1005.87
6.078,1.50,1.60,-0.74,3.32,4.32,-4.00,-0.12,-2.32,-1.58,1005.87
6.078,-0.91,1.57,-0.79,3.32,4.32,-4.00,-0.12,-2.32,-1.58,1005.87
6.079,-0.90,0.82,0.05,3.32,4.32,-4.00,-0.12,-2.32,-1.58,1005.87
6.079,-0.90,0.82,0.05,3.32,4.32,-4.00,0.12,-1.57,-2.54,1005.87
6.08,-0.90,0.82,0.05,-3.26,3.56,-4.25,0.12,-1.57,-2.54,1005.87
6.08,-0.90,0.82,0.05,-3.26,3.56,-4.25,0.12,-1.57,-2.54,1005.87
6.12,-0.90,0.82,0.05,-3.26,3.56,-4.25,0.12,-1.57,-2.54,1005.88
6.136,0.01,0.50,0.75,-3.26,3.56,-4.25,0.12,-1.57,-2.54,1005.88
6.137,0.06,0.96,0.20,-3.26,3.56,-4.25,0.12,-1.57,-2.54,1005.88
6.137,-0.13,1.18,-0.11,-3.26,3.56,-4.25,0.12,-1.57,-2.54,1005.88
6.138,-0.13,1.18,-0.11,-3.26,3.56,-4.25,0.10,-0.19,-1.61,1005.88
6.138,-0.13,1.18,-0.11,-1.52,-1.00,3.34,0.10,-0.19,-1.61,1005.88
6.194,-0.23,1.09,-0.13,-1.52,-1.00,3.34,0.10,-0.19,-1.61,1005.88
6.195,0.09,1.03,-0.18,-1.52,-1.00,3.34,0.10,-0.19,-1.61,1005.88
6.195,0.26,1.07,-0.08,-1.52,-1.00,3.34,0.10,-0.19,-1.61,1005.88
6.196,0.26,1.07,-0.08,-0.33,0.73,-0.55,0.10,-0.19,-1.61,1005.88
6.196,0.26,1.07,-0.08,-0.33,0.73,-0.55,0.15,-0.15,-1.00,1005.88
6.201,0.26,1.07,-0.08,-0.33,0.73,-0.55,0.15,-0.15,-1.00,1005.94
6.252,0.20,0.99,0.07,-0.33,0.73,-0.55,0.15,-0.15,-1.00,1005.94
6.253,0.12,0.96,0.10,-0.33,0.73,-0.55,0.15,-0.15,-1.00,1005.94
6.253,0.12,0.95,0.04,-0.33,0.73,-0.55,0.15,-0.15,-1.00,1005.94
6.253,0.12,0.95,0.04,-0.33,0.73,-0.55,0.33,-0.37,-1.17,1005.94
6.254,0.12,0.95,0.04,1.35,-0.19,1.57,0.33,-0.37,-1.17,1005.94
6.28,0.12,0.95,0.04,1.35,-0.19,1.57,0.33,-0.37,-1.17,1005.94
6.314,-0.04,0.97,-0.05,1.35,-0.19,1.57,0.33,-0.37,-1.17,1005.94
6.315,-0.14,0.98,-0.11,1.35,-0.19,1.57,0.33,-0.37,-1.17,1005.94
6.315,-0.09,1.00,-0.12,1.35,-0.19,1.57,0.33,-0.37,-1.17,1005.94
6.316,-0.09,1.00,-0.12,1.35,-0.19,1.57,0.46,0.11,-1.36,1005.94
6.316,-0.09,1.00,-0.12,-0.20,-0.00,0.21,0.46,0.11,-1.36,1005.94
6.321,-0.09,1.00,-0.12,-0.20,-0.00,0.21,0.46,0.11,-1.36,1005.94
6.369,-0.08,1.04,-0.11,-0.20,-0.00,0.21,0.46,0.11,-1.36,1005.94
6.37,-0.18,1.06,-0.13,-0.20,-0.00,0.21,0.46,0.11,-1.36,1005.94
6.37,-0.14,1.03,-0.12,-0.20,-0.00,0.21,0.46,0.11,-1.36,1005.94
6.371,-0.14,1.03,-0.12,-0.20,-0.00,0.21,0.46,0.13,-1.26,1005.94
6.371,-0.14,1.03,-0.12,0.08,0.68,0.21,0.46,0.13,-1.26,1005.94
6.4,-0.14,1.03,-0.12,0.08,0.68,0.21,0.46,0.13,-1.26,1005.95
6.429,-0.04,1.00,-0.09,0.08,0.68,0.21,0.46,0.13,-1.26,1005.95
6.431,-0.05,1.02,-0.11,0.08,0.68,0.21,0.46,0.13,-1.26,1005.95
6.431,-0.05,0.99,-0.15,0.08,0.68,0.21,0.46,0.13,-1.26,1005.95
6.432,-0.05,0.99,-0.15,0.08,0.68,0.21,0.50,0.34,-1.32,1005.95
6.432,-0.05,0.99,-0.15,1.58,0.48,0.56,0.50,0.34,-1.32,1005.95
6.481,-0.05,0.99,-0.15,1.58,0.48,0.56,0.50,0.34,-1.32,1005.95
6.486,-0.03,0.99,-0.17,1.58,0.48,0.56,0.50,0.34,-1.32,1005.95
6.486,-0.11,1.10,-0.14,1.58,0.48,0.56,0.50,0.34,-1.32,1005.95
6.486,-0.17,1.19,-0.16,1.58,0.48,0.56,0.50,0.34,-1.32,1005.95
6.487,-0.17,1.19,-0.16,1.58,0.48,0.56,0.69,0.17,-1.70,1005.95
6.487,-0.17,1.19,-0.16,1.88,1.67,0.54,0.69,0.17,-1.70,1005.95
6.522,-0.17,1.19,-0.16,1.88,1.67,0.54,0.69,0.17,-1.70,1005.95
6.546,-0.08,1.18,-0.15,1.88,1.67,0.54,0.69,0.17,-1.70,1005.95
6.548,0.07,1.25,-0.09,1.88,1.67,0.54,0.69,0.17,-1.70,1005.95
6.549,0.22,1.52,0.01,1.88,1.67,0.54,0.69,0.17,-1.70,1005.95
6.55,0.22,1.52,0.01,1.88,1.67,0.54,1.06,-0.02,-1.90,1005.95
6.551,0.22,1.52,0.01,4.50,4.26,1.85,1.06,-0.02,-1.90,1005.95
6.6,0.22,1.52,0.01,4.50,4.26,1.85,1.06,-0.02,-1.90,1005.96
6.603,0.66,1.90,0.29,4.50,4.26,1.85,1.06,-0.02,-1.90,1005.96
6.603,1.14,1.86,0.12,4.50,4.26,1.85,1.06,-0.02,-1.90,1005.96
6.604,1.01,1.48,0.02,4.50,4.26,1.85,1.06,-0.02,-1.90,1005.96
6.604,1.01,1.48,0.02,4.50,4.26,1.85,1.31,0.82,-2.32,1005.96
6.604,1.01,1.48,0.02,13.74,9.15,4.76,1.31,0.82,-2.32,1005.96
6.661,0.11,1.08,-0.09,13.74,9.15,4.76,1.31,0.82,-2.32,1005.96
6.662,-0.80,1.25,-0.37,13.74,9.15,4.76,1.31,0.82,-2.32,1005.96
6.662,-1.03,1.48,-0.35,13.74,9.15,4.76,1.31,0.82,-2.32,1005.96
6.663,-1.03,1.48,-0.35,13.74,9.15,4.76,1.51,3.20,-3.79,1005.96
6.663,-1.03,1.48,-0.35,-0.25,5.86,2.27,1.51,3.20,-3.79,1005.96
6.68,-1.03,1.48,-0.35,-0.25,5.86,2.27,1.51,3.20,-3.79,1005.95
6.719,-1.03,1.48,-0.35,-0.10,1.02,1.46,1.51,3.20,-3.79,1005.95
6.721,-0.72,1.04,-0.47,-0.10,1.02,1.46,1.51,3.20,-3.79,1005.95
6.721,-0.53,0.63,-0.32,-0.10,1.02,1.46,1.51,3.20,-3.79,1005.95
6.721,-0.48,0.45,-0.46,-0.10,1.02,1.46,1.51,3.20,-3.79,1005.95
6.721,-0.48,0.45,-0.46,-0.10,1.02,1.46,0.57,1.38,-1.63,1005.95
6.723,-0.48,0.45,-0.46,-0.10,1.02,1.46,0.57,1.38,-1.63,1005.95
6.777,-0.38,0.41,-0.52,-0.10,1.02,1.46,0.57,1.38,-1.63,1005.95
6.778,-0.30,0.31,-0.29,-0.10,1.02,1.46,0.57,1.38,-1.63,1005.95
6.779,-0.21,0.23,-0.18,-0.10,1.02,1.46,0.57,1.38,-1.63,1005.95
6.779,-0.21,0.23,-0.18,-0.10,1.02,1.46,-1.69,0.04,1.01,1005.95
6.78,-0.21,0.23,-0.18,2.21,-3.56,1.64,-1.69,0.04,1.01,1005.95
6.8,-0.21,0.23,-0.18,2.21,-3.56,1.64,-1.69,0.04,1.01,1005.93
6.838,-0.22,0.25,-0.20,2.21,-3.56,1.64,-1.69,0.04,1.01,1005.93
6.838,-0.25,0.33,-0.37,2.21,-3.56,1.64,-1.69,0.04,1.01,1005.93
6.839,-0.19,0.42,-0.43,2.21,-3.56,1.64,-1.69,0.04,1.01,1005.93
6.839,-0.19,0.42,-0.43,2.21,-3.56,1.64,-2.53,-1.01,3.17,1005.93
6.839,-0.19,0.42,-0.43,1.82,-4.80,0.26,-2.53,-1.01,3.17,1005.93
6.881,-0.19,0.42,-0.43,1.82,-4.80,0.26,-2.53,-1.01,3.17,1005.93
6.894,-0.10,0.50,-0.29,1.82,-4.80,0.26,-2.53,-1.01,3.17,1005.93
6.895,-0.11,0.56,-0.16,1.82,-4.80,0.26,-2.53,-1.01,3.17,1005.93
6.895,-0.07,0.68,-0.14,1.82,-4.80,0.26,-2.53,-1.01,3.17,1005.93
6.895,-0.07,0.68,-0.14,1.82,-4.80,0.26,-3.03,-0.57,5.14,1005.93
6.895,-0.07,0.68,-0.14,0.48,-3.63,-0.04,-3.03,-0.57,5.14,1005.93
6.921,-0.07,0.68,-0.14,0.48,-3.63,-0.04,-3.03,-0.57,5.14,1005.95
6.953,0.04,1.03,-0.43,0.48,-3.63,-0.04,-3.03,-0.57,5.14,1005.95
6.953,-0.07,1.61,-0.54,0.48,-3.63,-0.04,-3.03,-0.57,5.14,1005.95
6.954,-0.46,2.04,-0.62,0.48,-3.63,-0.04,-3.03,-0.57,5.14,1005.95
6.954,-0.46,2.04,-0.62,0.48,-3.63,-0.04,-2.75,0.74,5.70,1005.95
6.954,-0.46,2.04,-0.62,-3.33,5.77,-4.81,-2.75,0.74,5.70,1005.95
7.0,-0.46,2.04,-0.62,-3.33,5.77,-4.81,-2.75,0.74,5.70,1005.95
7.011,-0.69,1.85,-0.60,-3.33,5.77,-4.81,-2.75,0.74,5.70,1005.95
7.012,-0.68,1.38,-0.07,-3.33,5.77,-4.81,-2.75,0.74,5.70,1005.95
7.012,-0.55,1.11,-0.30,-3.33,5.77,-4.81,-2.75,0.74,5.70,1005.95
7.012,-0.55,1.11,-0.30,-3.33,5.77,-4.81,-2.87,0.61,4.87,1005.95
7.013,-0.55,1.11,-0.30,-10.43,5.48,-4.33,-2.87,0.61,4.87,1005.95
7.07,-0.67,0.95,-0.65,-10.43,5.48,-4.33,-2.87,0.61,4.87,1005.95
7.071,-0.97,0.70,-0.54,-10.43,5.48,-4.33,-2.87,0.61,4.87,1005.95
7.071,-1.10,0.70,-0.56,-10.43,5.48,-4.33,-2.87,0.61,4.87,1005.95
7.071,-1.10,0.70,-0.56,-10.43,5.48,-4.33,-0.50,-0.85,0.08,1005.95
7.071,-1.10,0.70,-0.56,-12.97,-0.93,-6.80,-0.50,-0.85,0.08,1005.95
7.08,-1.10,0.70,-0.56,-12.97,-0.93,-6.80,-0.50,-0.85,0.08,1005.89
7.12,-1.10,0.70,-0.56,-12.97,-0.93,-6.80,-0.50,-0.85,0.08,1005.87
7.127,-0.48,1.48,-0.63,-12.97,-0.93,-6.80,-0.50,-0.85,0.08,1005.87
7.127,1.94,1.83,0.75,-12.97,-0.93,-6.80,-0.50,-0.85,0.08,1005.87
7.127,2.64,1.52,0.37,-12.97,-0.93,-6.80,-0.50,-0.85,0.08,1005.87
7.128,2.64,1.52,0.37,-12.97,-0.93,-6.80,-0.22,-2.15,-1.11,1005.87
7.128,2.64,1.52,0.37,9.67,6.83,0.86,-0.22,-2.15,-1.11,1005.87
7.186,-0.41,1.43,-1.09,9.67,6.83,0.86,-0.22,-2.15,-1.11,1005.87
7.19,-1.13,1.03,-0.73,9.67,6.83,0.86,-0.22,-2.15,-1.11,1005.87
7.191,-0.32,0.67,0.51,9.67,6.83,0.86,-0.22,-2.15,-1.11,1005.87
7.191,-0.32,0.67,0.51,-7.81,0.65,-4.52,-0.22,-2.15,-1.11,1005.87
7.191,-0.32,0.67,0.51,-7.81,0.65,-4.52,0.70,0.02,-3.44,1005.87
7.2,-0.32,0.67,0.51,-7.81,0.65,-4.52,0.70,0.02,-3.44,1005.86
7.244,-0.18,0.95,0.13,-7.81,0.65,-4.52,0.70,0.02,-3.44,1005.86
7.245,-0.13,1.08,0.09,-7.81,0.65,-4.52,0.70,0.02,-3.44,1005.86
7.245,-0.21,1.09,-0.09,-7.81,0.65,-4.52,0.70,0.02,-3.44,1005.86
7.245,-0.21,1.09,-0.09,-2.55,0.50,0.41,0.70,0.02,-3.44,1005.86
7.246,-0.21,1.09,-0.09,-2.55,0.50,0.41,0.37,-0.58,-1.55,1005.86
7.281,-0.21,1.09,-0.09,-2.55,0.50,0.41,0.37,-0.58,-1.55,1005.94
7.302,-0.01,1.02,-0.13,-2.55,0.50,0.41,0.37,-0.58,-1.55,1005.94
7.303,0.17,1.02,-0.07,-2.55,0.50,0.41,0.37,-0.58,-1.55,1005.94
7.303,0.09,1.06,-0.01,-2.55,0.50,0.41,0.37,-0.58,-1.55,1005.94
7.304,0.09,1.06,-0.01,-2.55,0.50,0.41,0.21,0.05,-0.91,1005.94
7.304,0.09,1.06,-0.01,0.47,0.41,-0.53,0.21,0.05,-0.91,1005.94
7.32,0.09,1.06,-0.01,0.47,0.41,-0.53,0.21,0.05,-0.91,1005.97
7.362,-0.08,1.04,0.08,0.47,0.41,-0.53,0.21,0.05,-0.91,1005.97
7.363,0.03,0.99,0.07,0.47,0.41,-0.53,0.21,0.05,-0.91,1005.97
7.364,0.19,0.97,0.06,0.47,0.41,-0.53,0.21,0.05,-0.91,1005.97
7.365,0.19,0.97,0.06,0.47,0.41,-0.53,0.27,-0.18,-0.92,1005.97
7.366,0.19,0.97,0.06,0.66,0.09,0.95,0.27,-0.18,-0.92,1005.97
7.401,0.19,0.97,0.06,0.66,0.09,0.95,0.27,-0.18,-0.92,1005.96
7.42,0.13,0.98,0.04,0.66,0.09,0.95,0.27,-0.18,-0.92,1005.96
7.422,-0.00,0.97,0.01,0.66,0.09,0.95,0.27,-0.18,-0.92,1005.96
7.422,-0.07,0.98,0.01,0.66,0.09,0.95,0.27,-0.18,-0.92,1005.96
7.423,-0.07,0.98,0.01,0.66,0.09,0.95,0.45,0.37,-1.21,1005.96
7.424,-0.07,0.98,0.01,1.02,-0.07,0.70,0.45,0.37,-1.21,1005.96
7.477,-0.12,1.03,-0.02,1.02,-0.07,0.70,0.45,0.37,-1.21,1005.96
7.478,-0.15,1.04,-0.07,1.02,-0.07,0.70,0.45,0.37,-1.21,1005.96
7.479,-0.13,0.98,-0.08,1.02,-0.07,0.70,0.45,0.37,-1.21,1005.96
7.48,-0.13,0.98,-0.08,1.02,-0.07,0.70,0.53,0.38,-1.27,1005.96
7.481,-0.13,0.98,-0.08,0.25,0.41,0.26,0.53,0.38,-1.27,1005.96
7.482,-0.13,0.98,-0.08,0.25,0.41,0.26,0.53,0.38,-1.27,1005.96
7.524,-0.13,0.98,-0.08,0.25,0.41,0.26,0.53,0.38,-1.27,1005.96
7.544,-0.17,0.96,-0.11,0.25,0.41,0.26,0.53,0.38,-1.27,1005.96
7.545,-0.11,0.97,-0.08,0.25,0.41,0.26,0.53,0.38,-1.27,1005.96
7.545,-0.00,1.01,-0.09,0.25,0.41,0.26,0.53,0.38,-1.27,1005.96
7.546,-0.00,1.01,-0.09,0.25,0.41,0.26,0.55,0.26,-1.29,1005.96
7.546,-0.00,1.01,-0.09,1.28,0.21,0.26,0.55,0.26,-1.29,1005.96
7.596,-0.05,1.08,-0.10,1.28,0.21,0.26,0.55,0.26,-1.29,1005.96
7.597,-0.10,1.13,-0.12,1.28,0.21,0.26,0.55,0.26,-1.29,1005.96
7.597,-0.04,1.19,-0.14,1.28,0.21,0.26,0.55,0.26,-1.29,1005.96
7.598,-0.04,1.19,-0.14,2.46,1.99,0.40,0.55,0.26,-1.29,1005.96
7.598,-0.04,1.19,-0.14,2.46,1.99,0.40,0.73,0.07,-1.66,1005.96
7.603,-0.04,1.19,-0.14,2.46,1.99,0.40,0.73,0.07,-1.66,1005.95
7.659,0.06,1.23,-0.09,2.46,1.99,0.40,0.73,0.07,-1.66,1005.95
7.661,0.11,1.21,-0.04,2.46,1.99,0.40,0.73,0.07,-1.66,1005.95
7.662,0.13,1.32,-0.03,2.46,1.99,0.40,0.73,0.07,-1.66,1005.95
7.663,0.13,1.32,-0.03,2.46,1.99,0.40,1.11,0.01,-2.14,1005.95
7.663,0.13,1.32,-0.03,5.08,3.69,1.56,1.11,0.01,-2.14,1005.95
7.682,0.13,1.32,-0.03,5.08,3.69,1.56,1.11,0.01,-2.14,1005.96
7.711,0.47,1.65,0.11,5.08,3.69,1.56,1.11,0.01,-2.14,1005.96
7.711,1.00,1.76,-0.06,5.08,3.69,1.56,1.11,0.01,-2.14,1005.96
7.712,0.92,1.53,-0.17,5.08,3.69,1.56,1.11,0.01,-2.14,1005.96
7.712,0.92,1.53,-0.17,5.08,3.69,1.56,1.34,1.17,-2.58,1005.96
7.713,0.92,1.53,-0.17,12.70,8.28,2.64,1.34,1.17,-2.58,1005.96
7.724,0.92,1.53,-0.17,12.70,8.28,2.64,1.34,1.17,-2.58,1005.97
7.769,-0.03,1.06,-0.13,12.70,8.28,2.64,1.34,1.17,-2.58,1005.97
7.77,-0.98,1.07,-0.32,12.70,8.28,2.64,1.34,1.17,-2.58,1005.97
7.77,-1.30,1.36,-0.49,12.70,8.28,2.64,1.34,1.17,-2.58,1005.97
7.771,-1.30,1.36,-0.49,12.70,8.28,2.64,1.76,2.30,-3.62,1005.97
7.771,-1.30,1.36,-0.49,-1.63,5.01,1.36,1.76,2.30,-3.62,1005.97
7.801,-1.30,1.36,-0.49,-1.63,5.01,1.36,1.76,2.30,-3.62,1005.95
7.827,-1.16,1.01,-0.55,-1.63,5.01,1.36,1.76,2.30,-3.62,1005.95
7.828,-0.88,0.61,-0.42,-1.63,5.01,1.36,1.76,2.30,-3.62,1005.95
7.828,-0.60,0.42,-0.47,-1.63,5.01,1.36,1.76,2.30,-3.62,1005.95
7.828,-0.60,0.42,-0.47,-1.63,5.01,1.36,0.86,-0.21,-1.11,1005.95
7.829,-0.60,0.42,-0.47,-2.19,0.87,0.00,0.86,-0.21,-1.11,1005.95
7.881,-0.60,0.42,-0.47,-2.19,0.87,0.00,0.86,-0.21,-1.11,1005.90
7.885,-0.31,0.29,-0.17,-2.19,0.87,0.00,0.86,-0.21,-1.11,1005.90
7.886,-0.01,0.03,0.13,-2.19,0.87,0.00,0.86,-0.21,-1.11,1005.90
7.886,0.08,-0.05,0.05,-2.19,0.87,0.00,0.86,-0.21,-1.11,1005.90
7.886,0.08,-0.05,0.05,-2.19,0.87,0.00,-0.92,-1.03,2.19,1005.90
7.886,0.08,-0.05,0.05,4.99,-5.85,3.95,-0.92,-1.03,2.19,1005.90
7.92,0.08,-0.05,0.05,4.99,-5.85,3.95,-0.92,-1.03,2.19,1005.91
7.945,-0.19,0.10,-0.08,4.99,-5.85,3.95,-0.92,-1.03,2.19,1005.91
7.946,-0.32,0.31,-0.41,4.99,-5.85,3.95,-0.92,-1.03,2.19,1005.91
7.946,-0.19,0.40,-0.55,4.99,-5.85,3.95,-0.92,-1.03,2.19,1005.91
7.946,-0.19,0.40,-0.55,1.94,-5.25,0.06,-0.92,-1.03,2.19,1005.91
7.946,-0.19,0.40,-0.55,1.94,-5.25,0.06,-0.29,-1.05,4.11,1005.91
8.003,-0.19,0.40,-0.55,1.94,-5.25,0.06,-0.29,-1.05,4.11,1005.97
8.004,-0.24,0.45,-0.23,1.94,-5.25,0.06,-0.29,-1.05,4.11,1005.97
8.004,-0.40,0.53,-0.38,1.94,-5.25,0.06,-0.29,-1.05,4.11,1005.97
8.004,-0.56,0.80,-0.61,1.94,-5.25,0.06,-0.29,-1.05,4.11,1005.97
8.004,-0.56,0.80,-0.61,1.94,-5.25,0.06,-0.46,-1.43,6.26,1005.97
8.004,-0.56,0.80,-0.61,-2.53,-3.16,-0.96,-0.46,-1.43,6.26,1005.97
8.062,-0.87,1.23,-0.57,-2.53,-3.16,-0.96,-0.46,-1.43,6.26,1005.97
8.063,-1.22,1.46,-0.55,-2.53,-3.16,-0.96,-0.46,-1.43,6.26,1005.97
8.064,-1.18,1.49,-0.62,-2.53,-3.16,-0.96,-0.46,-1.43,6.26,1005.97
8.064,-1.18,1.49,-0.62,-2.53,-3.16,-0.96,-0.19,-6.56,7.33,1005.97
8.065,-1.18,1.49,-0.62,-11.84,4.59,-2.65,-0.19,-6.56,7.33,1005.97
8.081,-1.18,1.49,-0.62,-11.84,4.59,-2.65,-0.19,-6.56,7.33,1005.93
8.121,-1.18,1.49,-0.62,-6.22,3.44,2.15,-0.19,-6.56,7.33,1005.93
8.122,-0.65,1.27,-0.47,-6.22,3.44,2.15,-0.19,-6.56,7.33,1005.93
8.123,-0.15,1.19,0.06,-6.22,3.44,2.15,-0.19,-6.56,7.33,1005.93
8.123,-0.62,1.28,-0.07,-6.22,3.44,2.15,-0.19,-6.56,7.33,1005.93
8.124,-0.62,1.28,-0.07,-6.22,3.44,2.15,-0.34,-9.57,4.68,1005.93
8.124,-0.62,1.28,-0.07,-6.22,3.44,2.15,-0.34,-9.57,4.68,1005.86
8.177,-0.74,1.49,0.28,-6.22,3.44,2.15,-0.34,-9.57,4.68,1005.86
8.178,0.77,0.68,2.02,-6.22,3.44,2.15,-0.34,-9.57,4.68,1005.86
8.178,1.29,1.18,0.52,-6.22,3.44,2.15,-0.34,-9.57,4.68,1005.86
8.179,1.29,1.18,0.52,-6.22,3.44,2.15,-0.86,-1.46,-0.38,1005.86
8.179,1.29,1.18,0.52,3.19,1.96,12.42,-0.86,-1.46,-0.38,1005.86
8.201,1.29,1.18,0.52,3.19,1.96,12.42,-0.86,-1.46,-0.38,1005.88
8.237,0.38,2.42,-0.52,3.19,1.96,12.42,-0.86,-1.46,-0.38,1005.88
8.238,-0.05,1.58,-1.12,3.19,1.96,12.42,-0.86,-1.46,-0.38,1005.88
8.239,-0.45,0.69,-0.40,3.19,1.96,12.42,-0.86,-1.46,-0.38,1005.88
8.239,-0.45,0.69,-0.40,3.19,1.96,12.42,-0.55,1.48,-1.63,1005.88
8.24,-0.45,0.69,-0.40,-0.88,6.07,-3.70,-0.55,1.48,-1.63,1005.88
8.282,-0.45,0.69,-0.40,-0.88,6.07,-3.70,-0.55,1.48,-1.63,1005.96
8.294,-0.35,0.82,-0.22,-0.88,6.07,-3.70,-0.55,1.48,-1.63,1005.96
8.295,-0.26,0.98,-0.04,-0.88,6.07,-3.70,-0.55,1.48,-1.63,1005.96
8.295,-0.10,0.96,-0.06,-0.88,6.07,-3.70,-0.55,1.48,-1.63,1005.96
8.296,-0.10,0.96,-0.06,-0.88,6.07,-3.70,-0.62,-1.42,-0.28,1005.96
8.296,-0.10,0.96,-0.06,-2.38,-0.33,1.55,-0.62,-1.42,-0.28,1005.96
8.321,-0.10,0.96,-0.06,-2.38,-0.33,1.55,-0.62,-1.42,-0.28,1005.96
8.353,0.06,0.92,-0.09,-2.38,-0.33,1.55,-0.62,-1.42,-0.28,1005.96
8.353,0.00,0.95,-0.17,-2.38,-0.33,1.55,-0.62,-1.42,-0.28,1005.96
8.353,-0.15,1.03,-0.26,-2.38,-0.33,1.55,-0.62,-1.42,-0.28,1005.96
8.354,-0.15,1.03,-0.26,-2.38,-0.33,1.55,-0.28,-0.35,0.06,1005.96
8.354,-0.15,1.03,-0.26,-0.36,0.06,0.71,-0.28,-0.35,0.06,1005.96
8.401,-0.15,1.03,-0.26,-0.36,0.06,0.71,-0.28,-0.35,0.06,1005.99
8.411,-0.26,0.99,-0.29,-0.36,0.06,0.71,-0.28,-0.35,0.06,1005.99
8.412,-0.30,0.96,-0.33,-0.36,0.06,0.71,-0.28,-0.35,0.06,1005.99
8.412,-0.11,1.00,-0.29,-0.36,0.06,0.71,-0.28,-0.35,0.06,1005.99
8.413,-0.11,1.00,-0.29,-0.36,0.06,0.71,-0.29,-0.81,0.47,1005.99
8.413,-0.11,1.00,-0.29,-2.34,0.19,-0.68,-0.29,-0.81,0.47,1005.99
8.47,0.16,0.98,-0.28,-2.34,0.19,-0.68,-0.29,-0.81,0.47,1005.99
8.471,0.24,0.93,-0.25,-2.34,0.19,-0.68,-0.29,-0.81,0.47,1005.99
8.472,0.19,0.95,-0.23,-2.34,0.19,-0.68,-0.29,-0.81,0.47,1005.99
8.472,0.19,0.95,-0.23,-2.34,0.19,-0.68,-0.31,-0.59,0.79,1005.99
8.473,0.19,0.95,-0.23,1.35,-0.09,-0.34,-0.31,-0.59,0.79,1005.99
8.481,0.19,0.95,-0.23,1.35,-0.09,-0.34,-0.31,-0.59,0.79,1005.99
8.521,0.19,0.95,-0.23,1.35,-0.09,-0.34,-0.31,-0.59,0.79,1005.97
8.529,0.04,0.95,-0.22,1.35,-0.09,-0.34,-0.31,-0.59,0.79,1005.97
8.531,-0.03,0.99,-0.21,1.35,-0.09,-0.34,-0.31,-0.59,0.79,1005.97
8.532,0.06,0.96,-0.15,1.35,-0.09,-0.34,-0.31,-0.59,0.79,1005.97
8.533,0.06,0.96,-0.15,1.35,-0.09,-0.34,-0.28,-0.37,0.53,1005.97
8.535,0.06,0.96,-0.15,-0.56,-0.00,0.08,-0.28,-0.37,0.53,1005.97
8.586,0.16,0.98,-0.14,-0.56,-0.00,0.08,-0.28,-0.37,0.53,1005.97
8.587,0.29,0.94,-0.12,-0.56,-0.00,0.08,-0.28,-0.37,0.53,1005.97
8.588,0.29,0.89,-0.03,-0.56,-0.00,0.08,-0.28,-0.37,0.53,1005.97
8.588,0.29,0.89,-0.03,-0.56,-0.00,0.08,-0.11,-0.69,0.45,1005.97
8.589,0.29,0.89,-0.03,1.44,-0.26,1.01,-0.11,-0.69,0.45,1005.97
8.601,0.29,0.89,-0.03,1.44,-0.26,1.01,-0.11,-0.69,0.45,1005.95
8.649,0.25,0.94,0.05,1.44,-0.26,1.01,-0.11,-0.69,0.45,1005.95
8.649,0.19,0.95,0.01,1.44,-0.26,1.01,-0.11,-0.69,0.45,1005.95
8.65,0.08,0.98,-0.19,1.44,-0.26,1.01,-0.11,-0.69,0.45,1005.95
8.65,0.08,0.98,-0.19,0.81,-0.02,1.74,-0.11,-0.69,0.45,1005.95
8.651,0.08,0.98,-0.19,0.81,-0.02,1.74,0.39,-0.36,-0.09,1005.95
8.681,0.08,0.98,-0.19,0.81,-0.02,1.74,0.39,-0.36,-0.09,1005.95
8.703,0.01,0.96,-0.24,0.81,-0.02,1.74,0.39,-0.36,-0.09,1005.95
8.704,-0.11,1.00,-0.19,0.81,-0.02,1.74,0.39,-0.36,-0.09,1005.95
8.704,-0.02,0.97,-0.23,0.81,-0.02,1.74,0.39,-0.36,-0.09,1005.95
8.705,-0.02,0.97,-0.23,0.81,-0.02,1.74,0.68,-0.23,-0.07,1005.95
8.705,-0.02,0.97,-0.23,-1.25,0.28,0.36,0.68,-0.23,-0.07,1005.95
8.72,-0.02,0.97,-0.23,-1.25,0.28,0.36,0.68,-0.23,-0.07,1005.96
8.761,0.14,0.98,-0.17,-1.25,0.28,0.36,0.68,-0.23,-0.07,1005.96
8.762,0.26,0.97,-0.15,-1.25,0.28,0.36,0.68,-0.23,-0.07,1005.96
8.763,0.28,0.95,-0.19,-1.25,0.28,0.36,0.68,-0.23,-0.07,1005.96
8.763,0.28,0.95,-0.19,-1.25,0.28,0.36,1.02,0.07,0.14,1005.96
8.764,0.28,0.95,-0.19,1.32,0.30,1.40,1.02,0.07,0.14,1005.96
8.802,0.28,0.95,-0.19,1.32,0.30,1.40,1.02,0.07,0.14,1005.97
8.82,0.22,0.98,-0.13,1.32,0.30,1.40,1.02,0.07,0.14,1005.97
8.822,0.16,1.11,-0.10,1.32,0.30,1.40,1.02,0.07,0.14,1005.97
8.823,0.27,1.26,-0.25,1.32,0.30,1.40,1.02,0.07,0.14,1005.97
8.824,0.27,1.26,-0.25,1.32,0.30,1.40,1.77,0.18,-0.06,1005.97
8.825,0.27,1.26,-0.25,1.18,2.12,2.35,1.77,0.18,-0.06,1005.97
8.878,0.56,1.39,-0.32,1.18,2.12,2.35,1.77,0.18,-0.06,1005.97
8.879,0.76,1.54,-0.20,1.18,2.12,2.35,1.77,0.18,-0.06,1005.97
8.879,0.43,1.63,-0.06,1.18,2.12,2.35,1.77,0.18,-0.06,1005.97
8.879,0.43,1.63,-0.06,1.18,2.12,2.35,2.65,-1.06,-0.11,1005.97
8.88,0.43,1.63,-0.06,5.00,6.65,3.32,2.65,-1.06,-0.11,1005.97
8.88,0.43,1.63,-0.06,5.00,6.65,3.32,2.65,-1.06,-0.11,1005.96
8.921,0.43,1.63,-0.06,5.00,6.65,3.32,2.65,-1.06,-0.11,1005.95
8.937,-0.21,1.67,0.29,5.00,6.65,3.32,2.65,-1.06,-0.11,1005.95
8.938,-0.93,1.55,0.39,5.00,6.65,3.32,2.65,-1.06,-0.11,1005.95
8.938,-1.27,1.29,-0.18,5.00,6.65,3.32,2.65,-1.06,-0.11,1005.95
8.939,-1.27,1.29,-0.18,5.00,6.65,3.32,2.44,-3.33,-0.39,1005.95
8.939,-1.27,1.29,-0.18,-7.15,7.20,7.87,2.44,-3.33,-0.39,1005.95
8.994,-1.23,1.15,-0.64,-7.15,7.20,7.87,2.44,-3.33,-0.39,1005.95
8.995,-0.75,1.33,-0.83,-7.15,7.20,7.87,2.44,-3.33,-0.39,1005.95
8.995,0.10,1.08,-0.28,-7.15,7.20,7.87,2.44,-3.33,-0.39,1005.95
8.995,0.10,1.08,-0.28,-7.15,7.20,7.87,1.74,-5.31,0.56,1005.95
8.996,0.10,1.08,-0.28,-3.55,4.62,0.73,1.74,-5.31,0.56,1005.95
9.002,0.10,1.08,-0.28,-3.55,4.62,0.73,1.74,-5.31,0.56,1005.95
9.053,0.40,0.68,0.08,-3.55,4.62,0.73,1.74,-5.31,0.56,1005.95
9.054,-0.04,0.64,0.15,-3.55,4.62,0.73,1.74,-5.31,0.56,1005.95
9.054,-0.53,0.65,0.10,-3.55,4.62,0.73,1.74,-5.31,0.56,1005.95
9.054,-0.53,0.65,0.10,-3.55,4.62,0.73,0.36,-4.87,0.91,1005.95
9.055,-0.53,0.65,0.10,3.31,-0.63,6.60,0.36,-4.87,0.91,1005.95
9.081,-0.53,0.65,0.10,3.31,-0.63,6.60,0.36,-4.87,0.91,1005.92
9.111,-0.67,0.59,-0.06,3.31,-0.63,6.60,0.36,-4.87,0.91,1005.92
9.112,-0.50,0.55,-0.14,3.31,-0.63,6.60,0.36,-4.87,0.91,1005.92
9.112,-0.28,0.53,0.00,3.31,-0.63,6.60,0.36,-4.87,0.91,1005.92
9.113,-0.28,0.53,0.00,3.31,-0.63,6.60,-0.49,-3.95,2.40,1005.92
9.113,-0.28,0.53,0.00,-0.70,-2.25,3.69,-0.49,-3.95,2.40,1005.92
9.121,-0.28,0.53,0.00,-0.70,-2.25,3.69,-0.49,-3.95,2.40,1005.95
9.169,-0.18,0.57,0.08,-0.70,-2.25,3.69,-0.49,-3.95,2.40,1005.95
9.17,-0.17,0.69,0.04,-0.70,-2.25,3.69,-0.49,-3.95,2.40,1005.95
9.171,-0.16,0.79,0.03,-0.70,-2.25,3.69,-0.49,-3.95,2.40,1005.95
9.171,-0.16,0.79,0.03,-0.70,-2.25,3.69,-0.91,-3.04,4.32,1005.95
9.172,-0.16,0.79,0.03,0.95,-2.01,3.68,-0.91,-3.04,4.32,1005.95
9.202,-0.16,0.79,0.03,0.95,-2.01,3.68,-0.91,-3.04,4.32,1005.94
9.227,-0.17,0.88,0.02,0.95,-2.01,3.68,-0.91,-3.04,4.32,1005.94
9.228,-0.17,1.00,-0.04,0.95,-2.01,3.68,-0.91,-3.04,4.32,1005.94
9.228,-0.14,1.16,-0.14,0.95,-2.01,3.68,-0.91,-3.04,4.32,1005.94
9.229,-0.14,1.16,-0.14,0.95,-2.01,3.68,-1.40,-1.39,5.00,1005.94
9.229,-0.14,1.16,-0.14,-1.40,0.55,1.77,-1.40,-1.39,5.00,1005.94
9.281,-0.14,1.16,-0.14,-1.40,0.55,1.77,-1.40,-1.39,5.00,1005.93
9.288,-0.26,1.31,-0.18,-1.40,0.55,1.77,-1.40,-1.39,5.00,1005.93
9.289,-0.42,1.39,-0.18,-1.40,0.55,1.77,-1.40,-1.39,5.00,1005.93
9.29,-0.55,1.40,-0.23,-1.40,0.55,1.77,-1.40,-1.39,5.00,1005.93
9.291,-0.55,1.40,-0.23,-1.40,0.55,1.77,-2.24,0.13,5.05,1005.93
9.292,-0.55,1.40,-0.23,-6.50,4.05,-0.89,-2.24,0.13,5.05,1005.93
9.322,-0.55,1.40,-0.23,-6.50,4.05,-0.89,-2.24,0.13,5.05,1005.89
9.344,-0.64,1.38,-0.26,-6.50,4.05,-0.89,-2.24,0.13,5.05,1005.89
9.345,-0.79,1.32,-0.36,-6.50,4.05,-0.89,-2.24,0.13,5.05,1005.89
9.345,-0.97,1.16,-0.50,-6.50,4.05,-0.89,-2.24,0.13,5.05,1005.89
9.345,-0.97,1.16,-0.50,-6.50,4.05,-0.89,-2.07,0.57,3.40,1005.89
9.345,-0.97,1.16,-0.50,-11.94,3.84,-3.76,-2.07,0.57,3.40,1005.89
9.401,-0.97,1.16,-0.50,-11.94,3.84,-3.76,-2.07,0.57,3.40,1005.88
9.403,-1.14,0.90,-0.54,-11.94,3.84,-3.76,-2.07,0.57,3.40,1005.88
9.403,-1.07,0.78,-0.60,-11.94,3.84,-3.76,-2.07,0.57,3.40,1005.88
9.403,-0.93,1.08,-1.19,-11.94,3.84,-3.76,-2.07,0.57,3.40,1005.88
9.404,-0.93,1.08,-1.19,-11.94,3.84,-3.76,-0.56,-1.10,-0.47,1005.88
9.404,-0.93,1.08,-1.19,-13.89,0.13,-7.61,-0.56,-1.10,-0.47,1005.88
9.461,-0.08,1.82,-0.87,-13.89,0.13,-7.61,-0.56,-1.10,-0.47,1005.88
9.461,2.24,1.52,0.34,-13.89,0.13,-7.61,-0.56,-1.10,-0.47,1005.88
9.462,1.77,1.28,-0.40,-13.89,0.13,-7.61,-0.56,-1.10,-0.47,1005.88
9.462,1.77,1.28,-0.40,-13.89,0.13,-7.61,-0.33,-3.85,-0.84,1005.88
9.462,1.77,1.28,-0.40,9.55,5.97,-2.42,-0.33,-3.85,-0.84,1005.88
9.481,1.77,1.28,-0.40,9.55,5.97,-2.42,-0.33,-3.85,-0.84,1005.87
9.518,-0.41,1.11,-0.94,9.55,5.97,-2.42,-0.33,-3.85,-0.84,1005.87
9.519,-0.39,0.67,0.20,9.55,5.97,-2.42,-0.33,-3.85,-0.84,1005.87
9.52,-0.44,0.75,0.39,9.55,5.97,-2.42,-0.33,-3.85,-0.84,1005.87
9.52,-0.44,0.75,0.39,-5.61,-1.26,-0.27,-0.33,-3.85,-0.84,1005.87
9.521,-0.44,0.75,0.39,-5.61,-1.26,-0.27,0.29,-0.33,-2.96,1005.87
9.521,-0.44,0.75,0.39,-5.61,-1.26,-0.27,0.29,-0.33,-2.96,1005.85
9.577,-0.34,1.12,0.15,-5.61,-1.26,-0.27,0.29,-0.33,-2.96,1005.85
9.578,-0.12,1.14,-0.03,-5.61,-1.26,-0.27,0.29,-0.33,-2.96,1005.85
9.578,0.01,1.02,-0.06,-5.61,-1.26,-0.27,0.29,-0.33,-2.96,1005.85
9.578,0.01,1.02,-0.06,-5.61,-1.26,-0.27,0.31,-0.05,-1.37,1005.85
9.579,0.01,1.02,-0.06,-2.21,1.10,1.25,0.31,-0.05,-1.37,1005.85
9.601,0.01,1.02,-0.06,-2.21,1.10,1.25,0.31,-0.05,-1.37,1005.95
9.64,0.01,1.02,-0.06,0.77,0.50,0.04,0.31,-0.05,-1.37,1005.95
9.641,0.19,1.06,-0.19,0.77,0.50,0.04,0.31,-0.05,-1.37,1005.95
9.641,0.18,1.04,-0.14,0.77,0.50,0.04,0.31,-0.05,-1.37,1005.95
9.641,-0.10,1.00,-0.05,0.77,0.50,0.04,0.31,-0.05,-1.37,1005.95
9.642,-0.10,1.00,-0.05,0.77,0.50,0.04,0.37,-0.33,-1.14,1005.95
9.68,-0.10,1.00,-0.05,0.77,0.50,0.04,0.37,-0.33,-1.14,1005.97
9.694,-0.23,0.99,-0.11,0.77,0.50,0.04,0.37,-0.33,-1.14,1005.97
9.694,-0.11,0.99,-0.13,0.77,0.50,0.04,0.37,-0.33,-1.14,1005.97
9.695,-0.03,0.98,-0.15,0.77,0.50,0.04,0.37,-0.33,-1.14,1005.97
9.695,-0.03,0.98,-0.15,0.77,0.50,0.04,0.40,-0.29,-1.02,1005.97
9.696,-0.03,0.98,-0.15,-0.69,0.11,0.21,0.40,-0.29,-1.02,1005.97
9.721,-0.03,0.98,-0.15,-0.69,0.11,0.21,0.40,-0.29,-1.02,1005.98
9.755,-0.06,1.02,-0.16,-0.69,0.11,0.21,0.40,-0.29,-1.02,1005.98
9.764,-0.09,1.03,-0.16,-0.69,0.11,0.21,0.40,-0.29,-1.02,1005.98
9.765,-0.10,1.03,-0.16,-0.69,0.11,0.21,0.40,-0.29,-1.02,1005.98
9.765,-0.10,1.03,-0.16,0.22,0.49,0.05,0.40,-0.29,-1.02,1005.98
9.765,-0.10,1.03,-0.16,0.22,0.49,0.05,0.32,-0.04,-0.93,1005.98
9.801,-0.10,1.03,-0.16,0.22,0.49,0.05,0.32,-0.04,-0.93,1005.98
9.812,-0.09,1.02,-0.15,0.22,0.49,0.05,0.32,-0.04,-0.93,1005.98
9.812,-0.04,1.02,-0.12,0.22,0.49,0.05,0.32,-0.04,-0.93,1005.98
9.812,-0.02,1.01,-0.10,0.22,0.49,0.05,0.32,-0.04,-0.93,1005.98
9.813,-0.02,1.01,-0.10,0.22,0.49,0.05,0.36,0.06,-0.99,1005.98
9.813,-0.02,1.01,-0.10,1.09,0.52,0.61,0.36,0.06,-0.99,1005.98
9.87,-0.07,1.00,-0.13,1.09,0.52,0.61,0.36,0.06,-0.99,1005.98
9.871,-0.06,0.99,-0.15,1.09,0.52,0.61,0.36,0.06,-0.99,1005.98
9.872,-0.03,1.04,-0.12,1.09,0.52,0.61,0.36,0.06,-0.99,1005.98
9.872,-0.03,1.04,-0.12,1.09,0.52,0.61,0.51,0.14,-1.31,1005.98
9.872,-0.03,1.04,-0.12,1.70,0.68,0.83,0.51,0.14,-1.31,1005.98
9.881,-0.03,1.04,-0.12,1.70,0.68,0.83,0.51,0.14,-1.31,1005.96
9.921,-0.03,1.04,-0.12,1.70,0.68,0.83,0.51,0.14,-1.31,1005.94
9.927,-0.06,1.11,-0.13,1.70,0.68,0.83,0.51,0.14,-1.31,1005.94
9.928,-0.10,1.15,-0.12,1.70,0.68,0.83,0.51,0.14,-1.31,1005.94
9.928,-0.03,1.18,-0.10,1.70,0.68,0.83,0.51,0.14,-1.31,1005.94
9.928,-0.03,1.18,-0.10,1.70,0.68,0.83,0.89,-0.12,-1.68,1005.94
9.929,-0.03,1.18,-0.10,2.44,2.34,1.42,0.89,-0.12,-1.68,1005.94
9.986,0.09,1.24,-0.07,2.44,2.34,1.42,0.89,-0.12,-1.68,1005.94
9.988,0.24,1.36,-0.06,2.44,2.34,1.42,0.89,-0.12,-1.68,1005.94
9.988,0.58,1.72,0.18,2.44,2.34,1.42,0.89,-0.12,-1.68,1005.94
9.988,0.58,1.72,0.18,2.44,2.34,1.42,1.33,0.15,-2.02,1005.94
9.989,0.58,1.72,0.18,6.92,5.79,3.36,1.33,0.15,-2.02,1005.94
10.001,0.58,1.72,0.18,6.92,5.79,3.36,1.33,0.15,-2.02,1005.95
10.045,1.12,1.93,0.12,6.92,5.79,3.36,1.33,0.15,-2.02,1005.95
10.052,1.02,1.54,0.05,6.92,5.79,3.36,1.33,0.15,-2.02,1005.95
10.052,0.03,1.15,-0.07,6.92,5.79,3.36,1.33,0.15,-2.02,1005.95
10.052,0.03,1.15,-0.07,6.92,5.79,3.36,1.53,1.28,-2.75,1005.95
10.054,0.03,1.15,-0.07,11.81,7.66,4.44,1.53,1.28,-2.75,1005.95
10.081,0.03,1.15,-0.07,11.81,7.66,4.44,1.53,1.28,-2.75,1005.94
10.102,-0.84,1.28,-0.33,11.81,7.66,4.44,1.53,1.28,-2.75,1005.94
10.104,-1.11,1.46,-0.38,11.81,7.66,4.44,1.53,1.28,-2.75,1005.94
10.104,-0.78,1.07,-0.57,11.81,7.66,4.44,1.53,1.28,-2.75,1005.94
10.105,-0.78,1.07,-0.57,11.81,7.66,4.44,1.85,1.88,-3.33,1005.94
10.105,-0.78,1.07,-0.57,-3.39,6.43,1.23,1.85,1.88,-3.33,1005.94
10.121,-0.78,1.07,-0.57,-3.39,6.43,1.23,1.85,1.88,-3.33,1005.92
10.162,-0.61,0.67,-0.42,-3.39,6.43,1.23,1.85,1.88,-3.33,1005.92
10.163,-0.61,0.49,-0.55,-3.39,6.43,1.23,1.85,1.88,-3.33,1005.92
10.164,-0.41,0.41,-0.56,-3.39,6.43,1.23,1.85,1.88,-3.33,1005.92
10.164,-0.41,0.41,-0.56,-3.39,6.43,1.23,-0.27,-0.09,-0.42,1005.92
10.164,-0.41,0.41,-0.56,0.39,-0.85,0.27,-0.27,-0.09,-0.42,1005.92
10.202,-0.41,0.41,-0.56,0.39,-0.85,0.27,-0.27,-0.09,-0.42,1005.90
10.22,-0.21,0.18,-0.14,0.39,-0.85,0.27,-0.27,-0.09,-0.42,1005.90
10.221,-0.06,0.05,-0.11,0.39,-0.85,0.27,-0.27,-0.09,-0.42,1005.90
10.221,0.01,0.16,-0.24,0.39,-0.85,0.27,-0.27,-0.09,-0.42,1005.90
10.221,0.01,0.16,-0.24,0.39,-0.85,0.27,-2.22,-0.49,2.67,1005.90
10.222,0.01,0.16,-0.24,3.89,-6.01,2.64,-2.22,-0.49,2.67,1005.90
10.278,0.01,0.41,-0.42,3.89,-6.01,2.64,-2.22,-0.49,2.67,1005.90
10.279,0.07,0.57,-0.46,3.89,-6.01,2.64,-2.22,-0.49,2.67,1005.90
10.28,-0.04,0.66,-0.47,3.89,-6.01,2.64,-2.22,-0.49,2.67,1005.90
10.28,-0.04,0.66,-0.47,3.89,-6.01,2.64,-2.60,0.18,4.15,1005.90
10.28,-0.04,0.66,-0.47,2.85,-3.38,-1.35,-2.60,0.18,4.15,1005.90
10.281,-0.04,0.66,-0.47,2.85,-3.38,-1.35,-2.60,0.18,4.15,1005.92
10.324,-0.04,0.66,-0.47,2.85,-3.38,-1.35,-2.60,0.18,4.15,1005.95
10.337,-0.16,0.70,-0.47,2.85,-3.38,-1.35,-2.60,0.18,4.15,1005.95
10.338,-0.12,0.87,-0.53,2.85,-3.38,-1.35,-2.60,0.18,4.15,1005.95
10.338,-0.14,1.17,-0.48,2.85,-3.38,-1.35,-2.60,0.18,4.15,1005.95
10.339,-0.14,1.17,-0.48,2.85,-3.38,-1.35,-2.64,0.70,5.19,1005.95
10.339,-0.14,1.17,-0.48,-1.53,-0.49,-3.07,-2.64,0.70,5.19,1005.95
10.395,-0.35,1.53,-0.52,-1.53,-0.49,-3.07,-2.64,0.70,5.19,1005.95
10.395,-0.55,1.68,-0.60,-1.53,-0.49,-3.07,-2.64,0.70,5.19,1005.95
10.396,-0.50,1.57,-0.46,-1.53,-0.49,-3.07,-2.64,0.70,5.19,1005.95
10.396,-0.50,1.57,-0.46,-7.68,6.43,-4.98,-2.64,0.70,5.19,1005.95
10.397,-0.50,1.57,-0.46,-7.68,6.43,-4.98,-2.98,0.28,5.58,1005.95
10.402,-0.50,1.57,-0.46,-7.68,6.43,-4.98,-2.98,0.28,5.58,1005.92
10.455,-0.35,1.39,-0.21,-7.68,6.43,-4.98,-2.98,0.28,5.58,1005.92
10.456,-0.18,1.27,-0.15,-7.68,6.43,-4.98,-2.98,0.28,5.58,1005.92
10.456,-0.46,1.08,-0.20,-7.68,6.43,-4.98,-2.98,0.28,5.58,1005.92
10.456,-0.46,1.08,-0.20,-7.68,6.43,-4.98,-2.00,0.39,3.81,1005.92
10.457,-0.46,1.08,-0.20,-8.10,3.91,-2.71,-2.00,0.39,3.81,1005.92
10.482,-0.46,1.08,-0.20,-8.10,3.91,-2.71,-2.00,0.39,3.81,1005.88
10.511,-0.72,0.86,-0.34,-8.10,3.91,-2.71,-2.00,0.39,3.81,1005.88
10.512,-0.77,0.75,-0.30,-8.10,3.91,-2.71,-2.00,0.39,3.81,1005.88
10.512,-0.71,0.89,-0.36,-8.10,3.91,-2.71,-2.00,0.39,3.81,1005.88
10.513,-0.71,0.89,-0.36,-8.10,3.91,-2.71,0.08,0.38,-0.73,1005.88
10.513,-0.71,0.89,-0.36,-11.50,-0.33,-4.14,0.08,0.38,-0.73,1005.88
10.522,-0.71,0.89,-0.36,-11.50,-0.33,-4.14,0.08,0.38,-0.73,1005.88
10.569,-0.34,1.43,-0.55,-11.50,-0.33,-4.14,0.08,0.38,-0.73,1005.88
10.57,1.55,1.67,0.64,-11.50,-0.33,-4.14,0.08,0.38,-0.73,1005.88
10.571,2.47,1.28,0.45,-11.50,-0.33,-4.14,0.08,0.38,-0.73,1005.88
10.571,2.47,1.28,0.45,-11.50,-0.33,-4.14,-0.10,-1.31,-1.34,1005.88
10.571,2.47,1.28,0.45,8.21,5.43,1.08,-0.10,-1.31,-1.34,1005.88
10.601,2.47,1.28,0.45,8.21,5.43,1.08,-0.10,-1.31,-1.34,1005.89
10.627,-0.24,1.36,-0.69,8.21,5.43,1.08,-0.10,-1.31,-1.34,1005.89
10.628,-1.22,1.27,-0.83,8.21,5.43,1.08,-0.10,-1.31,-1.34,1005.89
10.628,-0.39,0.90,0.09,8.21,5.43,1.08,-0.10,-1.31,-1.34,1005.89
10.628,-0.39,0.90,0.09,8.21,5.43,1.08,0.44,-0.69,-2.93,1005.89
10.629,-0.39,0.90,0.09,-8.20,2.04,-4.85,0.44,-0.69,-2.93,1005.89
10.681,-0.39,0.90,0.09,-8.20,2.04,-4.85,0.44,-0.69,-2.93,1005.90
10.685,0.19,0.84,0.41,-8.20,2.04,-4.85,0.44,-0.69,-2.93,1005.90
10.686,0.16,1.05,0.20,-8.20,2.04,-4.85,0.44,-0.69,-2.93,1005.90
10.686,-0.06,1.08,-0.08,-8.20,2.04,-4.85,0.44,-0.69,-2.93,1005.90
10.686,-0.06,1.08,-0.08,-8.20,2.04,-4.85,0.16,-0.29,-1.55,1005.90
10.686,-0.06,1.08,-0.08,-0.32,0.10,1.61,0.16,-0.29,-1.55,1005.90
10.722,-0.06,1.08,-0.08,-0.32,0.10,1.61,0.16,-0.29,-1.55,1005.95
10.745,-0.14,1.02,0.00,-0.32,0.10,1.61,0.16,-0.29,-1.55,1005.95
10.746,0.02,1.04,-0.03,-0.32,0.10,1.61,0.16,-0.29,-1.55,1005.95
10.746,0.11,1.04,-0.02,-0.32,0.10,1.61,0.16,-0.29,-1.55,1005.95
10.747,0.11,1.04,-0.02,-0.32,0.10,1.61,0.25,0.10,-1.11,1005.95
10.747,0.11,1.04,-0.02,-0.65,0.42,-0.15,0.25,0.10,-1.11,1005.95
10.802,0.11,1.04,-0.02,-0.65,0.42,-0.15,0.25,0.10,-1.11,1005.95
10.804,0.11,1.04,-0.02,0.02,0.15,0.69,0.25,0.10,-1.11,1005.95
10.805,-0.01,1.01,0.07,0.02,0.15,0.69,0.25,0.10,-1.11,1005.95
10.806,-0.05,1.02,0.06,0.02,0.15,0.69,0.25,0.10,-1.11,1005.95
10.807,0.10,0.98,0.03,0.02,0.15,0.69,0.25,0.10,-1.11,1005.95
10.808,0.10,0.98,0.03,0.02,0.15,0.69,0.28,-0.17,-0.91,1005.95
10.862,0.18,0.95,0.07,0.02,0.15,0.69,0.28,-0.17,-0.91,1005.95
10.865,0.10,0.98,0.09,0.02,0.15,0.69,0.28,-0.17,-0.91,1005.95
10.866,0.00,0.99,0.06,0.02,0.15,0.69,0.28,-0.17,-0.91,1005.95
10.867,0.00,0.99,0.06,0.02,0.15,0.69,0.43,0.26,-1.07,1005.95
10.868,0.00,0.99,0.06,1.39,-0.17,1.10,0.43,0.26,-1.07,1005.95
10.897,0.00,0.99,0.06,1.39,-0.17,1.10,0.43,0.26,-1.07,1005.95
10.919,-0.01,1.01,0.02,1.39,-0.17,1.10,0.43,0.26,-1.07,1005.95
10.921,0.02,1.03,-0.00,1.39,-0.17,1.10,0.43,0.26,-1.07,1005.95
10.921,-0.03,1.01,-0.05,1.39,-0.17,1.10,0.43,0.26,-1.07,1005.95
10.922,-0.03,1.01,-0.05,1.39,-0.17,1.10,0.61,0.28,-1.34,1005.95
10.922,-0.03,1.01,-0.05,1.11,0.35,0.65,0.61,0.28,-1.34,1005.95
10.923,-0.03,1.01,-0.05,1.11,0.35,0.65,0.61,0.28,-1.34,1005.94
10.979,-0.09,0.99,-0.10,1.11,0.35,0.65,0.61,0.28,-1.34,1005.94
10.981,-0.08,0.98,-0.13,1.11,0.35,0.65,0.61,0.28,-1.34,1005.94
10.982,-0.13,0.97,-0.14,1.11,0.35,0.65,0.61,0.28,-1.34,1005.94
10.982,-0.13,0.97,-0.14,1.11,0.35,0.65,0.65,0.51,-1.56,1005.94
10.983,-0.13,0.97,-0.14,1.01,0.18,-0.05,0.65,0.51,-1.56,1005.94
11.003,-0.13,0.97,-0.14,1.01,0.18,-0.05,0.65,0.51,-1.56,1005.95
11.035,-0.23,1.00,-0.16,1.01,0.18,-0.05,0.65,0.51,-1.56,1005.95
11.036,-0.23,1.02,-0.20,1.01,0.18,-0.05,0.65,0.51,-1.56,1005.95
11.037,-0.27,0.99,-0.17,1.01,0.18,-0.05,0.65,0.51,-1.56,1005.95
11.037,-0.27,0.99,-0.17,1.01,0.18,-0.05,0.62,0.49,-1.68,1005.95
11.037,-0.27,0.99,-0.17,0.51,0.66,-0.17,0.62,0.49,-1.68,1005.95
11.083,-0.27,0.99,-0.17,0.51,0.66,-0.17,0.62,0.49,-1.68,1005.97
11.095,-0.23,1.06,-0.10,0.51,0.66,-0.17,0.62,0.49,-1.68,1005.97
11.096,-0.09,1.19,-0.07,0.51,0.66,-0.17,0.62,0.49,-1.68,1005.97
11.097,0.00,1.20,-0.13,0.51,0.66,-0.17,0.62,0.49,-1.68,1005.97
11.098,0.00,1.20,-0.13,0.51,0.66,-0.17,0.79,-0.06,-1.70,1005.97
11.099,0.00,1.20,-0.13,2.70,2.46,0.94,0.79,-0.06,-1.70,1005.97
11.122,0.00,1.20,-0.13,2.70,2.46,0.94,0.79,-0.06,-1.70,1005.96
11.152,0.01,1.24,-0.17,2.70,2.46,0.94,0.79,-0.06,-1.70,1005.96
11.154,0.15,1.55,-0.12,2.70,2.46,0.94,0.79,-0.06,-1.70,1005.96
11.155,0.59,1.90,0.07,2.70,2.46,0.94,0.79,-0.06,-1.70,1005.96
11.155,0.59,1.90,0.07,2.70,2.46,0.94,1.12,0.73,-2.03,1005.96
11.156,0.59,1.90,0.07,6.92,7.07,1.93,1.12,0.73,-2.03,1005.96
11.202,0.59,1.90,0.07,6.92,7.07,1.93,1.12,0.73,-2.03,1005.96
11.21,1.15,1.83,-0.04,6.92,7.07,1.93,1.12,0.73,-2.03,1005.96
11.211,0.82,1.31,-0.08,6.92,7.07,1.93,1.12,0.73,-2.03,1005.96
11.211,-0.39,0.93,-0.13,6.92,7.07,1.93,1.12,0.73,-2.03,1005.96
11.212,-0.39,0.93,-0.13,6.92,7.07,1.93,1.32,1.94,-2.63,1005.96
11.212,-0.39,0.93,-0.13,10.30,5.96,2.93,1.32,1.94,-2.63,1005.96
11.269,-1.23,1.28,-0.40,10.30,5.96,2.93,1.32,1.94,-2.63,1005.96
11.27,-1.19,1.42,-0.41,10.30,5.96,2.93,1.32,1.94,-2.63,1005.96
11.27,-0.84,0.85,-0.29,10.30,5.96,2.93,1.32,1.94,-2.63,1005.96
11.27,-0.84,0.85,-0.29,-4.68,5.49,1.29,1.32,1.94,-2.63,1005.96
11.271,-0.84,0.85,-0.29,-4.68,5.49,1.29,1.77,1.36,-2.79,1005.96
11.284,-0.84,0.85,-0.29,-4.68,5.49,1.29,1.77,1.36,-2.79,1005.95
11.322,-0.84,0.85,-0.29,-4.68,5.49,1.29,1.77,1.36,-2.79,1005.92
11.328,-0.74,0.57,-0.23,-4.68,5.49,1.29,1.77,1.36,-2.79,1005.92
11.329,-0.63,0.42,-0.43,-4.68,5.49,1.29,1.77,1.36,-2.79,1005.92
11.329,-0.41,0.35,-0.02,-4.68,5.49,1.29,1.77,1.36,-2.79,1005.92
11.329,-0.41,0.35,-0.02,-4.68,5.49,1.29,-0.07,-0.60,0.39,1005.92
11.33,-0.41,0.35,-0.02,0.19,-1.85,2.36,-0.07,-0.60,0.39,1005.92
11.385,-0.23,0.10,0.20,0.19,-1.85,2.36,-0.07,-0.60,0.39,1005.92
11.386,-0.15,0.04,0.18,0.19,-1.85,2.36,-0.07,-0.60,0.39,1005.92
11.386,-0.21,0.20,-0.01,0.19,-1.85,2.36,-0.07,-0.60,0.39,1005.92
11.387,-0.21,0.20,-0.01,0.19,-1.85,2.36,-0.82,-1.20,3.27,1005.92
11.387,-0.21,0.20,-0.01,3.00,-6.24,4.98,-0.82,-1.20,3.27,1005.92
11.402,-0.21,0.20,-0.01,3.00,-6.24,4.98,-0.82,-1.20,3.27,1005.91
11.445,-0.31,0.44,-0.31,3.00,-6.24,4.98,-0.82,-1.20,3.27,1005.91
11.445,-0.47,0.51,-0.08,3.00,-6.24,4.98,-0.82,-1.20,3.27,1005.91
11.446,-0.53,0.49,-0.03,3.00,-6.24,4.98,-0.82,-1.20,3.27,1005.91
11.446,-0.53,0.49,-0.03,3.00,-6.24,4.98,-0.61,-1.60,5.09,1005.91
11.446,-0.53,0.49,-0.03,-1.41,-3.89,1.75,-0.61,-1.60,5.09,1005.91
11.482,-0.53,0.49,-0.03,-1.41,-3.89,1.75,-0.61,-1.60,5.09,1005.97
11.503,-0.60,0.63,-0.23,-1.41,-3.89,1.75,-0.61,-1.60,5.09,1005.97
11.504,-0.74,0.99,-0.34,-1.41,-3.89,1.75,-0.61,-1.60,5.09,1005.97
11.504,-1.03,1.36,-0.39,-1.41,-3.89,1.75,-0.61,-1.60,5.09,1005.97
11.504,-1.03,1.36,-0.39,-1.41,-3.89,1.75,-0.27,-3.78,6.54,1005.97
11.505,-1.03,1.36,-0.39,-7.52,0.51,-0.46,-0.27,-3.78,6.54,1005.97
11.523,-1.03,1.36,-0.39,-7.52,0.51,-0.46,-0.27,-3.78,6.54,1005.97
11.561,-1.06,1.44,-0.47,-7.52,0.51,-0.46,-0.27,-3.78,6.54,1005.97
11.564,-0.62,1.40,-0.49,-7.52,0.51,-0.46,-0.27,-3.78,6.54,1005.97
11.565,-0.20,1.34,-0.30,-7.52,0.51,-0.46,-0.27,-3.78,6.54,1005.97
11.565,-0.20,1.34,-0.30,-7.52,0.51,-0.46,0.09,-8.36,6.94,1005.97
11.566,-0.20,1.34,-0.30,-8.12,4.81,-0.87,0.09,-8.36,6.94,1005.97
11.601,-0.20,1.34,-0.30,-8.12,4.81,-0.87,0.09,-8.36,6.94,1005.90
11.62,-0.10,1.32,-0.02,-8.12,4.81,-0.87,0.09,-8.36,6.94,1005.90
11.62,-0.07,1.24,0.24,-8.12,4.81,-0.87,0.09,-8.36,6.94,1005.90
11.62,-0.01,0.98,0.50,-8.12,4.81,-0.87,0.09,-8.36,6.94,1005.90
11.621,-0.01,0.98,0.50,-2.52,2.89,6.14,0.09,-8.36,6.94,1005.90
11.621,-0.01,0.98,0.50,-2.52,2.89,6.14,-0.78,-8.40,3.52,1005.90
11.677,-0.29,0.89,0.31,-2.52,2.89,6.14,-0.78,-8.40,3.52,1005.90
11.677,-0.39,0.97,0.25,-2.52,2.89,6.14,-0.78,-8.40,3.52,1005.90
11.678,-0.82,1.48,-0.07,-2.52,2.89,6.14,-0.78,-8.40,3.52,1005.90
11.678,-0.82,1.48,-0.07,-2.52,2.89,6.14,-0.65,-3.10,0.08,1005.90
11.678,-0.82,1.48,-0.07,-6.03,2.10,5.31,-0.65,-3.10,0.08,1005.90
11.682,-0.82,1.48,-0.07,-6.03,2.10,5.31,-0.65,-3.10,0.08,1005.87
11.722,-0.82,1.48,-0.07,-6.03,2.10,5.31,-0.65,-3.10,0.08,1005.96
11.736,-0.49,1.47,0.44,-6.03,2.10,5.31,-0.65,-3.10,0.08,1005.96
11.737,0.19,0.96,0.03,-6.03,2.10,5.31,-0.65,-3.10,0.08,1005.96
11.737,0.20,1.01,-0.74,-6.03,2.10,5.31,-0.65,-3.10,0.08,1005.96
11.737,0.20,1.01,-0.74,-6.03,2.10,5.31,-0.85,0.08,-0.97,1005.96
11.737,0.20,1.01,-0.74,-0.97,2.20,2.33,-0.85,0.08,-0.97,1005.96
11.794,0.01,1.35,-0.95,-0.97,2.20,2.33,-0.85,0.08,-0.97,1005.96
11.795,-0.11,1.23,-0.58,-0.97,2.20,2.33,-0.85,0.08,-0.97,1005.96
11.795,0.04,0.97,-0.41,-0.97,2.20,2.33,-0.85,0.08,-0.97,1005.96
11.796,0.04,0.97,-0.41,-0.97,2.20,2.33,-0.74,-0.90,-0.27,1005.96
11.796,0.04,0.97,-0.41,-0.53,2.36,-3.41,-0.74,-0.90,-0.27,1005.96
11.802,0.04,0.97,-0.41,-0.53,2.36,-3.41,-0.74,-0.90,-0.27,1005.97
11.853,0.16,0.96,-0.13,-0.53,2.36,-3.41,-0.74,-0.90,-0.27,1005.97
11.853,0.08,0.98,0.08,-0.53,2.36,-3.41,-0.74,-0.90,-0.27,1005.97
11.854,-0.08,1.00,0.06,-0.53,2.36,-3.41,-0.74,-0.90,-0.27,1005.97
11.854,-0.08,1.00,0.06,-0.53,2.36,-3.41,-0.68,-0.66,0.07,1005.97
11.854,-0.08,1.00,0.06,0.26,0.28,2.54,-0.68,-0.66,0.07,1005.97
11.881,-0.08,1.00,0.06,0.26,0.28,2.54,-0.68,-0.66,0.07,1005.95
11.911,-0.04,1.04,-0.19,0.26,0.28,2.54,-0.68,-0.66,0.07,1005.95
11.913,0.07,0.97,-0.28,0.26,0.28,2.54,-0.68,-0.66,0.07,1005.95
11.913,0.07,0.92,-0.25,0.26,0.28,2.54,-0.68,-0.66,0.07,1005.95
11.914,0.07,0.92,-0.25,0.26,0.28,2.54,-0.19,-0.31,0.12,1005.95
11.914,0.07,0.92,-0.25,0.04,0.19,0.07,-0.19,-0.31,0.12,1005.95
11.922,0.07,0.92,-0.25,0.04,0.19,0.07,-0.19,-0.31,0.12,1005.98
11.969,-0.05,0.95,-0.28,0.04,0.19,0.07,-0.19,-0.31,0.12,1005.98
11.97,-0.05,0.96,-0.19,0.04,0.19,0.07,-0.19,-0.31,0.12,1005.98
11.97,0.04,0.95,-0.16,0.04,0.19,0.07,-0.19,-0.31,0.12,1005.98
11.97,0.04,0.95,-0.16,0.04,0.19,0.07,-0.14,-0.51,0.13,1005.98
11.971,0.04,0.95,-0.16,-0.49,-0.04,0.30,-0.14,-0.51,0.13,1005.98
12.002,0.04,0.95,-0.16,-0.49,-0.04,0.30,-0.14,-0.51,0.13,1005.97
12.028,0.12,0.95,-0.20,-0.49,-0.04,0.30,-0.14,-0.51,0.13,1005.97
12.029,0.14,0.97,-0.16,-0.49,-0.04,0.30,-0.14,-0.51,0.13,1005.97
12.029,0.06,0.96,-0.23,-0.49,-0.04,0.30,-0.14,-0.51,0.13,1005.97
12.03,0.06,0.96,-0.23,0.72,0.02,0.40,-0.14,-0.51,0.13,1005.97
12.03,0.06,0.96,-0.23,0.72,0.02,0.40,-0.01,-0.29,0.08,1005.97
12.081,0.06,0.96,-0.23,0.72,0.02,0.40,-0.01,-0.29,0.08,1005.95
12.085,-0.10,0.96,-0.26,0.72,0.02,0.40,-0.01,-0.29,0.08,1005.95
12.085,-0.06,0.98,-0.15,0.72,0.02,0.40,-0.01,-0.29,0.08,1005.95
12.086,0.04,0.96,-0.09,0.72,0.02,0.40,-0.01,-0.29,0.08,1005.95
12.086,0.04,0.96,-0.09,0.72,0.02,0.40,0.09,-0.50,0.01,1005.95
12.086,0.04,0.96,-0.09,-0.64,0.08,0.73,0.09,-0.50,0.01,1005.95
12.121,0.04,0.96,-0.09,-0.64,0.08,0.73,0.09,-0.50,0.01,1005.95
12.143,0.08,0.95,-0.16,-0.64,0.08,0.73,0.09,-0.50,0.01,1005.95
12.144,0.02,0.97,-0.26,-0.64,0.08,0.73,0.09,-0.50,0.01,1005.95
12.144,-0.08,0.98,-0.23,-0.64,0.08,0.73,0.09,-0.50,0.01,1005.95
12.144,-0.08,0.98,-0.23,-0.64,0.08,0.73,0.30,-0.44,0.07,1005.95
12.144,-0.08,0.98,-0.23,-0.16,0.13,0.43,0.30,-0.44,0.07,1005.95
12.201,-0.08,0.98,-0.23,-0.16,0.13,0.43,0.30,-0.44,0.07,1005.97
12.201,-0.04,0.96,-0.18,-0.16,0.13,0.43,0.30,-0.44,0.07,1005.97
12.202,0.01,0.99,-0.13,-0.16,0.13,0.43,0.30,-0.44,0.07,1005.97
12.202,0.11,0.99,-0.13,-0.16,0.13,0.43,0.30,-0.44,0.07,1005.97
12.202,0.11,0.99,-0.13,-0.16,0.13,0.43,0.51,-0.41,0.20,1005.97
12.202,0.11,0.99,-0.13,0.01,0.34,1.36,0.51,-0.41,0.20,1005.97
12.267,0.20,0.97,-0.18,0.01,0.34,1.36,0.51,-0.41,0.20,1005.97
12.267,0.15,0.98,-0.22,0.01,0.34,1.36,0.51,-0.41,0.20,1005.97
12.268,0.08,1.02,-0.17,0.01,0.34,1.36,0.51,-0.41,0.20,1005.97
12.268,0.08,1.02,-0.17,0.01,0.34,1.36,0.93,-0.17,0.06,1005.97
12.268,0.08,1.02,-0.17,1.13,0.59,1.41,0.93,-0.17,0.06,1005.97
12.283,0.08,1.02,-0.17,1.13,0.59,1.41,0.93,-0.17,0.06,1005.97
12.319,0.15,1.00,-0.18,1.13,0.59,1.41,0.93,-0.17,0.06,1005.97
12.32,0.22,1.06,-0.20,1.13,0.59,1.41,0.93,-0.17,0.06,1005.97
12.32,0.30,1.25,-0.27,1.13,0.59,1.41,0.93,-0.17,0.06,1005.97
12.321,0.30,1.25,-0.27,1.13,0.59,1.41,1.62,-0.56,-0.18,1005.97
12.321,0.30,1.25,-0.27,2.11,2.02,1.97,1.62,-0.56,-0.18,1005.97
12.321,0.30,1.25,-0.27,2.11,2.02,1.97,1.62,-0.56,-0.18,1005.98
12.378,0.45,1.53,-0.17,2.11,2.02,1.97,1.62,-0.56,-0.18,1005.98
12.378,0.43,1.70,-0.12,2.11,2.02,1.97,1.62,-0.56,-0.18,1005.98
12.379,0.24,1.61,0.09,2.11,2.02,1.97,1.62,-0.56,-0.18,1005.98
12.379,0.24,1.61,0.09,2.11,2.02,1.97,2.48,-1.33,-0.42,1005.98
12.379,0.24,1.61,0.09,4.05,7.58,4.57,2.48,-1.33,-0.42,1005.98
12.401,0.24,1.61,0.09,4.05,7.58,4.57,2.48,-1.33,-0.42,1005.97
12.435,-0.18,1.42,0.29,4.05,7.58,4.57,2.48,-1.33,-0.42,1005.97
12.436,-0.75,1.34,0.10,4.05,7.58,4.57,2.48,-1.33,-0.42,1005.97
12.437,-1.07,1.38,-0.15,4.05,7.58,4.57,2.48,-1.33,-0.42,1005.97
12.437,-1.07,1.38,-0.15,4.05,7.58,4.57,2.47,-2.99,-0.82,1005.97
12.438,-1.07,1.38,-0.15,-4.67,6.07,6.84,2.47,-2.99,-0.82,1005.97
12.482,-1.07,1.38,-0.15,-4.67,6.07,6.84,2.47,-2.99,-0.82,1005.96
12.498,-0.85,1.23,-0.41,-4.67,6.07,6.84,2.47,-2.99,-0.82,1005.96
12.499,-0.54,1.22,-0.48,-4.67,6.07,6.84,2.47,-2.99,-0.82,1005.96
12.499,-0.23,0.98,-0.18,-4.67,6.07,6.84,2.47,-2.99,-0.82,1005.96
12.499,-0.23,0.98,-0.18,-4.67,6.07,6.84,1.54,-4.53,-0.14,1005.96
12.5,-0.23,0.98,-0.18,-1.71,4.25,2.46,1.54,-4.53,-0.14,1005.96
12.522,-0.23,0.98,-0.18,-1.71,4.25,2.46,1.54,-4.53,-0.14,1005.95
12.553,-0.11,0.70,0.01,-1.71,4.25,2.46,1.54,-4.53,-0.14,1005.95
12.553,-0.05,0.51,0.16,-1.71,4.25,2.46,1.54,-4.53,-0.14,1005.95
12.554,-0.14,0.48,0.12,-1.71,4.25,2.46,1.54,-4.53,-0.14,1005.95
12.554,-0.14,0.48,0.12,-1.71,4.25,2.46,-0.13,-5.03,1.27,1005.95
12.555,-0.14,0.48,0.12,3.56,-1.74,5.52,-0.13,-5.03,1.27,1005.95
12.601,-0.14,0.48,0.12,3.56,-1.74,5.52,-0.13,-5.03,1.27,1005.92
12.611,-0.25,0.55,0.00,3.56,-1.74,5.52,-0.13,-5.03,1.27,1005.92
12.612,-0.24,0.60,-0.07,3.56,-1.74,5.52,-0.13,-5.03,1.27,1005.92
12.612,-0.15,0.65,-0.02,3.56,-1.74,5.52,-0.13,-5.03,1.27,1005.92
12.613,-0.15,0.65,-0.02,3.56,-1.74,5.52,-0.44,-2.61,2.84,1005.92
12.613,-0.15,0.65,-0.02,1.78,-2.21,3.33,-0.44,-2.61,2.84,1005.92
12.67,-0.14,0.74,0.01,1.78,-2.21,3.33,-0.44,-2.61,2.84,1005.92
12.67,-0.22,0.82,-0.07,1.78,-2.21,3.33,-0.44,-2.61,2.84,1005.92
12.671,-0.28,0.92,-0.12,1.78,-2.21,3.33,-0.44,-2.61,2.84,1005.92
12.671,-0.28,0.92,-0.12,1.78,-2.21,3.33,-0.95,-0.83,4.18,1005.92
12.671,-0.28,0.92,-0.12,-0.10,-0.85,2.35,-0.95,-0.83,4.18,1005.92
12.681,-0.28,0.92,-0.12,-0.10,-0.85,2.35,-0.95,-0.83,4.18,1005.96
12.722,-0.28,0.92,-0.12,-0.10,-0.85,2.35,-0.95,-0.83,4.18,1005.95
12.728,-0.32,1.04,-0.18,-0.10,-0.85,2.35,-0.95,-0.83,4.18,1005.95
12.728,-0.37,1.16,-0.24,-0.10,-0.85,2.35,-0.95,-0.83,4.18,1005.95
12.729,-0.34,1.29,-0.24,-0.10,-0.85,2.35,-0.95,-0.83,4.18,1005.95
12.729,-0.34,1.29,-0.24,-3.87,1.95,-0.36,-0.95,-0.83,4.18,1005.95
12.729,-0.34,1.29,-0.24,-3.87,1.95,-0.36,-2.05,-1.02,4.96,1005.95
12.788,-0.15,1.41,-0.26,-3.87,1.95,-0.36,-2.05,-1.02,4.96,1005.95
12.789,-0.15,1.35,-0.23,-3.87,1.95,-0.36,-2.05,-1.02,4.96,1005.95
12.789,-0.43,1.31,-0.21,-3.87,1.95,-0.36,-2.05,-1.02,4.96,1005.95
12.79,-0.43,1.31,-0.21,-5.52,4.13,-1.82,-2.05,-1.02,4.96,1005.95
12.79,-0.43,1.31,-0.21,-5.52,4.13,-1.82,-2.69,-1.05,5.07,1005.95
12.801,-0.43,1.31,-0.21,-5.52,4.13,-1.82,-2.69,-1.05,5.07,1005.92
12.844,-0.63,1.29,-0.25,-5.52,4.13,-1.82,-2.69,-1.05,5.07,1005.92
12.845,-0.66,1.17,-0.39,-5.52,4.13,-1.82,-2.69,-1.05,5.07,1005.92
12.846,-0.94,0.95,-0.51,-5.52,4.13,-1.82,-2.69,-1.05,5.07,1005.92
12.846,-0.94,0.95,-0.51,-5.52,4.13,-1.82,-1.63,0.77,2.48,1005.92
12.846,-0.94,0.95,-0.51,-11.50,2.48,-4.24,-1.63,0.77,2.48,1005.92
12.882,-0.94,0.95,-0.51,-11.50,2.48,-4.24,-1.63,0.77,2.48,1005.88
12.903,-1.22,0.82,-0.51,-11.50,2.48,-4.24,-1.63,0.77,2.48,1005.88
12.904,-1.13,0.84,-0.60,-11.50,2.48,-4.24,-1.63,0.77,2.48,1005.88
12.904,-0.55,1.45,-1.06,-11.50,2.48,-4.24,-1.63,0.77,2.48,1005.88
12.905,-0.55,1.45,-1.06,-11.50,2.48,-4.24,-0.08,-0.51,-1.35,1005.88
12.905,-0.55,1.45,-1.06,-12.80,1.19,-7.39,-0.08,-0.51,-1.35,1005.88
12.922,-0.55,1.45,-1.06,-12.80,1.19,-7.39,-0.08,-0.51,-1.35,1005.86
12.961,1.64,1.74,0.45,-12.80,1.19,-7.39,-0.08,-0.51,-1.35,1005.86
12.962,2.26,1.43,0.17,-12.80,1.19,-7.39,-0.08,-0.51,-1.35,1005.86
12.962,-0.43,1.34,-1.01,-12.80,1.19,-7.39,-0.08,-0.51,-1.35,1005.86
12.963,-0.43,1.34,-1.01,-12.80,1.19,-7.39,-0.14,-2.49,-1.20,1005.86
12.963,-0.43,1.34,-1.01,8.50,5.43,-1.16,-0.14,-2.49,-1.20,1005.86
13.001,-0.43,1.34,-1.01,8.50,5.43,-1.16,-0.14,-2.49,-1.20,1005.89
13.019,-0.76,1.06,-0.78,8.50,5.43,-1.16,-0.14,-2.49,-1.20,1005.89
13.019,-0.35,0.65,0.74,8.50,5.43,-1.16,-0.14,-2.49,-1.20,1005.89
13.02,-0.13,0.88,0.32,8.50,5.43,-1.16,-0.14,-2.49,-1.20,1005.89
13.02,-0.13,0.88,0.32,8.50,5.43,-1.16,0.02,-0.03,-2.30,1005.89
13.021,-0.13,0.88,0.32,-5.50,-1.09,1.01,0.02,-0.03,-2.30,1005.89
13.081,0.07,1.15,0.03,-5.50,-1.09,1.01,0.02,-0.03,-2.30,1005.89
13.082,-0.03,1.09,-0.13,-5.50,-1.09,1.01,0.02,-0.03,-2.30,1005.89
13.082,-0.01,1.04,-0.04,-5.50,-1.09,1.01,0.02,-0.03,-2.30,1005.89
13.088,-0.01,1.04,-0.04,-5.50,-1.09,1.01,0.19,0.13,-1.11,1005.89
13.089,-0.01,1.04,-0.04,-0.71,1.04,-0.23,0.19,0.13,-1.11,1005.89
13.089,-0.01,1.04,-0.04,-0.71,1.04,-0.23,0.19,0.13,-1.11,1005.92
13.122,-0.01,1.04,-0.04,-0.71,1.04,-0.23,0.19,0.13,-1.11,1005.95
13.135,0.09,1.04,-0.07,-0.71,1.04,-0.23,0.19,0.13,-1.11,1005.95
13.136,0.09,1.00,0.06,-0.71,1.04,-0.23,0.19,0.13,-1.11,1005.95
13.136,0.03,0.99,0.11,-0.71,1.04,-0.23,0.19,0.13,-1.11,1005.95
13.136,0.03,0.99,0.11,0.37,0.16,0.65,0.19,0.13,-1.11,1005.95
13.137,0.03,0.99,0.11,0.37,0.16,0.65,0.19,-0.07,-0.91,1005.95
13.195,0.08,0.99,0.07,0.37,0.16,0.65,0.19,-0.07,-0.91,1005.95
13.196,0.06,0.97,0.01,0.37,0.16,0.65,0.19,-0.07,-0.91,1005.95
13.196,-0.06,0.99,-0.04,0.37,0.16,0.65,0.19,-0.07,-0.91,1005.95
13.196,-0.06,0.99,-0.04,0.37,0.16,0.65,0.38,0.01,-1.07,1005.95
13.197,-0.06,0.99,-0.04,0.56,-0.04,0.65,0.38,0.01,-1.07,1005.95
13.201,-0.06,0.99,-0.04,0.56,-0.04,0.65,0.38,0.01,-1.07,1005.96
13.252,-0.11,1.01,-0.07,0.56,-0.04,0.65,0.38,0.01,-1.07,1005.96
13.253,-0.07,1.03,-0.05,0.56,-0.04,0.65,0.38,0.01,-1.07,1005.96
13.254,-0.02,1.03,-0.03,0.56,-0.04,0.65,0.38,0.01,-1.07,1005.96
13.254,-0.02,1.03,-0.03,0.56,-0.04,0.65,0.41,0.26,-1.09,1005.96
13.255,-0.02,1.03,-0.03,0.25,0.38,0.25,0.41,0.26,-1.09,1005.96
13.281,-0.02,1.03,-0.03,0.25,0.38,0.25,0.41,0.26,-1.09,1005.97
13.311,-0.05,1.01,-0.03,0.25,0.38,0.25,0.41,0.26,-1.09,1005.97
13.311,-0.12,0.98,-0.05,0.25,0.38,0.25,0.41,0.26,-1.09,1005.97
13.312,-0.15,0.98,-0.08,0.25,0.38,0.25,0.41,0.26,-1.09,1005.97
13.312,-0.15,0.98,-0.08,0.25,0.38,0.25,0.50,0.30,-1.20,1005.97
13.312,-0.15,0.98,-0.08,0.48,0.15,0.54,0.50,0.30,-1.20,1005.97
13.322,-0.15,0.98,-0.08,0.48,0.15,0.54,0.50,0.30,-1.20,1005.97
13.369,-0.10,0.98,-0.08,0.48,0.15,0.54,0.50,0.30,-1.20,1005.97
13.37,-0.05,1.02,-0.08,0.48,0.15,0.54,0.50,0.30,-1.20,1005.97
13.37,-0.01,1.08,-0.12,0.48,0.15,0.54,0.50,0.30,-1.20,1005.97
13.371,-0.01,1.08,-0.12,0.48,0.15,0.54,0.55,0.47,-1.34,1005.97
13.371,-0.01,1.08,-0.12,1.67,0.68,0.48,0.55,0.47,-1.34,1005.97
13.401,-0.01,1.08,-0.12,1.67,0.68,0.48,0.55,0.47,-1.34,1005.96
13.428,-0.05,1.14,-0.11,1.67,0.68,0.48,0.55,0.47,-1.34,1005.96
13.428,-0.04,1.17,-0.12,1.67,0.68,0.48,0.55,0.47,-1.34,1005.96
13.429,0.07,1.21,-0.11,1.67,0.68,0.48,0.55,0.47,-1.34,1005.96
13.43,0.07,1.21,-0.11,3.02,2.44,0.68,0.55,0.47,-1.34,1005.96
13.43,0.07,1.21,-0.11,3.02,2.44,0.68,0.81,0.11,-1.77,1005.96
13.481,0.07,1.21,-0.11,3.02,2.44,0.68,0.81,0.11,-1.77,1005.95
13.485,0.15,1.33,-0.09,3.02,2.44,0.68,0.81,0.11,-1.77,1005.95
13.485,0.32,1.65,0.13,3.02,2.44,0.68,0.81,0.11,-1.77,1005.95
13.485,0.81,1.87,0.09,3.02,2.44,0.68,0.81,0.11,-1.77,1005.95
13.486,0.81,1.87,0.09,3.02,2.44,0.68,1.26,0.39,-2.23,1005.95
13.486,0.81,1.87,0.09,8.22,7.30,2.92,1.26,0.39,-2.23,1005.95
13.522,0.81,1.87,0.09,8.22,7.30,2.92,1.26,0.39,-2.23,1005.94
13.544,1.14,1.78,0.00,8.22,7.30,2.92,1.26,0.39,-2.23,1005.94
13.545,1.02,1.52,0.01,8.22,7.30,2.92,1.26,0.39,-2.23,1005.94
13.545,-0.08,1.13,-0.09,8.22,7.30,2.92,1.26,0.39,-2.23,1005.94
13.546,-0.08,1.13,-0.09,8.22,7.30,2.92,1.30,1.58,-3.09,1005.94
13.546,-0.08,1.13,-0.09,11.75,6.89,3.25,1.30,1.58,-3.09,1005.94
13.602,-0.08,1.13,-0.09,11.75,6.89,3.25,1.30,1.58,-3.09,1005.94
13.602,-1.16,1.33,-0.30,11.75,6.89,3.25,1.30,1.58,-3.09,1005.94
13.603,-1.23,1.42,-0.30,11.75,6.89,3.25,1.30,1.58,-3.09,1005.94
13.603,-0.88,0.92,-0.50,11.75,6.89,3.25,1.30,1.58,-3.09,1005.94
13.603,-0.88,0.92,-0.50,11.75,6.89,3.25,1.81,1.54,-3.38,1005.94
13.603,-0.88,0.92,-0.50,-4.60,5.80,1.10,1.81,1.54,-3.38,1005.94
13.661,-0.69,0.63,-0.37,-4.60,5.80,1.10,1.81,1.54,-3.38,1005.94
13.662,-0.42,0.43,-0.44,-4.60,5.80,1.10,1.81,1.54,-3.38,1005.94
13.662,-0.26,0.30,-0.13,-4.60,5.80,1.10,1.81,1.54,-3.38,1005.94
13.663,-0.26,0.30,-0.13,1.63,-1.78,1.37,1.81,1.54,-3.38,1005.94
13.663,-0.26,0.30,-0.13,1.63,-1.78,1.37,-0.26,-0.35,0.03,1005.94
13.681,-0.26,0.30,-0.13,1.63,-1.78,1.37,-0.26,-0.35,0.03,1005.92
13.719,-0.19,0.10,0.08,1.63,-1.78,1.37,-0.26,-0.35,0.03,1005.92
13.719,-0.13,0.09,-0.07,1.63,-1.78,1.37,-0.26,-0.35,0.03,1005.92
13.72,-0.16,0.24,-0.18,1.63,-1.78,1.37,-0.26,-0.35,0.03,1005.92
13.72,-0.16,0.24,-0.18,1.63,-1.78,1.37,-1.34,-0.53,2.72,1005.92
13.72,-0.16,0.24,-0.18,3.55,-5.92,3.11,-1.34,-0.53,2.72,1005.92
13.723,-0.16,0.24,-0.18,3.55,-5.92,3.11,-1.34,-0.53,2.72,1005.91
13.777,-0.18,0.38,-0.22,3.55,-5.92,3.11,-1.34,-0.53,2.72,1005.91
13.778,-0.12,0.50,-0.28,3.55,-5.92,3.11,-1.34,-0.53,2.72,1005.91
13.778,-0.12,0.64,-0.26,3.55,-5.92,3.11,-1.34,-0.53,2.72,1005.91
13.779,-0.12,0.64,-0.26,3.55,-5.92,3.11,-1.83,-0.05,4.46,1005.91
13.779,-0.12,0.64,-0.26,1.60,-3.72,0.31,-1.83,-0.05,4.46,1005.91
13.802,-0.12,0.64,-0.26,1.60,-3.72,0.31,-1.83,-0.05,4.46,1005.97
13.836,-0.18,0.72,-0.16,1.60,-3.72,0.31,-1.83,-0.05,4.46,1005.97
13.837,-0.18,0.87,-0.12,1.60,-3.72,0.31,-1.83,-0.05,4.46,1005.97
13.837,-0.12,1.13,-0.24,1.60,-3.72,0.31,-1.83,-0.05,4.46,1005.97
13.837,-0.12,1.13,-0.24,1.60,-3.72,0.31,-2.61,0.82,5.70,1005.97
13.838,-0.12,1.13,-0.24,-1.70,-0.58,-0.24,-2.61,0.82,5.70,1005.97
13.881,-0.12,1.13,-0.24,-1.70,-0.58,-0.24,-2.61,0.82,5.70,1005.97
13.893,-0.17,1.71,-0.52,-1.70,-0.58,-0.24,-2.61,0.82,5.70,1005.97
13.894,-0.54,2.15,-0.80,-1.70,-0.58,-0.24,-2.61,0.82,5.70,1005.97
13.895,-0.83,1.81,-0.45,-1.70,-0.58,-0.24,-2.61,0.82,5.70,1005.97
13.895,-0.83,1.81,-0.45,-1.70,-0.58,-0.24,-3.07,0.91,5.75,1005.97
13.895,-0.83,1.81,-0.45,-8.19,9.37,-6.01,-3.07,0.91,5.75,1005.97
13.922,-0.83,1.81,-0.45,-8.19,9.37,-6.01,-3.07,0.91,5.75,1005.92
13.952,-0.70,1.30,-0.01,-8.19,9.37,-6.01,-3.07,0.91,5.75,1005.92
13.953,-0.80,1.20,-0.51,-8.19,9.37,-6.01,-3.07,0.91,5.75,1005.92
13.953,-0.98,0.91,-0.65,-8.19,9.37,-6.01,-3.07,0.91,5.75,1005.92
13.953,-0.98,0.91,-0.65,-12.60,2.69,-4.94,-3.07,0.91,5.75,1005.92
13.955,-0.98,0.91,-0.65,-12.60,2.69,-4.94,-1.75,0.38,2.97,1005.92
14.001,-0.98,0.91,-0.65,-12.60,2.69,-4.94,-1.75,0.38,2.97,1005.87
14.011,-1.06,0.66,-0.50,-12.60,2.69,-4.94,-1.75,0.38,2.97,1005.87
14.011,-1.06,1.07,-0.80,-12.60,2.69,-4.94,-1.75,0.38,2.97,1005.87
14.011,0.55,1.82,0.20,-12.60,2.69,-4.94,-1.75,0.38,2.97,1005.87
14.011,0.55,1.82,0.20,-8.71,2.74,-4.27,-1.75,0.38,2.97,1005.87
14.012,0.55,1.82,0.20,-8.71,2.74,-4.27,-0.00,-1.45,-1.60,1005.87
14.068,2.86,1.55,0.67,-8.71,2.74,-4.27,-0.00,-1.45,-1.60,1005.87
14.069,1.13,1.34,-0.18,-8.71,2.74,-4.27,-0.00,-1.45,-1.60,1005.87
14.07,-0.97,1.24,-1.13,-8.71,2.74,-4.27,-0.00,-1.45,-1.60,1005.87
14.07,-0.97,1.24,-1.13,-8.71,2.74,-4.27,0.36,-1.48,-1.92,1005.87
14.071,-0.97,1.24,-1.13,7.10,4.18,-2.27,0.36,-1.48,-1.92,1005.87
14.081,-0.97,1.24,-1.13,7.10,4.18,-2.27,0.36,-1.48,-1.92,1005.86
14.122,-0.97,1.24,-1.13,7.10,4.18,-2.27,0.36,-1.48,-1.92,1005.92
14.127,-0.69,0.78,0.02,7.10,4.18,-2.27,0.36,-1.48,-1.92,1005.92
14.128,-0.22,0.78,0.35,7.10,4.18,-2.27,0.36,-1.48,-1.92,1005.92
14.128,-0.12,1.05,0.11,7.10,4.18,-2.27,0.36,-1.48,-1.92,1005.92
14.128,-0.12,1.05,0.11,7.10,4.18,-2.27,0.30,-0.17,-2.24,1005.92
14.128,-0.12,1.05,0.11,-4.80,-1.02,1.58,0.30,-0.17,-2.24,1005.92
14.185,0.02,1.12,-0.05,-4.80,-1.02,1.58,0.30,-0.17,-2.24,1005.92
14.185,-0.05,1.04,-0.10,-4.80,-1.02,1.58,0.30,-0.17,-2.24,1005.92
14.186,0.01,1.03,-0.08,-4.80,-1.02,1.58,0.30,-0.17,-2.24,1005.92
14.186,0.01,1.03,-0.08,-4.80,-1.02,1.58,0.35,-0.15,-1.21,1005.92
14.186,0.01,1.03,-0.08,-0.81,0.77,-0.58,0.35,-0.15,-1.21,1005.92
14.201,0.01,1.03,-0.08,-0.81,0.77,-0.58,0.35,-0.15,-1.21,1005.95
14.244,0.11,1.03,-0.04,-0.81,0.77,-0.58,0.35,-0.15,-1.21,1005.95
14.244,0.06,1.03,0.02,-0.81,0.77,-0.58,0.35,-0.15,-1.21,1005.95
14.245,-0.06,1.01,0.04,-0.81,0.77,-0.58,0.35,-0.15,-1.21,1005.95
14.245,-0.06,1.01,0.04,-0.81,0.77,-0.58,0.32,-0.01,-1.02,1005.95
14.246,-0.06,1.01,0.04,0.19,0.36,0.44,0.32,-0.01,-1.02,1005.95
14.283,-0.06,1.01,0.04,0.19,0.36,0.44,0.32,-0.01,-1.02,1005.97
14.303,0.05,1.00,0.00,0.19,0.36,0.44,0.32,-0.01,-1.02,1005.97
14.304,0.12,0.98,-0.02,0.19,0.36,0.44,0.32,-0.01,-1.02,1005.97
14.304,0.01,0.99,-0.05,0.19,0.36,0.44,0.32,-0.01,-1.02,1005.97
14.304,0.01,0.99,-0.05,0.19,0.36,0.44,0.41,-0.02,-1.06,1005.97
14.304,0.01,0.99,-0.05,0.98,0.04,0.40,0.41,-0.02,-1.06,1005.97
14.321,0.01,0.99,-0.05,0.98,0.04,0.40,0.41,-0.02,-1.06,1005.97
14.361,-0.09,0.99,-0.06,0.98,0.04,0.40,0.41,-0.02,-1.06,1005.97
14.362,-0.07,1.01,-0.05,0.98,0.04,0.40,0.41,-0.02,-1.06,1005.97
14.362,-0.05,1.02,-0.05,0.98,0.04,0.40,0.41,-0.02,-1.06,1005.97
14.362,-0.05,1.02,-0.05,0.98,0.04,0.40,0.48,0.37,-1.17,1005.97
14.363,-0.05,1.02,-0.05,0.35,0.28,0.35,0.48,0.37,-1.17,1005.97
14.406,-0.05,1.02,-0.05,0.35,0.28,0.35,0.48,0.37,-1.17,1005.97
14.418,-0.12,1.00,-0.08,0.35,0.28,0.35,0.48,0.37,-1.17,1005.97
14.418,-0.14,0.97,-0.11,0.35,0.28,0.35,0.48,0.37,-1.17,1005.97
14.419,-0.09,0.96,-0.12,0.35,0.28,0.35,0.48,0.37,-1.17,1005.97
14.419,-0.09,0.96,-0.12,0.35,0.28,0.35,0.57,0.24,-1.21,1005.97
14.419,-0.09,0.96,-0.12,0.54,0.11,0.22,0.57,0.24,-1.21,1005.97
14.477,-0.04,0.99,-0.12,0.54,0.11,0.22,0.57,0.24,-1.21,1005.97
14.478,0.03,1.05,-0.12,0.54,0.11,0.22,0.57,0.24,-1.21,1005.97
14.478,-0.02,1.13,-0.13,0.54,0.11,0.22,0.57,0.24,-1.21,1005.97
14.478,-0.02,1.13,-0.13,0.54,0.11,0.22,0.68,0.12,-1.45,1005.97
14.478,-0.02,1.13,-0.13,2.31,1.10,0.38,0.68,0.12,-1.45,1005.97
14.484,-0.02,1.13,-0.13,2.31,1.10,0.38,0.68,0.12,-1.45,1005.97
14.522,-0.02,1.13,-0.13,2.31,1.10,0.38,0.68,0.12,-1.45,1005.97
14.535,-0.09,1.13,-0.13,2.31,1.10,0.38,0.68,0.12,-1.45,1005.97
14.536,-0.07,1.13,-0.09,2.31,1.10,0.38,0.68,0.12,-1.45,1005.97
14.536,0.05,1.19,-0.06,2.31,1.10,0.38,0.68,0.12,-1.45,1005.97
14.537,0.05,1.19,-0.06,2.31,1.10,0.38,1.03,-0.11,-1.92,1005.97
14.537,0.05,1.19,-0.06,3.03,2.45,1.18,1.03,-0.11,-1.92,1005.97
14.593,0.13,1.37,-0.11,3.03,2.45,1.18,1.03,-0.11,-1.92,1005.97
14.594,0.35,1.64,-0.05,3.03,2.45,1.18,1.03,-0.11,-1.92,1005.97
14.595,0.89,1.77,-0.09,3.03,2.45,1.18,1.03,-0.11,-1.92,1005.97
14.595,0.89,1.77,-0.09,3.03,2.45,1.18,1.34,0.95,-2.29,1005.97
14.596,0.89,1.77,-0.09,8.73,7.34,2.15,1.34,0.95,-2.29,1005.97
14.609,0.89,1.77,-0.09,8.73,7.34,2.15,1.34,0.95,-2.29,1005.96
14.652,0.98,1.64,-0.15,8.73,7.34,2.15,1.34,0.95,-2.29,1005.96
14.653,0.07,1.15,-0.11,8.73,7.34,2.15,1.34,0.95,-2.29,1005.96
14.654,-0.98,1.03,-0.31,8.73,7.34,2.15,1.34,0.95,-2.29,1005.96
14.654,-0.98,1.03,-0.31,8.73,7.34,2.15,1.60,2.08,-3.18,1005.96
14.654,-0.98,1.03,-0.31,5.36,5.38,2.35,1.60,2.08,-3.18,1005.96
14.684,-0.98,1.03,-0.31,5.36,5.38,2.35,1.60,2.08,-3.18,1005.96
14.71,-1.45,1.27,-0.50,5.36,5.38,2.35,1.60,2.08,-3.18,1005.96
14.711,-1.14,1.00,-0.45,5.36,5.38,2.35,1.60,2.08,-3.18,1005.96
14.711,-0.78,0.53,-0.31,5.36,5.38,2.35,1.60,2.08,-3.18,1005.96
14.712,-0.78,0.53,-0.31,5.36,5.38,2.35,1.70,0.53,-2.22,1005.96
14.712,-0.78,0.53,-0.31,-5.09,3.15,0.89,1.70,0.53,-2.22,1005.96
14.721,-0.78,0.53,-0.31,-5.09,3.15,0.89,1.70,0.53,-2.22,1005.93
14.769,-0.61,0.35,-0.35,-5.09,3.15,0.89,1.70,0.53,-2.22,1005.93
14.77,-0.45,0.22,-0.15,-5.09,3.15,0.89,1.70,0.53,-2.22,1005.93
14.77,-0.23,0.03,0.14,-5.09,3.15,0.89,1.70,0.53,-2.22,1005.93
14.771,-0.23,0.03,0.14,-5.09,3.15,0.89,-0.44,-1.04,1.01,1005.93
14.771,-0.23,0.03,0.14,1.62,-4.43,3.27,-0.44,-1.04,1.01,1005.93
14.803,-0.23,0.03,0.14,1.62,-4.43,3.27,-0.44,-1.04,1.01,1005.91
14.829,-0.11,-0.11,0.06,1.62,-4.43,3.27,-0.44,-1.04,1.01,1005.91
14.83,-0.15,0.04,-0.08,1.62,-4.43,3.27,-0.44,-1.04,1.01,1005.91
14.83,-0.41,0.35,-0.25,1.62,-4.43,3.27,-0.44,-1.04,1.01,1005.91
14.83,-0.41,0.35,-0.25,2.57,-6.54,2.87,-0.44,-1.04,1.01,1005.91
14.831,-0.41,0.35,-0.25,2.57,-6.54,2.87,-0.40,-1.41,3.36,1005.91
14.883,-0.41,0.35,-0.25,2.57,-6.54,2.87,-0.40,-1.41,3.36,1005.95
14.885,-0.62,0.56,-0.27,2.57,-6.54,2.87,-0.40,-1.41,3.36,1005.95
14.887,-0.68,0.50,-0.05,2.57,-6.54,2.87,-0.40,-1.41,3.36,1005.95
14.887,-0.59,0.44,-0.14,2.57,-6.54,2.87,-0.40,-1.41,3.36,1005.95
14.887,-0.59,0.44,-0.14,2.57,-6.54,2.87,-0.58,-3.10,5.33,1005.95
14.888,-0.59,0.44,-0.14,-3.31,-3.76,1.29,-0.58,-3.10,5.33,1005.95
14.923,-0.59,0.44,-0.14,-3.31,-3.76,1.29,-0.58,-3.10,5.33,1005.99
14.947,-0.60,0.68,-0.30,-3.31,-3.76,1.29,-0.58,-3.10,5.33,1005.99
14.951,-0.74,1.15,-0.38,-3.31,-3.76,1.29,-0.58,-3.10,5.33,1005.99
14.952,-0.78,1.42,-0.39,-3.31,-3.76,1.29,-0.58,-3.10,5.33,1005.99
14.952,-0.78,1.42,-0.39,-3.31,-3.76,1.29,0.12,-5.75,6.56,1005.99
14.953,-0.78,1.42,-0.39,-6.55,1.35,-1.09,0.12,-5.75,6.56,1005.99
15.001,-0.60,1.44,-0.39,-6.55,1.35,-1.09,0.12,-5.75,6.56,1005.99
15.002,-0.45,1.42,-0.26,-6.55,1.35,-1.09,0.12,-5.75,6.56,1005.99
15.002,-0.27,1.28,-0.12,-6.55,1.35,-1.09,0.12,-5.75,6.56,1005.99
15.002,-0.27,1.28,-0.12,-6.55,1.35,-1.09,0.50,-8.25,5.49,1005.99
15.003,-0.27,1.28,-0.12,-5.55,4.46,0.43,0.50,-8.25,5.49,1005.99
15.003,-0.27,1.28,-0.12,-5.55,4.46,0.43,0.50,-8.25,5.49,1005.94
15.06,-0.24,1.12,0.10,-5.55,4.46,0.43,0.50,-8.25,5.49,1005.94
15.061,-0.20,0.91,0.35,-5.55,4.46,0.43,0.50,-8.25,5.49,1005.94
15.061,-0.22,0.75,0.42,-5.55,4.46,0.43,0.50,-8.25,5.49,1005.94
15.062,-0.22,0.75,0.42,-5.55,4.46,0.43,-0.51,-6.39,2.15,1005.94
15.062,-0.22,0.75,0.42,-3.31,0.09,5.91,-0.51,-6.39,2.15,1005.94
15.083,-0.22,0.75,0.42,-3.31,0.09,5.91,-0.51,-6.39,2.15,1005.89
15.119,-0.90,1.28,-0.22,-3.31,0.09,5.91,-0.51,-6.39,2.15,1005.89
15.119,-0.64,1.31,1.04,-3.31,0.09,5.91,-0.51,-6.39,2.15,1005.89
15.12,0.23,0.77,0.62,-3.31,0.09,5.91,-0.51,-6.39,2.15,1005.89
15.12,0.23,0.77,0.62,-3.31,0.09,5.91,-0.37,-1.22,-0.55,1005.89
15.12,0.23,0.77,0.62,-4.85,1.85,7.56,-0.37,-1.22,-0.55,1005.89
15.122,0.23,0.77,0.62,-4.85,1.85,7.56,-0.37,-1.22,-0.55,1005.90
15.178,0.37,1.11,-0.32,-4.85,1.85,7.56,-0.37,-1.22,-0.55,1005.90
15.179,0.23,1.77,-0.94,-4.85,1.85,7.56,-0.37,-1.22,-0.55,1005.90
15.179,0.07,1.47,-0.73,-4.85,1.85,7.56,-0.37,-1.22,-0.55,1005.90
15.179,0.07,1.47,-0.73,-4.85,1.85,7.56,-0.27,0.50,-0.55,1005.90
15.18,0.07,1.47,-0.73,1.81,4.92,-3.75,-0.27,0.50,-0.55,1005.90
15.201,0.07,1.47,-0.73,1.81,4.92,-3.75,-0.27,0.50,-0.55,1005.95
15.237,0.07,1.47,-0.73,-0.47,-0.06,0.61,-0.27,0.50,-0.55,1005.95
15.238,-0.02,0.93,-0.48,-0.47,-0.06,0.61,-0.27,0.50,-0.55,1005.95
15.238,0.00,0.90,-0.17,-0.47,-0.06,0.61,-0.27,0.50,-0.55,1005.95
15.239,-0.09,1.02,0.09,-0.47,-0.06,0.61,-0.27,0.50,-0.55,1005.95
15.239,-0.09,1.02,0.09,-0.47,-0.06,0.61,-0.51,-1.19,-0.17,1005.95
15.282,-0.09,1.02,0.09,-0.47,-0.06,0.61,-0.51,-1.19,-0.17,1005.95
15.295,-0.16,1.01,0.08,-0.47,-0.06,0.61,-0.51,-1.19,-0.17,1005.95
15.295,-0.21,0.99,-0.10,-0.47,-0.06,0.61,-0.51,-1.19,-0.17,1005.95
15.296,-0.12,0.98,-0.36,-0.47,-0.06,0.61,-0.51,-1.19,-0.17,1005.95
15.296,-0.12,0.98,-0.36,-0.47,-0.06,0.61,-0.14,-0.47,0.23,1005.95
15.297,-0.12,0.98,-0.36,-1.76,0.37,1.14,-0.14,-0.47,0.23,1005.95
15.328,-0.12,0.98,-0.36,-1.76,0.37,1.14,-0.14,-0.47,0.23,1005.98
15.357,0.03,0.97,-0.41,-1.76,0.37,1.14,-0.14,-0.47,0.23,1005.98
15.357,0.07,0.98,-0.30,-1.76,0.37,1.14,-0.14,-0.47,0.23,1005.98
15.358,0.03,0.97,-0.23,-1.76,0.37,1.14,-0.14,-0.47,0.23,1005.98
15.358,0.03,0.97,-0.23,-1.76,0.37,1.14,-0.17,-0.40,0.54,1005.98
15.359,0.03,0.97,-0.23,0.07,0.17,-0.74,-0.17,-0.40,0.54,1005.98
15.403,0.03,0.97,-0.23,0.07,0.17,-0.74,-0.17,-0.40,0.54,1005.98
15.412,0.10,0.93,-0.20,0.07,0.17,-0.74,-0.17,-0.40,0.54,1005.98
15.413,0.20,0.90,-0.16,0.07,0.17,-0.74,-0.17,-0.40,0.54,1005.98
15.413,0.18,0.92,-0.13,0.07,0.17,-0.74,-0.17,-0.40,0.54,1005.98
15.413,0.18,0.92,-0.13,1.07,-0.42,0.65,-0.17,-0.40,0.54,1005.98
15.414,0.18,0.92,-0.13,1.07,-0.42,0.65,-0.13,-0.54,0.36,1005.98
15.471,0.18,0.92,-0.13,0.10,0.29,0.54,-0.13,-0.54,0.36,1005.98
15.472,0.10,0.99,-0.20,0.10,0.29,0.54,-0.13,-0.54,0.36,1005.98
15.472,0.02,1.00,-0.21,0.10,0.29,0.54,-0.13,-0.54,0.36,1005.98
15.473,0.07,0.97,-0.12,0.10,0.29,0.54,-0.13,-0.54,0.36,1005.98
15.473,0.07,0.97,-0.12,0.10,0.29,0.54,0.03,-0.39,0.04,1005.98
15.483,0.07,0.97,-0.12,0.10,0.29,0.54,0.03,-0.39,0.04,1005.94
15.523,0.07,0.97,-0.12,0.10,0.29,0.54,0.03,-0.39,0.04,1005.92
15.527,0.07,0.97,-0.12,0.57,0.00,1.36,0.03,-0.39,0.04,1005.92
15.528,0.16,0.94,-0.03,0.57,0.00,1.36,0.03,-0.39,0.04,1005.92
15.528,0.11,0.96,-0.12,0.57,0.00,1.36,0.03,-0.39,0.04,1005.92
15.529,0.02,0.96,-0.17,0.57,0.00,1.36,0.03,-0.39,0.04,1005.92
15.529,0.02,0.96,-0.17,0.57,0.00,1.36,0.32,-0.61,-0.12,1005.92
15.585,0.03,0.95,-0.15,0.57,0.00,1.36,0.32,-0.61,-0.12,1005.92
15.586,0.00,0.98,-0.19,0.57,0.00,1.36,0.32,-0.61,-0.12,1005.92
15.586,-0.10,1.02,-0.23,0.57,0.00,1.36,0.32,-0.61,-0.12,1005.92
15.587,-0.10,1.02,-0.23,0.57,0.00,1.36,0.62,-0.28,-0.19,1005.92
15.587,-0.10,1.02,-0.23,-0.41,0.36,0.89,0.62,-0.28,-0.19,1005.92
15.606,-0.10,1.02,-0.23,-0.41,0.36,0.89,0.62,-0.28,-0.19,1005.95
15.644,0.03,1.02,-0.19,-0.41,0.36,0.89,0.62,-0.28,-0.19,1005.95
15.646,0.21,1.02,-0.16,-0.41,0.36,0.89,0.62,-0.28,-0.19,1005.95
15.646,0.18,1.05,-0.24,-0.41,0.36,0.89,0.62,-0.28,-0.19,1005.95
15.647,0.18,1.05,-0.24,-0.41,0.36,0.89,0.97,-0.28,-0.04,1005.95
15.647,0.18,1.05,-0.24,1.23,0.98,1.35,0.97,-0.28,-0.04,1005.95
15.683,0.18,1.05,-0.24,1.23,0.98,1.35,0.97,-0.28,-0.04,1005.97
15.702,0.17,1.04,-0.27,1.23,0.98,1.35,0.97,-0.28,-0.04,1005.97
15.704,0.23,1.08,-0.26,1.23,0.98,1.35,0.97,-0.28,-0.04,1005.97
15.705,0.13,1.15,-0.37,1.23,0.98,1.35,0.97,-0.28,-0.04,1005.97
15.706,0.13,1.15,-0.37,1.69,1.86,1.10,0.97,-0.28,-0.04,1005.97
15.707,0.13,1.15,-0.37,1.69,1.86,1.10,1.55,0.12,-0.34,1005.97
15.726,0.13,1.15,-0.37,1.69,1.86,1.10,1.55,0.12,-0.34,1005.97
15.761,0.10,1.30,-0.35,1.69,1.86,1.10,1.55,0.12,-0.34,1005.97
15.761,0.14,1.49,-0.18,1.69,1.86,1.10,1.55,0.12,-0.34,1005.97
15.761,0.20,1.60,-0.02,1.69,1.86,1.10,1.55,0.12,-0.34,1005.97
15.762,0.20,1.60,-0.02,1.69,1.86,1.10,2.14,-0.69,-0.20,1005.97
15.762,0.20,1.60,-0.02,1.66,5.97,3.27,2.14,-0.69,-0.20,1005.97
15.804,0.20,1.60,-0.02,1.66,5.97,3.27,2.14,-0.69,-0.20,1005.94
15.826,0.16,1.45,0.34,1.66,5.97,3.27,2.14,-0.69,-0.20,1005.94
15.827,-0.01,1.34,0.33,1.66,5.97,3.27,2.14,-0.69,-0.20,1005.94
15.827,-0.48,1.43,0.26,1.66,5.97,3.27,2.14,-0.69,-0.20,1005.94
15.827,-0.48,1.43,0.26,1.66,5.97,3.27,2.29,-2.32,-0.22,1005.94
15.827,-0.48,1.43,0.26,0.05,6.08,8.94,2.29,-2.32,-0.22,1005.94
15.877,-0.77,1.50,0.00,0.05,6.08,8.94,2.29,-2.32,-0.22,1005.94
15.878,-0.69,1.22,-0.27,0.05,6.08,8.94,2.29,-2.32,-0.22,1005.94
15.879,-0.64,1.10,-0.56,0.05,6.08,8.94,2.29,-2.32,-0.22,1005.94
15.879,-0.64,1.10,-0.56,0.05,6.08,8.94,1.77,-3.92,-0.66,1005.94
15.879,-0.64,1.10,-0.56,-4.02,5.40,3.44,1.77,-3.92,-0.66,1005.94
15.883,-0.64,1.10,-0.56,-4.02,5.40,3.44,1.77,-3.92,-0.66,1005.94
15.922,-0.64,1.10,-0.56,-4.02,5.40,3.44,1.77,-3.92,-0.66,1005.95
15.935,-0.35,1.13,-0.52,-4.02,5.40,3.44,1.77,-3.92,-0.66,1005.95
15.936,-0.05,0.88,-0.22,-4.02,5.40,3.44,1.77,-3.92,-0.66,1005.95
15.936,-0.09,0.60,0.06,-4.02,5.40,3.44,1.77,-3.92,-0.66,1005.95
15.936,-0.09,0.60,0.06,-4.02,5.40,3.44,0.59,-4.68,0.59,1005.95
15.936,-0.09,0.60,0.06,2.55,1.49,3.12,0.59,-4.68,0.59,1005.95
15.994,-0.24,0.55,0.06,2.55,1.49,3.12,0.59,-4.68,0.59,1005.95
15.995,-0.25,0.58,0.03,2.55,1.49,3.12,0.59,-4.68,0.59,1005.95
15.995,-0.15,0.61,-0.01,2.55,1.49,3.12,0.59,-4.68,0.59,1005.95
15.995,-0.15,0.61,-0.01,2.55,1.49,3.12,-0.61,-3.77,2.39,1005.95
15.996,-0.15,0.61,-0.01,2.05,-2.09,4.32,-0.61,-3.77,2.39,1005.95
16.004,-0.15,0.61,-0.01,2.05,-2.09,4.32,-0.61,-3.77,2.39,1005.94
16.053,-0.06,0.59,-0.08,2.05,-2.09,4.32,-0.61,-3.77,2.39,1005.94
16.054,-0.03,0.63,-0.11,2.05,-2.09,4.32,-0.61,-3.77,2.39,1005.94
16.054,-0.09,0.71,-0.11,2.05,-2.09,4.32,-0.61,-3.77,2.39,1005.94
16.055,-0.09,0.71,-0.11,2.05,-2.09,4.32,-1.15,-1.35,3.96,1005.94
16.055,-0.09,0.71,-0.11,1.90,-2.43,2.23,-1.15,-1.35,3.96,1005.94
16.082,-0.09,0.71,-0.11,1.90,-2.43,2.23,-1.15,-1.35,3.96,1005.97
16.11,-0.20,0.85,-0.14,1.90,-2.43,2.23,-1.15,-1.35,3.96,1005.97
16.111,-0.29,1.01,-0.16,1.90,-2.43,2.23,-1.15,-1.35,3.96,1005.97
16.111,-0.35,1.17,-0.15,1.90,-2.43,2.23,-1.15,-1.35,3.96,1005.97
16.111,-0.35,1.17,-0.15,-2.76,0.50,0.60,-1.15,-1.35,3.96,1005.97
16.112,-0.35,1.17,-0.15,-2.76,0.50,0.60,-2.09,0.13,4.74,1005.97
16.122,-0.35,1.17,-0.15,-2.76,0.50,0.60,-2.09,0.13,4.74,1005.96
16.169,-0.47,1.41,-0.26,-2.76,0.50,0.60,-2.09,0.13,4.74,1005.96
16.17,-0.54,1.51,-0.36,-2.76,0.50,0.60,-2.09,0.13,4.74,1005.96
16.17,-0.49,1.42,-0.29,-2.76,0.50,0.60,-2.09,0.13,4.74,1005.96
16.171,-0.49,1.42,-0.29,-2.76,0.50,0.60,-2.86,-0.76,5.34,1005.96
16.171,-0.49,1.42,-0.29,-7.64,4.87,-2.38,-2.86,-0.76,5.34,1005.96
16.202,-0.49,1.42,-0.29,-7.64,4.87,-2.38,-2.86,-0.76,5.34,1005.91
16.228,-0.47,1.39,-0.27,-7.64,4.87,-2.38,-2.86,-0.76,5.34,1005.91
16.228,-0.54,1.31,-0.23,-7.64,4.87,-2.38,-2.86,-0.76,5.34,1005.91
16.228,-0.83,1.13,-0.41,-7.64,4.87,-2.38,-2.86,-0.76,5.34,1005.91
16.229,-0.83,1.13,-0.41,-7.64,4.87,-2.38,-2.34,-0.63,3.68,1005.91
16.229,-0.83,1.13,-0.41,-10.50,3.98,-3.41,-2.34,-0.63,3.68,1005.91
16.283,-0.83,1.13,-0.41,-10.50,3.98,-3.41,-2.34,-0.63,3.68,1005.87
16.286,-1.08,0.84,-0.42,-10.50,3.98,-3.41,-2.34,-0.63,3.68,1005.87
16.286,-1.14,0.69,-0.48,-10.50,3.98,-3.41,-2.34,-0.63,3.68,1005.87
16.286,-0.93,0.95,-0.69,-10.50,3.98,-3.41,-2.34,-0.63,3.68,1005.87
16.287,-0.93,0.95,-0.69,-10.50,3.98,-3.41,-0.45,-1.00,-0.61,1005.87
16.287,-0.93,0.95,-0.69,-14.26,-0.56,-5.47,-0.45,-1.00,-0.61,1005.87
16.322,-0.93,0.95,-0.69,-14.26,-0.56,-5.47,-0.45,-1.00,-0.61,1005.86
16.344,-0.04,1.58,-0.60,-14.26,-0.56,-5.47,-0.45,-1.00,-0.61,1005.86
16.345,2.30,1.60,0.53,-14.26,-0.56,-5.47,-0.45,-1.00,-0.61,1005.86
16.345,2.23,1.38,-0.07,-14.26,-0.56,-5.47,-0.45,-1.00,-0.61,1005.86
16.345,2.23,1.38,-0.07,-14.26,-0.56,-5.47,-0.40,-2.43,-0.70,1005.86
16.345,2.23,1.38,-0.07,10.87,5.99,-0.40,-0.40,-2.43,-0.70,1005.86
16.403,-0.56,1.48,-1.09,10.87,5.99,-0.40,-0.40,-2.43,-0.70,1005.86
16.403,-0.88,0.96,-0.53,10.87,5.99,-0.40,-0.40,-2.43,-0.70,1005.86
16.403,-0.38,0.57,0.65,10.87,5.99,-0.40,-0.40,-2.43,-0.70,1005.86
16.404,-0.38,0.57,0.65,10.87,5.99,-0.40,0.23,-0.23,-3.17,1005.86
16.404,-0.38,0.57,0.65,10.87,5.99,-0.40,0.23,-0.23,-3.17,1005.89
16.404,-0.38,0.57,0.65,-7.93,0.36,-2.88,0.23,-0.23,-3.17,1005.89
16.461,-0.21,0.92,0.40,-7.93,0.36,-2.88,0.23,-0.23,-3.17,1005.89
16.462,0.20,1.14,0.02,-7.93,0.36,-2.88,0.23,-0.23,-3.17,1005.89
16.462,0.11,1.11,-0.17,-7.93,0.36,-2.88,0.23,-0.23,-3.17,1005.89
16.462,0.11,1.11,-0.17,-0.92,0.73,1.18,0.23,-0.23,-3.17,1005.89
16.462,0.11,1.11,-0.17,-0.92,0.73,1.18,0.15,-0.30,-1.24,1005.89
16.483,0.11,1.11,-0.17,-0.92,0.73,1.18,0.15,-0.30,-1.24,1005.90
16.519,0.10,1.07,-0.14,-0.92,0.73,1.18,0.15,-0.30,-1.24,1005.90
16.52,0.10,1.02,-0.05,-0.92,0.73,1.18,0.15,-0.30,-1.24,1005.90
16.52,-0.01,0.97,0.03,-0.92,0.73,1.18,0.15,-0.30,-1.24,1005.90
16.521,-0.01,0.97,0.03,-0.02,0.36,-0.03,0.15,-0.30,-1.24,1005.90
16.521,-0.01,0.97,0.03,-0.02,0.36,-0.03,0.19,-0.07,-1.08,1005.90
16.523,-0.01,0.97,0.03,-0.02,0.36,-0.03,0.19,-0.07,-1.08,1005.94
16.578,-0.05,0.98,0.08,-0.02,0.36,-0.03,0.19,-0.07,-1.08,1005.94
16.578,0.11,1.01,0.06,-0.02,0.36,-0.03,0.19,-0.07,-1.08,1005.94
16.579,0.20,0.96,0.04,-0.02,0.36,-0.03,0.19,-0.07,-1.08,1005.94
16.579,0.20,0.96,0.04,-0.02,0.36,-0.03,0.30,-0.36,-0.98,1005.94
16.579,0.20,0.96,0.04,0.76,0.00,1.22,0.30,-0.36,-0.98,1005.94
16.605,0.20,0.96,0.04,0.76,0.00,1.22,0.30,-0.36,-0.98,1005.95
16.635,0.09,0.93,0.01,0.76,0.00,1.22,0.30,-0.36,-0.98,1005.95
16.636,-0.06,0.97,-0.04,0.76,0.00,1.22,0.30,-0.36,-0.98,1005.95
16.636,-0.09,1.03,-0.04,0.76,0.00,1.22,0.30,-0.36,-0.98,1005.95
16.637,-0.09,1.03,-0.04,0.76,0.00,1.22,0.45,0.06,-1.29,1005.95
16.637,-0.09,1.03,-0.04,0.40,-0.02,0.66,0.45,0.06,-1.29,1005.95
16.682,-0.09,1.03,-0.04,0.40,-0.02,0.66,0.45,0.06,-1.29,1005.95
16.693,-0.09,1.04,-0.08,0.40,-0.02,0.66,0.45,0.06,-1.29,1005.95
16.694,-0.11,1.00,-0.10,0.40,-0.02,0.66,0.45,0.06,-1.29,1005.95
16.694,-0.12,0.97,-0.13,0.40,-0.02,0.66,0.45,0.06,-1.29,1005.95
16.695,-0.12,0.97,-0.13,0.40,-0.02,0.66,0.51,0.12,-1.30,1005.95
16.696,-0.12,0.97,-0.13,0.31,0.29,0.15,0.51,0.12,-1.30,1005.95
16.723,-0.12,0.97,-0.13,0.31,0.29,0.15,0.51,0.12,-1.30,1005.96
16.752,-0.15,0.98,-0.16,0.31,0.29,0.15,0.51,0.12,-1.30,1005.96
16.753,-0.14,0.97,-0.18,0.31,0.29,0.15,0.51,0.12,-1.30,1005.96
16.753,-0.18,0.99,-0.18,0.31,0.29,0.15,0.51,0.12,-1.30,1005.96
16.753,-0.18,0.99,-0.18,0.31,0.29,0.15,0.48,0.24,-1.35,1005.96
16.754,-0.18,0.99,-0.18,0.52,0.26,-0.21,0.48,0.24,-1.35,1005.96
16.802,-0.18,0.99,-0.18,0.52,0.26,-0.21,0.48,0.24,-1.35,1005.97
16.815,-0.18,0.99,-0.18,1.92,2.06,0.92,0.48,0.24,-1.35,1005.97
16.815,-0.18,1.08,-0.14,1.92,2.06,0.92,0.48,0.24,-1.35,1005.97
16.816,-0.08,1.14,-0.08,1.92,2.06,0.92,0.48,0.24,-1.35,1005.97
16.816,-0.01,1.21,-0.04,1.92,2.06,0.92,0.48,0.24,-1.35,1005.97
16.816,-0.01,1.21,-0.04,1.92,2.06,0.92,0.62,-0.16,-1.44,1005.97
16.869,0.00,1.22,-0.07,1.92,2.06,0.92,0.62,-0.16,-1.44,1005.97
16.87,-0.01,1.19,-0.10,1.92,2.06,0.92,0.62,-0.16,-1.44,1005.97
16.871,0.04,1.27,-0.11,1.92,2.06,0.92,0.62,-0.16,-1.44,1005.97
16.872,0.04,1.27,-0.11,1.92,2.06,0.92,0.98,0.07,-1.88,1005.97
16.872,0.04,1.27,-0.11,3.83,3.30,1.38,0.98,0.07,-1.88,1005.97
16.883,0.04,1.27,-0.11,3.83,3.30,1.38,0.98,0.07,-1.88,1005.97
16.922,0.04,1.27,-0.11,3.83,3.30,1.38,0.98,0.07,-1.88,1005.95
16.927,0.25,1.60,0.09,3.83,3.30,1.38,0.98,0.07,-1.88,1005.95
16.928,0.80,1.88,0.18,3.83,3.30,1.38,0.98,0.07,-1.88,1005.95
16.928,1.16,1.73,0.09,3.83,3.30,1.38,0.98,0.07,-1.88,1005.95
16.929,1.16,1.73,0.09,3.83,3.30,1.38,1.32,0.81,-2.16,1005.95
16.929,1.16,1.73,0.09,11.69,8.90,4.26,1.32,0.81,-2.16,1005.95
16.985,0.75,1.29,0.02,11.69,8.90,4.26,1.32,0.81,-2.16,1005.95
16.985,-0.33,1.12,-0.25,11.69,8.90,4.26,1.32,0.81,-2.16,1005.95
16.985,-1.03,1.43,-0.36,11.69,8.90,4.26,1.32,0.81,-2.16,1005.95
16.986,-1.03,1.43,-0.36,11.69,8.90,4.26,1.52,2.86,-3.63,1005.95
16.986,-1.03,1.43,-0.36,3.31,5.68,2.59,1.52,2.86,-3.63,1005.95
17.002,-1.03,1.43,-0.36,3.31,5.68,2.59,1.52,2.86,-3.63,1005.95
17.049,-0.93,1.36,-0.36,3.31,5.68,2.59,1.52,2.86,-3.63,1005.95
17.049,-0.60,0.81,-0.43,3.31,5.68,2.59,1.52,2.86,-3.63,1005.95
17.05,-0.56,0.53,-0.39,3.31,5.68,2.59,1.52,2.86,-3.63,1005.95
17.05,-0.56,0.53,-0.39,3.31,5.68,2.59,1.05,1.30,-2.02,1005.95
17.052,-0.56,0.53,-0.39,-1.07,2.92,1.44,1.05,1.30,-2.02,1005.95
17.083,-0.56,0.53,-0.39,-1.07,2.92,1.44,1.05,1.30,-2.02,1005.93
17.101,-0.49,0.42,-0.57,-1.07,2.92,1.44,1.05,1.30,-2.02,1005.93
17.102,-0.37,0.34,-0.42,-1.07,2.92,1.44,1.05,1.30,-2.02,1005.93
17.102,-0.29,0.18,-0.19,-1.07,2.92,1.44,1.05,1.30,-2.02,1005.93
17.102,-0.29,0.18,-0.19,1.70,-3.39,0.89,1.05,1.30,-2.02,1005.93
17.102,-0.29,0.18,-0.19,1.70,-3.39,0.89,-1.36,-0.08,0.62,1005.93
17.123,-0.29,0.18,-0.19,1.70,-3.39,0.89,-1.36,-0.08,0.62,1005.92
17.16,-0.24,0.14,-0.20,1.70,-3.39,0.89,-1.36,-0.08,0.62,1005.92
17.161,-0.22,0.20,-0.23,1.70,-3.39,0.89,-1.36,-0.08,0.62,1005.92
17.162,-0.12,0.34,-0.33,1.70,-3.39,0.89,-1.36,-0.08,0.62,1005.92
17.162,-0.12,0.34,-0.33,1.70,-3.39,0.89,-2.39,-0.90,3.13,1005.92
17.162,-0.12,0.34,-0.33,2.44,-5.64,0.97,-2.39,-0.90,3.13,1005.92
17.203,-0.12,0.34,-0.33,2.44,-5.64,0.97,-2.39,-0.90,3.13,1005.94
17.218,0.01,0.48,-0.28,2.44,-5.64,0.97,-2.39,-0.90,3.13,1005.94
17.219,0.05,0.65,-0.30,2.44,-5.64,0.97,-2.39,-0.90,3.13,1005.94
17.22,-0.04,0.75,-0.22,2.44,-5.64,0.97,-2.39,-0.90,3.13,1005.94
17.221,-0.04,0.75,-0.22,2.44,-5.64,0.97,-2.82,-0.26,5.03,1005.94
17.222,-0.04,0.75,-0.22,1.91,-3.03,-0.63,-2.82,-0.26,5.03,1005.94
17.277,-0.08,0.90,-0.29,1.91,-3.03,-0.63,-2.82,-0.26,5.03,1005.94
17.278,-0.03,1.23,-0.44,1.91,-3.03,-0.63,-2.82,-0.26,5.03,1005.94
17.278,-0.04,1.74,-0.53,1.91,-3.03,-0.63,-2.82,-0.26,5.03,1005.94
17.278,-0.04,1.74,-0.53,1.91,-3.03,-0.63,-2.62,0.96,5.72,1005.94
17.278,-0.04,1.74,-0.53,-1.81,3.17,-3.53,-2.62,0.96,5.72,1005.94
17.282,-0.04,1.74,-0.53,-1.81,3.17,-3.53,-2.62,0.96,5.72,1005.96
17.322,-0.04,1.74,-0.53,-1.81,3.17,-3.53,-2.62,0.96,5.72,1005.95
17.335,-0.44,2.10,-0.72,-1.81,3.17,-3.53,-2.62,0.96,5.72,1005.95
17.335,-0.88,1.72,-0.51,-1.81,3.17,-3.53,-2.62,0.96,5.72,1005.95
17.335,-0.78,1.10,-0.18,-1.81,3.17,-3.53,-2.62,0.96,5.72,1005.95
17.336,-0.78,1.10,-0.18,-1.81,3.17,-3.53,-2.93,0.50,5.10,1005.95
17.336,-0.78,1.10,-0.18,-10.77,7.29,-5.58,-2.93,0.50,5.10,1005.95
17.393,-0.61,1.02,-0.44,-10.77,7.29,-5.58,-2.93,0.50,5.10,1005.95
17.394,-0.67,1.02,-0.45,-10.77,7.29,-5.58,-2.93,0.50,5.10,1005.95
17.395,-0.79,0.78,-0.33,-10.77,7.29,-5.58,-2.93,0.50,5.10,1005.95
17.395,-0.79,0.78,-0.33,-10.77,7.29,-5.58,-1.09,-1.25,1.55,1005.95
17.395,-0.79,0.78,-0.33,-11.33,0.85,-5.01,-1.09,-1.25,1.55,1005.95
17.402,-0.79,0.78,-0.33,-11.33,0.85,-5.01,-1.09,-1.25,1.55,1005.87
17.451,-0.84,0.85,-0.39,-11.33,0.85,-5.01,-1.09,-1.25,1.55,1005.87
17.452,-0.40,1.50,-0.36,-11.33,0.85,-5.01,-1.09,-1.25,1.55,1005.87
17.452,1.96,1.74,1.06,-11.33,0.85,-5.01,-1.09,-1.25,1.55,1005.87
17.452,1.96,1.74,1.06,-11.33,0.85,-5.01,-0.13,-1.79,-1.73,1005.87
17.452,1.96,1.74,1.06,-1.46,4.56,0.32,-0.13,-1.79,-1.73,1005.87
17.482,1.96,1.74,1.06,-1.46,4.56,0.32,-0.13,-1.79,-1.73,1005.87
17.518,2.81,1.26,0.39,-1.46,4.56,0.32,-0.13,-1.79,-1.73,1005.87
17.519,-0.13,1.33,-0.88,-1.46,4.56,0.32,-0.13,-1.79,-1.73,1005.87
17.519,-1.08,1.18,-1.08,-1.46,4.56,0.32,-0.13,-1.79,-1.73,1005.87
17.52,-1.08,1.18,-1.08,2.67,2.95,-5.27,-0.13,-1.79,-1.73,1005.87
17.52,-1.08,1.18,-1.08,2.67,2.95,-5.27,0.85,0.16,-2.40,1005.87
17.527,-1.08,1.18,-1.08,2.67,2.95,-5.27,0.85,0.16,-2.40,1005.89
17.569,-0.73,0.82,0.18,2.67,2.95,-5.27,0.85,0.16,-2.40,1005.89
17.57,-0.21,0.85,0.39,2.67,2.95,-5.27,0.85,0.16,-2.40,1005.89
17.57,0.01,1.00,0.26,2.67,2.95,-5.27,0.85,0.16,-2.40,1005.89
17.571,0.01,1.00,0.26,2.67,2.95,-5.27,0.09,-0.38,-1.90,1005.89
17.571,0.01,1.00,0.26,-4.49,-0.83,2.62,0.09,-0.38,-1.90,1005.89
17.602,0.01,1.00,0.26,-4.49,-0.83,2.62,0.09,-0.38,-1.90,1005.95
17.627,0.16,1.05,0.08,-4.49,-0.83,2.62,0.09,-0.38,-1.90,1005.95
17.628,0.10,1.02,-0.08,-4.49,-0.83,2.62,0.09,-0.38,-1.90,1005.95
17.628,0.01,1.03,-0.14,-4.49,-0.83,2.62,0.09,-0.38,-1.90,1005.95
17.628,0.01,1.03,-0.14,0.12,0.49,-0.34,0.09,-0.38,-1.90,1005.95
17.629,0.01,1.03,-0.14,0.12,0.49,-0.34,0.40,-0.29,-1.18,1005.95
17.683,0.01,1.03,-0.14,0.12,0.49,-0.34,0.40,-0.29,-1.18,1005.99
17.685,-0.05,1.06,-0.13,0.12,0.49,-0.34,0.40,-0.29,-1.18,1005.99
17.685,-0.12,1.05,-0.03,0.12,0.49,-0.34,0.40,-0.29,-1.18,1005.99
17.685,-0.06,1.02,0.04,0.12,0.49,-0.34,0.40,-0.29,-1.18,1005.99
17.686,-0.06,1.02,0.04,0.12,0.49,-0.34,0.26,0.10,-0.90,1005.99
17.686,-0.06,1.02,0.04,-1.00,0.55,-0.11,0.26,0.10,-0.90,1005.99
17.723,-0.06,1.02,0.04,-1.00,0.55,-0.11,0.26,0.10,-0.90,1005.99
17.743,0.17,0.99,0.05,-1.00,0.55,-0.11,0.26,0.10,-0.90,1005.99
17.744,0.26,0.97,0.04,-1.00,0.55,-0.11,0.26,0.10,-0.90,1005.99
17.744,0.09,0.97,0.01,-1.00,0.55,-0.11,0.26,0.10,-0.90,1005.99
17.744,0.09,0.97,0.01,-1.00,0.55,-0.11,0.34,-0.14,-0.83,1005.99
17.745,0.09,0.97,0.01,1.87,-0.11,0.80,0.34,-0.14,-0.83,1005.99
17.801,-0.05,0.96,-0.03,1.87,-0.11,0.80,0.34,-0.14,-0.83,1005.99
17.802,-0.08,0.99,0.01,1.87,-0.11,0.80,0.34,-0.14,-0.83,1005.99
17.802,-0.06,1.02,-0.01,1.87,-0.11,0.80,0.34,-0.14,-0.83,1005.99
17.806,-0.06,1.02,-0.01,1.87,-0.11,0.80,0.48,0.43,-1.15,1005.99
17.806,-0.06,1.02,-0.01,0.20,0.10,0.64,0.48,0.43,-1.15,1005.99
17.806,-0.06,1.02,-0.01,0.20,0.10,0.64,0.48,0.43,-1.15,1005.98
17.86,-0.09,1.00,-0.07,0.20,0.10,0.64,0.48,0.43,-1.15,1005.98
17.861,-0.10,0.97,-0.12,0.20,0.10,0.64,0.48,0.43,-1.15,1005.98
17.861,-0.13,0.96,-0.15,0.20,0.10,0.64,0.48,0.43,-1.15,1005.98
17.861,-0.13,0.96,-0.15,0.20,0.10,0.64,0.53,0.16,-1.15,1005.98
17.862,-0.13,0.96,-0.15,0.40,0.09,-0.07,0.53,0.16,-1.15,1005.98
17.882,-0.13,0.96,-0.15,0.40,0.09,-0.07,0.53,0.16,-1.15,1005.97
17.918,-0.14,0.98,-0.13,0.40,0.09,-0.07,0.53,0.16,-1.15,1005.97
17.919,-0.14,1.02,-0.11,0.40,0.09,-0.07,0.53,0.16,-1.15,1005.97
17.919,-0.11,1.08,-0.07,0.40,0.09,-0.07,0.53,0.16,-1.15,1005.97
17.919,-0.11,1.08,-0.07,0.40,0.09,-0.07,0.53,0.24,-1.21,1005.97
17.919,-0.11,1.08,-0.07,0.80,0.67,0.32,0.53,0.24,-1.21,1005.97
17.923,-0.11,1.08,-0.07,0.80,0.67,0.32,0.53,0.24,-1.21,1005.97
17.976,-0.12,1.11,-0.09,0.80,0.67,0.32,0.53,0.24,-1.21,1005.97
17.977,-0.05,1.12,-0.06,0.80,0.67,0.32,0.53,0.24,-1.21,1005.97
17.977,0.05,1.14,-0.03,0.80,0.67,0.32,0.53,0.24,-1.21,1005.97
17.977,0.05,1.14,-0.03,0.80,0.67,0.32,0.79,-0.16,-1.44,1005.97
17.978,0.05,1.14,-0.03,2.44,1.89,1.15,0.79,-0.16,-1.44,1005.97
18.002,0.05,1.14,-0.03,2.44,1.89,1.15,0.79,-0.16,-1.44,1005.97
18.034,0.04,1.28,-0.04,2.44,1.89,1.15,0.79,-0.16,-1.44,1005.97
18.035,0.12,1.51,0.07,2.44,1.89,1.15,0.79,-0.16,-1.44,1005.97
18.035,0.33,1.56,-0.08,2.44,1.89,1.15,0.79,-0.16,-1.44,1005.97
18.035,0.33,1.56,-0.08,2.44,1.89,1.15,1.24,0.48,-1.98,1005.97
18.035,0.33,1.56,-0.08,5.32,5.54,2.26,1.24,0.48,-1.98,1005.97
18.082,0.33,1.56,-0.08,5.32,5.54,2.26,1.24,0.48,-1.98,1005.98
18.093,0.43,1.51,-0.29,5.32,5.54,2.26,1.24,0.48,-1.98,1005.98
18.093,0.71,1.51,-0.26,5.32,5.54,2.26,1.24,0.48,-1.98,1005.98
18.093,0.68,1.31,-0.15,5.32,5.54,2.26,1.24,0.48,-1.98,1005.98
18.094,0.68,1.31,-0.15,5.32,5.54,2.26,1.46,1.29,-2.41,1005.98
18.094,0.68,1.31,-0.15,10.42,6.22,1.14,1.46,1.29,-2.41,1005.98
18.123,0.68,1.31,-0.15,10.42,6.22,1.14,1.46,1.29,-2.41,1005.97
18.151,-0.18,1.02,-0.14,10.42,6.22,1.14,1.46,1.29,-2.41,1005.97
18.151,-1.05,1.14,-0.22,10.42,6.22,1.14,1.46,1.29,-2.41,1005.97
18.152,-1.22,1.26,-0.31,10.42,6.22,1.14,1.46,1.29,-2.41,1005.97
18.152,-1.22,1.26,-0.31,-2.58,4.49,2.48,1.46,1.29,-2.41,1005.97
18.152,-1.22,1.26,-0.31,-2.58,4.49,2.48,1.78,1.86,-3.15,1005.97
18.202,-1.22,1.26,-0.31,-2.58,4.49,2.48,1.78,1.86,-3.15,1005.96
18.21,-0.95,0.82,-0.33,-2.58,4.49,2.48,1.78,1.86,-3.15,1005.96
18.211,-0.73,0.47,-0.23,-2.58,4.49,2.48,1.78,1.86,-3.15,1005.96
18.211,-0.65,0.40,-0.31,-2.58,4.49,2.48,1.78,1.86,-3.15,1005.96
18.211,-0.65,0.40,-0.31,-2.58,4.49,2.48,1.06,-0.56,-0.69,1005.96
18.212,-0.65,0.40,-0.31,-1.74,-0.61,2.02,1.06,-0.56,-0.69,1005.96
18.268,-0.42,0.34,-0.20,-1.74,-0.61,2.02,1.06,-0.56,-0.69,1005.96
18.268,-0.14,0.09,0.16,-1.74,-0.61,2.02,1.06,-0.56,-0.69,1005.96
18.268,-0.10,-0.05,0.08,-1.74,-0.61,2.02,1.06,-0.56,-0.69,1005.96
18.269,-0.10,-0.05,0.08,3.28,-5.57,4.25,1.06,-0.56,-0.69,1005.96
18.269,-0.10,-0.05,0.08,3.28,-5.57,4.25,-0.23,-1.70,2.11,1005.96
18.282,-0.10,-0.05,0.08,3.28,-5.57,4.25,-0.23,-1.70,2.11,1005.93
18.322,-0.10,-0.05,0.08,3.28,-5.57,4.25,-0.23,-1.70,2.11,1005.94
18.326,-0.17,0.05,-0.04,3.28,-5.57,4.25,-0.23,-1.70,2.11,1005.94
18.326,-0.26,0.23,-0.16,3.28,-5.57,4.25,-0.23,-1.70,2.11,1005.94
18.327,-0.36,0.37,-0.20,3.28,-5.57,4.25,-0.23,-1.70,2.11,1005.94
18.327,-0.36,0.37,-0.20,3.28,-5.57,4.25,0.28,-2.21,4.00,1005.94
18.327,-0.36,0.37,-0.20,1.59,-5.66,2.26,0.28,-2.21,4.00,1005.94
18.384,-0.41,0.43,-0.13,1.59,-5.66,2.26,0.28,-2.21,4.00,1005.94
18.385,-0.42,0.49,-0.17,1.59,-5.66,2.26,0.28,-2.21,4.00,1005.94
18.385,-0.46,0.64,-0.31,1.59,-5.66,2.26,0.28,-2.21,4.00,1005.94
18.385,-0.46,0.64,-0.31,1.59,-5.66,2.26,0.39,-3.86,6.00,1005.94
18.386,-0.46,0.64,-0.31,-2.15,-3.65,1.05,0.39,-3.86,6.00,1005.94
18.402,-0.46,0.64,-0.31,-2.15,-3.65,1.05,0.39,-3.86,6.00,1006.00
18.443,-0.56,0.90,-0.39,-2.15,-3.65,1.05,0.39,-3.86,6.00,1006.00
18.444,-0.64,1.11,-0.47,-2.15,-3.65,1.05,0.39,-3.86,6.00,1006.00
18.444,-0.60,1.26,-0.47,-2.15,-3.65,1.05,0.39,-3.86,6.00,1006.00
18.444,-0.60,1.26,-0.47,-2.15,-3.65,1.05,0.90,-7.37,6.87,1006.00
18.445,-0.60,1.26,-0.47,-6.00,1.71,-1.17,0.90,-7.37,6.87,1006.00
18.484,-0.60,1.26,-0.47,-6.00,1.71,-1.17,0.90,-7.37,6.87,1005.96
18.501,-0.52,1.37,-0.40,-6.00,1.71,-1.17,0.90,-7.37,6.87,1005.96
18.502,-0.40,1.37,-0.20,-6.00,1.71,-1.17,0.90,-7.37,6.87,1005.96
18.502,-0.14,1.28,0.06,-6.00,1.71,-1.17,0.90,-7.37,6.87,1005.96
18.502,-0.14,1.28,0.06,-6.00,1.71,-1.17,0.42,-9.39,4.85,1005.96
18.502,-0.14,1.28,0.06,-4.14,4.31,1.96,0.42,-9.39,4.85,1005.96
18.526,-0.14,1.28,0.06,-4.14,4.31,1.96,0.42,-9.39,4.85,1005.87
18.559,-0.05,1.16,0.20,-4.14,4.31,1.96,0.42,-9.39,4.85,1005.87
18.56,-0.51,1.28,0.13,-4.14,4.31,1.96,0.42,-9.39,4.85,1005.87
18.56,-0.58,1.25,0.63,-4.14,4.31,1.96,0.42,-9.39,4.85,1005.87
18.56,-0.58,1.25,0.63,-4.14,4.31,1.96,-0.30,-3.51,0.25,1005.87
18.56,-0.58,1.25,0.63,-3.72,3.13,6.68,-0.30,-3.51,0.25,1005.87
18.603,-0.58,1.25,0.63,-3.72,3.13,6.68,-0.30,-3.51,0.25,1005.93
18.618,0.47,0.71,1.23,-3.72,3.13,6.68,-0.30,-3.51,0.25,1005.93
18.618,0.15,1.05,0.25,-3.72,3.13,6.68,-0.30,-3.51,0.25,1005.93
18.619,-0.16,1.27,-0.86,-3.72,3.13,6.68,-0.30,-3.51,0.25,1005.93
18.619,-0.16,1.27,-0.86,1.68,0.85,5.17,-0.30,-3.51,0.25,1005.93
18.619,-0.16,1.27,-0.86,1.68,0.85,5.17,-0.58,0.90,-0.65,1005.93
18.677,-0.31,1.43,-1.01,1.68,0.85,5.17,-0.58,0.90,-0.65,1005.93
18.678,-0.29,1.42,-0.42,1.68,0.85,5.17,-0.58,0.90,-0.65,1005.93
18.679,0.13,1.07,-0.46,1.68,0.85,5.17,-0.58,0.90,-0.65,1005.93
18.679,0.13,1.07,-0.46,-1.06,3.68,-3.18,-0.58,0.90,-0.65,1005.93
18.679,0.13,1.07,-0.46,-1.06,3.68,-3.18,-0.43,-0.84,-0.26,1005.93
18.682,0.13,1.07,-0.46,-1.06,3.68,-3.18,-0.43,-0.84,-0.26,1005.99
18.723,0.13,1.07,-0.46,-1.06,3.68,-3.18,-0.43,-0.84,-0.26,1005.97
18.734,0.45,0.87,-0.24,-1.06,3.68,-3.18,-0.43,-0.84,-0.26,1005.97
