time,gFx,gFy,gFz,ax,ay,az,wx,wy,wz,P
0.033,0.01,1.00,0.17,0.03,0.03,0.01,0.09,-0.06,-0.03,1005.91
0.034,0.01,1.00,0.17,0.03,0.03,0.01,0.12,-0.05,-0.02,1005.91
0.052,0.01,1.00,0.22,0.03,0.03,0.01,0.12,-0.05,-0.02,1005.91
0.052,-0.00,0.98,0.20,0.03,0.03,0.01,0.12,-0.05,-0.02,1005.91
0.053,-0.01,0.98,0.21,0.03,0.03,0.01,0.12,-0.05,-0.02,1005.91
0.057,-0.01,0.98,0.21,0.03,0.03,0.01,0.12,-0.05,-0.02,1005.91
0.091,-0.01,0.98,0.21,0.03,0.03,0.01,0.15,-0.05,-0.00,1005.91
0.092,-0.01,0.98,0.21,-0.13,-0.03,0.12,0.15,-0.05,-0.00,1005.91
0.095,-0.01,0.98,0.21,-0.13,-0.03,0.12,0.15,-0.05,-0.00,1005.91
0.11,-0.02,0.99,0.20,-0.13,-0.03,0.12,0.15,-0.05,-0.00,1005.91
0.111,-0.01,1.00,0.19,-0.13,-0.03,0.12,0.15,-0.05,-0.00,1005.91
0.111,-0.01,0.99,0.21,-0.13,-0.03,0.12,0.15,-0.05,-0.00,1005.91
0.149,-0.01,0.99,0.21,0.07,-0.09,0.06,0.15,-0.05,-0.00,1005.91
0.15,-0.01,0.99,0.21,0.07,-0.09,0.06,0.17,-0.05,0.02,1005.91
0.169,0.03,0.98,0.17,0.07,-0.09,0.06,0.17,-0.05,0.02,1005.91
0.17,0.02,0.99,0.18,0.07,-0.09,0.06,0.17,-0.05,0.02,1005.91
0.17,-0.01,1.01,0.16,0.07,-0.09,0.06,0.17,-0.05,0.02,1005.91
0.177,-0.01,1.01,0.16,0.07,-0.09,0.06,0.17,-0.05,0.02,1005.90
0.207,-0.01,1.01,0.16,-0.20,0.07,-0.29,0.17,-0.05,0.02,1005.90
0.209,-0.01,1.01,0.16,-0.20,0.07,-0.29,0.15,0.01,0.03,1005.90
0.227,-0.02,1.01,0.13,-0.20,0.07,-0.29,0.15,0.01,0.03,1005.90
0.227,-0.01,1.00,0.13,-0.20,0.07,-0.29,0.15,0.01,0.03,1005.90
0.228,0.01,1.00,0.13,-0.20,0.07,-0.29,0.15,0.01,0.03,1005.90
0.257,0.01,1.00,0.13,-0.20,0.07,-0.29,0.15,0.01,0.03,1005.90
0.266,0.01,1.00,0.13,0.18,0.06,-0.28,0.15,0.01,0.03,1005.90
0.266,0.01,1.00,0.13,0.18,0.06,-0.28,0.07,0.05,0.07,1005.90
0.287,0.03,1.00,0.13,0.18,0.06,-0.28,0.07,0.05,0.07,1005.90
0.287,0.03,1.01,0.13,0.18,0.06,-0.28,0.07,0.05,0.07,1005.90
0.288,0.02,1.01,0.14,0.18,0.06,-0.28,0.07,0.05,0.07,1005.90
0.296,0.02,1.01,0.14,0.18,0.06,-0.28,0.07,0.05,0.07,1005.90
0.324,0.02,1.01,0.14,0.04,0.11,-0.27,0.07,0.05,0.07,1005.90
0.325,0.02,1.01,0.14,0.04,0.11,-0.27,0.03,0.17,0.01,1005.90
0.344,-0.00,1.01,0.13,0.04,0.11,-0.27,0.03,0.17,0.01,1005.90
0.344,0.02,1.01,0.13,0.04,0.11,-0.27,0.03,0.17,0.01,1005.90
0.344,0.06,1.00,0.19,0.04,0.11,-0.27,0.03,0.17,0.01,1005.90
0.377,0.06,1.00,0.19,0.04,0.11,-0.27,0.03,0.17,0.01,1005.90
0.382,0.06,1.00,0.19,0.72,-0.07,0.54,0.03,0.17,0.01,1005.90
0.383,0.06,1.00,0.19,0.72,-0.07,0.54,0.02,0.16,-0.09,1005.90
0.403,0.09,0.98,0.24,0.72,-0.07,0.54,0.02,0.16,-0.09,1005.90
0.403,0.08,0.99,0.22,0.72,-0.07,0.54,0.02,0.16,-0.09,1005.90
0.404,0.11,0.98,0.23,0.72,-0.07,0.54,0.02,0.16,-0.09,1005.90
0.441,0.11,0.98,0.23,0.58,-0.47,1.08,0.02,0.16,-0.09,1005.90
0.442,0.11,0.98,0.23,0.58,-0.47,1.08,0.26,0.10,-0.39,1005.90
0.456,0.11,0.98,0.23,0.58,-0.47,1.08,0.26,0.10,-0.39,1005.89
0.459,0.05,0.95,0.27,0.58,-0.47,1.08,0.26,0.10,-0.39,1005.89
0.46,-0.03,0.91,0.29,0.58,-0.47,1.08,0.26,0.10,-0.39,1005.89
0.46,-0.11,0.90,0.32,0.58,-0.47,1.08,0.26,0.10,-0.39,1005.89
0.499,-0.11,0.90,0.32,0.58,-0.47,1.08,0.26,0.10,-0.39,1005.90
0.511,-0.11,0.90,0.32,-0.35,-0.61,1.53,0.26,0.10,-0.39,1005.90
0.512,-0.11,0.90,0.32,-0.35,-0.61,1.53,0.59,-0.02,-0.43,1005.90
0.519,-0.12,0.94,0.29,-0.35,-0.61,1.53,0.59,-0.02,-0.43,1005.90
0.519,-0.01,0.97,0.23,-0.35,-0.61,1.53,0.59,-0.02,-0.43,1005.90
0.52,0.05,0.98,0.19,-0.35,-0.61,1.53,0.59,-0.02,-0.43,1005.90
0.559,0.05,0.98,0.19,0.76,-0.08,0.17,0.59,-0.02,-0.43,1005.90
0.561,0.05,0.98,0.19,0.76,-0.08,0.17,0.89,-0.03,-0.51,1005.90
0.585,0.05,0.98,0.19,0.76,-0.08,0.17,0.89,-0.03,-0.51,1005.91
0.587,-0.01,0.99,0.12,0.76,-0.08,0.17,0.89,-0.03,-0.51,1005.91
0.588,-0.01,1.01,-0.04,0.76,-0.08,0.17,0.89,-0.03,-0.51,1005.91
0.589,-0.00,0.99,-0.05,0.76,-0.08,0.17,0.89,-0.03,-0.51,1005.91
0.616,-0.00,0.99,-0.05,0.76,-0.08,0.17,0.48,-0.06,-0.52,1005.91
0.617,-0.00,0.99,-0.05,0.02,-0.08,-0.73,0.48,-0.06,-0.52,1005.91
0.636,-0.09,0.99,-0.03,0.02,-0.08,-0.73,0.48,-0.06,-0.52,1005.91
0.637,-0.20,0.99,-0.02,0.02,-0.08,-0.73,0.48,-0.06,-0.52,1005.91
0.638,-0.23,1.03,-0.11,0.02,-0.08,-0.73,0.48,-0.06,-0.52,1005.91
0.659,-0.23,1.03,-0.11,0.02,-0.08,-0.73,0.48,-0.06,-0.52,1005.92
0.674,-0.23,1.03,-0.11,0.02,-0.08,-0.73,0.41,0.01,-0.36,1005.92
0.676,-0.23,1.03,-0.11,-0.97,0.57,-0.87,0.41,0.01,-0.36,1005.92
0.695,-0.20,1.10,-0.14,-0.97,0.57,-0.87,0.41,0.01,-0.36,1005.92
0.696,-0.25,1.05,0.03,-0.97,0.57,-0.87,0.41,0.01,-0.36,1005.92
0.697,-0.26,0.94,0.10,-0.97,0.57,-0.87,0.41,0.01,-0.36,1005.92
0.698,-0.26,0.94,0.10,-0.97,0.57,-0.87,0.41,0.01,-0.36,1005.90
0.732,-0.26,0.94,0.10,-0.97,0.57,-0.87,0.60,0.03,-0.13,1005.90
0.734,-0.26,0.94,0.10,-0.96,-0.42,0.97,0.60,0.03,-0.13,1005.90
0.753,-0.22,0.94,0.09,-0.96,-0.42,0.97,0.60,0.03,-0.13,1005.90
0.754,-0.22,0.98,0.06,-0.96,-0.42,0.97,0.60,0.03,-0.13,1005.90
0.755,-0.25,1.01,-0.02,-0.96,-0.42,0.97,0.60,0.03,-0.13,1005.90
0.786,-0.25,1.01,-0.02,-0.96,-0.42,0.97,0.60,0.03,-0.13,1005.90
0.792,-0.25,1.01,-0.02,-1.76,0.14,0.39,0.60,0.03,-0.13,1005.90
0.794,-0.25,1.01,-0.02,-1.76,0.14,0.39,0.90,-0.00,0.16,1005.90
0.812,-0.32,1.01,-0.05,-1.76,0.14,0.39,0.90,-0.00,0.16,1005.90
0.814,-0.37,1.01,-0.02,-1.76,0.14,0.39,0.90,-0.00,0.16,1005.90
0.816,-0.30,1.01,0.03,-1.76,0.14,0.39,0.90,-0.00,0.16,1005.90
0.849,-0.30,1.01,0.03,-1.76,0.14,0.39,1.04,-0.52,0.33,1005.90
0.851,-0.30,1.01,0.03,-1.06,0.14,1.93,1.04,-0.52,0.33,1005.90
0.856,-0.30,1.01,0.03,-1.06,0.14,1.93,1.04,-0.52,0.33,1005.91
0.869,-0.23,1.02,0.09,-1.06,0.14,1.93,1.04,-0.52,0.33,1005.91
0.871,-0.16,1.00,0.11,-1.06,0.14,1.93,1.04,-0.52,0.33,1005.91
0.872,-0.11,0.99,0.08,-1.06,0.14,1.93,1.04,-0.52,0.33,1005.91
0.905,-0.11,0.99,0.08,-1.06,0.14,1.93,1.04,-0.52,0.33,1005.90
0.907,-0.11,0.99,0.08,-1.06,0.14,1.93,1.44,-0.74,0.32,1005.90
0.908,-0.11,0.99,0.08,-0.29,0.78,2.17,1.44,-0.74,0.32,1005.90
0.928,-0.08,1.04,0.06,-0.29,0.78,2.17,1.44,-0.74,0.32,1005.90
0.929,-0.23,1.16,-0.04,-0.29,0.78,2.17,1.44,-0.74,0.32,1005.90
0.929,-0.41,1.34,0.10,-0.29,0.78,2.17,1.44,-0.74,0.32,1005.90
0.967,-0.41,1.34,0.10,-2.83,5.78,3.52,1.44,-0.74,0.32,1005.90
0.969,-0.41,1.34,0.10,-2.83,5.78,3.52,1.71,-2.98,0.15,1005.90
0.976,-0.41,1.34,0.10,-2.83,5.78,3.52,1.71,-2.98,0.15,1005.91
0.994,-0.49,1.61,0.19,-2.83,5.78,3.52,1.71,-2.98,0.15,1005.91
0.995,-0.42,1.77,0.02,-2.83,5.78,3.52,1.71,-2.98,0.15,1005.91
0.996,0.03,1.60,0.01,-2.83,5.78,3.52,1.71,-2.98,0.15,1005.91
1.026,0.03,1.60,0.01,6.81,2.31,1.79,1.71,-2.98,0.15,1005.91
1.028,0.03,1.60,0.01,6.81,2.31,1.79,0.96,-6.79,0.75,1005.91
1.045,0.55,1.22,-0.03,6.81,2.31,1.79,0.96,-6.79,0.75,1005.91
1.047,0.94,0.84,-0.13,6.81,2.31,1.79,0.96,-6.79,0.75,1005.91
1.047,1.20,0.65,-0.03,6.81,2.31,1.79,0.96,-6.79,0.75,1005.91
1.056,1.20,0.65,-0.03,6.81,2.31,1.79,0.96,-6.79,0.75,1005.90
1.086,1.20,0.65,-0.03,10.69,-2.99,1.52,0.96,-6.79,0.75,1005.90
1.087,1.20,0.65,-0.03,10.69,-2.99,1.52,0.06,-3.12,1.82,1005.90
1.108,1.20,0.65,-0.03,10.69,-2.99,1.52,0.06,-3.12,1.82,1005.90
1.111,1.18,0.67,-0.01,10.69,-2.99,1.52,0.06,-3.12,1.82,1005.90
1.112,0.63,0.74,-0.08,10.69,-2.99,1.52,0.06,-3.12,1.82,1005.90
1.113,0.19,0.77,-0.08,10.69,-2.99,1.52,0.06,-3.12,1.82,1005.90
1.142,0.19,0.77,-0.08,0.06,-1.83,-0.14,0.06,-3.12,1.82,1005.90
1.143,0.19,0.77,-0.08,0.06,-1.83,-0.14,-0.32,-0.89,2.22,1005.90
1.163,0.02,0.82,-0.20,0.06,-1.83,-0.14,-0.32,-0.89,2.22,1005.90
1.165,-0.10,0.83,-0.30,0.06,-1.83,-0.14,-0.32,-0.89,2.22,1005.90
1.165,-0.24,0.83,-0.33,0.06,-1.83,-0.14,-0.32,-0.89,2.22,1005.90
1.176,-0.24,0.83,-0.33,0.06,-1.83,-0.14,-0.32,-0.89,2.22,1005.92
1.213,-0.24,0.83,-0.33,-4.95,-1.21,-1.74,-0.32,-0.89,2.22,1005.92
1.215,-0.24,0.83,-0.33,-4.95,-1.21,-1.74,-0.73,-1.56,2.92,1005.92
1.219,-0.35,0.85,-0.36,-4.95,-1.21,-1.74,-0.73,-1.56,2.92,1005.92
1.221,-0.41,0.89,-0.29,-4.95,-1.21,-1.74,-0.73,-1.56,2.92,1005.92
1.222,-0.38,0.88,-0.30,-4.95,-1.21,-1.74,-0.73,-1.56,2.92,1005.92
1.257,-0.38,0.88,-0.30,-4.95,-1.21,-1.74,-0.73,-1.56,2.92,1005.90
1.258,-0.38,0.88,-0.30,-4.95,-1.21,-1.74,-0.37,-2.11,2.44,1005.90
1.259,-0.38,0.88,-0.30,-6.85,-1.04,-1.27,-0.37,-2.11,2.44,1005.90
1.284,-0.39,0.83,-0.34,-6.85,-1.04,-1.27,-0.37,-2.11,2.44,1005.90
1.288,-0.52,0.80,-0.24,-6.85,-1.04,-1.27,-0.37,-2.11,2.44,1005.90
1.288,-0.75,0.84,-0.28,-6.85,-1.04,-1.27,-0.37,-2.11,2.44,1005.90
1.297,-0.75,0.84,-0.28,-6.85,-1.04,-1.27,-0.37,-2.11,2.44,1005.88
1.317,-0.75,0.84,-0.28,-6.85,-1.04,-1.27,-0.15,-0.85,-0.77,1005.88
1.319,-0.75,0.84,-0.28,-11.72,1.06,-1.68,-0.15,-0.85,-0.77,1005.88
1.337,-0.98,0.94,-0.26,-11.72,1.06,-1.68,-0.15,-0.85,-0.77,1005.88
1.339,-1.30,1.44,-0.49,-11.72,1.06,-1.68,-0.15,-0.85,-0.77,1005.88
1.34,-1.24,2.54,-0.27,-11.72,1.06,-1.68,-0.15,-0.85,-0.77,1005.88
1.375,-1.24,2.54,-0.27,-11.72,1.06,-1.68,-0.02,-1.11,-1.57,1005.88
1.377,-1.24,2.54,-0.27,1.14,4.54,0.99,-0.02,-1.11,-1.57,1005.88
1.401,-1.24,2.54,-0.27,1.14,4.54,0.99,-0.02,-1.11,-1.57,1005.88
1.402,0.90,1.67,1.13,1.14,4.54,0.99,-0.02,-1.11,-1.57,1005.88
1.402,0.96,0.13,-1.09,1.14,4.54,0.99,-0.02,-1.11,-1.57,1005.88
1.403,0.08,0.37,-1.01,1.14,4.54,0.99,-0.02,-1.11,-1.57,1005.88
1.434,0.08,0.37,-1.01,1.14,4.54,0.99,-0.24,-0.22,-2.09,1005.88
1.435,0.08,0.37,-1.01,-4.14,0.24,-1.13,-0.24,-0.22,-2.09,1005.88
1.453,-0.97,1.36,0.17,-4.14,0.24,-1.13,-0.24,-0.22,-2.09,1005.88
1.455,-0.51,1.31,-0.01,-4.14,0.24,-1.13,-0.24,-0.22,-2.09,1005.88
1.456,-0.23,0.94,-0.07,-4.14,0.24,-1.13,-0.24,-0.22,-2.09,1005.88
1.457,-0.23,0.94,-0.07,-4.14,0.24,-1.13,-0.24,-0.22,-2.09,1005.90
1.491,-0.23,0.94,-0.07,-0.31,-0.29,-0.30,-0.24,-0.22,-2.09,1005.90
1.493,-0.23,0.94,-0.07,-0.31,-0.29,-0.30,0.02,-0.62,-1.24,1005.90
1.497,-0.23,0.94,-0.07,-0.31,-0.29,-0.30,0.02,-0.62,-1.24,1005.92
1.511,-0.07,0.91,-0.32,-0.31,-0.29,-0.30,0.02,-0.62,-1.24,1005.92
1.512,-0.17,1.01,-0.19,-0.31,-0.29,-0.30,0.02,-0.62,-1.24,1005.92
1.513,-0.22,1.02,-0.22,-0.31,-0.29,-0.30,0.02,-0.62,-1.24,1005.92
1.549,-0.22,1.02,-0.22,-0.31,-0.29,-0.30,0.05,0.30,-1.04,1005.92
1.552,-0.22,1.02,-0.22,-1.23,0.62,-0.05,0.05,0.30,-1.04,1005.92
1.573,-0.32,1.06,-0.15,-1.23,0.62,-0.05,0.05,0.30,-1.04,1005.92
1.574,-0.39,1.04,-0.16,-1.23,0.62,-0.05,0.05,0.30,-1.04,1005.92
1.574,-0.31,1.03,-0.18,-1.23,0.62,-0.05,0.05,0.30,-1.04,1005.92
1.576,-0.31,1.03,-0.18,-1.23,0.62,-0.05,0.05,0.30,-1.04,1005.95
1.607,-0.31,1.03,-0.18,-1.23,0.62,-0.05,0.19,0.21,-0.62,1005.95
1.609,-0.31,1.03,-0.18,-0.60,0.56,-0.11,0.19,0.21,-0.62,1005.95
1.627,-0.26,1.02,-0.23,-0.60,0.56,-0.11,0.19,0.21,-0.62,1005.95
1.629,-0.27,1.03,-0.19,-0.60,0.56,-0.11,0.19,0.21,-0.62,1005.95
1.63,-0.26,0.99,-0.16,-0.60,0.56,-0.11,0.19,0.21,-0.62,1005.95
1.662,-0.26,0.99,-0.16,-0.60,0.56,-0.11,0.19,0.21,-0.62,1005.97
1.667,-0.26,0.99,-0.16,-0.60,0.56,-0.11,0.20,-0.02,-0.51,1005.97
1.669,-0.26,0.99,-0.16,0.11,0.03,0.82,0.20,-0.02,-0.51,1005.97
1.687,-0.21,0.96,-0.10,0.11,0.03,0.82,0.20,-0.02,-0.51,1005.97
1.688,-0.23,0.95,-0.07,0.11,0.03,0.82,0.20,-0.02,-0.51,1005.97
1.688,-0.31,0.92,-0.03,0.11,0.03,0.82,0.20,-0.02,-0.51,1005.97
1.703,-0.31,0.92,-0.03,0.11,0.03,0.82,0.20,-0.02,-0.51,1005.95
1.731,-0.31,0.92,-0.03,0.11,0.03,0.82,0.26,-0.21,-0.58,1005.95
1.734,-0.31,0.92,-0.03,-0.51,-0.34,1.79,0.26,-0.21,-0.58,1005.95
1.743,-0.36,0.93,0.03,-0.51,-0.34,1.79,0.26,-0.21,-0.58,1005.95
1.744,-0.33,0.89,-0.05,-0.51,-0.34,1.79,0.26,-0.21,-0.58,1005.95
1.745,-0.25,0.87,-0.15,-0.51,-0.34,1.79,0.26,-0.21,-0.58,1005.95
1.776,-0.25,0.87,-0.15,-0.51,-0.34,1.79,0.26,-0.21,-0.58,1005.93
1.783,-0.25,0.87,-0.15,-0.51,-0.34,1.79,0.35,-0.20,-0.64,1005.93
1.784,-0.25,0.87,-0.15,1.28,-0.42,-0.01,0.35,-0.20,-0.64,1005.93
1.801,-0.18,0.83,-0.24,1.28,-0.42,-0.01,0.35,-0.20,-0.64,1005.93
1.802,-0.13,0.97,-0.27,1.28,-0.42,-0.01,0.35,-0.20,-0.64,1005.93
1.802,-0.01,1.06,-0.32,1.28,-0.42,-0.01,0.35,-0.20,-0.64,1005.93
1.841,-0.01,1.06,-0.32,1.28,-0.42,-0.01,0.61,-0.23,-1.14,1005.93
1.842,-0.01,1.06,-0.32,3.28,2.69,-0.12,0.61,-0.23,-1.14,1005.93
1.856,-0.01,1.06,-0.32,3.28,2.69,-0.12,0.61,-0.23,-1.14,1005.92
1.859,0.01,1.15,-0.29,3.28,2.69,-0.12,0.61,-0.23,-1.14,1005.92
1.86,-0.11,1.34,-0.16,3.28,2.69,-0.12,0.61,-0.23,-1.14,1005.92
1.86,-0.01,1.43,-0.11,3.28,2.69,-0.12,0.61,-0.23,-1.14,1005.92
1.902,-0.01,1.43,-0.11,3.28,2.69,-0.12,0.61,-0.23,-1.14,1005.92
1.903,-0.01,1.43,-0.11,3.28,2.69,-0.12,1.08,-0.03,-1.60,1005.92
1.903,-0.01,1.43,-0.11,6.98,6.53,2.20,1.08,-0.03,-1.60,1005.92
1.918,0.29,1.45,-0.05,6.98,6.53,2.20,1.08,-0.03,-1.60,1005.92
1.919,0.54,1.71,-0.05,6.98,6.53,2.20,1.08,-0.03,-1.60,1005.92
1.92,0.88,1.95,0.20,6.98,6.53,2.20,1.08,-0.03,-1.60,1005.92
1.958,0.88,1.95,0.20,6.98,6.53,2.20,1.33,0.70,-2.33,1005.92
1.959,0.88,1.95,0.20,11.70,8.22,5.42,1.33,0.70,-2.33,1005.92
1.986,0.88,1.95,0.20,11.70,8.22,5.42,1.33,0.70,-2.33,1005.91
1.987,1.09,1.60,0.27,11.70,8.22,5.42,1.33,0.70,-2.33,1005.91
1.987,0.07,1.34,0.09,11.70,8.22,5.42,1.33,0.70,-2.33,1005.91
1.987,-0.83,1.55,-0.09,11.70,8.22,5.42,1.33,0.70,-2.33,1005.91
2.019,-0.83,1.55,-0.09,11.70,8.22,5.42,1.99,0.28,-4.08,1005.91
2.02,-0.83,1.55,-0.09,-4.61,8.45,2.64,1.99,0.28,-4.08,1005.91
2.036,-1.27,1.62,-0.15,-4.61,8.45,2.64,1.99,0.28,-4.08,1005.91
2.037,-1.36,1.27,-0.30,-4.61,8.45,2.64,1.99,0.28,-4.08,1005.91
2.037,-0.97,0.94,-0.36,-4.61,8.45,2.64,1.99,0.28,-4.08,1005.91
2.056,-0.97,0.94,-0.36,-4.61,8.45,2.64,1.99,0.28,-4.08,1005.93
2.074,-0.97,0.94,-0.36,-4.61,8.45,2.64,0.54,-1.72,-0.06,1005.93
2.074,-0.97,0.94,-0.36,1.76,0.26,1.62,0.54,-1.72,-0.06,1005.93
2.094,-0.49,0.63,-0.35,1.76,0.26,1.62,0.54,-1.72,-0.06,1005.93
2.095,-0.17,0.31,0.02,1.76,0.26,1.62,0.54,-1.72,-0.06,1005.93
2.096,-0.14,0.10,0.24,1.76,0.26,1.62,0.54,-1.72,-0.06,1005.93
2.098,-0.14,0.10,0.24,1.76,0.26,1.62,0.54,-1.72,-0.06,1005.88
2.132,-0.14,0.10,0.24,1.76,0.26,1.62,0.04,-1.51,2.88,1005.88
2.134,-0.14,0.10,0.24,4.23,-5.36,4.12,0.04,-1.51,2.88,1005.88
2.153,-0.18,0.11,0.09,4.23,-5.36,4.12,0.04,-1.51,2.88,1005.88
2.154,-0.30,0.27,-0.05,4.23,-5.36,4.12,0.04,-1.51,2.88,1005.88
2.155,-0.31,0.36,-0.10,4.23,-5.36,4.12,0.04,-1.51,2.88,1005.88
2.176,-0.31,0.36,-0.10,4.23,-5.36,4.12,0.04,-1.51,2.88,1005.89
2.191,-0.31,0.36,-0.10,4.23,-5.36,4.12,-0.36,-1.02,4.88,1005.89
2.193,-0.31,0.36,-0.10,1.31,-4.68,2.07,-0.36,-1.02,4.88,1005.89
2.211,-0.30,0.38,-0.08,1.31,-4.68,2.07,-0.36,-1.02,4.88,1005.89
2.212,-0.27,0.40,-0.01,1.31,-4.68,2.07,-0.36,-1.02,4.88,1005.89
2.212,-0.25,0.54,-0.02,1.31,-4.68,2.07,-0.36,-1.02,4.88,1005.89
2.249,-0.25,0.54,-0.02,1.31,-4.68,2.07,-1.46,-0.34,6.21,1005.89
2.252,-0.25,0.54,-0.02,-1.86,-1.57,1.62,-1.46,-0.34,6.21,1005.89
2.256,-0.25,0.54,-0.02,-1.86,-1.57,1.62,-1.46,-0.34,6.21,1005.96
2.269,-0.25,0.79,-0.03,-1.86,-1.57,1.62,-1.46,-0.34,6.21,1005.96
2.27,-0.38,1.10,-0.01,-1.86,-1.57,1.62,-1.46,-0.34,6.21,1005.96
2.27,-0.64,1.47,-0.17,-1.86,-1.57,1.62,-1.46,-0.34,6.21,1005.96
2.303,-0.64,1.47,-0.17,-1.86,-1.57,1.62,-1.46,-0.34,6.21,1005.93
2.308,-0.64,1.47,-0.17,-1.86,-1.57,1.62,-2.09,0.18,6.42,1005.93
2.309,-0.64,1.47,-0.17,-9.09,7.05,-1.84,-2.09,0.18,6.42,1005.93
2.327,-0.70,1.74,-0.29,-9.09,7.05,-1.84,-2.09,0.18,6.42,1005.93
2.328,-0.70,1.85,-0.31,-9.09,7.05,-1.84,-2.09,0.18,6.42,1005.93
2.328,-0.59,1.75,0.10,-9.09,7.05,-1.84,-2.09,0.18,6.42,1005.93
2.366,-0.59,1.75,0.10,-9.09,7.05,-1.84,-1.96,1.59,4.25,1005.93
2.367,-0.59,1.75,0.10,-10.37,5.87,-2.13,-1.96,1.59,4.25,1005.93
2.376,-0.59,1.75,0.10,-10.37,5.87,-2.13,-1.96,1.59,4.25,1005.90
2.385,-0.48,1.58,-0.03,-10.37,5.87,-2.13,-1.96,1.59,4.25,1005.90
2.386,-0.73,1.13,-0.51,-10.37,5.87,-2.13,-1.96,1.59,4.25,1005.90
2.388,-1.07,0.57,-0.50,-10.37,5.87,-2.13,-1.96,1.59,4.25,1005.90
2.424,-1.07,0.57,-0.50,-10.37,5.87,-2.13,-0.23,0.81,-2.20,1005.90
2.425,-1.07,0.57,-0.50,-16.88,-3.64,-5.16,-0.23,0.81,-2.20,1005.90
2.445,-1.49,0.44,-0.35,-16.88,-3.64,-5.16,-0.23,0.81,-2.20,1005.90
2.446,-1.69,0.67,-0.45,-16.88,-3.64,-5.16,-0.23,0.81,-2.20,1005.90
2.447,-1.17,1.56,-0.75,-16.88,-3.64,-5.16,-0.23,0.81,-2.20,1005.90
2.456,-1.17,1.56,-0.75,-16.88,-3.64,-5.16,-0.23,0.81,-2.20,1005.88
2.492,-1.17,1.56,-0.75,-16.88,-3.64,-5.16,-0.31,-2.28,-0.30,1005.88
2.492,-1.17,1.56,-0.75,-0.04,7.82,-0.30,-0.31,-2.28,-0.30,1005.88
2.503,-1.17,1.56,-0.75,-0.04,7.82,-0.30,-0.31,-2.28,-0.30,1005.87
2.504,0.35,1.99,0.31,-0.04,7.82,-0.30,-0.31,-2.28,-0.30,1005.87
2.504,1.70,1.68,0.56,-0.04,7.82,-0.30,-0.31,-2.28,-0.30,1005.87
2.505,0.63,2.14,-2.02,-0.04,7.82,-0.30,-0.31,-2.28,-0.30,1005.87
2.542,0.63,2.14,-2.02,-0.04,7.82,-0.30,0.13,-1.18,-1.86,1005.87
2.543,0.63,2.14,-2.02,2.21,2.09,-5.86,0.13,-1.18,-1.86,1005.87
2.56,0.35,1.12,-0.54,2.21,2.09,-5.86,0.13,-1.18,-1.86,1005.87
2.56,0.31,0.31,0.87,2.21,2.09,-5.86,0.13,-1.18,-1.86,1005.87
2.561,-0.39,0.76,0.29,2.21,2.09,-5.86,0.13,-1.18,-1.86,1005.87
2.577,-0.39,0.76,0.29,2.21,2.09,-5.86,0.13,-1.18,-1.86,1005.91
2.6,-0.39,0.76,0.29,2.21,2.09,-5.86,0.12,0.24,-1.90,1005.91
2.601,-0.39,0.76,0.29,-5.53,0.35,0.42,0.12,0.24,-1.90,1005.91
2.619,-0.55,1.17,0.11,-5.53,0.35,0.42,0.12,0.24,-1.90,1005.91
2.621,-0.50,1.16,-0.18,-5.53,0.35,0.42,0.12,0.24,-1.90,1005.91
2.622,-0.15,1.03,-0.09,-5.53,0.35,0.42,0.12,0.24,-1.90,1005.91
2.657,-0.15,1.03,-0.09,-5.53,0.35,0.42,0.12,0.24,-1.90,1005.97
2.658,-0.15,1.03,-0.09,-5.53,0.35,0.42,-0.14,0.02,-0.48,1005.97
2.659,-0.15,1.03,-0.09,-0.93,0.95,-1.02,-0.14,0.02,-0.48,1005.97
2.677,0.06,1.09,-0.08,-0.93,0.95,-1.02,-0.14,0.02,-0.48,1005.97
2.678,-0.04,1.17,-0.03,-0.93,0.95,-1.02,-0.14,0.02,-0.48,1005.97
2.678,-0.06,1.10,0.08,-0.93,0.95,-1.02,-0.14,0.02,-0.48,1005.97
2.702,-0.06,1.10,0.08,-0.93,0.95,-1.02,-0.14,0.02,-0.48,1005.95
2.716,-0.06,1.10,0.08,-0.93,0.95,-1.02,-0.10,-0.04,-0.29,1005.95
2.718,-0.06,1.10,0.08,1.04,-0.00,0.89,-0.10,-0.04,-0.29,1005.95
2.735,0.18,0.96,0.13,1.04,-0.00,0.89,-0.10,-0.04,-0.29,1005.95
2.735,0.31,0.93,0.20,1.04,-0.00,0.89,-0.10,-0.04,-0.29,1005.95
2.736,0.17,0.88,0.24,1.04,-0.00,0.89,-0.10,-0.04,-0.29,1005.95
2.773,0.17,0.88,0.24,1.04,-0.00,0.89,0.18,0.44,-0.81,1005.95
2.774,0.17,0.88,0.24,1.09,-0.68,1.75,0.18,0.44,-0.81,1005.95
2.776,0.17,0.88,0.24,1.09,-0.68,1.75,0.18,0.44,-0.81,1005.93
2.793,0.07,0.92,0.23,1.09,-0.68,1.75,0.18,0.44,-0.81,1005.93
2.793,0.08,1.00,0.18,1.09,-0.68,1.75,0.18,0.44,-0.81,1005.93
2.794,0.18,0.97,0.16,1.09,-0.68,1.75,0.18,0.44,-0.81,1005.93
2.832,0.18,0.97,0.16,2.31,-0.25,0.47,0.18,0.44,-0.81,1005.93
2.832,0.18,0.97,0.16,2.31,-0.25,0.47,0.43,0.46,-1.38,1005.93
2.852,0.21,0.96,0.08,2.31,-0.25,0.47,0.43,0.46,-1.38,1005.93
2.852,0.06,0.99,-0.06,2.31,-0.25,0.47,0.43,0.46,-1.38,1005.93
2.852,-0.05,0.95,-0.12,2.31,-0.25,0.47,0.43,0.46,-1.38,1005.93
2.859,-0.05,0.95,-0.12,2.31,-0.25,0.47,0.43,0.46,-1.38,1005.92
2.9,-0.05,0.95,-0.12,2.31,-0.25,0.47,0.45,0.68,-1.96,1005.92
2.9,-0.05,0.95,-0.12,2.31,-0.25,0.47,0.45,0.68,-1.96,1005.91
2.901,-0.05,0.95,-0.12,0.92,-0.22,-0.04,0.45,0.68,-1.96,1005.91
2.91,-0.11,0.92,-0.04,0.92,-0.22,-0.04,0.45,0.68,-1.96,1005.91
2.91,-0.15,1.00,0.08,0.92,-0.22,-0.04,0.45,0.68,-1.96,1005.91
2.911,-0.24,1.16,-0.01,0.92,-0.22,-0.04,0.45,0.68,-1.96,1005.91
2.95,-0.24,1.16,-0.01,0.92,-0.22,-0.04,0.53,0.13,-2.06,1005.91
2.952,-0.24,1.16,-0.01,1.87,2.47,0.13,0.53,0.13,-2.06,1005.91
2.969,-0.14,1.26,-0.07,1.87,2.47,0.13,0.53,0.13,-2.06,1005.91
2.971,0.03,1.20,-0.04,1.87,2.47,0.13,0.53,0.13,-2.06,1005.91
2.971,-0.03,1.20,-0.06,1.87,2.47,0.13,0.53,0.13,-2.06,1005.91
2.978,-0.03,1.20,-0.06,1.87,2.47,0.13,0.53,0.13,-2.06,1005.91
3.008,-0.03,1.20,-0.06,5.20,4.98,0.99,0.53,0.13,-2.06,1005.91
3.009,-0.03,1.20,-0.06,5.20,4.98,0.99,0.75,0.34,-2.34,1005.91
3.027,0.04,1.32,-0.03,5.20,4.98,0.99,0.75,0.34,-2.34,1005.91
3.028,0.31,1.73,0.10,5.20,4.98,0.99,0.75,0.34,-2.34,1005.91
3.028,0.85,2.05,0.19,5.20,4.98,0.99,0.75,0.34,-2.34,1005.91
3.058,0.85,2.05,0.19,5.20,4.98,0.99,0.75,0.34,-2.34,1005.91
3.067,0.85,2.05,0.19,5.20,4.98,0.99,0.82,1.50,-2.68,1005.91
3.068,0.85,2.05,0.19,15.42,7.98,1.53,0.82,1.50,-2.68,1005.91
3.088,1.23,1.69,-0.10,15.42,7.98,1.53,0.82,1.50,-2.68,1005.91
3.089,1.08,1.22,-0.16,15.42,7.98,1.53,0.82,1.50,-2.68,1005.91
3.089,-0.14,1.12,-0.25,15.42,7.98,1.53,0.82,1.50,-2.68,1005.91
3.097,-0.14,1.12,-0.25,15.42,7.98,1.53,0.82,1.50,-2.68,1005.91
3.125,-0.14,1.12,-0.25,15.42,7.98,1.53,1.33,3.28,-4.55,1005.91
3.127,-0.14,1.12,-0.25,0.10,6.19,0.36,1.33,3.28,-4.55,1005.91
3.144,-0.89,1.40,-0.34,0.10,6.19,0.36,1.33,3.28,-4.55,1005.91
3.146,-0.95,1.38,-0.37,0.10,6.19,0.36,1.33,3.28,-4.55,1005.91
3.148,-0.72,0.89,-0.27,0.10,6.19,0.36,1.33,3.28,-4.55,1005.91
3.177,-0.72,0.89,-0.27,0.10,6.19,0.36,1.33,3.28,-4.55,1005.91
3.185,-0.72,0.89,-0.27,0.10,6.19,0.36,0.31,1.53,-1.54,1005.91
3.185,-0.72,0.89,-0.27,-0.43,0.85,0.87,0.31,1.53,-1.54,1005.91
3.202,-0.77,0.75,-0.30,-0.43,0.85,0.87,0.31,1.53,-1.54,1005.91
3.203,-0.72,0.42,-0.43,-0.43,0.85,0.87,0.31,1.53,-1.54,1005.91
3.204,-0.55,0.31,-0.20,-0.43,0.85,0.87,0.31,1.53,-1.54,1005.91
3.241,-0.55,0.31,-0.20,-0.43,0.85,0.87,-1.45,-0.38,2.13,1005.91
3.243,-0.55,0.31,-0.20,2.26,-5.16,2.79,-1.45,-0.38,2.13,1005.91
3.257,-0.55,0.31,-0.20,2.26,-5.16,2.79,-1.45,-0.38,2.13,1005.90
3.261,-0.38,0.16,-0.01,2.26,-5.16,2.79,-1.45,-0.38,2.13,1005.90
3.262,-0.22,0.08,0.01,2.26,-5.16,2.79,-1.45,-0.38,2.13,1005.90
3.263,-0.14,0.16,-0.12,2.26,-5.16,2.79,-1.45,-0.38,2.13,1005.90
3.297,-0.14,0.16,-0.12,2.26,-5.16,2.79,-1.45,-0.38,2.13,1005.90
3.299,-0.14,0.16,-0.12,2.26,-5.16,2.79,-1.45,-0.54,4.64,1005.90
3.301,-0.14,0.16,-0.12,3.13,-5.31,0.11,-1.45,-0.54,4.64,1005.90
3.318,-0.10,0.32,-0.28,3.13,-5.31,0.11,-1.45,-0.54,4.64,1005.90
3.319,-0.01,0.50,-0.36,3.13,-5.31,0.11,-1.45,-0.54,4.64,1005.90
3.32,-0.12,0.63,0.00,3.13,-5.31,0.11,-1.45,-0.54,4.64,1005.90
3.357,-0.12,0.63,0.00,3.13,-5.31,0.11,-1.46,-0.02,5.69,1005.90
3.358,-0.12,0.63,0.00,-1.69,-1.82,-0.53,-1.46,-0.02,5.69,1005.90
3.377,-0.27,0.74,-0.21,-1.69,-1.82,-0.53,-1.46,-0.02,5.69,1005.90
3.379,-0.43,0.97,-0.52,-1.69,-1.82,-0.53,-1.46,-0.02,5.69,1005.90
3.38,-0.61,1.30,-0.38,-1.69,-1.82,-0.53,-1.46,-0.02,5.69,1005.90
3.381,-0.61,1.30,-0.38,-1.69,-1.82,-0.53,-1.46,-0.02,5.69,1005.94
3.417,-0.61,1.30,-0.38,-1.69,-1.82,-0.53,-1.64,-0.90,5.96,1005.94
3.419,-0.61,1.30,-0.38,-9.14,4.60,-2.76,-1.64,-0.90,5.96,1005.94
3.435,-0.74,1.52,-0.40,-9.14,4.60,-2.76,-1.64,-0.90,5.96,1005.94
3.436,-0.81,1.47,-0.38,-9.14,4.60,-2.76,-1.64,-0.90,5.96,1005.94
3.437,-1.01,1.59,-0.28,-9.14,4.60,-2.76,-1.64,-0.90,5.96,1005.94
3.457,-1.01,1.59,-0.28,-9.14,4.60,-2.76,-1.64,-0.90,5.96,1005.93
3.475,-1.01,1.59,-0.28,-14.20,5.49,-0.69,-1.64,-0.90,5.96,1005.93
3.477,-1.01,1.59,-0.28,-14.20,5.49,-0.69,-1.66,-2.66,4.07,1005.93
3.494,-1.08,1.56,-0.12,-14.20,5.49,-0.69,-1.66,-2.66,4.07,1005.93
3.496,-1.06,1.24,-0.02,-14.20,5.49,-0.69,-1.66,-2.66,4.07,1005.93
3.497,-1.02,0.87,-0.09,-14.20,5.49,-0.69,-1.66,-2.66,4.07,1005.93
3.511,-1.02,0.87,-0.09,-14.20,5.49,-0.69,-1.66,-2.66,4.07,1005.88
3.532,-1.02,0.87,-0.09,-14.20,5.49,-0.69,-0.81,-2.82,-0.02,1005.88
3.533,-1.02,0.87,-0.09,-12.03,0.02,-1.80,-0.81,-2.82,-0.02,1005.88
3.553,-0.84,0.83,-0.18,-12.03,0.02,-1.80,-0.81,-2.82,-0.02,1005.88
3.554,-0.73,1.03,-0.57,-12.03,0.02,-1.80,-0.81,-2.82,-0.02,1005.88
3.554,-0.11,1.73,-0.73,-12.03,0.02,-1.80,-0.81,-2.82,-0.02,1005.88
3.576,-0.11,1.73,-0.73,-12.03,0.02,-1.80,-0.81,-2.82,-0.02,1005.86
3.59,-0.11,1.73,-0.73,-12.03,0.02,-1.80,-0.86,-1.25,-0.87,1005.86
3.591,-0.11,1.73,-0.73,5.47,8.83,-0.25,-0.86,-1.25,-0.87,1005.86
3.611,1.62,2.11,1.37,5.47,8.83,-0.25,-0.86,-1.25,-0.87,1005.86
3.612,1.13,1.69,-0.94,5.47,8.83,-0.25,-0.86,-1.25,-0.87,1005.86
3.613,-0.14,0.85,-1.27,5.47,8.83,-0.25,-0.86,-1.25,-0.87,1005.86
3.649,-0.14,0.85,-1.27,5.47,8.83,-0.25,-0.19,-0.07,-2.38,1005.86
3.651,-0.14,0.85,-1.27,-5.14,-1.94,-1.13,-0.19,-0.07,-2.38,1005.86
3.658,-0.14,0.85,-1.27,-5.14,-1.94,-1.13,-0.19,-0.07,-2.38,1005.87
3.669,-0.58,0.57,0.53,-5.14,-1.94,-1.13,-0.19,-0.07,-2.38,1005.87
3.671,-0.32,0.92,0.18,-5.14,-1.94,-1.13,-0.19,-0.07,-2.38,1005.87
3.672,-0.03,1.14,0.15,-5.14,-1.94,-1.13,-0.19,-0.07,-2.38,1005.87
3.697,-0.03,1.14,0.15,-5.14,-1.94,-1.13,-0.19,-0.07,-2.38,1005.86
3.71,-0.03,1.14,0.15,-5.14,-1.94,-1.13,-0.04,-0.22,-0.89,1005.86
3.712,-0.03,1.14,0.15,-0.83,0.44,0.70,-0.04,-0.22,-0.89,1005.86
3.727,0.14,0.99,-0.06,-0.83,0.44,0.70,-0.04,-0.22,-0.89,1005.86
3.728,0.01,0.96,-0.09,-0.83,0.44,0.70,-0.04,-0.22,-0.89,1005.86
3.729,-0.12,1.00,-0.17,-0.83,0.44,0.70,-0.04,-0.22,-0.89,1005.86
3.767,-0.12,1.00,-0.17,-0.83,0.44,0.70,-0.06,0.05,-0.45,1005.86
3.768,-0.12,1.00,-0.17,-1.95,0.22,-0.52,-0.06,0.05,-0.45,1005.86
3.778,-0.12,1.00,-0.17,-1.95,0.22,-0.52,-0.06,0.05,-0.45,1005.91
3.785,-0.16,1.03,-0.15,-1.95,0.22,-0.52,-0.06,0.05,-0.45,1005.91
3.786,-0.03,1.00,-0.04,-1.95,0.22,-0.52,-0.06,0.05,-0.45,1005.91
3.787,0.12,0.96,0.00,-1.95,0.22,-0.52,-0.06,0.05,-0.45,1005.91
3.832,0.12,0.96,0.00,-1.95,0.22,-0.52,-0.06,-0.07,-0.14,1005.91
3.834,0.12,0.96,0.00,0.77,-0.12,0.62,-0.06,-0.07,-0.14,1005.91
3.845,0.19,0.99,-0.02,0.77,-0.12,0.62,-0.06,-0.07,-0.14,1005.91
3.846,0.18,0.98,0.03,0.77,-0.12,0.62,-0.06,-0.07,-0.14,1005.91
3.847,0.11,0.97,-0.03,0.77,-0.12,0.62,-0.06,-0.07,-0.14,1005.91
3.859,0.11,0.97,-0.03,0.77,-0.12,0.62,-0.06,-0.07,-0.14,1005.92
3.882,0.11,0.97,-0.03,0.77,-0.12,0.62,0.05,0.00,-0.41,1005.92
3.882,0.11,0.97,-0.03,0.56,-0.15,0.60,0.05,0.00,-0.41,1005.92
3.897,0.11,0.97,-0.03,0.56,-0.15,0.60,0.05,0.00,-0.41,1005.94
3.903,0.12,0.97,-0.01,0.56,-0.15,0.60,0.05,0.00,-0.41,1005.94
3.905,0.14,0.98,0.03,0.56,-0.15,0.60,0.05,0.00,-0.41,1005.94
3.905,0.21,0.98,0.09,0.56,-0.15,0.60,0.05,0.00,-0.41,1005.94
3.942,0.21,0.98,0.09,0.56,-0.15,0.60,0.27,-0.08,-0.76,1005.94
3.943,0.21,0.98,0.09,1.52,-0.07,1.23,0.27,-0.08,-0.76,1005.94
3.961,0.26,0.98,0.09,1.52,-0.07,1.23,0.27,-0.08,-0.76,1005.94
3.962,0.07,1.00,-0.03,1.52,-0.07,1.23,0.27,-0.08,-0.76,1005.94
3.963,-0.03,1.00,-0.10,1.52,-0.07,1.23,0.27,-0.08,-0.76,1005.94
3.977,-0.03,1.00,-0.10,1.52,-0.07,1.23,0.27,-0.08,-0.76,1005.94
3.999,-0.03,1.00,-0.10,1.52,-0.07,1.23,0.48,-0.15,-1.09,1005.94
4.0,-0.03,1.00,-0.10,1.51,0.56,0.49,0.48,-0.15,-1.09,1005.94
4.026,0.12,1.03,-0.04,1.51,0.56,0.49,0.48,-0.15,-1.09,1005.94
4.028,0.26,1.11,-0.02,1.51,0.56,0.49,0.48,-0.15,-1.09,1005.94
4.029,0.47,1.22,0.08,1.51,0.56,0.49,0.48,-0.15,-1.09,1005.94
4.057,0.47,1.22,0.08,1.51,0.56,0.49,0.48,-0.15,-1.09,1005.94
4.058,0.47,1.22,0.08,1.51,0.56,0.49,1.14,0.28,-2.04,1005.94
4.058,0.47,1.22,0.08,7.99,4.09,1.91,1.14,0.28,-2.04,1005.94
4.078,0.81,1.42,0.07,7.99,4.09,1.91,1.14,0.28,-2.04,1005.94
4.079,0.75,1.54,-0.06,7.99,4.09,1.91,1.14,0.28,-2.04,1005.94
4.081,0.00,1.58,-0.26,7.99,4.09,1.91,1.14,0.28,-2.04,1005.94
4.097,0.00,1.58,-0.26,7.99,4.09,1.91,1.14,0.28,-2.04,1005.95
4.122,0.00,1.58,-0.26,7.99,4.09,1.91,2.05,-0.89,-3.33,1005.95
4.124,0.00,1.58,-0.26,-2.39,1.06,-0.77,2.05,-0.89,-3.33,1005.95
4.137,-0.68,0.96,-0.36,-2.39,1.06,-0.77,2.05,-0.89,-3.33,1005.95
4.139,-1.07,0.51,-0.41,-2.39,1.06,-0.77,2.05,-0.89,-3.33,1005.95
4.14,-1.22,0.48,-0.66,-2.39,1.06,-0.77,2.05,-0.89,-3.33,1005.95
4.174,-1.22,0.48,-0.66,-2.39,1.06,-0.77,1.95,-4.29,0.32,1005.95
4.176,-1.22,0.48,-0.66,-1.36,-6.36,-3.07,1.95,-4.29,0.32,1005.95
4.176,-1.22,0.48,-0.66,-1.36,-6.36,-3.07,1.95,-4.29,0.32,1005.93
4.193,-0.64,0.22,-0.60,-1.36,-6.36,-3.07,1.95,-4.29,0.32,1005.93
4.194,0.26,-0.03,-0.52,-1.36,-6.36,-3.07,1.95,-4.29,0.32,1005.93
4.195,0.47,0.11,-0.50,-1.36,-6.36,-3.07,1.95,-4.29,0.32,1005.93
4.233,0.47,0.11,-0.50,-1.36,-6.36,-3.07,2.13,-7.15,3.51,1005.93
4.234,0.47,0.11,-0.50,4.83,-5.30,-0.50,2.13,-7.15,3.51,1005.93
4.256,0.17,0.38,-0.35,4.83,-5.30,-0.50,2.13,-7.15,3.51,1005.93
4.258,-0.09,0.61,-0.03,4.83,-5.30,-0.50,2.13,-7.15,3.51,1005.93
4.26,-0.18,0.81,0.02,4.83,-5.30,-0.50,2.13,-7.15,3.51,1005.93
4.262,-0.18,0.81,0.02,4.83,-5.30,-0.50,2.13,-7.15,3.51,1005.91
4.294,-0.18,0.81,0.02,4.83,-5.30,-0.50,2.57,-6.38,4.52,1005.91
4.295,-0.18,0.81,0.02,0.43,0.16,2.84,2.57,-6.38,4.52,1005.91
4.297,-0.18,0.81,0.02,0.43,0.16,2.84,2.57,-6.38,4.52,1005.93
4.31,-0.17,0.96,-0.04,0.43,0.16,2.84,2.57,-6.38,4.52,1005.93
4.311,-0.01,1.08,0.05,0.43,0.16,2.84,2.57,-6.38,4.52,1005.93
4.312,-0.35,1.21,0.46,0.43,0.16,2.84,2.57,-6.38,4.52,1005.93
4.35,-0.35,1.21,0.46,0.43,0.16,2.84,-0.05,-2.48,1.39,1005.93
4.351,-0.35,1.21,0.46,-11.67,7.47,11.26,-0.05,-2.48,1.39,1005.93
4.368,-1.84,2.67,0.88,-11.67,7.47,11.26,-0.05,-2.48,1.39,1005.93
4.369,-1.83,1.27,1.39,-11.67,7.47,11.26,-0.05,-2.48,1.39,1005.93
4.369,0.69,0.04,-0.64,-11.67,7.47,11.26,-0.05,-2.48,1.39,1005.93
4.384,0.69,0.04,-0.64,-11.67,7.47,11.26,-0.05,-2.48,1.39,1005.92
4.406,1.08,1.20,-1.13,-11.67,7.47,11.26,-0.05,-2.48,1.39,1005.92
4.407,1.08,1.20,-1.13,-11.67,7.47,11.26,-0.11,0.04,2.11,1005.92
4.408,1.08,1.20,-1.13,8.68,0.58,-3.40,-0.11,0.04,2.11,1005.92
4.456,1.08,1.20,-1.13,8.68,0.58,-3.40,-0.11,0.04,2.11,1005.89
4.465,0.85,1.85,0.02,8.68,0.58,-3.40,-0.11,0.04,2.11,1005.89
4.465,-0.19,0.91,-0.40,8.68,0.58,-3.40,-0.11,0.04,2.11,1005.89
4.465,-0.31,0.88,-0.48,8.68,0.58,-3.40,-0.11,0.04,2.11,1005.89
4.465,-0.41,1.20,-0.04,8.68,0.58,-3.40,-0.11,0.04,2.11,1005.89
4.465,-0.41,1.20,-0.04,8.68,0.58,-3.40,-0.17,-0.34,0.05,1005.89
4.466,-0.41,1.20,-0.04,-2.78,0.22,-0.77,-0.17,-0.34,0.05,1005.89
4.497,-0.41,1.20,-0.04,-2.78,0.22,-0.77,-0.17,-0.34,0.05,1005.87
4.524,0.26,1.00,0.02,-2.78,0.22,-0.77,-0.17,-0.34,0.05,1005.87
4.525,0.62,0.78,-0.02,-2.78,0.22,-0.77,-0.17,-0.34,0.05,1005.87
4.526,0.12,0.92,-0.24,-2.78,0.22,-0.77,-0.17,-0.34,0.05,1005.87
4.526,0.12,0.92,-0.24,-2.78,0.22,-0.77,0.08,-0.48,0.40,1005.87
4.526,0.12,0.92,-0.24,3.22,-0.70,1.47,0.08,-0.48,0.40,1005.87
4.579,0.12,0.92,-0.24,3.22,-0.70,1.47,0.08,-0.48,0.40,1005.89
4.583,-0.30,1.02,-0.31,3.22,-0.70,1.47,0.08,-0.48,0.40,1005.89
4.585,-0.22,1.01,-0.22,3.22,-0.70,1.47,0.08,-0.48,0.40,1005.89
4.586,0.03,0.98,-0.08,3.22,-0.70,1.47,0.08,-0.48,0.40,1005.89
4.592,0.03,0.98,-0.08,-1.54,0.35,0.37,0.08,-0.48,0.40,1005.89
4.592,0.03,0.98,-0.08,-1.54,0.35,0.37,0.18,-0.08,-0.07,1005.89
4.641,0.11,0.90,-0.09,-1.54,0.35,0.37,0.18,-0.08,-0.07,1005.89
4.642,0.02,0.91,-0.16,-1.54,0.35,0.37,0.18,-0.08,-0.07,1005.89
4.642,-0.01,0.98,-0.19,-1.54,0.35,0.37,0.18,-0.08,-0.07,1005.89
4.642,-0.01,0.98,-0.19,-1.54,0.35,0.37,0.33,-0.66,-0.05,1005.89
4.643,-0.01,0.98,-0.19,0.57,-0.30,1.05,0.33,-0.66,-0.05,1005.89
4.657,-0.01,0.98,-0.19,0.57,-0.30,1.05,0.33,-0.66,-0.05,1005.90
4.698,-0.01,0.98,-0.19,0.57,-0.30,1.05,0.33,-0.66,-0.05,1005.90
4.699,-0.02,1.00,-0.24,0.57,-0.30,1.05,0.33,-0.66,-0.05,1005.90
4.699,0.03,0.99,-0.18,0.57,-0.30,1.05,0.33,-0.66,-0.05,1005.90
4.699,-0.00,0.99,-0.18,0.57,-0.30,1.05,0.33,-0.66,-0.05,1005.90
4.7,-0.00,0.99,-0.18,0.57,-0.30,1.05,0.59,-0.07,-0.14,1005.90
4.7,-0.00,0.99,-0.18,0.30,0.40,0.84,0.59,-0.07,-0.14,1005.90
4.758,-0.10,1.00,-0.30,0.30,0.40,0.84,0.59,-0.07,-0.14,1005.90
4.759,-0.07,1.01,-0.29,0.30,0.40,0.84,0.59,-0.07,-0.14,1005.90
4.761,0.03,1.02,-0.28,0.30,0.40,0.84,0.59,-0.07,-0.14,1005.90
4.762,0.03,1.02,-0.28,0.30,0.40,0.84,0.92,-0.17,-0.17,1005.90
4.763,0.03,1.02,-0.28,-0.08,0.73,0.49,0.92,-0.17,-0.17,1005.90
4.777,0.03,1.02,-0.28,-0.08,0.73,0.49,0.92,-0.17,-0.17,1005.92
4.822,0.03,1.02,-0.28,0.88,1.59,1.12,0.92,-0.17,-0.17,1005.92
4.824,-0.01,1.07,-0.31,0.88,1.59,1.12,0.92,-0.17,-0.17,1005.92
4.829,0.02,1.08,-0.30,0.88,1.59,1.12,0.92,-0.17,-0.17,1005.92
4.83,0.13,1.07,-0.27,0.88,1.59,1.12,0.92,-0.17,-0.17,1005.92
4.831,0.13,1.07,-0.27,0.88,1.59,1.12,1.31,-0.18,-0.08,1005.92
4.858,0.13,1.07,-0.27,0.88,1.59,1.12,1.31,-0.18,-0.08,1005.92
4.873,0.16,1.16,-0.16,0.88,1.59,1.12,1.31,-0.18,-0.08,1005.92
4.874,0.26,1.32,-0.11,0.88,1.59,1.12,1.31,-0.18,-0.08,1005.92
4.875,0.48,1.58,-0.01,0.88,1.59,1.12,1.31,-0.18,-0.08,1005.92
4.875,0.48,1.58,-0.01,0.88,1.59,1.12,1.91,-1.27,-0.24,1005.92
4.875,0.48,1.58,-0.01,3.78,4.75,3.93,1.91,-1.27,-0.24,1005.92
4.897,0.48,1.58,-0.01,3.78,4.75,3.93,1.91,-1.27,-0.24,1005.92
4.933,0.55,1.65,0.13,3.78,4.75,3.93,1.91,-1.27,-0.24,1005.92
4.934,0.30,1.54,0.21,3.78,4.75,3.93,1.91,-1.27,-0.24,1005.92
4.934,0.03,1.48,0.39,3.78,4.75,3.93,1.91,-1.27,-0.24,1005.92
4.935,0.03,1.48,0.39,3.78,4.75,3.93,2.30,-2.47,-0.93,1005.92
4.935,0.03,1.48,0.39,4.85,7.40,7.93,2.30,-2.47,-0.93,1005.92
4.978,0.03,1.48,0.39,4.85,7.40,7.93,2.30,-2.47,-0.93,1005.91
4.99,-0.29,1.51,0.19,4.85,7.40,7.93,2.30,-2.47,-0.93,1005.91
4.992,-0.73,1.61,-0.08,4.85,7.40,7.93,2.30,-2.47,-0.93,1005.91
4.993,-0.97,1.36,-0.28,4.85,7.40,7.93,2.30,-2.47,-0.93,1005.91
4.994,-0.97,1.36,-0.28,4.85,7.40,7.93,2.21,-3.64,-1.90,1005.91
4.995,-0.97,1.36,-0.28,-2.47,7.75,5.25,2.21,-3.64,-1.90,1005.91
5.049,-0.72,1.24,-0.51,-2.47,7.75,5.25,2.21,-3.64,-1.90,1005.91
5.052,-0.12,0.98,-0.37,-2.47,7.75,5.25,2.21,-3.64,-1.90,1005.91
5.053,0.17,0.61,-0.07,-2.47,7.75,5.25,2.21,-3.64,-1.90,1005.91
5.054,0.17,0.61,-0.07,-2.47,7.75,5.25,1.23,-4.52,0.09,1005.91
5.055,0.17,0.61,-0.07,3.23,2.68,1.87,1.23,-4.52,0.09,1005.91
5.059,0.17,0.61,-0.07,3.23,2.68,1.87,1.23,-4.52,0.09,1005.92
5.097,0.17,0.61,-0.07,3.23,2.68,1.87,1.23,-4.52,0.09,1005.90
5.114,0.02,0.42,0.21,3.23,2.68,1.87,1.23,-4.52,0.09,1005.90
5.116,-0.23,0.45,0.15,3.23,2.68,1.87,1.23,-4.52,0.09,1005.90
5.117,-0.29,0.45,0.00,3.23,2.68,1.87,1.23,-4.52,0.09,1005.90
5.118,-0.29,0.45,0.00,3.23,2.68,1.87,-0.12,-2.99,1.96,1005.90
5.12,-0.29,0.45,0.00,3.70,-2.86,5.06,-0.12,-2.99,1.96,1005.90
5.166,-0.17,0.43,-0.10,3.70,-2.86,5.06,-0.12,-2.99,1.96,1005.90
5.168,-0.06,0.44,-0.14,3.70,-2.86,5.06,-0.12,-2.99,1.96,1005.90
5.169,-0.05,0.54,-0.11,3.70,-2.86,5.06,-0.12,-2.99,1.96,1005.90
5.17,-0.05,0.54,-0.11,3.70,-2.86,5.06,-0.63,-0.98,4.15,1005.90
5.171,-0.05,0.54,-0.11,2.68,-3.73,2.11,-0.63,-0.98,4.15,1005.90
5.183,-0.05,0.54,-0.11,2.68,-3.73,2.11,-0.63,-0.98,4.15,1005.91
5.224,-0.13,0.67,-0.14,2.68,-3.73,2.11,-0.63,-0.98,4.15,1005.91
5.226,-0.20,0.84,-0.18,2.68,-3.73,2.11,-0.63,-0.98,4.15,1005.91
5.226,-0.26,1.06,-0.23,2.68,-3.73,2.11,-0.63,-0.98,4.15,1005.91
5.227,-0.26,1.06,-0.23,2.68,-3.73,2.11,-1.39,0.17,5.46,1005.91
5.227,-0.26,1.06,-0.23,-1.15,-0.91,0.76,-1.39,0.17,5.46,1005.91
5.259,-0.26,1.06,-0.23,-1.15,-0.91,0.76,-1.39,0.17,5.46,1005.92
5.282,-0.34,1.31,-0.30,-1.15,-0.91,0.76,-1.39,0.17,5.46,1005.92
5.283,-0.38,1.58,-0.34,-1.15,-0.91,0.76,-1.39,0.17,5.46,1005.92
5.284,-0.41,1.76,-0.31,-1.15,-0.91,0.76,-1.39,0.17,5.46,1005.92
5.284,-0.41,1.76,-0.31,-1.15,-0.91,0.76,-2.32,-0.87,6.28,1005.92
5.285,-0.41,1.76,-0.31,-6.17,5.90,-1.72,-2.32,-0.87,6.28,1005.92
5.297,-0.41,1.76,-0.31,-6.17,5.90,-1.72,-2.32,-0.87,6.28,1005.90
5.34,-0.57,1.76,-0.17,-6.17,5.90,-1.72,-2.32,-0.87,6.28,1005.90
5.341,-0.82,1.68,0.04,-6.17,5.90,-1.72,-2.32,-0.87,6.28,1005.90
5.342,-1.05,1.32,0.03,-6.17,5.90,-1.72,-2.32,-0.87,6.28,1005.90
5.342,-1.05,1.32,0.03,-12.50,6.98,0.12,-2.32,-0.87,6.28,1005.90
5.343,-1.05,1.32,0.03,-12.50,6.98,0.12,-2.02,-0.68,4.42,1005.90
5.377,-1.05,1.32,0.03,-12.50,6.98,0.12,-2.02,-0.68,4.42,1005.86
5.399,-1.12,0.90,-0.39,-12.50,6.98,0.12,-2.02,-0.68,4.42,1005.86
5.4,-1.24,0.69,-0.45,-12.50,6.98,0.12,-2.02,-0.68,4.42,1005.86
5.401,-1.49,0.90,-0.53,-12.50,6.98,0.12,-2.02,-0.68,4.42,1005.86
5.402,-1.49,0.90,-0.53,-12.50,6.98,0.12,-0.29,0.47,-1.14,1005.86
5.403,-1.49,0.90,-0.53,-16.25,-0.74,-4.19,-0.29,0.47,-1.14,1005.86
5.459,-0.57,1.72,-0.57,-16.25,-0.74,-4.19,-0.29,0.47,-1.14,1005.86
5.461,1.25,1.58,0.61,-16.25,-0.74,-4.19,-0.29,0.47,-1.14,1005.86
5.462,1.92,1.64,-0.37,-16.25,-0.74,-4.19,-0.29,0.47,-1.14,1005.86
5.463,1.92,1.64,-0.37,-16.25,-0.74,-4.19,-0.23,-1.55,0.24,1005.86
5.463,1.92,1.64,-0.37,-16.25,-0.74,-4.19,-0.23,-1.55,0.24,1005.87
5.464,1.92,1.64,-0.37,4.64,7.18,-0.58,-0.23,-1.55,0.24,1005.87
5.497,1.92,1.64,-0.37,4.64,7.18,-0.58,-0.23,-1.55,0.24,1005.86
5.516,0.02,1.63,-1.33,4.64,7.18,-0.58,-0.23,-1.55,0.24,1005.86
5.518,-0.23,0.76,-0.13,4.64,7.18,-0.58,-0.23,-1.55,0.24,1005.86
5.519,-0.24,0.54,0.75,4.64,7.18,-0.58,-0.23,-1.55,0.24,1005.86
5.52,-0.24,0.54,0.75,4.64,7.18,-0.58,-0.40,-1.03,-2.36,1005.86
5.521,-0.24,0.54,0.75,-3.93,0.15,-1.82,-0.40,-1.03,-2.36,1005.86
5.575,-0.24,0.54,0.75,0.29,0.51,1.85,-0.40,-1.03,-2.36,1005.86
5.576,-0.09,0.84,0.47,0.29,0.51,1.85,-0.40,-1.03,-2.36,1005.86
5.577,0.34,1.18,0.15,0.29,0.51,1.85,-0.40,-1.03,-2.36,1005.86
5.577,0.41,1.06,-0.22,0.29,0.51,1.85,-0.40,-1.03,-2.36,1005.86
5.578,0.41,1.06,-0.22,0.29,0.51,1.85,0.12,0.12,-1.16,1005.86
5.579,0.41,1.06,-0.22,0.29,0.51,1.85,0.12,0.12,-1.16,1005.89
5.632,0.12,1.00,-0.23,0.29,0.51,1.85,0.12,0.12,-1.16,1005.89
5.634,-0.22,1.09,-0.18,0.29,0.51,1.85,0.12,0.12,-1.16,1005.89
5.634,-0.15,1.04,-0.09,0.29,0.51,1.85,0.12,0.12,-1.16,1005.89
5.634,-0.15,1.04,-0.09,0.29,0.51,1.85,0.04,-0.04,-1.08,1005.89
5.635,-0.15,1.04,-0.09,-2.01,0.55,-1.06,0.04,-0.04,-1.08,1005.89
5.658,-0.15,1.04,-0.09,-2.01,0.55,-1.06,0.04,-0.04,-1.08,1005.93
5.692,-0.15,1.04,-0.09,2.11,-0.22,1.35,0.04,-0.04,-1.08,1005.93
5.693,0.14,0.99,0.06,2.11,-0.22,1.35,0.04,-0.04,-1.08,1005.93
5.694,0.36,0.96,0.09,2.11,-0.22,1.35,0.04,-0.04,-1.08,1005.93
5.694,0.42,0.95,0.08,2.11,-0.22,1.35,0.04,-0.04,-1.08,1005.93
5.695,0.42,0.95,0.08,2.11,-0.22,1.35,0.01,-0.35,-0.60,1005.93
5.698,0.42,0.95,0.08,2.11,-0.22,1.35,0.01,-0.35,-0.60,1005.92
5.749,0.27,0.94,0.07,2.11,-0.22,1.35,0.01,-0.35,-0.60,1005.92
5.75,0.07,0.95,0.05,2.11,-0.22,1.35,0.01,-0.35,-0.60,1005.92
5.75,-0.00,0.97,0.04,2.11,-0.22,1.35,0.01,-0.35,-0.60,1005.92
5.751,-0.00,0.97,0.04,2.11,-0.22,1.35,0.35,0.31,-1.27,1005.92
5.751,-0.00,0.97,0.04,0.89,-0.37,1.31,0.35,0.31,-1.27,1005.92
5.777,-0.00,0.97,0.04,0.89,-0.37,1.31,0.35,0.31,-1.27,1005.93
5.815,-0.01,1.00,0.02,0.89,-0.37,1.31,0.35,0.31,-1.27,1005.93
5.817,0.04,1.00,-0.05,0.89,-0.37,1.31,0.35,0.31,-1.27,1005.93
5.818,0.06,1.00,-0.12,0.89,-0.37,1.31,0.35,0.31,-1.27,1005.93
5.831,0.06,1.00,-0.12,0.89,-0.37,1.31,0.54,0.25,-1.39,1005.93
5.831,0.06,1.00,-0.12,0.88,0.09,0.55,0.54,0.25,-1.39,1005.93
5.858,0.06,1.00,-0.12,0.88,0.09,0.55,0.54,0.25,-1.39,1005.93
5.865,-0.02,0.99,-0.17,0.88,0.09,0.55,0.54,0.25,-1.39,1005.93
5.866,-0.13,0.95,-0.15,0.88,0.09,0.55,0.54,0.25,-1.39,1005.93
5.866,-0.19,0.95,-0.10,0.88,0.09,0.55,0.54,0.25,-1.39,1005.93
5.867,-0.19,0.95,-0.10,0.88,0.09,0.55,0.58,0.44,-1.64,1005.93
5.867,-0.19,0.95,-0.10,0.36,-0.08,0.05,0.58,0.44,-1.64,1005.93
5.897,-0.19,0.95,-0.10,0.36,-0.08,0.05,0.58,0.44,-1.64,1005.93
5.933,-0.12,1.02,-0.12,0.36,-0.08,0.05,0.58,0.44,-1.64,1005.93
5.935,-0.13,1.13,-0.20,0.36,-0.08,0.05,0.58,0.44,-1.64,1005.93
5.936,-0.19,1.22,-0.24,0.36,-0.08,0.05,0.58,0.44,-1.64,1005.93
5.936,-0.19,1.22,-0.24,0.36,-0.08,0.05,0.65,0.06,-1.66,1005.93
5.937,-0.19,1.22,-0.24,0.91,1.71,-0.07,0.65,0.06,-1.66,1005.93
5.978,-0.19,1.22,-0.24,0.91,1.71,-0.07,0.65,0.06,-1.66,1005.95
5.983,-0.07,1.25,-0.21,0.91,1.71,-0.07,0.65,0.06,-1.66,1005.95
5.984,0.12,1.36,-0.16,0.91,1.71,-0.07,0.65,0.06,-1.66,1005.95
5.984,0.23,1.50,-0.07,0.91,1.71,-0.07,0.65,0.06,-1.66,1005.95
5.985,0.23,1.50,-0.07,0.91,1.71,-0.07,0.89,-0.24,-1.73,1005.95
5.985,0.23,1.50,-0.07,4.13,4.43,0.74,0.89,-0.24,-1.73,1005.95
6.043,0.52,1.88,0.16,4.13,4.43,0.74,0.89,-0.24,-1.73,1005.95
6.044,1.11,2.08,0.20,4.13,4.43,0.74,0.89,-0.24,-1.73,1005.95
6.045,1.40,1.82,0.05,4.13,4.43,0.74,0.89,-0.24,-1.73,1005.95
6.045,1.40,1.82,0.05,14.00,10.36,4.12,0.89,-0.24,-1.73,1005.95
6.046,1.40,1.82,0.05,14.00,10.36,4.12,1.27,-0.02,-2.19,1005.95
6.057,1.40,1.82,0.05,14.00,10.36,4.12,1.27,-0.02,-2.19,1005.94
6.097,1.40,1.82,0.05,14.00,10.36,4.12,1.27,-0.02,-2.19,1005.92
6.099,1.16,1.20,0.20,14.00,10.36,4.12,1.27,-0.02,-2.19,1005.92
6.101,-0.13,1.02,0.06,14.00,10.36,4.12,1.27,-0.02,-2.19,1005.92
6.102,-0.96,1.41,-0.16,14.00,10.36,4.12,1.27,-0.02,-2.19,1005.92
6.103,-0.96,1.41,-0.16,5.73,4.73,4.24,1.27,-0.02,-2.19,1005.92
6.104,-0.96,1.41,-0.16,5.73,4.73,4.24,1.53,1.79,-4.11,1005.92
6.157,-1.40,1.34,-0.28,5.73,4.73,4.24,1.53,1.79,-4.11,1005.92
6.159,-1.29,0.79,-0.29,5.73,4.73,4.24,1.53,1.79,-4.11,1005.92
6.159,-0.75,0.57,-0.14,5.73,4.73,4.24,1.53,1.79,-4.11,1005.92
6.16,-0.75,0.57,-0.14,5.73,4.73,4.24,1.06,-0.25,-2.61,1005.92
6.16,-0.75,0.57,-0.14,-4.56,2.84,1.84,1.06,-0.25,-2.61,1005.92
6.177,-0.75,0.57,-0.14,-4.56,2.84,1.84,1.06,-0.25,-2.61,1005.91
6.216,-0.33,0.34,-0.35,-4.56,2.84,1.84,1.06,-0.25,-2.61,1005.91
6.218,-0.12,0.14,0.03,-4.56,2.84,1.84,1.06,-0.25,-2.61,1005.91
6.219,-0.15,-0.00,0.20,-4.56,2.84,1.84,1.06,-0.25,-2.61,1005.91
6.221,-0.15,-0.00,0.20,-4.56,2.84,1.84,-0.96,-1.05,1.77,1005.91
6.222,-0.15,-0.00,0.20,4.21,-5.25,2.95,-0.96,-1.05,1.77,1005.91
6.258,-0.15,-0.00,0.20,4.21,-5.25,2.95,-0.96,-1.05,1.77,1005.91
6.275,-0.20,0.08,-0.00,4.21,-5.25,2.95,-0.96,-1.05,1.77,1005.91
6.278,-0.23,0.25,-0.21,4.21,-5.25,2.95,-0.96,-1.05,1.77,1005.91
6.279,-0.11,0.31,-0.23,4.21,-5.25,2.95,-0.96,-1.05,1.77,1005.91
6.279,-0.11,0.31,-0.23,4.21,-5.25,2.95,-1.07,-0.66,3.86,1005.91
6.28,-0.11,0.31,-0.23,2.76,-6.01,1.24,-1.07,-0.66,3.86,1005.91
6.298,-0.11,0.31,-0.23,2.76,-6.01,1.24,-1.07,-0.66,3.86,1005.93
6.333,-0.02,0.40,-0.17,2.76,-6.01,1.24,-1.07,-0.66,3.86,1005.93
6.335,-0.13,0.58,-0.22,2.76,-6.01,1.24,-1.07,-0.66,3.86,1005.93
6.336,-0.20,0.76,-0.11,2.76,-6.01,1.24,-1.07,-0.66,3.86,1005.93
6.337,-0.20,0.76,-0.11,2.76,-6.01,1.24,-1.81,0.18,5.62,1005.93
6.339,-0.20,0.76,-0.11,0.46,-3.60,0.10,-1.81,0.18,5.62,1005.93
6.378,-0.20,0.76,-0.11,0.46,-3.60,0.10,-1.81,0.18,5.62,1005.97
6.403,-0.12,0.97,-0.16,0.46,-3.60,0.10,-1.81,0.18,5.62,1005.97
6.406,-0.06,1.39,-0.57,0.46,-3.60,0.10,-1.81,0.18,5.62,1005.97
6.407,-0.40,2.10,-0.69,0.46,-3.60,0.10,-1.81,0.18,5.62,1005.97
6.408,-0.40,2.10,-0.69,0.46,-3.60,0.10,-1.92,0.51,6.44,1005.97
6.409,-0.40,2.10,-0.69,-3.80,5.11,-3.88,-1.92,0.51,6.44,1005.97
6.448,-0.87,2.21,-0.63,-3.80,5.11,-3.88,-1.92,0.51,6.44,1005.97
6.449,-1.13,1.66,-0.24,-3.80,5.11,-3.88,-1.92,0.51,6.44,1005.97
6.451,-1.24,1.15,-0.11,-3.80,5.11,-3.88,-1.92,0.51,6.44,1005.97
6.451,-1.24,1.15,-0.11,-3.80,5.11,-3.88,-2.10,0.51,4.21,1005.97
6.453,-1.24,1.15,-0.11,-14.50,7.55,-3.56,-2.10,0.51,4.21,1005.97
6.457,-1.24,1.15,-0.11,-14.50,7.55,-3.56,-2.10,0.51,4.21,1005.93
6.497,-1.24,1.15,-0.11,-14.50,7.55,-3.56,-2.10,0.51,4.21,1005.87
6.509,-1.21,0.95,-0.60,-14.50,7.55,-3.56,-2.10,0.51,4.21,1005.87
6.51,-1.34,0.79,-0.47,-14.50,7.55,-3.56,-2.10,0.51,4.21,1005.87
6.51,-1.21,1.35,-0.50,-14.50,7.55,-3.56,-2.10,0.51,4.21,1005.87
6.511,-1.21,1.35,-0.50,-14.50,7.55,-3.56,-0.27,-0.43,-0.81,1005.87
6.511,-1.21,1.35,-0.50,-15.52,1.06,-5.48,-0.27,-0.43,-0.81,1005.87
6.567,0.48,1.74,0.48,-15.52,1.06,-5.48,-0.27,-0.43,-0.81,1005.87
6.569,2.01,1.36,0.82,-15.52,1.06,-5.48,-0.27,-0.43,-0.81,1005.87
6.57,1.15,1.54,-0.71,-15.52,1.06,-5.48,-0.27,-0.43,-0.81,1005.87
6.571,1.15,1.54,-0.71,-15.52,1.06,-5.48,-0.18,-1.35,0.26,1005.87
6.571,1.15,1.54,-0.71,8.31,6.07,1.71,-0.18,-1.35,0.26,1005.87
6.577,1.15,1.54,-0.71,8.31,6.07,1.71,-0.18,-1.35,0.26,1005.86
6.626,-0.17,1.25,-1.36,8.31,6.07,1.71,-0.18,-1.35,0.26,1005.86
6.627,-0.14,0.71,0.52,8.31,6.07,1.71,-0.18,-1.35,0.26,1005.86
6.628,-0.22,0.79,0.33,8.31,6.07,1.71,-0.18,-1.35,0.26,1005.86
6.628,-0.22,0.79,0.33,8.31,6.07,1.71,0.06,-0.24,-2.58,1005.86
6.629,-0.22,0.79,0.33,-3.83,-0.48,-1.75,0.06,-0.24,-2.58,1005.86
6.658,-0.22,0.79,0.33,-3.83,-0.48,-1.75,0.06,-0.24,-2.58,1005.88
6.683,0.03,1.07,0.20,-3.83,-0.48,-1.75,0.06,-0.24,-2.58,1005.88
6.691,0.12,1.10,0.11,-3.83,-0.48,-1.75,0.06,-0.24,-2.58,1005.88
6.691,0.08,0.99,-0.06,-3.83,-0.48,-1.75,0.06,-0.24,-2.58,1005.88
6.692,0.08,0.99,-0.06,-3.83,-0.48,-1.75,0.22,-0.21,-1.38,1005.88
6.692,0.08,0.99,-0.06,-0.56,0.68,0.82,0.22,-0.21,-1.38,1005.88
6.698,0.08,0.99,-0.06,-0.56,0.68,0.82,0.22,-0.21,-1.38,1005.93
6.742,0.03,1.01,-0.04,-0.56,0.68,0.82,0.22,-0.21,-1.38,1005.93
6.744,0.00,1.05,-0.04,-0.56,0.68,0.82,0.22,-0.21,-1.38,1005.93
6.746,0.03,1.03,0.02,-0.56,0.68,0.82,0.22,-0.21,-1.38,1005.93
6.747,0.03,1.03,0.02,-0.56,0.68,0.82,0.24,-0.11,-1.08,1005.93
6.748,0.03,1.03,0.02,-0.47,0.40,-0.02,0.24,-0.11,-1.08,1005.93
6.778,0.03,1.03,0.02,-0.47,0.40,-0.02,0.24,-0.11,-1.08,1005.93
6.802,0.09,1.00,0.05,-0.47,0.40,-0.02,0.24,-0.11,-1.08,1005.93
6.804,0.19,0.99,0.00,-0.47,0.40,-0.02,0.24,-0.11,-1.08,1005.93
6.805,0.15,1.00,0.02,-0.47,0.40,-0.02,0.24,-0.11,-1.08,1005.93
6.806,0.15,1.00,0.02,-0.47,0.40,-0.02,0.29,-0.16,-0.98,1005.93
6.807,0.15,1.00,0.02,1.25,0.04,0.58,0.29,-0.16,-0.98,1005.93
6.858,0.03,0.99,0.01,1.25,0.04,0.58,0.29,-0.16,-0.98,1005.93
6.859,-0.06,0.98,-0.05,1.25,0.04,0.58,0.29,-0.16,-0.98,1005.93
6.86,-0.06,0.99,-0.03,1.25,0.04,0.58,0.29,-0.16,-0.98,1005.93
6.86,-0.06,0.99,-0.03,0.22,-0.03,0.32,0.29,-0.16,-0.98,1005.93
6.861,-0.06,0.99,-0.03,0.22,-0.03,0.32,0.38,0.22,-1.20,1005.93
6.861,-0.06,0.99,-0.03,0.22,-0.03,0.32,0.38,0.22,-1.20,1005.94
6.899,-0.06,0.99,-0.03,0.22,-0.03,0.32,0.38,0.22,-1.20,1005.94
6.916,-0.00,0.99,-0.03,0.22,-0.03,0.32,0.38,0.22,-1.20,1005.94
6.918,0.01,0.98,-0.03,0.22,-0.03,0.32,0.38,0.22,-1.20,1005.94
6.919,-0.05,0.97,-0.04,0.22,-0.03,0.32,0.38,0.22,-1.20,1005.94
6.92,-0.05,0.97,-0.04,0.22,-0.03,0.32,0.42,0.30,-1.25,1005.94
6.921,-0.05,0.97,-0.04,1.07,0.01,0.47,0.42,0.30,-1.25,1005.94
6.974,-0.06,0.97,-0.10,1.07,0.01,0.47,0.42,0.30,-1.25,1005.94
6.976,-0.07,0.99,-0.14,1.07,0.01,0.47,0.42,0.30,-1.25,1005.94
6.979,-0.08,1.04,-0.15,1.07,0.01,0.47,0.42,0.30,-1.25,1005.94
6.98,-0.08,1.04,-0.15,1.07,0.01,0.47,0.48,0.36,-1.52,1005.94
6.981,-0.08,1.04,-0.15,1.32,0.34,-0.15,0.48,0.36,-1.52,1005.94
6.985,-0.08,1.04,-0.15,1.32,0.34,-0.15,0.48,0.36,-1.52,1005.93
7.034,-0.11,1.11,-0.07,1.32,0.34,-0.15,0.48,0.36,-1.52,1005.93
7.034,-0.17,1.15,-0.08,1.32,0.34,-0.15,0.48,0.36,-1.52,1005.93
7.035,-0.16,1.16,-0.05,1.32,0.34,-0.15,0.48,0.36,-1.52,1005.93
7.035,-0.16,1.16,-0.05,1.49,1.99,0.72,0.48,0.36,-1.52,1005.93
7.035,-0.16,1.16,-0.05,1.49,1.99,0.72,0.59,-0.03,-1.76,1005.93
7.057,-0.16,1.16,-0.05,1.49,1.99,0.72,0.59,-0.03,-1.76,1005.93
7.091,-0.07,1.18,0.01,1.49,1.99,0.72,0.59,-0.03,-1.76,1005.93
7.092,0.05,1.27,0.04,1.49,1.99,0.72,0.59,-0.03,-1.76,1005.93
7.093,0.37,1.52,0.15,1.49,1.99,0.72,0.59,-0.03,-1.76,1005.93
7.093,0.37,1.52,0.15,5.02,4.16,2.41,0.59,-0.03,-1.76,1005.93
7.093,0.37,1.52,0.15,5.02,4.16,2.41,0.75,-0.02,-1.97,1005.93
7.097,0.37,1.52,0.15,5.02,4.16,2.41,0.75,-0.02,-1.97,1005.93
7.15,0.37,1.52,0.15,14.44,10.30,2.90,0.75,-0.02,-1.97,1005.93
7.152,0.74,1.83,0.09,14.44,10.30,2.90,0.75,-0.02,-1.97,1005.93
7.152,0.99,2.02,0.06,14.44,10.30,2.90,0.75,-0.02,-1.97,1005.93
7.153,1.22,1.80,-0.02,14.44,10.30,2.90,0.75,-0.02,-1.97,1005.93
7.153,1.22,1.80,-0.02,14.44,10.30,2.90,0.99,1.18,-2.62,1005.93
7.177,1.22,1.80,-0.02,14.44,10.30,2.90,0.99,1.18,-2.62,1005.93
7.208,0.34,1.17,-0.07,14.44,10.30,2.90,0.99,1.18,-2.62,1005.93
7.21,-0.82,1.24,-0.28,14.44,10.30,2.90,0.99,1.18,-2.62,1005.93
7.211,-1.50,1.35,-0.53,14.44,10.30,2.90,0.99,1.18,-2.62,1005.93
7.211,-1.50,1.35,-0.53,14.44,10.30,2.90,1.53,1.98,-4.83,1005.93
7.212,-1.50,1.35,-0.53,0.01,5.89,0.93,1.53,1.98,-4.83,1005.93
7.258,-1.50,1.35,-0.53,0.01,5.89,0.93,1.53,1.98,-4.83,1005.91
7.267,-1.57,0.88,-0.42,0.01,5.89,0.93,1.53,1.98,-4.83,1005.91
7.268,-1.04,0.48,-0.07,0.01,5.89,0.93,1.53,1.98,-4.83,1005.91
7.269,-0.36,0.17,-0.29,0.01,5.89,0.93,1.53,1.98,-4.83,1005.91
7.27,-0.36,0.17,-0.29,0.01,5.89,0.93,-0.20,0.36,-1.74,1005.91
7.271,-0.36,0.17,-0.29,-2.64,-0.74,1.27,-0.20,0.36,-1.74,1005.91
7.298,-0.36,0.17,-0.29,-2.64,-0.74,1.27,-0.20,0.36,-1.74,1005.89
7.334,-0.03,-0.08,-0.15,-2.64,-0.74,1.27,-0.20,0.36,-1.74,1005.89
7.335,0.08,-0.21,-0.14,-2.64,-0.74,1.27,-0.20,0.36,-1.74,1005.89
7.341,-0.10,0.01,-0.25,-2.64,-0.74,1.27,-0.20,0.36,-1.74,1005.89
7.342,-0.10,0.01,-0.25,6.18,-7.50,1.44,-0.20,0.36,-1.74,1005.89
7.342,-0.10,0.01,-0.25,6.18,-7.50,1.44,-0.61,-1.02,2.18,1005.89
7.377,-0.10,0.01,-0.25,6.18,-7.50,1.44,-0.61,-1.02,2.18,1005.93
7.383,-0.31,0.18,-0.23,6.18,-7.50,1.44,-0.61,-1.02,2.18,1005.93
7.383,-0.41,0.19,-0.28,6.18,-7.50,1.44,-0.61,-1.02,2.18,1005.93
7.384,-0.38,0.15,-0.32,6.18,-7.50,1.44,-0.61,-1.02,2.18,1005.93
7.384,-0.38,0.15,-0.32,6.18,-7.50,1.44,-0.59,-1.02,4.20,1005.93
7.385,-0.38,0.15,-0.32,1.11,-6.24,-0.11,-0.59,-1.02,4.20,1005.93
7.442,-0.45,0.21,-0.30,1.11,-6.24,-0.11,-0.59,-1.02,4.20,1005.93
7.446,-0.67,0.39,-0.31,1.11,-6.24,-0.11,-0.59,-1.02,4.20,1005.93
7.447,-0.95,0.65,-0.34,1.11,-6.24,-0.11,-0.59,-1.02,4.20,1005.93
7.448,-0.95,0.65,-0.34,1.11,-6.24,-0.11,-0.00,-3.36,5.91,1005.93
7.449,-0.95,0.65,-0.34,-4.56,-4.95,-1.13,-0.00,-3.36,5.91,1005.93
7.464,-0.95,0.65,-0.34,-4.56,-4.95,-1.13,-0.00,-3.36,5.91,1005.95
7.499,-0.95,0.65,-0.34,-4.56,-4.95,-1.13,-0.00,-3.36,5.91,1005.92
7.5,-1.09,0.93,-0.33,-4.56,-4.95,-1.13,-0.00,-3.36,5.91,1005.92
7.5,-0.83,1.21,-0.36,-4.56,-4.95,-1.13,-0.00,-3.36,5.91,1005.92
7.501,-0.57,1.51,-0.48,-4.56,-4.95,-1.13,-0.00,-3.36,5.91,1005.92
7.501,-0.57,1.51,-0.48,-8.54,2.72,-1.26,-0.00,-3.36,5.91,1005.92
7.502,-0.57,1.51,-0.48,-8.54,2.72,-1.26,1.61,-6.84,6.81,1005.92
7.557,-0.51,1.73,-0.34,-8.54,2.72,-1.26,1.61,-6.84,6.81,1005.92
7.559,-0.62,1.66,0.17,-8.54,2.72,-1.26,1.61,-6.84,6.81,1005.92
7.56,-0.59,1.34,0.42,-8.54,2.72,-1.26,1.61,-6.84,6.81,1005.92
7.561,-0.59,1.34,0.42,-8.54,2.72,-1.26,1.14,-8.94,4.02,1005.92
7.563,-0.59,1.34,0.42,-6.45,6.53,4.40,1.14,-8.94,4.02,1005.92
7.581,-0.59,1.34,0.42,-6.45,6.53,4.40,1.14,-8.94,4.02,1005.90
7.615,-0.29,0.92,0.35,-6.45,6.53,4.40,1.14,-8.94,4.02,1005.90
7.616,-0.01,1.18,-0.28,-6.45,6.53,4.40,1.14,-8.94,4.02,1005.90
7.616,0.33,1.09,0.88,-6.45,6.53,4.40,1.14,-8.94,4.02,1005.90
7.617,0.33,1.09,0.88,-6.45,6.53,4.40,-0.56,-3.86,0.71,1005.90
7.62,0.33,1.09,0.88,-0.24,1.38,6.40,-0.56,-3.86,0.71,1005.90
7.659,0.33,1.09,0.88,-0.24,1.38,6.40,-0.56,-3.86,0.71,1005.91
7.676,0.44,0.73,0.59,-0.24,1.38,6.40,-0.56,-3.86,0.71,1005.91
7.677,-0.07,1.19,-0.23,-0.24,1.38,6.40,-0.56,-3.86,0.71,1005.91
7.677,-0.26,1.66,-0.84,-0.24,1.38,6.40,-0.56,-3.86,0.71,1005.91
7.677,-0.26,1.66,-0.84,-0.24,1.38,6.40,-0.78,1.40,-1.03,1005.91
7.678,-0.26,1.66,-0.84,0.31,2.49,1.28,-0.78,1.40,-1.03,1005.91
7.699,-0.26,1.66,-0.84,0.31,2.49,1.28,-0.78,1.40,-1.03,1005.94
7.732,-0.39,1.52,-0.85,0.31,2.49,1.28,-0.78,1.40,-1.03,1005.94
7.733,-0.31,1.19,-0.19,0.31,2.49,1.28,-0.78,1.40,-1.03,1005.94
7.733,0.29,0.98,-0.23,0.31,2.49,1.28,-0.78,1.40,-1.03,1005.94
7.733,0.29,0.98,-0.23,0.31,2.49,1.28,-0.72,-1.33,-0.06,1005.94
7.734,0.29,0.98,-0.23,-1.15,2.65,-1.62,-0.72,-1.33,-0.06,1005.94
7.779,0.29,0.98,-0.23,-1.15,2.65,-1.62,-0.72,-1.33,-0.06,1005.91
7.791,0.50,0.85,-0.04,-1.15,2.65,-1.62,-0.72,-1.33,-0.06,1005.91
7.792,0.25,0.96,0.16,-1.15,2.65,-1.62,-0.72,-1.33,-0.06,1005.91
7.792,-0.02,1.08,0.01,-1.15,2.65,-1.62,-0.72,-1.33,-0.06,1005.91
7.792,-0.02,1.08,0.01,-1.15,2.65,-1.62,-0.49,-0.88,-0.17,1005.91
7.793,-0.02,1.08,0.01,2.75,-0.01,2.62,-0.49,-0.88,-0.17,1005.91
7.851,-0.27,0.99,-0.20,2.75,-0.01,2.62,-0.49,-0.88,-0.17,1005.91
7.852,-0.38,0.96,-0.22,2.75,-0.01,2.62,-0.49,-0.88,-0.17,1005.91
7.852,-0.35,0.92,-0.37,2.75,-0.01,2.62,-0.49,-0.88,-0.17,1005.91
7.852,-0.35,0.92,-0.37,2.75,-0.01,2.62,-0.08,-0.38,-0.34,1005.91
7.852,-0.35,0.92,-0.37,-2.61,-0.07,-0.46,-0.08,-0.38,-0.34,1005.91
7.858,-0.35,0.92,-0.37,-2.61,-0.07,-0.46,-0.08,-0.38,-0.34,1005.92
7.897,-0.35,0.92,-0.37,-2.61,-0.07,-0.46,-0.08,-0.38,-0.34,1005.92
7.908,-0.26,0.95,-0.34,-2.61,-0.07,-0.46,-0.08,-0.38,-0.34,1005.92
7.908,-0.03,1.03,-0.22,-2.61,-0.07,-0.46,-0.08,-0.38,-0.34,1005.92
7.909,0.27,1.00,-0.22,-2.61,-0.07,-0.46,-0.08,-0.38,-0.34,1005.92
7.909,0.27,1.00,-0.22,-2.61,-0.07,-0.46,-0.14,-0.85,0.43,1005.92
7.91,0.27,1.00,-0.22,0.42,0.25,-0.53,-0.14,-0.85,0.43,1005.92
7.966,0.20,0.88,-0.20,0.42,0.25,-0.53,-0.14,-0.85,0.43,1005.92
7.967,-0.10,0.91,-0.12,0.42,0.25,-0.53,-0.14,-0.85,0.43,1005.92
7.968,-0.23,0.93,-0.20,0.42,0.25,-0.53,-0.14,-0.85,0.43,1005.92
7.968,-0.23,0.93,-0.20,0.42,0.25,-0.53,0.02,-0.27,-0.02,1005.92
7.968,-0.23,0.93,-0.20,0.13,-0.56,0.32,0.02,-0.27,-0.02,1005.92
7.978,-0.23,0.93,-0.20,0.13,-0.56,0.32,0.02,-0.27,-0.02,1005.91
8.025,-0.24,0.95,-0.15,0.13,-0.56,0.32,0.02,-0.27,-0.02,1005.91
8.026,-0.07,0.97,-0.07,0.13,-0.56,0.32,0.02,-0.27,-0.02,1005.91
8.026,0.01,0.99,-0.15,0.13,-0.56,0.32,0.02,-0.27,-0.02,1005.91
8.026,0.01,0.99,-0.15,0.13,-0.56,0.32,0.09,-0.51,0.14,1005.91
8.027,0.01,0.99,-0.15,-0.42,0.04,0.87,0.09,-0.51,0.14,1005.91
8.058,0.01,0.99,-0.15,-0.42,0.04,0.87,0.09,-0.51,0.14,1005.92
8.083,-0.03,1.01,-0.20,-0.42,0.04,0.87,0.09,-0.51,0.14,1005.92
8.084,-0.07,0.99,-0.17,-0.42,0.04,0.87,0.09,-0.51,0.14,1005.92
8.084,-0.08,0.98,-0.22,-0.42,0.04,0.87,0.09,-0.51,0.14,1005.92
8.085,-0.08,0.98,-0.22,-0.42,0.04,0.87,0.24,-0.45,0.13,1005.92
8.085,-0.08,0.98,-0.22,-0.08,0.27,0.23,0.24,-0.45,0.13,1005.92
8.098,-0.08,0.98,-0.22,-0.08,0.27,0.23,0.24,-0.45,0.13,1005.93
8.14,-0.11,1.00,-0.17,-0.08,0.27,0.23,0.24,-0.45,0.13,1005.93
8.141,-0.03,0.99,-0.20,-0.08,0.27,0.23,0.24,-0.45,0.13,1005.93
8.142,0.08,0.98,-0.22,-0.08,0.27,0.23,0.24,-0.45,0.13,1005.93
8.142,0.08,0.98,-0.22,-0.08,0.27,0.23,0.41,-0.31,0.21,1005.93
8.143,0.08,0.98,-0.22,0.25,0.32,0.44,0.41,-0.31,0.21,1005.93
8.179,0.08,0.98,-0.22,0.25,0.32,0.44,0.41,-0.31,0.21,1005.94
8.199,0.03,1.00,-0.17,0.25,0.32,0.44,0.41,-0.31,0.21,1005.94
8.2,0.04,0.96,-0.17,0.25,0.32,0.44,0.41,-0.31,0.21,1005.94
8.2,0.01,0.96,-0.15,0.25,0.32,0.44,0.41,-0.31,0.21,1005.94
8.201,0.01,0.96,-0.15,0.25,0.32,0.44,0.72,-0.12,0.03,1005.94
8.201,0.01,0.96,-0.15,0.68,0.24,1.12,0.72,-0.12,0.03,1005.94
8.258,-0.03,1.01,-0.15,0.68,0.24,1.12,0.72,-0.12,0.03,1005.94
8.258,0.00,1.01,-0.22,0.68,0.24,1.12,0.72,-0.12,0.03,1005.94
8.259,0.09,1.00,-0.24,0.68,0.24,1.12,0.72,-0.12,0.03,1005.94
8.259,0.09,1.00,-0.24,0.68,0.24,1.12,1.14,-0.10,-0.09,1005.94
8.259,0.09,1.00,-0.24,0.67,0.75,1.35,1.14,-0.10,-0.09,1005.94
8.259,0.09,1.00,-0.24,0.67,0.75,1.35,1.14,-0.10,-0.09,1005.94
8.298,0.09,1.00,-0.24,0.67,0.75,1.35,1.14,-0.10,-0.09,1005.94
8.316,0.09,1.07,-0.22,0.67,0.75,1.35,1.14,-0.10,-0.09,1005.94
8.318,0.12,1.29,-0.23,0.67,0.75,1.35,1.14,-0.10,-0.09,1005.94
8.319,0.32,1.59,-0.19,0.67,0.75,1.35,1.14,-0.10,-0.09,1005.94
8.323,0.32,1.59,-0.19,0.67,0.75,1.35,1.78,-0.75,-0.18,1005.94
8.325,0.32,1.59,-0.19,2.43,4.14,2.11,1.78,-0.75,-0.18,1005.94
8.374,0.54,1.67,-0.14,2.43,4.14,2.11,1.78,-0.75,-0.18,1005.94
8.375,0.67,1.63,-0.03,2.43,4.14,2.11,1.78,-0.75,-0.18,1005.94
8.375,0.41,1.65,0.18,2.43,4.14,2.11,1.78,-0.75,-0.18,1005.94
8.376,0.41,1.65,0.18,6.74,8.04,5.25,1.78,-0.75,-0.18,1005.94
8.376,0.41,1.65,0.18,6.74,8.04,5.25,2.57,-1.97,-0.59,1005.94
8.379,0.41,1.65,0.18,6.74,8.04,5.25,2.57,-1.97,-0.59,1005.93
8.432,-0.07,1.51,0.32,6.74,8.04,5.25,2.57,-1.97,-0.59,1005.93
8.433,-0.71,1.40,0.26,6.74,8.04,5.25,2.57,-1.97,-0.59,1005.93
8.433,-1.18,1.39,0.01,6.74,8.04,5.25,2.57,-1.97,-0.59,1005.93
8.433,-1.18,1.39,0.01,6.74,8.04,5.25,2.28,-3.08,-1.54,1005.93
8.433,-1.18,1.39,0.01,-3.24,6.73,7.64,2.28,-3.08,-1.54,1005.93
8.457,-1.18,1.39,0.01,-3.24,6.73,7.64,2.28,-3.08,-1.54,1005.92
8.49,-1.20,1.02,-0.30,-3.24,6.73,7.64,2.28,-3.08,-1.54,1005.92
8.491,-0.78,1.02,-0.52,-3.24,6.73,7.64,2.28,-3.08,-1.54,1005.92
8.492,-0.22,0.90,-0.47,-3.24,6.73,7.64,2.28,-3.08,-1.54,1005.92
8.492,-0.22,0.90,-0.47,-3.24,6.73,7.64,1.47,-5.22,-0.17,1005.92
8.492,-0.22,0.90,-0.47,-2.22,2.76,0.86,1.47,-5.22,-0.17,1005.92
8.497,-0.22,0.90,-0.47,-2.22,2.76,0.86,1.47,-5.22,-0.17,1005.93
8.551,0.20,0.47,0.13,-2.22,2.76,0.86,1.47,-5.22,-0.17,1005.93
8.553,0.15,0.36,0.36,-2.22,2.76,0.86,1.47,-5.22,-0.17,1005.93
8.554,-0.09,0.46,0.28,-2.22,2.76,0.86,1.47,-5.22,-0.17,1005.93
8.555,-0.09,0.46,0.28,-2.22,2.76,0.86,-0.07,-4.50,1.95,1005.93
8.556,-0.09,0.46,0.28,6.04,-3.21,6.07,-0.07,-4.50,1.95,1005.93
8.579,-0.09,0.46,0.28,6.04,-3.21,6.07,-0.07,-4.50,1.95,1005.90
8.609,-0.18,0.55,0.18,6.04,-3.21,6.07,-0.07,-4.50,1.95,1005.90
8.61,-0.15,0.60,0.10,6.04,-3.21,6.07,-0.07,-4.50,1.95,1005.90
8.611,-0.15,0.67,0.02,6.04,-3.21,6.07,-0.07,-4.50,1.95,1005.90
8.611,-0.15,0.67,0.02,6.04,-3.21,6.07,-0.28,-1.59,3.40,1005.90
8.612,-0.15,0.67,0.02,2.35,-2.39,3.86,-0.28,-1.59,3.40,1005.90
8.659,-0.15,0.67,0.02,2.35,-2.39,3.86,-0.28,-1.59,3.40,1005.94
8.667,-0.12,0.74,-0.03,2.35,-2.39,3.86,-0.28,-1.59,3.40,1005.94
8.667,-0.12,0.83,-0.07,2.35,-2.39,3.86,-0.28,-1.59,3.40,1005.94
8.668,-0.19,1.00,-0.10,2.35,-2.39,3.86,-0.28,-1.59,3.40,1005.94
8.668,-0.19,1.00,-0.10,2.35,-2.39,3.86,-1.00,0.38,4.83,1005.94
8.669,-0.19,1.00,-0.10,-0.02,-0.85,1.73,-1.00,0.38,4.83,1005.94
8.698,-0.19,1.00,-0.10,-0.02,-0.85,1.73,-1.00,0.38,4.83,1005.97
8.724,-0.30,1.20,-0.21,-0.02,-0.85,1.73,-1.00,0.38,4.83,1005.97
8.726,-0.47,1.42,-0.33,-0.02,-0.85,1.73,-1.00,0.38,4.83,1005.97
8.727,-0.72,1.59,-0.42,-0.02,-0.85,1.73,-1.00,0.38,4.83,1005.97
8.729,-0.72,1.59,-0.42,-6.39,4.27,-1.90,-1.00,0.38,4.83,1005.97
8.73,-0.72,1.59,-0.42,-6.39,4.27,-1.90,-2.11,-0.02,5.42,1005.97
8.779,-0.72,1.59,-0.42,-6.39,4.27,-1.90,-2.11,-0.02,5.42,1005.94
8.782,-0.86,1.51,-0.36,-6.39,4.27,-1.90,-2.11,-0.02,5.42,1005.94
8.783,-0.88,1.35,-0.22,-6.39,4.27,-1.90,-2.11,-0.02,5.42,1005.94
8.783,-0.86,1.30,-0.14,-6.39,4.27,-1.90,-2.11,-0.02,5.42,1005.94
8.784,-0.86,1.30,-0.14,-6.39,4.27,-1.90,-2.44,-1.21,4.81,1005.94
8.784,-0.86,1.30,-0.14,-12.34,4.70,-2.16,-2.44,-1.21,4.81,1005.94
8.842,-0.69,1.15,-0.25,-12.34,4.70,-2.16,-2.44,-1.21,4.81,1005.94
8.843,-0.82,0.94,-0.31,-12.34,4.70,-2.16,-2.44,-1.21,4.81,1005.94
8.843,-1.02,0.77,-0.29,-12.34,4.70,-2.16,-2.44,-1.21,4.81,1005.94
8.843,-1.02,0.77,-0.29,-12.34,4.70,-2.16,-1.15,-0.74,1.18,1005.94
8.844,-1.02,0.77,-0.29,-12.47,0.74,-2.91,-1.15,-0.74,1.18,1005.94
8.858,-1.02,0.77,-0.29,-12.47,0.74,-2.91,-1.15,-0.74,1.18,1005.89
8.898,-1.02,0.77,-0.29,-12.47,0.74,-2.91,-1.15,-0.74,1.18,1005.88
8.899,-1.13,0.85,-0.49,-12.47,0.74,-2.91,-1.15,-0.74,1.18,1005.88
8.899,-0.66,1.48,-0.74,-12.47,0.74,-2.91,-1.15,-0.74,1.18,1005.88
8.9,0.60,1.44,-0.22,-12.47,0.74,-2.91,-1.15,-0.74,1.18,1005.88
8.9,0.60,1.44,-0.22,-7.20,3.31,-4.41,-1.15,-0.74,1.18,1005.88
8.901,0.60,1.44,-0.22,-7.20,3.31,-4.41,-0.23,-2.24,-1.54,1005.88
8.957,2.01,1.12,-0.04,-7.20,3.31,-4.41,-0.23,-2.24,-1.54,1005.88
8.957,1.49,1.81,-0.67,-7.20,3.31,-4.41,-0.23,-2.24,-1.54,1005.88
8.958,-0.10,1.44,-0.86,-7.20,3.31,-4.41,-0.23,-2.24,-1.54,1005.88
8.958,-0.10,1.44,-0.86,-7.20,3.31,-4.41,-0.19,-1.69,-0.16,1005.88
8.958,-0.10,1.44,-0.86,7.79,5.16,-4.54,-0.19,-1.69,-0.16,1005.88
8.979,-0.10,1.44,-0.86,7.79,5.16,-4.54,-0.19,-1.69,-0.16,1005.88
9.018,-0.10,1.44,-0.86,-3.61,-2.32,4.79,-0.19,-1.69,-0.16,1005.88
9.019,-0.18,0.55,0.50,-3.61,-2.32,4.79,-0.19,-1.69,-0.16,1005.88
9.02,-0.24,0.62,0.65,-3.61,-2.32,4.79,-0.19,-1.69,-0.16,1005.88
9.02,-0.01,1.01,0.18,-3.61,-2.32,4.79,-0.19,-1.69,-0.16,1005.88
9.021,-0.01,1.01,0.18,-3.61,-2.32,4.79,-0.21,-0.13,-1.95,1005.88
9.058,-0.01,1.01,0.18,-3.61,-2.32,4.79,-0.21,-0.13,-1.95,1005.92
9.074,0.04,1.19,-0.15,-3.61,-2.32,4.79,-0.21,-0.13,-1.95,1005.92
9.075,0.05,1.10,-0.17,-3.61,-2.32,4.79,-0.21,-0.13,-1.95,1005.92
9.076,0.31,1.04,-0.16,-3.61,-2.32,4.79,-0.21,-0.13,-1.95,1005.92
9.077,0.31,1.04,-0.16,-3.61,-2.32,4.79,0.13,-0.08,-0.90,1005.92
9.077,0.31,1.04,-0.16,-0.41,1.35,-1.02,0.13,-0.08,-0.90,1005.92
9.099,0.31,1.04,-0.16,-0.41,1.35,-1.02,0.13,-0.08,-0.90,1005.92
9.135,0.31,1.04,-0.16,0.35,-0.02,0.70,0.13,-0.08,-0.90,1005.92
9.136,0.26,1.00,-0.10,0.35,-0.02,0.70,0.13,-0.08,-0.90,1005.92
9.137,0.10,0.98,0.05,0.35,-0.02,0.70,0.13,-0.08,-0.90,1005.92
9.138,0.10,0.96,0.08,0.35,-0.02,0.70,0.13,-0.08,-0.90,1005.92
9.138,0.10,0.96,0.08,0.35,-0.02,0.70,0.07,-0.27,-0.95,1005.92
9.179,0.10,0.96,0.08,0.35,-0.02,0.70,0.07,-0.27,-0.95,1005.93
9.191,0.17,0.96,0.02,0.35,-0.02,0.70,0.07,-0.27,-0.95,1005.93
9.192,0.16,0.96,0.00,0.35,-0.02,0.70,0.07,-0.27,-0.95,1005.93
9.192,0.13,0.98,0.01,0.35,-0.02,0.70,0.07,-0.27,-0.95,1005.93
9.193,0.13,0.98,0.01,0.35,-0.02,0.70,0.26,0.07,-1.09,1005.93
9.193,0.13,0.98,0.01,0.92,-0.20,0.84,0.26,0.07,-1.09,1005.93
9.249,0.04,1.02,-0.00,0.92,-0.20,0.84,0.26,0.07,-1.09,1005.93
9.251,-0.06,1.04,-0.06,0.92,-0.20,0.84,0.26,0.07,-1.09,1005.93
9.252,-0.11,1.02,-0.09,0.92,-0.20,0.84,0.26,0.07,-1.09,1005.93
9.252,-0.11,1.02,-0.09,0.92,-0.20,0.84,0.36,-0.13,-1.29,1005.93
9.253,-0.11,1.02,-0.09,-0.26,0.39,0.44,0.36,-0.13,-1.29,1005.93
9.258,-0.11,1.02,-0.09,-0.26,0.39,0.44,0.36,-0.13,-1.29,1005.93
9.299,-0.11,1.02,-0.09,-0.26,0.39,0.44,0.36,-0.13,-1.29,1005.92
9.308,-0.05,0.99,-0.11,-0.26,0.39,0.44,0.36,-0.13,-1.29,1005.92
9.308,-0.02,0.99,-0.12,-0.26,0.39,0.44,0.36,-0.13,-1.29,1005.92
9.309,-0.08,1.03,-0.12,-0.26,0.39,0.44,0.36,-0.13,-1.29,1005.92
9.309,-0.08,1.03,-0.12,-0.26,0.39,0.44,0.37,0.13,-1.14,1005.92
9.31,-0.08,1.03,-0.12,0.29,0.20,0.01,0.37,0.13,-1.14,1005.92
9.366,-0.07,1.04,-0.09,0.29,0.20,0.01,0.37,0.13,-1.14,1005.92
9.367,0.12,1.01,-0.06,0.29,0.20,0.01,0.37,0.13,-1.14,1005.92
9.368,0.24,1.06,-0.07,0.29,0.20,0.01,0.37,0.13,-1.14,1005.92
9.368,0.24,1.06,-0.07,0.29,0.20,0.01,0.41,0.19,-1.28,1005.92
9.368,0.24,1.06,-0.07,2.41,0.66,0.66,0.41,0.19,-1.28,1005.92
9.378,0.24,1.06,-0.07,2.41,0.66,0.66,0.41,0.19,-1.28,1005.93
9.424,0.03,1.24,-0.01,2.41,0.66,0.66,0.41,0.19,-1.28,1005.93
9.426,0.02,1.30,-0.06,2.41,0.66,0.66,0.41,0.19,-1.28,1005.93
9.427,0.24,1.32,-0.06,2.41,0.66,0.66,0.41,0.19,-1.28,1005.93
9.428,0.24,1.32,-0.06,2.41,0.66,0.66,0.83,-0.11,-1.95,1005.93
9.429,0.24,1.32,-0.06,3.40,3.36,1.36,0.83,-0.11,-1.95,1005.93
9.458,0.24,1.32,-0.06,3.40,3.36,1.36,0.83,-0.11,-1.95,1005.93
9.483,0.41,1.47,-0.05,3.40,3.36,1.36,0.83,-0.11,-1.95,1005.93
9.483,0.58,1.68,0.04,3.40,3.36,1.36,0.83,-0.11,-1.95,1005.93
9.484,0.89,1.73,0.09,3.40,3.36,1.36,0.83,-0.11,-1.95,1005.93
9.484,0.89,1.73,0.09,3.40,3.36,1.36,1.36,0.06,-2.46,1005.93
9.484,0.89,1.73,0.09,9.73,7.20,2.70,1.36,0.06,-2.46,1005.93
9.499,0.89,1.73,0.09,9.73,7.20,2.70,1.36,0.06,-2.46,1005.94
9.54,1.26,1.64,0.11,9.73,7.20,2.70,1.36,0.06,-2.46,1005.94
9.541,0.85,1.36,0.19,9.73,7.20,2.70,1.36,0.06,-2.46,1005.94
9.541,-0.22,1.13,-0.00,9.73,7.20,2.70,1.36,0.06,-2.46,1005.94
9.542,-0.22,1.13,-0.00,9.73,7.20,2.70,1.37,1.56,-3.37,1005.94
9.542,-0.22,1.13,-0.00,10.92,5.71,4.42,1.37,1.56,-3.37,1005.94
9.578,-0.22,1.13,-0.00,10.92,5.71,4.42,1.37,1.56,-3.37,1005.92
9.598,-0.77,1.28,-0.29,10.92,5.71,4.42,1.37,1.56,-3.37,1005.92
9.599,-1.05,1.20,-0.47,10.92,5.71,4.42,1.37,1.56,-3.37,1005.92
9.599,-1.11,0.74,-0.37,10.92,5.71,4.42,1.37,1.56,-3.37,1005.92
9.599,-1.11,0.74,-0.37,10.92,5.71,4.42,1.58,1.23,-3.94,1005.92
9.6,-1.11,0.74,-0.37,-3.43,4.27,0.79,1.58,1.23,-3.94,1005.92
9.658,-0.71,0.53,-0.22,-3.43,4.27,0.79,1.58,1.23,-3.94,1005.92
9.659,-0.41,0.35,-0.47,-3.43,4.27,0.79,1.58,1.23,-3.94,1005.92
9.659,-0.22,0.20,-0.25,-3.43,4.27,0.79,1.58,1.23,-3.94,1005.92
9.659,-0.22,0.20,-0.25,-3.43,4.27,0.79,-0.67,-0.19,0.30,1005.92
9.659,-0.22,0.20,-0.25,1.64,-2.91,1.03,-0.67,-0.19,0.30,1005.92
9.659,-0.22,0.20,-0.25,1.64,-2.91,1.03,-0.67,-0.19,0.30,1005.93
9.699,-0.22,0.20,-0.25,1.64,-2.91,1.03,-0.67,-0.19,0.30,1005.90
9.716,-0.14,0.07,-0.04,1.64,-2.91,1.03,-0.67,-0.19,0.30,1005.90
9.716,-0.09,0.14,-0.17,1.64,-2.91,1.03,-0.67,-0.19,0.30,1005.90
9.717,-0.07,0.26,-0.26,1.64,-2.91,1.03,-0.67,-0.19,0.30,1005.90
9.717,-0.07,0.26,-0.26,1.64,-2.91,1.03,-1.76,-0.82,3.09,1005.90
9.718,-0.07,0.26,-0.26,3.88,-6.20,1.61,-1.76,-0.82,3.09,1005.90
9.774,0.01,0.37,-0.30,3.88,-6.20,1.61,-1.76,-0.82,3.09,1005.90
9.775,-0.02,0.52,-0.28,3.88,-6.20,1.61,-1.76,-0.82,3.09,1005.90
9.776,-0.05,0.66,-0.24,3.88,-6.20,1.61,-1.76,-0.82,3.09,1005.90
9.776,-0.05,0.66,-0.24,3.88,-6.20,1.61,-2.10,-0.24,4.93,1005.90
9.777,-0.05,0.66,-0.24,2.21,-3.98,-0.63,-2.10,-0.24,4.93,1005.90
9.778,-0.05,0.66,-0.24,2.21,-3.98,-0.63,-2.10,-0.24,4.93,1005.94
9.832,-0.04,0.76,-0.21,2.21,-3.98,-0.63,-2.10,-0.24,4.93,1005.94
9.833,-0.03,1.02,-0.35,2.21,-3.98,-0.63,-2.10,-0.24,4.93,1005.94
9.833,0.00,1.41,-0.46,2.21,-3.98,-0.63,-2.10,-0.24,4.93,1005.94
9.833,0.00,1.41,-0.46,2.21,-3.98,-0.63,-2.06,0.75,6.09,1005.94
9.834,0.00,1.41,-0.46,-1.18,0.93,-2.35,-2.06,0.75,6.09,1005.94
9.86,0.00,1.41,-0.46,-1.18,0.93,-2.35,-2.06,0.75,6.09,1005.94
9.889,-0.11,1.98,-0.56,-1.18,0.93,-2.35,-2.06,0.75,6.09,1005.94
9.89,-0.62,2.18,-0.54,-1.18,0.93,-2.35,-2.06,0.75,6.09,1005.94
9.891,-0.93,1.66,-0.29,-1.18,0.93,-2.35,-2.06,0.75,6.09,1005.94
9.891,-0.93,1.66,-0.29,-1.18,0.93,-2.35,-2.48,0.16,5.58,1005.94
9.892,-0.93,1.66,-0.29,-9.21,10.12,-4.85,-2.48,0.16,5.58,1005.94
9.899,-0.93,1.66,-0.29,-9.21,10.12,-4.85,-2.48,0.16,5.58,1005.92
9.95,-1.01,1.23,-0.23,-9.21,10.12,-4.85,-2.48,0.16,5.58,1005.92
9.954,-1.13,1.12,-0.30,-9.21,10.12,-4.85,-2.48,0.16,5.58,1005.92
9.955,-1.16,0.96,-0.28,-9.21,10.12,-4.85,-2.48,0.16,5.58,1005.92
9.955,-1.16,0.96,-0.28,-15.27,2.39,-3.24,-2.48,0.16,5.58,1005.92
9.956,-1.16,0.96,-0.28,-15.27,2.39,-3.24,-1.37,-1.28,1.83,1005.92
9.979,-1.16,0.96,-0.28,-15.27,2.39,-3.24,-1.37,-1.28,1.83,1005.87
10.007,-1.13,0.91,-0.26,-15.27,2.39,-3.24,-1.37,-1.28,1.83,1005.87
10.008,-0.49,1.58,-0.41,-15.27,2.39,-3.24,-1.37,-1.28,1.83,1005.87
10.008,1.12,1.58,0.76,-15.27,2.39,-3.24,-1.37,-1.28,1.83,1005.87
10.008,1.12,1.58,0.76,-15.27,2.39,-3.24,-0.21,-0.87,-1.47,1005.87
10.008,1.12,1.58,0.76,-5.34,4.42,-0.17,-0.21,-0.87,-1.47,1005.87
10.058,1.12,1.58,0.76,-5.34,4.42,-0.17,-0.21,-0.87,-1.47,1005.87
10.081,2.34,1.28,0.52,-5.34,4.42,-0.17,-0.21,-0.87,-1.47,1005.87
10.082,0.60,1.67,-0.92,-5.34,4.42,-0.17,-0.21,-0.87,-1.47,1005.87
10.082,-0.40,1.16,-1.08,-5.34,4.42,-0.17,-0.21,-0.87,-1.47,1005.87
10.083,-0.40,1.16,-1.08,-5.34,4.42,-0.17,0.72,-0.02,-1.37,1005.87
10.083,-0.40,1.16,-1.08,5.22,4.23,-4.82,0.72,-0.02,-1.37,1005.87
10.098,-0.40,1.16,-1.08,5.22,4.23,-4.82,0.72,-0.02,-1.37,1005.92
10.125,-0.73,0.68,0.39,5.22,4.23,-4.82,0.72,-0.02,-1.37,1005.92
10.126,-0.35,0.75,0.40,5.22,4.23,-4.82,0.72,-0.02,-1.37,1005.92
10.126,0.18,1.05,0.27,5.22,4.23,-4.82,0.72,-0.02,-1.37,1005.92
10.126,0.18,1.05,0.27,5.22,4.23,-4.82,-0.26,-0.47,-1.88,1005.92
10.127,0.18,1.05,0.27,-4.90,-1.39,3.34,-0.26,-0.47,-1.88,1005.92
10.178,0.18,1.05,0.27,-4.90,-1.39,3.34,-0.26,-0.47,-1.88,1005.90
10.183,0.32,1.12,0.01,-4.90,-1.39,3.34,-0.26,-0.47,-1.88,1005.90
10.183,0.18,1.01,-0.06,-4.90,-1.39,3.34,-0.26,-0.47,-1.88,1005.90
10.183,0.05,1.02,-0.09,-4.90,-1.39,3.34,-0.26,-0.47,-1.88,1005.90
10.184,0.05,1.02,-0.09,-4.90,-1.39,3.34,0.12,-0.13,-1.07,1005.90
10.184,0.05,1.02,-0.09,0.39,0.72,-0.51,0.12,-0.13,-1.07,1005.90
10.242,0.05,1.05,-0.06,0.39,0.72,-0.51,0.12,-0.13,-1.07,1005.90
10.243,0.05,1.02,0.07,0.39,0.72,-0.51,0.12,-0.13,-1.07,1005.90
10.243,0.11,0.98,0.13,0.39,0.72,-0.51,0.12,-0.13,-1.07,1005.90
10.243,0.11,0.98,0.13,0.39,0.72,-0.51,0.06,-0.07,-0.93,1005.90
10.244,0.11,0.98,0.13,-0.15,0.32,0.43,0.06,-0.07,-0.93,1005.90
10.26,0.11,0.98,0.13,-0.15,0.32,0.43,0.06,-0.07,-0.93,1005.93
10.299,0.23,0.96,0.08,-0.15,0.32,0.43,0.06,-0.07,-0.93,1005.93
10.3,0.27,0.97,0.05,-0.15,0.32,0.43,0.06,-0.07,-0.93,1005.93
10.3,0.16,0.98,0.05,-0.15,0.32,0.43,0.06,-0.07,-0.93,1005.93
10.301,0.16,0.98,0.05,-0.15,0.32,0.43,0.24,0.04,-1.07,1005.93
10.301,0.16,0.98,0.05,1.84,-0.16,0.69,0.24,0.04,-1.07,1005.93
10.302,0.16,0.98,0.05,1.84,-0.16,0.69,0.24,0.04,-1.07,1005.92
10.357,0.02,0.97,0.05,1.84,-0.16,0.69,0.24,0.04,-1.07,1005.92
10.358,-0.09,1.00,-0.00,1.84,-0.16,0.69,0.24,0.04,-1.07,1005.92
10.358,-0.12,1.02,-0.03,1.84,-0.16,0.69,0.24,0.04,-1.07,1005.92
10.359,-0.12,1.02,-0.03,1.84,-0.16,0.69,0.40,0.30,-1.40,1005.92
10.359,-0.12,1.02,-0.03,-0.12,0.07,0.37,0.40,0.30,-1.40,1005.92
10.384,-0.12,1.02,-0.03,-0.12,0.07,0.37,0.40,0.30,-1.40,1005.92
10.415,-0.04,0.99,-0.01,-0.12,0.07,0.37,0.40,0.30,-1.40,1005.92
10.417,-0.03,0.98,-0.03,-0.12,0.07,0.37,0.40,0.30,-1.40,1005.92
10.417,-0.10,0.98,-0.06,-0.12,0.07,0.37,0.40,0.30,-1.40,1005.92
10.418,-0.10,0.98,-0.06,0.68,0.03,0.22,0.40,0.30,-1.40,1005.92
10.418,-0.10,0.98,-0.06,0.68,0.03,0.22,0.41,0.16,-1.34,1005.92
10.46,-0.10,0.98,-0.06,0.68,0.03,0.22,0.41,0.16,-1.34,1005.93
10.484,-0.11,0.97,-0.08,0.68,0.03,0.22,0.41,0.16,-1.34,1005.93
10.485,-0.12,0.98,-0.12,0.68,0.03,0.22,0.41,0.16,-1.34,1005.93
10.486,-0.18,1.04,-0.15,0.68,0.03,0.22,0.41,0.16,-1.34,1005.93
10.486,-0.18,1.04,-0.15,0.68,0.03,0.22,0.38,0.29,-1.50,1005.93
10.487,-0.18,1.04,-0.15,0.68,0.34,-0.32,0.38,0.29,-1.50,1005.93
10.498,-0.18,1.04,-0.15,0.68,0.34,-0.32,0.38,0.29,-1.50,1005.94
10.533,-0.22,1.07,-0.15,0.68,0.34,-0.32,0.38,0.29,-1.50,1005.94
10.534,-0.19,1.06,-0.12,0.68,0.34,-0.32,0.38,0.29,-1.50,1005.94
10.534,-0.12,1.13,-0.08,0.68,0.34,-0.32,0.38,0.29,-1.50,1005.94
10.535,-0.12,1.13,-0.08,0.68,0.34,-0.32,0.38,0.00,-1.55,1005.94
10.535,-0.12,1.13,-0.08,1.13,1.39,-0.12,0.38,0.00,-1.55,1005.94
10.581,-0.12,1.13,-0.08,1.13,1.39,-0.12,0.38,0.00,-1.55,1005.94
10.591,-0.12,1.13,-0.08,3.70,3.13,0.80,0.38,0.00,-1.55,1005.94
10.596,-0.05,1.15,-0.06,3.70,3.13,0.80,0.38,0.00,-1.55,1005.94
10.596,-0.03,1.17,-0.05,3.70,3.13,0.80,0.38,0.00,-1.55,1005.94
10.597,0.07,1.36,-0.05,3.70,3.13,0.80,0.38,0.00,-1.55,1005.94
10.597,0.07,1.36,-0.05,3.70,3.13,0.80,0.52,0.23,-1.80,1005.94
10.649,0.38,1.70,-0.02,3.70,3.13,0.80,0.52,0.23,-1.80,1005.94
10.65,0.86,1.85,-0.12,3.70,3.13,0.80,0.52,0.23,-1.80,1005.94
10.65,1.17,1.69,-0.30,3.70,3.13,0.80,0.52,0.23,-1.80,1005.94
10.651,1.17,1.69,-0.30,3.70,3.13,0.80,0.92,1.44,-2.14,1005.94
10.651,1.17,1.69,-0.30,12.35,8.70,0.69,0.92,1.44,-2.14,1005.94
10.659,1.17,1.69,-0.30,12.35,8.70,0.69,0.92,1.44,-2.14,1005.93
10.698,1.17,1.69,-0.30,12.35,8.70,0.69,0.92,1.44,-2.14,1005.92
10.707,0.89,1.19,-0.17,12.35,8.70,0.69,0.92,1.44,-2.14,1005.92
10.708,-0.29,0.93,-0.12,12.35,8.70,0.69,0.92,1.44,-2.14,1005.92
10.708,-0.98,1.19,-0.28,12.35,8.70,0.69,0.92,1.44,-2.14,1005.92
10.709,-0.98,1.19,-0.28,12.35,8.70,0.69,1.44,2.42,-3.68,1005.92
10.709,-0.98,1.19,-0.28,4.42,3.67,1.62,1.44,2.42,-3.68,1005.92
10.772,-0.98,1.19,-0.28,-4.24,2.72,0.96,1.44,2.42,-3.68,1005.92
10.773,-1.23,1.26,-0.44,-4.24,2.72,0.96,1.44,2.42,-3.68,1005.92
10.774,-1.14,0.81,-0.21,-4.24,2.72,0.96,1.44,2.42,-3.68,1005.92
10.774,-0.92,0.65,-0.29,-4.24,2.72,0.96,1.44,2.42,-3.68,1005.92
10.775,-0.92,0.65,-0.29,-4.24,2.72,0.96,1.29,0.16,-2.06,1005.92
10.78,-0.92,0.65,-0.29,-4.24,2.72,0.96,1.29,0.16,-2.06,1005.90
10.824,-0.69,0.47,-0.28,-4.24,2.72,0.96,1.29,0.16,-2.06,1005.90
10.825,-0.25,0.23,0.08,-4.24,2.72,0.96,1.29,0.16,-2.06,1005.90
10.826,0.02,-0.03,0.41,-4.24,2.72,0.96,1.29,0.16,-2.06,1005.90
10.827,0.02,-0.03,0.41,-4.24,2.72,0.96,-0.65,-1.45,2.00,1005.90
10.829,0.02,-0.03,0.41,2.96,-4.76,3.87,-0.65,-1.45,2.00,1005.90
10.858,0.02,-0.03,0.41,2.96,-4.76,3.87,-0.65,-1.45,2.00,1005.90
10.882,0.04,-0.02,0.26,2.96,-4.76,3.87,-0.65,-1.45,2.00,1005.90
10.889,-0.08,0.22,-0.04,2.96,-4.76,3.87,-0.65,-1.45,2.00,1005.90
10.889,-0.06,0.42,-0.17,2.96,-4.76,3.87,-0.65,-1.45,2.00,1005.90
10.889,-0.06,0.42,-0.17,2.96,-4.76,3.87,0.11,-1.03,4.04,1005.90
10.89,-0.06,0.42,-0.17,3.97,-6.04,3.01,0.11,-1.03,4.04,1005.90
10.899,-0.06,0.42,-0.17,3.97,-6.04,3.01,0.11,-1.03,4.04,1005.94
10.94,-0.20,0.60,-0.23,3.97,-6.04,3.01,0.11,-1.03,4.04,1005.94
10.941,-0.48,0.74,-0.08,3.97,-6.04,3.01,0.11,-1.03,4.04,1005.94
10.942,-0.58,0.90,-0.17,3.97,-6.04,3.01,0.11,-1.03,4.04,1005.94
10.942,-0.58,0.90,-0.17,3.97,-6.04,3.01,0.18,-1.29,5.65,1005.94
10.943,-0.58,0.90,-0.17,-2.39,-1.67,1.13,0.18,-1.29,5.65,1005.94
10.98,-0.58,0.90,-0.17,-2.39,-1.67,1.13,0.18,-1.29,5.65,1005.98
11.003,-0.74,1.18,-0.15,-2.39,-1.67,1.13,0.18,-1.29,5.65,1005.98
11.004,-0.93,1.48,-0.23,-2.39,-1.67,1.13,0.18,-1.29,5.65,1005.98
11.004,-0.91,1.52,-0.44,-2.39,-1.67,1.13,0.18,-1.29,5.65,1005.98
11.005,-0.91,1.52,-0.44,-9.40,4.49,0.02,0.18,-1.29,5.65,1005.98
11.005,-0.91,1.52,-0.44,-9.40,4.49,0.02,0.02,-5.65,6.90,1005.98
11.057,-0.69,1.58,-0.45,-9.40,4.49,0.02,0.02,-5.65,6.90,1005.98
11.057,-0.18,1.54,0.08,-9.40,4.49,0.02,0.02,-5.65,6.90,1005.98
11.058,0.25,1.33,0.52,-9.40,4.49,0.02,0.02,-5.65,6.90,1005.98
11.058,0.25,1.33,0.52,-9.40,4.49,0.02,-0.40,-9.98,5.88,1005.98
11.059,0.25,1.33,0.52,-4.24,5.84,3.92,-0.40,-9.98,5.88,1005.98
11.059,0.25,1.33,0.52,-4.24,5.84,3.92,-0.40,-9.98,5.88,1005.93
11.099,0.25,1.33,0.52,-4.24,5.84,3.92,-0.40,-9.98,5.88,1005.89
11.116,0.21,1.16,0.61,-4.24,5.84,3.92,-0.40,-9.98,5.88,1005.89
11.116,-0.15,1.01,0.61,-4.24,5.84,3.92,-0.40,-9.98,5.88,1005.89
11.117,-0.49,0.90,0.39,-4.24,5.84,3.92,-0.40,-9.98,5.88,1005.89
11.117,-0.49,0.90,0.39,-4.24,5.84,3.92,-0.95,-4.31,1.52,1005.89
11.117,-0.49,0.90,0.39,-3.42,1.28,8.64,-0.95,-4.31,1.52,1005.89
11.173,-0.76,1.14,0.26,-3.42,1.28,8.64,-0.95,-4.31,1.52,1005.89
11.174,-1.12,1.50,0.36,-3.42,1.28,8.64,-0.95,-4.31,1.52,1005.89
11.175,-0.24,1.08,0.26,-3.42,1.28,8.64,-0.95,-4.31,1.52,1005.89
11.175,-0.24,1.08,0.26,-3.42,1.28,8.64,-0.97,-0.65,-1.14,1005.89
11.176,-0.24,1.08,0.26,-8.06,3.07,5.72,-0.97,-0.65,-1.14,1005.89
11.178,-0.24,1.08,0.26,-8.06,3.07,5.72,-0.97,-0.65,-1.14,1005.90
11.233,0.51,1.15,-0.78,-8.06,3.07,5.72,-0.97,-0.65,-1.14,1005.90
11.234,0.79,1.48,-1.00,-8.06,3.07,5.72,-0.97,-0.65,-1.14,1005.90
11.234,0.21,1.35,-0.61,-8.06,3.07,5.72,-0.97,-0.65,-1.14,1005.90
11.235,0.21,1.35,-0.61,3.99,3.70,-5.19,-0.97,-0.65,-1.14,1005.90
11.235,0.21,1.35,-0.61,3.99,3.70,-5.19,-0.70,-1.09,-0.20,1005.90
11.259,0.21,1.35,-0.61,3.99,3.70,-5.19,-0.70,-1.09,-0.20,1005.92
11.291,0.21,1.35,-0.61,-0.57,-0.61,1.95,-0.70,-1.09,-0.20,1005.92
11.293,-0.11,0.85,-0.25,-0.57,-0.61,1.95,-0.70,-1.09,-0.20,1005.92
11.293,0.09,0.85,0.07,-0.57,-0.61,1.95,-0.70,-1.09,-0.20,1005.92
11.294,0.04,0.99,0.11,-0.57,-0.61,1.95,-0.70,-1.09,-0.20,1005.92
11.294,0.04,0.99,0.11,-0.57,-0.61,1.95,-0.76,-0.77,-0.35,1005.92
11.298,0.04,0.99,0.11,-0.57,-0.61,1.95,-0.76,-0.77,-0.35,1005.90
11.349,0.02,1.03,-0.02,-0.57,-0.61,1.95,-0.76,-0.77,-0.35,1005.90
11.35,-0.04,0.99,-0.19,-0.57,-0.61,1.95,-0.76,-0.77,-0.35,1005.90
11.351,-0.03,0.98,-0.26,-0.57,-0.61,1.95,-0.76,-0.77,-0.35,1005.90
11.352,-0.03,0.98,-0.26,-0.57,-0.61,1.95,-0.22,-0.25,-0.14,1005.90
11.353,-0.03,0.98,-0.26,-0.68,0.36,0.57,-0.22,-0.25,-0.14,1005.90
11.378,-0.03,0.98,-0.26,-0.68,0.36,0.57,-0.22,-0.25,-0.14,1005.92
11.407,-0.03,0.98,-0.26,-0.78,0.13,0.00,-0.22,-0.25,-0.14,1005.92
11.408,-0.04,0.98,-0.18,-0.78,0.13,0.00,-0.22,-0.25,-0.14,1005.92
11.408,-0.08,0.98,-0.22,-0.78,0.13,0.00,-0.22,-0.25,-0.14,1005.92
11.409,0.02,0.98,-0.21,-0.78,0.13,0.00,-0.22,-0.25,-0.14,1005.92
11.409,0.02,0.98,-0.21,-0.78,0.13,0.00,-0.18,-0.65,0.06,1005.92
11.462,0.02,0.98,-0.21,-0.78,0.13,0.00,-0.18,-0.65,0.06,1005.94
11.465,0.14,0.95,-0.17,-0.78,0.13,0.00,-0.18,-0.65,0.06,1005.94
11.467,0.16,0.94,-0.13,-0.78,0.13,0.00,-0.18,-0.65,0.06,1005.94
11.468,0.06,0.99,-0.12,-0.78,0.13,0.00,-0.18,-0.65,0.06,1005.94
11.469,0.06,0.99,-0.12,-0.78,0.13,0.00,-0.05,-0.36,0.08,1005.94
11.47,0.06,0.99,-0.12,0.73,-0.04,0.61,-0.05,-0.36,0.08,1005.94
11.499,0.06,0.99,-0.12,0.73,-0.04,0.61,-0.05,-0.36,0.08,1005.93
11.524,0.02,1.02,-0.15,0.73,-0.04,0.61,-0.05,-0.36,0.08,1005.93
11.526,0.17,1.00,-0.16,0.73,-0.04,0.61,-0.05,-0.36,0.08,1005.93
11.527,0.16,0.90,-0.17,0.73,-0.04,0.61,-0.05,-0.36,0.08,1005.93
11.528,0.16,0.90,-0.17,0.73,-0.04,0.61,0.18,-0.19,-0.11,1005.93
11.528,0.16,0.90,-0.17,0.76,0.07,0.52,0.18,-0.19,-0.11,1005.93
11.579,0.16,0.90,-0.17,0.76,0.07,0.52,0.18,-0.19,-0.11,1005.94
11.582,-0.06,0.97,-0.16,0.76,0.07,0.52,0.18,-0.19,-0.11,1005.94
11.584,-0.16,1.00,-0.15,0.76,0.07,0.52,0.18,-0.19,-0.11,1005.94
11.585,-0.06,0.99,-0.20,0.76,0.07,0.52,0.18,-0.19,-0.11,1005.94
11.586,-0.06,0.99,-0.20,-1.10,0.25,0.57,0.18,-0.19,-0.11,1005.94
11.602,-0.06,0.99,-0.20,-1.10,0.25,0.57,0.32,-0.42,-0.23,1005.94
11.642,0.07,0.96,-0.23,-1.10,0.25,0.57,0.32,-0.42,-0.23,1005.94
11.643,0.02,0.95,-0.30,-1.10,0.25,0.57,0.32,-0.42,-0.23,1005.94
11.643,-0.08,1.01,-0.16,-1.10,0.25,0.57,0.32,-0.42,-0.23,1005.94
11.644,-0.08,1.01,-0.16,-1.10,0.25,0.57,0.47,-0.25,-0.01,1005.94
11.644,-0.08,1.01,-0.16,-0.13,0.17,0.27,0.47,-0.25,-0.01,1005.94
11.66,-0.08,1.01,-0.16,-0.13,0.17,0.27,0.47,-0.25,-0.01,1005.93
11.698,-0.02,0.98,-0.22,-0.13,0.17,0.27,0.47,-0.25,-0.01,1005.93
11.699,0.06,0.98,-0.22,-0.13,0.17,0.27,0.47,-0.25,-0.01,1005.93
11.7,0.14,0.99,-0.24,-0.13,0.17,0.27,0.47,-0.25,-0.01,1005.93
11.7,0.14,0.99,-0.24,-0.13,0.17,0.27,0.74,-0.17,0.10,1005.93
11.7,0.14,0.99,-0.24,-0.13,0.17,0.27,0.74,-0.17,0.10,1005.93
11.701,0.14,0.99,-0.24,0.37,0.41,0.66,0.74,-0.17,0.10,1005.93
11.759,0.19,0.99,-0.30,0.37,0.41,0.66,0.74,-0.17,0.10,1005.93
11.761,0.12,1.06,-0.25,0.37,0.41,0.66,0.74,-0.17,0.10,1005.93
11.761,0.08,1.11,-0.34,0.37,0.41,0.66,0.74,-0.17,0.10,1005.93
11.761,0.08,1.11,-0.34,0.37,0.41,0.66,1.15,0.10,-0.04,1005.93
11.762,0.08,1.11,-0.34,1.07,1.27,0.60,1.15,0.10,-0.04,1005.93
11.789,0.08,1.11,-0.34,1.07,1.27,0.60,1.15,0.10,-0.04,1005.92
11.816,0.14,1.13,-0.41,1.07,1.27,0.60,1.15,0.10,-0.04,1005.92
11.817,0.24,1.37,-0.33,1.07,1.27,0.60,1.15,0.10,-0.04,1005.92
11.817,0.50,1.57,-0.02,1.07,1.27,0.60,1.15,0.10,-0.04,1005.92
11.817,0.50,1.57,-0.02,1.07,1.27,0.60,1.73,-0.86,-0.02,1005.92
11.818,0.50,1.57,-0.02,2.83,4.55,1.88,1.73,-0.86,-0.02,1005.92
11.86,0.50,1.57,-0.02,2.83,4.55,1.88,1.73,-0.86,-0.02,1005.92
11.892,0.75,1.56,0.12,2.83,4.55,1.88,1.73,-0.86,-0.02,1005.92
11.893,0.54,1.43,0.12,2.83,4.55,1.88,1.73,-0.86,-0.02,1005.92
11.894,0.05,1.40,0.39,2.83,4.55,1.88,1.73,-0.86,-0.02,1005.92
11.894,0.05,1.40,0.39,2.83,4.55,1.88,2.25,-2.36,-0.53,1005.92
11.894,0.05,1.40,0.39,5.19,6.19,7.37,2.25,-2.36,-0.53,1005.92
11.899,0.05,1.40,0.39,5.19,6.19,7.37,2.25,-2.36,-0.53,1005.89
11.933,-0.34,1.33,0.51,5.19,6.19,7.37,2.25,-2.36,-0.53,1005.89
11.934,-0.74,1.45,0.18,5.19,6.19,7.37,2.25,-2.36,-0.53,1005.89
11.935,-1.18,1.44,-0.17,5.19,6.19,7.37,2.25,-2.36,-0.53,1005.89
11.935,-1.18,1.44,-0.17,5.19,6.19,7.37,2.05,-4.03,-1.59,1005.89
11.935,-1.18,1.44,-0.17,-4.47,6.34,7.34,2.05,-4.03,-1.59,1005.89
11.98,-1.18,1.44,-0.17,-4.47,6.34,7.34,2.05,-4.03,-1.59,1005.90
12.016,-0.95,1.27,-0.55,-4.47,6.34,7.34,2.05,-4.03,-1.59,1005.90
12.017,-0.07,1.02,-0.42,-4.47,6.34,7.34,2.05,-4.03,-1.59,1005.90
12.017,0.33,0.73,0.03,-4.47,6.34,7.34,2.05,-4.03,-1.59,1005.90
12.018,0.33,0.73,0.03,-4.47,6.34,7.34,1.33,-5.00,0.08,1005.90
12.018,0.33,0.73,0.03,2.20,2.78,2.01,1.33,-5.00,0.08,1005.90
12.048,0.13,0.67,0.17,2.20,2.78,2.01,1.33,-5.00,0.08,1005.90
12.05,-0.26,0.68,0.25,2.20,2.78,2.01,1.33,-5.00,0.08,1005.90
12.051,-0.32,0.61,0.21,2.20,2.78,2.01,1.33,-5.00,0.08,1005.90
12.052,-0.32,0.61,0.21,2.20,2.78,2.01,0.32,-4.32,1.26,1005.90
12.053,-0.32,0.61,0.21,3.57,-0.92,5.96,0.32,-4.32,1.26,1005.90
12.059,-0.32,0.61,0.21,3.57,-0.92,5.96,0.32,-4.32,1.26,1005.92
12.099,-0.32,0.61,0.21,3.57,-0.92,5.96,0.32,-4.32,1.26,1005.91
12.107,-0.20,0.53,0.15,3.57,-0.92,5.96,0.32,-4.32,1.26,1005.91
12.107,-0.15,0.53,0.14,3.57,-0.92,5.96,0.32,-4.32,1.26,1005.91
12.108,-0.14,0.64,0.12,3.57,-0.92,5.96,0.32,-4.32,1.26,1005.91
12.108,-0.14,0.64,0.12,3.57,-0.92,5.96,-0.18,-2.56,3.51,1005.91
12.108,-0.14,0.64,0.12,2.31,-2.71,4.35,-0.18,-2.56,3.51,1005.91
12.165,-0.14,0.75,0.09,2.31,-2.71,4.35,-0.18,-2.56,3.51,1005.91
12.166,-0.14,0.83,0.08,2.31,-2.71,4.35,-0.18,-2.56,3.51,1005.91
12.166,-0.18,0.97,0.06,2.31,-2.71,4.35,-0.18,-2.56,3.51,1005.91
12.167,-0.18,0.97,0.06,2.31,-2.71,4.35,-0.74,-0.91,5.03,1005.91
12.167,-0.18,0.97,0.06,-0.04,-0.83,3.19,-0.74,-0.91,5.03,1005.91
12.18,-0.18,0.97,0.06,-0.04,-0.83,3.19,-0.74,-0.91,5.03,1005.94
12.224,-0.22,1.16,0.02,-0.04,-0.83,3.19,-0.74,-0.91,5.03,1005.94
12.225,-0.23,1.38,0.02,-0.04,-0.83,3.19,-0.74,-0.91,5.03,1005.94
12.225,-0.33,1.74,-0.11,-0.04,-0.83,3.19,-0.74,-0.91,5.03,1005.94
12.225,-0.33,1.74,-0.11,-0.04,-0.83,3.19,-1.94,-0.61,5.84,1005.94
12.226,-0.33,1.74,-0.11,-4.12,4.53,1.13,-1.94,-0.61,5.84,1005.94
12.258,-0.33,1.74,-0.11,-4.12,4.53,1.13,-1.94,-0.61,5.84,1005.94
12.281,-0.44,1.82,-0.14,-4.12,4.53,1.13,-1.94,-0.61,5.84,1005.94
12.282,-0.63,1.54,-0.07,-4.12,4.53,1.13,-1.94,-0.61,5.84,1005.94
12.282,-0.90,1.48,-0.30,-4.12,4.53,1.13,-1.94,-0.61,5.84,1005.94
12.283,-0.90,1.48,-0.30,-4.12,4.53,1.13,-2.29,0.22,4.88,1005.94
12.284,-0.90,1.48,-0.30,-10.47,6.96,-1.55,-2.29,0.22,4.88,1005.94
12.299,-0.90,1.48,-0.30,-10.47,6.96,-1.55,-2.29,0.22,4.88,1005.90
12.341,-1.07,1.19,-0.48,-10.47,6.96,-1.55,-2.29,0.22,4.88,1005.90
12.342,-1.26,0.78,-0.69,-10.47,6.96,-1.55,-2.29,0.22,4.88,1005.90
12.343,-1.51,0.47,-0.81,-10.47,6.96,-1.55,-2.29,0.22,4.88,1005.90
12.343,-1.51,0.47,-0.81,-16.08,-0.90,-6.92,-2.29,0.22,4.88,1005.90
12.344,-1.51,0.47,-0.81,-16.08,-0.90,-6.92,-0.76,1.23,-0.36,1005.90
12.38,-1.51,0.47,-0.81,-16.08,-0.90,-6.92,-0.76,1.23,-0.36,1005.85
12.411,-1.84,1.45,-1.23,-16.08,-0.90,-6.92,-0.76,1.23,-0.36,1005.85
12.413,-0.10,2.05,0.12,-16.08,-0.90,-6.92,-0.76,1.23,-0.36,1005.85
12.413,1.46,1.73,0.28,-16.08,-0.90,-6.92,-0.76,1.23,-0.36,1005.85
12.414,1.46,1.73,0.28,-16.08,-0.90,-6.92,-0.32,-2.19,-0.77,1005.85
12.414,1.46,1.73,0.28,-4.62,7.90,-2.85,-0.32,-2.19,-0.77,1005.85
12.458,1.17,1.59,-1.42,-4.62,7.90,-2.85,-0.32,-2.19,-0.77,1005.85
12.459,0.57,0.81,-0.60,-4.62,7.90,-2.85,-0.32,-2.19,-0.77,1005.85
12.459,-0.05,0.48,0.92,-4.62,7.90,-2.85,-0.32,-2.19,-0.77,1005.85
12.46,-0.05,0.48,0.92,-4.62,7.90,-2.85,0.19,-1.62,-1.77,1005.85
12.46,-0.05,0.48,0.92,3.36,-0.03,-3.32,0.19,-1.62,-1.77,1005.85
12.461,-0.05,0.48,0.92,3.36,-0.03,-3.32,0.19,-1.62,-1.77,1005.84
12.499,-0.05,0.48,0.92,3.36,-0.03,-3.32,0.19,-1.62,-1.77,1005.88
12.516,-0.42,0.92,0.23,3.36,-0.03,-3.32,0.19,-1.62,-1.77,1005.88
12.517,-0.26,1.16,0.07,3.36,-0.03,-3.32,0.19,-1.62,-1.77,1005.88
12.517,-0.09,1.12,-0.11,3.36,-0.03,-3.32,0.19,-1.62,-1.77,1005.88
12.518,-0.09,1.12,-0.11,3.36,-0.03,-3.32,0.11,0.46,-1.63,1005.88
12.518,-0.09,1.12,-0.11,-3.73,0.86,0.94,0.11,0.46,-1.63,1005.88
12.586,-0.09,1.12,-0.11,0.01,0.22,0.56,0.11,0.46,-1.63,1005.88
12.588,0.06,0.99,0.03,0.01,0.22,0.56,0.11,0.46,-1.63,1005.88
12.589,0.15,1.02,0.01,0.01,0.22,0.56,0.11,0.46,-1.63,1005.88
12.592,0.00,1.02,0.02,0.01,0.22,0.56,0.11,0.46,-1.63,1005.88
12.593,0.00,1.02,0.02,0.01,0.22,0.56,0.07,-0.18,-0.92,1005.88
12.594,0.00,1.02,0.02,0.01,0.22,0.56,0.07,-0.18,-0.92,1005.92
12.631,-0.03,1.01,0.06,0.01,0.22,0.56,0.07,-0.18,-0.92,1005.92
12.632,0.13,0.99,0.02,0.01,0.22,0.56,0.07,-0.18,-0.92,1005.92
12.632,0.18,0.99,0.01,0.01,0.22,0.56,0.07,-0.18,-0.92,1005.92
12.632,0.18,0.99,0.01,0.01,0.22,0.56,0.14,-0.16,-0.88,1005.92
12.633,0.18,0.99,0.01,0.68,0.07,0.72,0.14,-0.16,-0.88,1005.92
12.658,0.18,0.99,0.01,0.68,0.07,0.72,0.14,-0.16,-0.88,1005.92
12.691,0.05,1.00,0.06,0.68,0.07,0.72,0.14,-0.16,-0.88,1005.92
12.691,-0.03,1.00,0.04,0.68,0.07,0.72,0.14,-0.16,-0.88,1005.92
12.691,-0.03,0.99,0.00,0.68,0.07,0.72,0.14,-0.16,-0.88,1005.92
12.692,-0.03,0.99,0.00,0.68,0.07,0.72,0.29,0.13,-1.14,1005.92
12.692,-0.03,0.99,0.00,0.41,0.08,0.87,0.29,0.13,-1.14,1005.92
12.699,-0.03,0.99,0.00,0.41,0.08,0.87,0.29,0.13,-1.14,1005.93
12.749,-0.05,1.01,0.00,0.41,0.08,0.87,0.29,0.13,-1.14,1005.93
12.75,-0.11,1.02,-0.04,0.41,0.08,0.87,0.29,0.13,-1.14,1005.93
12.75,-0.09,1.00,-0.07,0.41,0.08,0.87,0.29,0.13,-1.14,1005.93
12.751,-0.09,1.00,-0.07,0.41,0.08,0.87,0.37,0.10,-1.20,1005.93
12.751,-0.09,1.00,-0.07,0.26,0.30,0.39,0.37,0.10,-1.20,1005.93
12.778,-0.09,1.00,-0.07,0.26,0.30,0.39,0.37,0.10,-1.20,1005.92
12.808,-0.09,1.00,-0.07,0.52,0.30,-0.13,0.37,0.10,-1.20,1005.92
12.808,-0.09,0.98,-0.09,0.52,0.30,-0.13,0.37,0.10,-1.20,1005.92
12.808,-0.13,1.01,-0.12,0.52,0.30,-0.13,0.37,0.10,-1.20,1005.92
12.809,-0.17,1.01,-0.13,0.52,0.30,-0.13,0.37,0.10,-1.20,1005.92
12.809,-0.17,1.01,-0.13,0.52,0.30,-0.13,0.37,0.28,-1.28,1005.92
12.86,-0.17,1.01,-0.13,0.52,0.30,-0.13,0.37,0.28,-1.28,1005.92
12.866,-0.11,1.03,-0.10,0.52,0.30,-0.13,0.37,0.28,-1.28,1005.92
12.867,-0.06,1.14,-0.04,0.52,0.30,-0.13,0.37,0.28,-1.28,1005.92
12.867,-0.06,1.22,-0.01,0.52,0.30,-0.13,0.37,0.28,-1.28,1005.92
12.868,-0.06,1.22,-0.01,0.52,0.30,-0.13,0.42,-0.01,-1.44,1005.92
12.868,-0.06,1.22,-0.01,1.80,1.75,0.73,0.42,-0.01,-1.44,1005.92
12.899,-0.06,1.22,-0.01,1.80,1.75,0.73,0.42,-0.01,-1.44,1005.93
12.923,-0.02,1.21,-0.01,1.80,1.75,0.73,0.42,-0.01,-1.44,1005.93
12.924,0.07,1.24,-0.06,1.80,1.75,0.73,0.42,-0.01,-1.44,1005.93
12.925,0.19,1.36,-0.06,1.80,1.75,0.73,0.42,-0.01,-1.44,1005.93
12.925,0.19,1.36,-0.06,1.80,1.75,0.73,0.72,0.15,-1.82,1005.93
12.925,0.19,1.36,-0.06,4.21,3.45,1.18,0.72,0.15,-1.82,1005.93
12.978,0.19,1.36,-0.06,4.21,3.45,1.18,0.72,0.15,-1.82,1005.93
12.981,0.48,1.58,0.04,4.21,3.45,1.18,0.72,0.15,-1.82,1005.93
12.982,0.82,1.80,0.02,4.21,3.45,1.18,0.72,0.15,-1.82,1005.93
12.982,1.12,1.79,-0.05,4.21,3.45,1.18,0.72,0.15,-1.82,1005.93
12.982,1.12,1.79,-0.05,4.21,3.45,1.18,1.10,0.60,-2.25,1005.93
12.983,1.12,1.79,-0.05,12.21,8.41,2.30,1.10,0.60,-2.25,1005.93
13.04,1.18,1.39,0.03,12.21,8.41,2.30,1.10,0.60,-2.25,1005.93
13.041,0.05,1.17,-0.02,12.21,8.41,2.30,1.10,0.60,-2.25,1005.93
13.042,-0.89,1.49,-0.18,12.21,8.41,2.30,1.10,0.60,-2.25,1005.93
13.042,-0.89,1.49,-0.18,12.21,8.41,2.30,1.22,2.18,-3.78,1005.93
13.042,-0.89,1.49,-0.18,6.65,5.93,2.86,1.22,2.18,-3.78,1005.93
13.058,-0.89,1.49,-0.18,6.65,5.93,2.86,1.22,2.18,-3.78,1005.91
13.099,-1.12,1.47,-0.22,6.65,5.93,2.86,1.22,2.18,-3.78,1005.91
13.1,-0.87,0.96,-0.26,6.65,5.93,2.86,1.22,2.18,-3.78,1005.91
13.101,-0.69,0.73,-0.22,6.65,5.93,2.86,1.22,2.18,-3.78,1005.91
13.101,-0.69,0.73,-0.22,6.65,5.93,2.86,1.05,0.83,-2.54,1005.91
13.102,-0.69,0.73,-0.22,6.65,5.93,2.86,1.05,0.83,-2.54,1005.92
13.103,-0.69,0.73,-0.22,-2.35,4.11,1.78,1.05,0.83,-2.54,1005.92
13.158,-0.59,0.41,-0.39,-2.35,4.11,1.78,1.05,0.83,-2.54,1005.92
13.159,-0.38,0.27,-0.22,-2.35,4.11,1.78,1.05,0.83,-2.54,1005.92
13.159,-0.18,0.05,0.12,-2.35,4.11,1.78,1.05,0.83,-2.54,1005.92
13.16,-0.18,0.05,0.12,2.27,-4.48,1.80,1.05,0.83,-2.54,1005.92
13.16,-0.18,0.05,0.12,2.27,-4.48,1.80,-1.05,-0.64,1.30,1005.92
13.181,-0.18,0.05,0.12,2.27,-4.48,1.80,-1.05,-0.64,1.30,1005.90
13.217,-0.01,-0.02,0.13,2.27,-4.48,1.80,-1.05,-0.64,1.30,1005.90
13.218,-0.04,0.19,-0.09,2.27,-4.48,1.80,-1.05,-0.64,1.30,1005.90
13.218,-0.09,0.40,-0.24,2.27,-4.48,1.80,-1.05,-0.64,1.30,1005.90
13.219,-0.09,0.40,-0.24,2.27,-4.48,1.80,-1.32,-0.51,3.88,1005.90
13.219,-0.09,0.40,-0.24,3.86,-6.33,1.98,-1.32,-0.51,3.88,1005.90
13.26,-0.09,0.40,-0.24,3.86,-6.33,1.98,-1.32,-0.51,3.88,1005.92
13.274,-0.02,0.56,-0.31,3.86,-6.33,1.98,-1.32,-0.51,3.88,1005.92
13.274,-0.09,0.73,-0.15,3.86,-6.33,1.98,-1.32,-0.51,3.88,1005.92
13.275,-0.13,0.86,-0.08,3.86,-6.33,1.98,-1.32,-0.51,3.88,1005.92
13.275,-0.13,0.86,-0.08,3.86,-6.33,1.98,-1.72,0.51,5.42,1005.92
13.275,-0.13,0.86,-0.08,0.67,-2.25,0.10,-1.72,0.51,5.42,1005.92
13.3,-0.13,0.86,-0.08,0.67,-2.25,0.10,-1.72,0.51,5.42,1005.96
13.332,-0.07,1.05,-0.25,0.67,-2.25,0.10,-1.72,0.51,5.42,1005.96
13.333,-0.06,1.44,-0.33,0.67,-2.25,0.10,-1.72,0.51,5.42,1005.96
13.334,-0.31,2.01,-0.42,0.67,-2.25,0.10,-1.72,0.51,5.42,1005.96
13.334,-0.31,2.01,-0.42,0.67,-2.25,0.10,-2.18,1.00,6.18,1005.96
13.334,-0.31,2.01,-0.42,-3.42,5.29,-2.62,-2.18,1.00,6.18,1005.96
13.378,-0.31,2.01,-0.42,-3.42,5.29,-2.62,-2.18,1.00,6.18,1005.93
13.4,-0.60,2.16,-0.53,-3.42,5.29,-2.62,-2.18,1.00,6.18,1005.93
13.401,-0.81,1.74,-0.30,-3.42,5.29,-2.62,-2.18,1.00,6.18,1005.93
13.401,-0.88,1.33,-0.00,-3.42,5.29,-2.62,-2.18,1.00,6.18,1005.93
13.401,-0.88,1.33,-0.00,-3.42,5.29,-2.62,-2.61,0.08,5.13,1005.93
13.401,-0.88,1.33,-0.00,-11.93,8.53,-3.41,-2.61,0.08,5.13,1005.93
13.449,-0.74,1.20,-0.18,-11.93,8.53,-3.41,-2.61,0.08,5.13,1005.93
13.45,-0.80,0.94,-0.45,-11.93,8.53,-3.41,-2.61,0.08,5.13,1005.93
13.451,-1.02,0.69,-0.29,-11.93,8.53,-3.41,-2.61,0.08,5.13,1005.93
13.451,-1.02,0.69,-0.29,-11.93,8.53,-3.41,-0.88,-0.37,0.83,1005.93
13.451,-1.02,0.69,-0.29,-13.03,0.95,-3.94,-0.88,-0.37,0.83,1005.93
13.459,-1.02,0.69,-0.29,-13.03,0.95,-3.94,-0.88,-0.37,0.83,1005.88
13.505,-1.02,0.69,-0.29,-13.03,0.95,-3.94,-0.88,-0.37,0.83,1005.88
13.508,-1.17,0.83,-0.33,-13.03,0.95,-3.94,-0.88,-0.37,0.83,1005.88
13.51,-0.55,1.44,-0.48,-13.03,0.95,-3.94,-0.88,-0.37,0.83,1005.88
13.51,0.94,1.42,0.37,-13.03,0.95,-3.94,-0.88,-0.37,0.83,1005.88
13.511,0.94,1.42,0.37,-13.03,0.95,-3.94,0.03,-1.29,-1.97,1005.88
13.511,0.94,1.42,0.37,-6.16,3.23,-1.99,0.03,-1.29,-1.97,1005.88
13.566,2.34,1.13,0.35,-6.16,3.23,-1.99,0.03,-1.29,-1.97,1005.88
13.566,1.24,2.18,-0.64,-6.16,3.23,-1.99,0.03,-1.29,-1.97,1005.88
13.567,-0.29,1.60,-1.04,-6.16,3.23,-1.99,0.03,-1.29,-1.97,1005.88
13.567,-0.29,1.60,-1.04,-6.16,3.23,-1.99,0.07,-1.17,-0.92,1005.88
13.568,-0.29,1.60,-1.04,7.44,6.89,-4.56,0.07,-1.17,-0.92,1005.88
13.579,-0.29,1.60,-1.04,7.44,6.89,-4.56,0.07,-1.17,-0.92,1005.88
13.624,-0.42,0.43,0.60,7.44,6.89,-4.56,0.07,-1.17,-0.92,1005.88
13.625,-0.19,0.62,0.41,7.44,6.89,-4.56,0.07,-1.17,-0.92,1005.88
13.625,-0.14,1.01,0.21,7.44,6.89,-4.56,0.07,-1.17,-0.92,1005.88
13.626,-0.14,1.01,0.21,7.44,6.89,-4.56,-0.00,-0.51,-2.46,1005.88
13.626,-0.14,1.01,0.21,-4.38,-2.74,3.79,-0.00,-0.51,-2.46,1005.88
13.66,-0.14,1.01,0.21,-4.38,-2.74,3.79,-0.00,-0.51,-2.46,1005.93
13.683,0.01,1.19,-0.03,-4.38,-2.74,3.79,-0.00,-0.51,-2.46,1005.93
13.685,0.01,1.07,-0.14,-4.38,-2.74,3.79,-0.00,-0.51,-2.46,1005.93
13.686,0.01,1.03,-0.07,-4.38,-2.74,3.79,-0.00,-0.51,-2.46,1005.93
13.687,0.01,1.03,-0.07,-4.38,-2.74,3.79,0.21,0.18,-1.28,1005.93
13.688,0.01,1.03,-0.07,-1.07,1.12,-0.88,0.21,0.18,-1.28,1005.93
13.699,0.01,1.03,-0.07,-1.07,1.12,-0.88,0.21,0.18,-1.28,1005.94
13.741,0.02,1.07,-0.10,-1.07,1.12,-0.88,0.21,0.18,-1.28,1005.94
13.742,-0.08,1.06,0.02,-1.07,1.12,-0.88,0.21,0.18,-1.28,1005.94
13.742,0.02,1.00,0.10,-1.07,1.12,-0.88,0.21,0.18,-1.28,1005.94
13.742,0.02,1.00,0.10,-1.07,1.12,-0.88,0.06,-0.05,-0.79,1005.94
13.742,0.02,1.00,0.10,-0.86,0.56,0.00,0.06,-0.05,-0.79,1005.94
13.779,0.02,1.00,0.10,-0.86,0.56,0.00,0.06,-0.05,-0.79,1005.94
13.803,0.25,0.95,0.07,-0.86,0.56,0.00,0.06,-0.05,-0.79,1005.94
13.804,0.27,0.96,0.09,-0.86,0.56,0.00,0.06,-0.05,-0.79,1005.94
13.805,0.15,0.98,0.14,-0.86,0.56,0.00,0.06,-0.05,-0.79,1005.94
13.805,0.15,0.98,0.14,-0.86,0.56,0.00,0.14,0.21,-0.74,1005.94
13.806,0.15,0.98,0.14,1.84,-0.23,1.00,0.14,0.21,-0.74,1005.94
13.858,0.07,0.95,0.10,1.84,-0.23,1.00,0.14,0.21,-0.74,1005.94
13.86,-0.01,0.98,0.05,1.84,-0.23,1.00,0.14,0.21,-0.74,1005.94
13.86,-0.06,1.01,0.02,1.84,-0.23,1.00,0.14,0.21,-0.74,1005.94
13.861,-0.06,1.01,0.02,1.84,-0.23,1.00,0.31,0.24,-1.16,1005.94
13.861,-0.06,1.01,0.02,0.31,-0.06,0.74,0.31,0.24,-1.16,1005.94
13.861,-0.06,1.01,0.02,0.31,-0.06,0.74,0.31,0.24,-1.16,1005.93
13.905,-0.06,1.01,0.02,0.31,-0.06,0.74,0.31,0.24,-1.16,1005.92
13.93,0.03,0.99,0.01,0.31,-0.06,0.74,0.31,0.24,-1.16,1005.92
13.931,0.11,0.96,-0.02,0.31,-0.06,0.74,0.31,0.24,-1.16,1005.92
13.932,0.05,0.96,-0.03,0.31,-0.06,0.74,0.31,0.24,-1.16,1005.92
13.933,0.05,0.96,-0.03,1.68,-0.11,0.26,0.31,0.24,-1.16,1005.92
13.933,0.05,0.96,-0.03,1.68,-0.11,0.26,0.34,0.12,-1.34,1005.92
13.974,-0.09,0.96,-0.05,1.68,-0.11,0.26,0.34,0.12,-1.34,1005.92
13.975,-0.19,1.01,-0.06,1.68,-0.11,0.26,0.34,0.12,-1.34,1005.92
13.975,-0.12,1.02,-0.06,1.68,-0.11,0.26,0.34,0.12,-1.34,1005.92
13.975,-0.12,1.02,-0.06,1.68,-0.11,0.26,0.37,0.32,-1.77,1005.92
13.976,-0.12,1.02,-0.06,0.69,0.33,0.05,0.37,0.32,-1.77,1005.92
13.98,-0.12,1.02,-0.06,0.69,0.33,0.05,0.37,0.32,-1.77,1005.91
14.032,-0.08,1.08,-0.06,0.69,0.33,0.05,0.37,0.32,-1.77,1005.91
14.033,-0.22,1.19,-0.04,0.69,0.33,0.05,0.37,0.32,-1.77,1005.91
14.033,-0.12,1.20,-0.01,0.69,0.33,0.05,0.37,0.32,-1.77,1005.91
14.033,-0.12,1.20,-0.01,0.69,0.33,0.05,0.45,-0.20,-1.93,1005.91
14.034,-0.12,1.20,-0.01,1.66,2.17,0.46,0.45,-0.20,-1.93,1005.91
14.061,-0.12,1.20,-0.01,1.66,2.17,0.46,0.45,-0.20,-1.93,1005.92
14.089,0.05,1.17,-0.08,1.66,2.17,0.46,0.45,-0.20,-1.93,1005.92
14.09,0.01,1.26,-0.17,1.66,2.17,0.46,0.45,-0.20,-1.93,1005.92
14.091,0.06,1.55,-0.10,1.66,2.17,0.46,0.45,-0.20,-1.93,1005.92
14.091,0.06,1.55,-0.10,4.46,4.26,0.09,0.45,-0.20,-1.93,1005.92
14.091,0.06,1.55,-0.10,4.46,4.26,0.09,0.64,0.43,-2.19,1005.92
14.106,0.06,1.55,-0.10,4.46,4.26,0.09,0.64,0.43,-2.19,1005.92
14.15,0.53,1.90,0.08,4.46,4.26,0.09,0.64,0.43,-2.19,1005.92
14.151,1.16,1.95,-0.08,4.46,4.26,0.09,0.64,0.43,-2.19,1005.92
14.151,1.15,1.41,-0.14,4.46,4.26,0.09,0.64,0.43,-2.19,1005.92
14.152,1.15,1.41,-0.14,4.46,4.26,0.09,0.89,1.63,-2.34,1005.92
14.152,1.15,1.41,-0.14,14.11,8.98,1.63,0.89,1.63,-2.34,1005.92
14.184,1.15,1.41,-0.14,14.11,8.98,1.63,0.89,1.63,-2.34,1005.92
14.207,-0.05,0.88,-0.09,14.11,8.98,1.63,0.89,1.63,-2.34,1005.92
14.207,-0.89,1.00,-0.30,14.11,8.98,1.63,0.89,1.63,-2.34,1005.92
14.208,-1.49,1.24,-0.45,14.11,8.98,1.63,0.89,1.63,-2.34,1005.92
14.208,-1.49,1.24,-0.45,14.11,8.98,1.63,1.65,1.98,-4.41,1005.92
14.209,-1.49,1.24,-0.45,-1.50,3.64,0.70,1.65,1.98,-4.41,1005.92
14.259,-1.49,1.24,-0.45,-1.50,3.64,0.70,1.65,1.98,-4.41,1005.91
14.266,-1.72,0.85,-0.33,-1.50,3.64,0.70,1.65,1.98,-4.41,1005.91
14.267,-1.19,0.48,-0.21,-1.50,3.64,0.70,1.65,1.98,-4.41,1005.91
14.267,-0.55,0.27,-0.12,-1.50,3.64,0.70,1.65,1.98,-4.41,1005.91
14.268,-0.55,0.27,-0.12,-1.50,3.64,0.70,0.12,-0.42,-1.27,1005.91
14.268,-0.55,0.27,-0.12,-4.26,-0.79,1.15,0.12,-0.42,-1.27,1005.91
14.299,-0.55,0.27,-0.12,-4.26,-0.79,1.15,0.12,-0.42,-1.27,1005.89
14.323,-0.11,0.02,0.03,-4.26,-0.79,1.15,0.12,-0.42,-1.27,1005.89
14.323,0.32,-0.26,0.06,-4.26,-0.79,1.15,0.12,-0.42,-1.27,1005.89
14.323,0.32,-0.13,-0.19,-4.26,-0.79,1.15,0.12,-0.42,-1.27,1005.89
14.324,0.32,-0.13,-0.19,-4.26,-0.79,1.15,-0.54,-1.26,2.72,1005.89
14.324,0.32,-0.13,-0.19,7.81,-8.21,2.21,-0.54,-1.26,2.72,1005.89
14.38,0.32,-0.13,-0.19,7.81,-8.21,2.21,-0.54,-1.26,2.72,1005.92
14.381,-0.14,0.18,-0.37,7.81,-8.21,2.21,-0.54,-1.26,2.72,1005.92
14.381,-0.39,0.26,-0.42,7.81,-8.21,2.21,-0.54,-1.26,2.72,1005.92
14.382,-0.41,0.25,-0.31,7.81,-8.21,2.21,-0.54,-1.26,2.72,1005.92
14.382,-0.41,0.25,-0.31,7.81,-8.21,2.21,0.30,-0.91,3.95,1005.92
14.383,-0.41,0.25,-0.31,1.34,-5.82,-1.16,0.30,-0.91,3.95,1005.92
14.44,-0.36,0.31,-0.24,1.34,-5.82,-1.16,0.30,-0.91,3.95,1005.92
14.441,-0.39,0.51,-0.40,1.34,-5.82,-1.16,0.30,-0.91,3.95,1005.92
14.442,-0.53,0.82,-0.46,1.34,-5.82,-1.16,0.30,-0.91,3.95,1005.92
14.442,-0.53,0.82,-0.46,1.34,-5.82,-1.16,0.88,-3.03,6.10,1005.92
14.442,-0.53,0.82,-0.46,-2.38,-3.68,-1.23,0.88,-3.03,6.10,1005.92
14.461,-0.53,0.82,-0.46,-2.38,-3.68,-1.23,0.88,-3.03,6.10,1005.98
14.499,-0.69,1.20,-0.29,-2.38,-3.68,-1.23,0.88,-3.03,6.10,1005.98
14.5,-0.82,1.60,-0.36,-2.38,-3.68,-1.23,0.88,-3.03,6.10,1005.98
14.501,-0.69,1.84,-0.34,-2.38,-3.68,-1.23,0.88,-3.03,6.10,1005.98
14.501,-0.69,1.84,-0.34,-2.38,-3.68,-1.23,1.63,-7.13,6.78,1005.98
14.502,-0.69,1.84,-0.34,-7.77,6.06,-0.18,1.63,-7.13,6.78,1005.98
14.502,-0.69,1.84,-0.34,-7.77,6.06,-0.18,1.63,-7.13,6.78,1005.94
14.556,-0.69,1.76,0.09,-7.77,6.06,-0.18,1.63,-7.13,6.78,1005.94
14.557,-0.40,1.45,0.41,-7.77,6.06,-0.18,1.63,-7.13,6.78,1005.94
14.558,-0.59,1.30,0.58,-7.77,6.06,-0.18,1.63,-7.13,6.78,1005.94
14.558,-0.59,1.30,0.58,-7.77,6.06,-0.18,0.44,-8.48,3.66,1005.94
14.558,-0.59,1.30,0.58,-6.17,5.84,7.12,0.44,-8.48,3.66,1005.94
14.579,-0.59,1.30,0.58,-6.17,5.84,7.12,0.44,-8.48,3.66,1005.90
14.614,-0.65,1.42,0.43,-6.17,5.84,7.12,0.44,-8.48,3.66,1005.90
14.615,0.53,0.61,1.48,-6.17,5.84,7.12,0.44,-8.48,3.66,1005.90
14.616,0.94,0.91,0.15,-6.17,5.84,7.12,0.44,-8.48,3.66,1005.90
14.616,0.94,0.91,0.15,-6.17,5.84,7.12,-0.89,-1.23,0.15,1005.90
14.616,0.94,0.91,0.15,2.16,0.52,9.74,-0.89,-1.23,0.15,1005.90
14.66,0.94,0.91,0.15,2.16,0.52,9.74,-0.89,-1.23,0.15,1005.89
14.675,0.60,2.00,-0.64,2.16,0.52,9.74,-0.89,-1.23,0.15,1005.89
14.675,0.26,1.93,-0.96,2.16,0.52,9.74,-0.89,-1.23,0.15,1005.89
14.676,-0.49,0.83,-0.66,2.16,0.52,9.74,-0.89,-1.23,0.15,1005.89
14.676,-0.49,0.83,-0.66,0.93,6.25,-4.57,-0.89,-1.23,0.15,1005.89
14.677,-0.49,0.83,-0.66,0.93,6.25,-4.57,-0.50,1.04,-0.79,1005.89
14.7,-0.49,0.83,-0.66,0.93,6.25,-4.57,-0.50,1.04,-0.79,1005.95
14.733,-0.44,0.85,-0.26,0.93,6.25,-4.57,-0.50,1.04,-0.79,1005.95
14.733,-0.04,0.87,0.13,0.93,6.25,-4.57,-0.50,1.04,-0.79,1005.95
14.733,0.14,0.91,0.21,0.93,6.25,-4.57,-0.50,1.04,-0.79,1005.95
14.734,0.14,0.91,0.21,-1.22,-0.80,2.56,-0.50,1.04,-0.79,1005.95
14.734,0.14,0.91,0.21,-1.22,-0.80,2.56,-0.83,-1.39,0.09,1005.95
14.779,0.14,0.91,0.21,-1.22,-0.80,2.56,-0.83,-1.39,0.09,1005.92
14.79,0.22,1.00,0.05,-1.22,-0.80,2.56,-0.83,-1.39,0.09,1005.92
14.791,0.02,0.94,-0.19,-1.22,-0.80,2.56,-0.83,-1.39,0.09,1005.92
14.791,-0.19,0.99,-0.34,-1.22,-0.80,2.56,-0.83,-1.39,0.09,1005.92
14.791,-0.19,0.99,-0.34,-1.22,-0.80,2.56,-0.07,-0.20,0.04,1005.92
14.792,-0.19,0.99,-0.34,0.04,0.18,0.72,-0.07,-0.20,0.04,1005.92
14.849,-0.21,1.02,-0.33,0.04,0.18,0.72,-0.07,-0.20,0.04,1005.92
14.849,-0.14,1.01,-0.25,0.04,0.18,0.72,-0.07,-0.20,0.04,1005.92
14.849,-0.00,1.00,-0.20,0.04,0.18,0.72,-0.07,-0.20,0.04,1005.92
14.85,-0.00,1.00,-0.20,0.04,0.18,0.72,-0.17,-0.66,0.38,1005.92
14.85,-0.00,1.00,-0.20,-1.36,0.48,-0.33,-0.17,-0.66,0.38,1005.92
14.86,-0.00,1.00,-0.20,-1.36,0.48,-0.33,-0.17,-0.66,0.38,1005.94
14.899,-0.00,1.00,-0.20,-1.36,0.48,-0.33,-0.17,-0.66,0.38,1005.93
14.906,0.22,0.91,-0.21,-1.36,0.48,-0.33,-0.17,-0.66,0.38,1005.93
14.907,0.36,0.89,-0.14,-1.36,0.48,-0.33,-0.17,-0.66,0.38,1005.93
14.908,0.25,0.96,-0.12,-1.36,0.48,-0.33,-0.17,-0.66,0.38,1005.93
14.909,0.25,0.96,-0.12,-1.36,0.48,-0.33,-0.10,-0.73,0.34,1005.93
14.909,0.25,0.96,-0.12,2.40,-0.45,0.63,-0.10,-0.73,0.34,1005.93
14.965,0.03,0.99,-0.16,2.40,-0.45,0.63,-0.10,-0.73,0.34,1005.93
14.965,-0.04,1.00,-0.15,2.40,-0.45,0.63,-0.10,-0.73,0.34,1005.93
14.966,0.08,0.97,-0.11,2.40,-0.45,0.63,-0.10,-0.73,0.34,1005.93
14.966,0.08,0.97,-0.11,2.40,-0.45,0.63,0.15,-0.26,-0.18,1005.93
14.966,0.08,0.97,-0.11,0.03,0.26,0.83,0.15,-0.26,-0.18,1005.93
14.981,0.08,0.97,-0.11,0.03,0.26,0.83,0.15,-0.26,-0.18,1005.93
15.024,0.15,0.93,-0.08,0.03,0.26,0.83,0.15,-0.26,-0.18,1005.93
15.028,0.02,0.96,-0.20,0.03,0.26,0.83,0.15,-0.26,-0.18,1005.93
15.029,-0.15,0.98,-0.14,0.03,0.26,0.83,0.15,-0.26,-0.18,1005.93
15.03,-0.15,0.98,-0.14,0.03,0.26,0.83,0.44,-0.48,-0.35,1005.93
15.031,-0.15,0.98,-0.14,0.10,0.02,1.04,0.44,-0.48,-0.35,1005.93
15.06,-0.15,0.98,-0.14,0.10,0.02,1.04,0.44,-0.48,-0.35,1005.95
15.081,-0.13,0.94,-0.21,0.10,0.02,1.04,0.44,-0.48,-0.35,1005.95
15.082,-0.00,0.98,-0.14,0.10,0.02,1.04,0.44,-0.48,-0.35,1005.95
15.082,0.04,0.97,-0.30,0.10,0.02,1.04,0.44,-0.48,-0.35,1005.95
15.082,0.04,0.97,-0.30,0.10,0.02,1.04,0.72,-0.27,-0.15,1005.95
15.083,0.04,0.97,-0.30,-0.12,0.20,0.71,0.72,-0.27,-0.15,1005.95
15.1,0.04,0.97,-0.30,-0.12,0.20,0.71,0.72,-0.27,-0.15,1005.95
15.14,-0.02,0.99,-0.44,-0.12,0.20,0.71,0.72,-0.27,-0.15,1005.95
15.141,-0.01,1.06,-0.33,-0.12,0.20,0.71,0.72,-0.27,-0.15,1005.95
15.141,0.11,1.08,-0.33,-0.12,0.20,0.71,0.72,-0.27,-0.15,1005.95
15.141,0.11,1.08,-0.33,-0.12,0.20,0.71,0.92,-0.01,-0.10,1005.95
15.141,0.11,1.08,-0.33,0.48,1.11,-0.29,0.92,-0.01,-0.10,1005.95
15.182,0.11,1.08,-0.33,0.48,1.11,-0.29,0.92,-0.01,-0.10,1005.95
15.198,0.04,1.08,-0.38,0.48,1.11,-0.29,0.92,-0.01,-0.10,1005.95
15.198,-0.04,1.16,-0.37,0.48,1.11,-0.29,0.92,-0.01,-0.10,1005.95
15.199,0.15,1.27,-0.28,0.48,1.11,-0.29,0.92,-0.01,-0.10,1005.95
15.199,0.15,1.27,-0.28,0.48,1.11,-0.29,1.46,-0.48,-0.06,1005.95
15.2,0.15,1.27,-0.28,0.85,2.64,0.69,1.46,-0.48,-0.06,1005.95
15.256,0.44,1.45,-0.15,0.85,2.64,0.69,1.46,-0.48,-0.06,1005.95
15.257,0.74,1.65,0.05,0.85,2.64,0.69,1.46,-0.48,-0.06,1005.95
15.257,0.76,1.66,0.17,0.85,2.64,0.69,1.46,-0.48,-0.06,1005.95
15.258,0.76,1.66,0.17,0.85,2.64,0.69,2.16,-1.80,-0.09,1005.95
15.258,0.76,1.66,0.17,7.11,7.19,5.20,2.16,-1.80,-0.09,1005.95
15.258,0.76,1.66,0.17,7.11,7.19,5.20,2.16,-1.80,-0.09,1005.94
15.3,0.76,1.66,0.17,7.11,7.19,5.20,2.16,-1.80,-0.09,1005.91
15.326,0.27,1.50,0.31,7.11,7.19,5.20,2.16,-1.80,-0.09,1005.91
15.326,-0.19,1.34,0.61,7.11,7.19,5.20,2.16,-1.80,-0.09,1005.91
15.326,-0.70,1.44,0.27,7.11,7.19,5.20,2.16,-1.80,-0.09,1005.91
15.327,-0.70,1.44,0.27,7.11,7.19,5.20,2.35,-2.56,-1.09,1005.91
15.327,-0.70,1.44,0.27,0.07,6.33,9.59,2.35,-2.56,-1.09,1005.91
15.375,-1.06,1.54,-0.04,0.07,6.33,9.59,2.35,-2.56,-1.09,1005.91
15.376,-1.06,1.23,-0.25,0.07,6.33,9.59,2.35,-2.56,-1.09,1005.91
15.377,-0.62,1.15,-0.51,0.07,6.33,9.59,2.35,-2.56,-1.09,1005.91
15.377,-0.62,1.15,-0.51,-4.78,5.88,3.04,2.35,-2.56,-1.09,1005.91
15.377,-0.62,1.15,-0.51,-4.78,5.88,3.04,1.95,-4.65,-1.05,1005.91
15.381,-0.62,1.15,-0.51,-4.78,5.88,3.04,1.95,-4.65,-1.05,1005.92
15.432,-0.04,0.96,-0.31,-4.78,5.88,3.04,1.95,-4.65,-1.05,1005.92
15.434,0.21,0.72,0.08,-4.78,5.88,3.04,1.95,-4.65,-1.05,1005.92
15.434,-0.06,0.59,0.40,-4.78,5.88,3.04,1.95,-4.65,-1.05,1005.92
15.434,-0.06,0.59,0.40,-4.78,5.88,3.04,0.78,-5.17,1.07,1005.92
15.435,-0.06,0.59,0.40,5.53,0.39,4.95,0.78,-5.17,1.07,1005.92
15.459,-0.06,0.59,0.40,5.53,0.39,4.95,0.78,-5.17,1.07,1005.92
15.49,-0.39,0.58,0.26,5.53,0.39,4.95,0.78,-5.17,1.07,1005.92
15.491,-0.41,0.51,0.14,5.53,0.39,4.95,0.78,-5.17,1.07,1005.92
15.491,-0.24,0.43,0.07,5.53,0.39,4.95,0.78,-5.17,1.07,1005.92
15.492,-0.24,0.43,0.07,5.53,0.39,4.95,0.40,-3.19,2.50,1005.92
15.492,-0.24,0.43,0.07,1.43,-2.65,5.05,0.40,-3.19,2.50,1005.92
15.499,-0.24,0.43,0.07,1.43,-2.65,5.05,0.40,-3.19,2.50,1005.92
15.548,-0.18,0.47,0.08,1.43,-2.65,5.05,0.40,-3.19,2.50,1005.92
15.549,-0.15,0.56,0.12,1.43,-2.65,5.05,0.40,-3.19,2.50,1005.92
15.549,-0.15,0.69,0.07,1.43,-2.65,5.05,0.40,-3.19,2.50,1005.92
15.549,-0.15,0.69,0.07,1.43,-2.65,5.05,-0.28,-1.60,4.73,1005.92
15.55,-0.15,0.69,0.07,1.32,-3.05,3.82,-0.28,-1.60,4.73,1005.92
15.579,-0.15,0.69,0.07,1.32,-3.05,3.82,-0.28,-1.60,4.73,1005.94
15.607,-0.17,0.86,0.04,1.32,-3.05,3.82,-0.28,-1.60,4.73,1005.94
15.608,-0.21,1.08,-0.01,1.32,-3.05,3.82,-0.28,-1.60,4.73,1005.94
15.609,-0.29,1.34,-0.05,1.32,-3.05,3.82,-0.28,-1.60,4.73,1005.94
15.609,-0.29,1.34,-0.05,1.32,-3.05,3.82,-1.20,-0.74,5.87,1005.94
15.61,-0.29,1.34,-0.05,-2.26,1.37,2.14,-1.20,-0.74,5.87,1005.94
15.659,-0.29,1.34,-0.05,-2.26,1.37,2.14,-1.20,-0.74,5.87,1005.93
15.665,-0.48,1.61,-0.07,-2.26,1.37,2.14,-1.20,-0.74,5.87,1005.93
15.666,-0.74,1.78,-0.16,-2.26,1.37,2.14,-1.20,-0.74,5.87,1005.93
15.667,-0.80,1.77,-0.12,-2.26,1.37,2.14,-1.20,-0.74,5.87,1005.93
15.667,-0.80,1.77,-0.12,-2.26,1.37,2.14,-2.19,-0.85,6.00,1005.93
15.668,-0.80,1.77,-0.12,-9.69,7.73,-0.05,-2.19,-0.85,6.00,1005.93
15.705,-0.80,1.77,-0.12,-9.69,7.73,-0.05,-2.19,-0.85,6.00,1005.88
15.739,-0.81,1.62,-0.08,-9.69,7.73,-0.05,-2.19,-0.85,6.00,1005.88
15.741,-0.85,1.33,-0.15,-9.69,7.73,-0.05,-2.19,-0.85,6.00,1005.88
15.741,-1.04,1.05,-0.23,-9.69,7.73,-0.05,-2.19,-0.85,6.00,1005.88
15.742,-1.04,1.05,-0.23,-9.69,7.73,-0.05,-1.86,-0.26,3.29,1005.88
15.742,-1.04,1.05,-0.23,-13.35,4.56,-1.30,-1.86,-0.26,3.29,1005.88
15.781,-1.04,1.05,-0.23,-13.35,4.56,-1.30,-1.86,-0.26,3.29,1005.87
15.782,-1.25,0.91,-0.27,-13.35,4.56,-1.30,-1.86,-0.26,3.29,1005.87
15.783,-1.37,0.82,-0.34,-13.35,4.56,-1.30,-1.86,-0.26,3.29,1005.87
15.783,-1.13,1.15,-0.76,-13.35,4.56,-1.30,-1.86,-0.26,3.29,1005.87
15.783,-1.13,1.15,-0.76,-13.35,4.56,-1.30,-0.36,-0.36,-1.65,1005.87
15.784,-1.13,1.15,-0.76,-15.67,0.51,-4.28,-0.36,-0.36,-1.65,1005.87
15.841,0.03,1.49,-0.83,-15.67,0.51,-4.28,-0.36,-0.36,-1.65,1005.87
15.841,1.47,1.11,-0.43,-15.67,0.51,-4.28,-0.36,-0.36,-1.65,1005.87
15.842,2.04,1.76,-0.73,-15.67,0.51,-4.28,-0.36,-0.36,-1.65,1005.87
15.842,2.04,1.76,-0.73,-15.67,0.51,-4.28,-0.40,-3.12,0.88,1005.87
15.842,2.04,1.76,-0.73,7.61,5.40,-5.74,-0.40,-3.12,0.88,1005.87
15.859,2.04,1.76,-0.73,7.61,5.40,-5.74,-0.40,-3.12,0.88,1005.88
15.901,0.25,1.78,-1.01,7.61,5.40,-5.74,-0.40,-3.12,0.88,1005.88
15.902,0.07,0.60,0.39,7.61,5.40,-5.74,-0.40,-3.12,0.88,1005.88
15.903,0.01,0.42,0.95,7.61,5.40,-5.74,-0.40,-3.12,0.88,1005.88
15.91,0.01,0.42,0.95,7.61,5.40,-5.74,-0.71,-1.34,-2.22,1005.88
15.91,0.01,0.42,0.95,-1.63,-0.15,1.71,-0.71,-1.34,-2.22,1005.88
15.91,0.01,0.42,0.95,-1.63,-0.15,1.71,-0.71,-1.34,-2.22,1005.89
15.957,0.16,0.87,0.43,-1.63,-0.15,1.71,-0.71,-1.34,-2.22,1005.89
15.958,0.18,1.18,-0.17,-1.63,-0.15,1.71,-0.71,-1.34,-2.22,1005.89
15.958,-0.09,1.13,-0.24,-1.63,-0.15,1.71,-0.71,-1.34,-2.22,1005.89
15.959,-0.09,1.13,-0.24,-1.63,-0.15,1.71,0.11,0.23,-1.41,1005.89
15.959,-0.09,1.13,-0.24,-1.10,0.89,0.71,0.11,0.23,-1.41,1005.89
15.98,-0.09,1.13,-0.24,-1.10,0.89,0.71,0.11,0.23,-1.41,1005.90
16.027,0.03,1.07,-0.29,-1.10,0.89,0.71,0.11,0.23,-1.41,1005.90
16.03,0.22,1.08,-0.17,-1.10,0.89,0.71,0.11,0.23,-1.41,1005.90
16.031,0.30,0.97,0.05,-1.10,0.89,0.71,0.11,0.23,-1.41,1005.90
16.031,0.30,0.97,0.05,-1.10,0.89,0.71,-0.09,-0.38,-0.91,1005.90
16.032,0.30,0.97,0.05,0.41,0.61,-0.69,-0.09,-0.38,-0.91,1005.90
16.059,0.30,0.97,0.05,0.41,0.61,-0.69,-0.09,-0.38,-0.91,1005.92
16.073,0.35,0.93,0.15,0.41,0.61,-0.69,-0.09,-0.38,-0.91,1005.92
16.074,0.30,0.93,0.10,0.41,0.61,-0.69,-0.09,-0.38,-0.91,1005.92
16.075,0.10,0.96,-0.00,0.41,0.61,-0.69,-0.09,-0.38,-0.91,1005.92
16.075,0.10,0.96,-0.00,0.41,0.61,-0.69,0.17,-0.18,-1.27,1005.92
16.076,0.10,0.96,-0.00,1.73,-0.47,1.52,0.17,-0.18,-1.27,1005.92
16.1,0.10,0.96,-0.00,1.73,-0.47,1.52,0.17,-0.18,-1.27,1005.91
16.131,0.10,0.96,-0.00,-0.56,0.25,0.32,0.17,-0.18,-1.27,1005.91
16.132,-0.10,0.99,-0.06,-0.56,0.25,0.32,0.17,-0.18,-1.27,1005.91
16.133,-0.10,1.01,-0.07,-0.56,0.25,0.32,0.17,-0.18,-1.27,1005.91
16.133,-0.00,1.03,-0.04,-0.56,0.25,0.32,0.17,-0.18,-1.27,1005.91
16.134,-0.00,1.03,-0.04,-0.56,0.25,0.32,0.28,0.06,-1.40,1005.91
16.181,-0.00,1.03,-0.04,-0.56,0.25,0.32,0.28,0.06,-1.40,1005.91
16.191,-0.01,1.02,0.01,-0.56,0.25,0.32,0.28,0.06,-1.40,1005.91
16.192,-0.08,1.02,-0.05,-0.56,0.25,0.32,0.28,0.06,-1.40,1005.91
16.192,-0.08,1.02,-0.09,-0.56,0.25,0.32,0.28,0.06,-1.40,1005.91
16.192,-0.08,1.02,-0.09,0.28,0.36,0.62,0.28,0.06,-1.40,1005.91
16.193,-0.08,1.02,-0.09,0.28,0.36,0.62,0.31,-0.08,-1.29,1005.91
16.25,-0.08,1.02,-0.09,1.61,0.50,0.07,0.31,-0.08,-1.29,1005.91
16.251,-0.03,1.02,-0.15,1.61,0.50,0.07,0.31,-0.08,-1.29,1005.91
16.251,-0.02,1.01,-0.13,1.61,0.50,0.07,0.31,-0.08,-1.29,1005.91
16.252,0.07,1.04,-0.08,1.61,0.50,0.07,0.31,-0.08,-1.29,1005.91
16.252,0.07,1.04,-0.08,1.61,0.50,0.07,0.37,0.21,-1.35,1005.91
16.261,0.07,1.04,-0.08,1.61,0.50,0.07,0.37,0.21,-1.35,1005.92
16.301,0.07,1.04,-0.08,1.61,0.50,0.07,0.37,0.21,-1.35,1005.93
16.307,0.04,1.16,-0.01,1.61,0.50,0.07,0.37,0.21,-1.35,1005.93
16.308,0.05,1.24,-0.06,1.61,0.50,0.07,0.37,0.21,-1.35,1005.93
16.308,0.13,1.24,-0.09,1.61,0.50,0.07,0.37,0.21,-1.35,1005.93
16.308,0.13,1.24,-0.09,1.61,0.50,0.07,0.65,-0.10,-1.83,1005.93
16.309,0.13,1.24,-0.09,3.19,2.64,1.04,0.65,-0.10,-1.83,1005.93
16.367,0.13,1.24,-0.09,6.79,5.67,1.93,0.65,-0.10,-1.83,1005.93
16.367,0.18,1.29,-0.10,6.79,5.67,1.93,0.65,-0.10,-1.83,1005.93
16.368,0.25,1.43,-0.08,6.79,5.67,1.93,0.65,-0.10,-1.83,1005.93
16.368,0.55,1.72,0.10,6.79,5.67,1.93,0.65,-0.10,-1.83,1005.93
16.369,0.55,1.72,0.10,6.79,5.67,1.93,1.15,0.16,-2.30,1005.93
16.38,0.55,1.72,0.10,6.79,5.67,1.93,1.15,0.16,-2.30,1005.93
16.423,1.16,1.90,0.19,6.79,5.67,1.93,1.15,0.16,-2.30,1005.93
16.424,1.55,1.71,0.16,6.79,5.67,1.93,1.15,0.16,-2.30,1005.93
16.424,0.78,1.22,0.12,6.79,5.67,1.93,1.15,0.16,-2.30,1005.93
16.424,0.78,1.22,0.12,6.79,5.67,1.93,1.33,1.23,-2.78,1005.93
16.425,0.78,1.22,0.12,15.89,7.69,4.59,1.33,1.23,-2.78,1005.93
16.461,0.78,1.22,0.12,15.89,7.69,4.59,1.33,1.23,-2.78,1005.92
16.482,-0.37,1.18,-0.15,15.89,7.69,4.59,1.33,1.23,-2.78,1005.92
16.482,-0.82,1.32,-0.32,15.89,7.69,4.59,1.33,1.23,-2.78,1005.92
16.483,-1.07,1.10,-0.52,15.89,7.69,4.59,1.33,1.23,-2.78,1005.92
16.483,-1.07,1.10,-0.52,-1.42,5.40,1.24,1.33,1.23,-2.78,1005.92
16.484,-1.07,1.10,-0.52,-1.42,5.40,1.24,1.79,2.16,-4.59,1005.92
16.5,-1.07,1.10,-0.52,-1.42,5.40,1.24,1.79,2.16,-4.59,1005.91
16.542,-1.09,0.70,-0.38,-1.42,5.40,1.24,1.79,2.16,-4.59,1005.91
16.543,-0.70,0.54,-0.35,-1.42,5.40,1.24,1.79,2.16,-4.59,1005.91
16.543,-0.38,0.32,-0.52,-1.42,5.40,1.24,1.79,2.16,-4.59,1005.91
16.543,-0.38,0.32,-0.52,-1.42,5.40,1.24,-0.20,0.13,-0.92,1005.91
16.543,-0.38,0.32,-0.52,-0.84,-0.98,0.34,-0.20,0.13,-0.92,1005.91
16.581,-0.38,0.32,-0.52,-0.84,-0.98,0.34,-0.20,0.13,-0.92,1005.91
16.598,-0.21,0.15,-0.21,-0.84,-0.98,0.34,-0.20,0.13,-0.92,1005.91
16.599,-0.11,0.04,-0.10,-0.84,-0.98,0.34,-0.20,0.13,-0.92,1005.91
16.599,-0.02,0.10,-0.23,-0.84,-0.98,0.34,-0.20,0.13,-0.92,1005.91
16.6,-0.02,0.10,-0.23,-0.84,-0.98,0.34,-2.05,-0.70,2.62,1005.91
16.6,-0.02,0.10,-0.23,4.20,-6.42,1.60,-2.05,-0.70,2.62,1005.91
16.658,-0.06,0.24,-0.31,4.20,-6.42,1.60,-2.05,-0.70,2.62,1005.91
16.659,-0.03,0.37,-0.39,4.20,-6.42,1.60,-2.05,-0.70,2.62,1005.91
16.659,0.03,0.51,-0.37,4.20,-6.42,1.60,-2.05,-0.70,2.62,1005.91
16.66,0.03,0.51,-0.37,4.20,-6.42,1.60,-2.29,-0.61,4.61,1005.91
16.661,0.03,0.51,-0.37,2.93,-5.15,-1.35,-2.29,-0.61,4.61,1005.91
16.661,0.03,0.51,-0.37,2.93,-5.15,-1.35,-2.29,-0.61,4.61,1005.90
16.701,0.03,0.51,-0.37,2.93,-5.15,-1.35,-2.29,-0.61,4.61,1005.94
16.715,-0.00,0.62,-0.24,2.93,-5.15,-1.35,-2.29,-0.61,4.61,1005.94
16.716,0.01,0.78,-0.15,2.93,-5.15,-1.35,-2.29,-0.61,4.61,1005.94
16.716,0.10,1.15,-0.38,2.93,-5.15,-1.35,-2.29,-0.61,4.61,1005.94
16.719,0.10,1.15,-0.38,2.93,-5.15,-1.35,-2.30,0.74,6.16,1005.94
16.72,0.10,1.15,-0.38,0.15,-1.20,-1.52,-2.30,0.74,6.16,1005.94
16.774,0.08,1.77,-0.52,0.15,-1.20,-1.52,-2.30,0.74,6.16,1005.94
16.775,-0.25,2.41,-0.55,0.15,-1.20,-1.52,-2.30,0.74,6.16,1005.94
16.776,-0.67,2.27,-0.49,0.15,-1.20,-1.52,-2.30,0.74,6.16,1005.94
16.776,-0.67,2.27,-0.49,0.15,-1.20,-1.52,-2.48,1.33,6.22,1005.94
16.777,-0.67,2.27,-0.49,-6.23,12.04,-5.53,-2.48,1.33,6.22,1005.94
16.78,-0.67,2.27,-0.49,-6.23,12.04,-5.53,-2.48,1.33,6.22,1005.93
16.832,-0.93,1.59,-0.19,-6.23,12.04,-5.53,-2.48,1.33,6.22,1005.93
16.833,-1.02,1.13,-0.12,-6.23,12.04,-5.53,-2.48,1.33,6.22,1005.93
16.833,-1.05,0.96,-0.43,-6.23,12.04,-5.53,-2.48,1.33,6.22,1005.93
16.834,-1.05,0.96,-0.43,-6.23,12.04,-5.53,-1.70,-0.02,3.01,1005.93
16.834,-1.05,0.96,-0.43,-14.60,3.80,-3.62,-1.70,-0.02,3.01,1005.93
16.859,-1.05,0.96,-0.43,-14.60,3.80,-3.62,-1.70,-0.02,3.01,1005.89
16.89,-1.18,0.74,-0.47,-14.60,3.80,-3.62,-1.70,-0.02,3.01,1005.89
16.891,-1.29,0.79,-0.17,-14.60,3.80,-3.62,-1.70,-0.02,3.01,1005.89
16.891,-0.73,1.58,-0.41,-14.60,3.80,-3.62,-1.70,-0.02,3.01,1005.89
16.892,-0.73,1.58,-0.41,-14.60,3.80,-3.62,0.13,-1.27,-2.03,1005.89
16.893,-0.73,1.58,-0.41,-14.07,1.35,-4.21,0.13,-1.27,-2.03,1005.89
16.899,-0.73,1.58,-0.41,-14.07,1.35,-4.21,0.13,-1.27,-2.03,1005.87
16.953,0.94,1.65,0.85,-14.07,1.35,-4.21,0.13,-1.27,-2.03,1005.87
16.955,2.49,1.16,0.45,-14.07,1.35,-4.21,0.13,-1.27,-2.03,1005.87
16.955,1.35,1.84,-1.11,-14.07,1.35,-4.21,0.13,-1.27,-2.03,1005.87
16.955,1.35,1.84,-1.11,-14.07,1.35,-4.21,-0.23,-1.62,0.62,1005.87
16.956,1.35,1.84,-1.11,11.45,6.45,0.12,-0.23,-1.62,0.62,1005.87
16.979,1.35,1.84,-1.11,11.45,6.45,0.12,-0.23,-1.62,0.62,1005.88
17.007,-0.18,1.37,-0.81,11.45,6.45,0.12,-0.23,-1.62,0.62,1005.88
17.008,-0.42,0.70,0.33,11.45,6.45,0.12,-0.23,-1.62,0.62,1005.88
17.008,-0.15,0.76,0.40,11.45,6.45,0.12,-0.23,-1.62,0.62,1005.88
17.008,-0.15,0.76,0.40,11.45,6.45,0.12,-0.08,-0.04,-2.98,1005.88
17.009,-0.15,0.76,0.40,-5.00,-0.13,-0.79,-0.08,-0.04,-2.98,1005.88
17.06,-0.15,0.76,0.40,-5.00,-0.13,-0.79,-0.08,-0.04,-2.98,1005.94
17.066,0.04,1.01,0.22,-5.00,-0.13,-0.79,-0.08,-0.04,-2.98,1005.94
17.066,0.05,1.04,0.17,-5.00,-0.13,-0.79,-0.08,-0.04,-2.98,1005.94
17.067,0.11,1.01,-0.03,-5.00,-0.13,-0.79,-0.08,-0.04,-2.98,1005.94
17.067,0.11,1.01,-0.03,-5.00,-0.13,-0.79,0.13,-0.26,-1.36,1005.94
17.07,0.11,1.01,-0.03,-1.12,0.45,0.73,0.13,-0.26,-1.36,1005.94
17.1,0.11,1.01,-0.03,-1.12,0.45,0.73,0.13,-0.26,-1.36,1005.93
17.123,0.23,1.03,-0.05,-1.12,0.45,0.73,0.13,-0.26,-1.36,1005.93
17.123,0.18,1.06,0.03,-1.12,0.45,0.73,0.13,-0.26,-1.36,1005.93
17.124,0.08,1.01,0.14,-1.12,0.45,0.73,0.13,-0.26,-1.36,1005.93
17.126,0.08,1.01,0.14,-1.12,0.45,0.73,0.18,0.09,-1.04,1005.93
17.127,0.08,1.01,0.14,0.41,0.50,0.05,0.18,0.09,-1.04,1005.93
17.18,0.08,1.01,0.14,0.41,0.50,0.05,0.18,0.09,-1.04,1005.93
17.181,0.17,0.95,0.17,0.41,0.50,0.05,0.18,0.09,-1.04,1005.93
17.182,0.24,0.94,0.11,0.41,0.50,0.05,0.18,0.09,-1.04,1005.93
17.182,0.21,0.97,0.08,0.41,0.50,0.05,0.18,0.09,-1.04,1005.93
17.183,0.21,0.97,0.08,0.41,0.50,0.05,0.31,-0.10,-1.11,1005.93
17.183,0.21,0.97,0.08,1.43,-0.33,0.99,0.31,-0.10,-1.11,1005.93
17.241,0.17,0.96,0.08,1.43,-0.33,0.99,0.31,-0.10,-1.11,1005.93
17.242,0.08,0.98,0.02,1.43,-0.33,0.99,0.31,-0.10,-1.11,1005.93
17.242,-0.11,1.03,-0.07,1.43,-0.33,0.99,0.31,-0.10,-1.11,1005.93
17.242,-0.11,1.03,-0.07,1.43,-0.33,0.99,0.45,0.37,-1.48,1005.93
17.242,-0.11,1.03,-0.07,0.71,0.01,0.18,0.45,0.37,-1.48,1005.93
17.261,-0.11,1.03,-0.07,0.71,0.01,0.18,0.45,0.37,-1.48,1005.93
17.299,-0.24,1.05,-0.08,0.71,0.01,0.18,0.45,0.37,-1.48,1005.93
17.3,-0.16,0.98,-0.06,0.71,0.01,0.18,0.45,0.37,-1.48,1005.93
17.3,-0.07,0.96,-0.02,0.71,0.01,0.18,0.45,0.37,-1.48,1005.93
17.301,-0.07,0.96,-0.02,0.71,0.01,0.18,0.37,0.18,-1.29,1005.93
17.301,-0.07,0.96,-0.02,-0.54,0.11,-0.26,0.37,0.18,-1.29,1005.93
17.301,-0.07,0.96,-0.02,-0.54,0.11,-0.26,0.37,0.18,-1.29,1005.93
17.356,-0.03,0.97,-0.03,-0.54,0.11,-0.26,0.37,0.18,-1.29,1005.93
17.357,-0.05,0.96,-0.05,-0.54,0.11,-0.26,0.37,0.18,-1.29,1005.93
17.357,-0.12,0.99,-0.08,-0.54,0.11,-0.26,0.37,0.18,-1.29,1005.93
17.357,-0.12,0.99,-0.08,-0.54,0.11,-0.26,0.27,0.27,-1.28,1005.93
17.357,-0.12,0.99,-0.08,1.01,-0.02,-0.08,0.27,0.27,-1.28,1005.93
17.381,-0.12,0.99,-0.08,1.01,-0.02,-0.08,0.27,0.27,-1.28,1005.93
17.415,-0.15,1.05,-0.09,1.01,-0.02,-0.08,0.27,0.27,-1.28,1005.93
17.415,-0.13,1.12,-0.05,1.01,-0.02,-0.08,0.27,0.27,-1.28,1005.93
17.416,-0.02,1.15,0.01,1.01,-0.02,-0.08,0.27,0.27,-1.28,1005.93
17.416,-0.02,1.15,0.01,1.01,-0.02,-0.08,0.29,-0.05,-1.44,1005.93
17.416,-0.02,1.15,0.01,1.46,1.45,0.19,0.29,-0.05,-1.44,1005.93
17.46,-0.02,1.15,0.01,1.46,1.45,0.19,0.29,-0.05,-1.44,1005.93
17.475,0.10,1.17,0.08,1.46,1.45,0.19,0.29,-0.05,-1.44,1005.93
17.475,0.14,1.18,0.07,1.46,1.45,0.19,0.29,-0.05,-1.44,1005.93
17.476,0.15,1.33,0.04,1.46,1.45,0.19,0.29,-0.05,-1.44,1005.93
17.476,0.15,1.33,0.04,1.46,1.45,0.19,0.56,0.14,-1.90,1005.93
17.481,0.15,1.33,0.04,4.64,2.97,1.54,0.56,0.14,-1.90,1005.93
17.501,0.15,1.33,0.04,4.64,2.97,1.54,0.56,0.14,-1.90,1005.93
17.532,0.36,1.63,0.03,4.64,2.97,1.54,0.56,0.14,-1.90,1005.93
17.533,0.72,1.64,-0.18,4.64,2.97,1.54,0.56,0.14,-1.90,1005.93
17.533,0.90,1.47,-0.33,4.64,2.97,1.54,0.56,0.14,-1.90,1005.93
17.534,0.90,1.47,-0.33,4.64,2.97,1.54,1.01,1.39,-2.45,1005.93
17.534,0.90,1.47,-0.33,10.83,6.95,0.19,1.01,1.39,-2.45,1005.93
17.58,0.90,1.47,-0.33,10.83,6.95,0.19,1.01,1.39,-2.45,1005.93
17.59,0.85,1.27,-0.28,10.83,6.95,0.19,1.01,1.39,-2.45,1005.93
17.59,0.06,0.98,-0.13,10.83,6.95,0.19,1.01,1.39,-2.45,1005.93
17.591,-0.78,1.27,-0.34,10.83,6.95,0.19,1.01,1.39,-2.45,1005.93
17.591,-0.78,1.27,-0.34,10.83,6.95,0.19,1.40,2.53,-3.46,1005.93
17.592,-0.78,1.27,-0.34,5.90,4.07,0.68,1.40,2.53,-3.46,1005.93
17.647,-1.18,1.44,-0.53,5.90,4.07,0.68,1.40,2.53,-3.46,1005.93
17.649,-1.21,0.96,-0.26,5.90,4.07,0.68,1.40,2.53,-3.46,1005.93
17.649,-0.94,0.65,-0.10,5.90,4.07,0.68,1.40,2.53,-3.46,1005.93
17.65,-0.94,0.65,-0.10,5.90,4.07,0.68,1.46,0.40,-2.65,1005.93
17.65,-0.94,0.65,-0.10,-4.32,3.71,0.92,1.46,0.40,-2.65,1005.93
17.66,-0.94,0.65,-0.10,-4.32,3.71,0.92,1.46,0.40,-2.65,1005.91
17.701,-0.94,0.65,-0.10,-4.32,3.71,0.92,1.46,0.40,-2.65,1005.90
17.707,-0.68,0.58,-0.07,-4.32,3.71,0.92,1.46,0.40,-2.65,1005.90
17.708,-0.35,0.34,0.03,-4.32,3.71,0.92,1.46,0.40,-2.65,1005.90
17.708,-0.01,0.11,0.21,-4.32,3.71,0.92,1.46,0.40,-2.65,1005.90
17.708,-0.01,0.11,0.21,2.76,-3.44,3.79,1.46,0.40,-2.65,1005.90
17.709,-0.01,0.11,0.21,2.76,-3.44,3.79,-0.01,-1.37,1.61,1005.90
17.764,0.11,0.04,0.19,2.76,-3.44,3.79,-0.01,-1.37,1.61,1005.90
17.765,-0.01,0.19,0.07,2.76,-3.44,3.79,-0.01,-1.37,1.61,1005.90
17.766,-0.14,0.38,-0.03,2.76,-3.44,3.79,-0.01,-1.37,1.61,1005.90
17.766,-0.14,0.38,-0.03,4.54,-5.78,3.92,-0.01,-1.37,1.61,1005.90
17.766,-0.14,0.38,-0.03,4.54,-5.78,3.92,0.63,-0.86,3.69,1005.90
17.781,-0.14,0.38,-0.03,4.54,-5.78,3.92,0.63,-0.86,3.69,1005.90
17.824,-0.25,0.55,-0.12,4.54,-5.78,3.92,0.63,-0.86,3.69,1005.90
17.834,-0.49,0.69,0.04,4.54,-5.78,3.92,0.63,-0.86,3.69,1005.90
17.834,-0.69,0.85,0.09,4.54,-5.78,3.92,0.63,-0.86,3.69,1005.90
17.834,-0.69,0.85,0.09,4.54,-5.78,3.92,0.59,-0.96,5.18,1005.90
17.834,-0.69,0.85,0.09,-2.30,-1.90,3.23,0.59,-0.96,5.18,1005.90
17.859,-0.69,0.85,0.09,-2.30,-1.90,3.23,0.59,-0.96,5.18,1005.97
17.883,-0.79,1.03,-0.04,-2.30,-1.90,3.23,0.59,-0.96,5.18,1005.97
17.883,-0.91,1.27,-0.01,-2.30,-1.90,3.23,0.59,-0.96,5.18,1005.97
17.884,-0.79,1.32,-0.14,-2.30,-1.90,3.23,0.59,-0.96,5.18,1005.97
17.884,-0.79,1.32,-0.14,-8.11,2.67,2.28,0.59,-0.96,5.18,1005.97
17.884,-0.79,1.32,-0.14,-8.11,2.67,2.28,0.11,-5.44,6.60,1005.97
17.903,-0.79,1.32,-0.14,-8.11,2.67,2.28,0.11,-5.44,6.60,1005.96
17.939,-0.49,1.42,-0.16,-8.11,2.67,2.28,0.11,-5.44,6.60,1005.96
17.94,-0.11,1.63,-0.01,-8.11,2.67,2.28,0.11,-5.44,6.60,1005.96
17.941,0.25,1.63,0.32,-8.11,2.67,2.28,0.11,-5.44,6.60,1005.96
17.941,0.25,1.63,0.32,-8.11,2.67,2.28,0.09,-8.92,6.33,1005.96
17.942,0.25,1.63,0.32,-2.78,6.41,3.89,0.09,-8.92,6.33,1005.96
17.981,0.25,1.63,0.32,-2.78,6.41,3.89,0.09,-8.92,6.33,1005.90
17.998,0.17,1.40,0.63,-2.78,6.41,3.89,0.09,-8.92,6.33,1005.90
17.999,-0.19,1.14,0.59,-2.78,6.41,3.89,0.09,-8.92,6.33,1005.90
18.0,-0.43,0.90,0.37,-2.78,6.41,3.89,0.09,-8.92,6.33,1005.90
18.0,-0.43,0.90,0.37,-2.78,6.41,3.89,-0.72,-5.14,2.48,1005.90
18.001,-0.43,0.90,0.37,-3.27,2.41,8.61,-0.72,-5.14,2.48,1005.90
18.056,-0.43,0.85,0.14,-3.27,2.41,8.61,-0.72,-5.14,2.48,1005.90
18.057,-0.48,0.85,0.23,-3.27,2.41,8.61,-0.72,-5.14,2.48,1005.90
18.058,-0.98,1.36,-0.67,-3.27,2.41,8.61,-0.72,-5.14,2.48,1005.90
18.058,-0.98,1.36,-0.67,-3.27,2.41,8.61,-0.55,-1.64,-0.02,1005.90
18.058,-0.98,1.36,-0.67,-7.50,1.06,2.27,-0.55,-1.64,-0.02,1005.90
18.059,-0.98,1.36,-0.67,-7.50,1.06,2.27,-0.55,-1.64,-0.02,1005.89
18.1,-0.98,1.36,-0.67,-7.50,1.06,2.27,-0.55,-1.64,-0.02,1005.91
18.114,-1.93,1.63,0.16,-7.50,1.06,2.27,-0.55,-1.64,-0.02,1005.91
18.115,-0.43,0.72,0.03,-7.50,1.06,2.27,-0.55,-1.64,-0.02,1005.91
18.115,0.59,1.46,-0.64,-7.50,1.06,2.27,-0.55,-1.64,-0.02,1005.91
18.116,0.59,1.46,-0.64,-6.26,3.20,1.27,-0.55,-1.64,-0.02,1005.91
18.117,0.59,1.46,-0.64,-6.26,3.20,1.27,-1.08,-1.04,-1.05,1005.91
18.173,0.88,1.89,-0.63,-6.26,3.20,1.27,-1.08,-1.04,-1.05,1005.91
18.174,0.37,0.99,-0.42,-6.26,3.20,1.27,-1.08,-1.04,-1.05,1005.91
18.174,0.02,0.59,-0.06,-6.26,3.20,1.27,-1.08,-1.04,-1.05,1005.91
18.175,0.02,0.59,-0.06,-6.26,3.20,1.27,-0.72,-1.38,-0.13,1005.91
18.175,0.02,0.59,-0.06,3.89,1.94,-1.22,-0.72,-1.38,-0.13,1005.91
18.179,0.02,0.59,-0.06,3.89,1.94,-1.22,-0.72,-1.38,-0.13,1005.86
18.232,-0.07,0.93,0.01,3.89,1.94,-1.22,-0.72,-1.38,-0.13,1005.86
18.232,-0.16,1.07,0.04,3.89,1.94,-1.22,-0.72,-1.38,-0.13,1005.86
18.233,-0.14,1.01,-0.10,3.89,1.94,-1.22,-0.72,-1.38,-0.13,1005.86
18.233,-0.14,1.01,-0.10,3.89,1.94,-1.22,-0.35,-0.13,-0.40,1005.86
18.233,-0.14,1.01,-0.10,-1.24,0.41,2.02,-0.35,-0.13,-0.40,1005.86
18.259,-0.14,1.01,-0.10,-1.24,0.41,2.02,-0.35,-0.13,-0.40,1005.88
18.29,-0.15,0.99,-0.23,-1.24,0.41,2.02,-0.35,-0.13,-0.40,1005.88
18.291,-0.13,0.96,-0.33,-1.24,0.41,2.02,-0.35,-0.13,-0.40,1005.88
18.291,-0.04,1.01,-0.27,-1.24,0.41,2.02,-0.35,-0.13,-0.40,1005.88
18.292,-0.04,1.01,-0.27,-1.24,0.41,2.02,-0.02,-0.32,0.04,1005.88
18.292,-0.04,1.01,-0.27,-1.01,0.22,-0.55,-0.02,-0.32,0.04,1005.88
18.3,-0.04,1.01,-0.27,-1.01,0.22,-0.55,-0.02,-0.32,0.04,1005.89
18.347,0.06,1.01,-0.26,-1.01,0.22,-0.55,-0.02,-0.32,0.04,1005.89
18.348,0.10,0.97,-0.19,-1.01,0.22,-0.55,-0.02,-0.32,0.04,1005.89
18.348,0.14,0.98,-0.19,-1.01,0.22,-0.55,-0.02,-0.32,0.04,1005.89
18.349,0.14,0.98,-0.19,-1.01,0.22,-0.55,-0.00,-0.43,0.20,1005.89
18.349,0.14,0.98,-0.19,0.94,0.19,0.07,-0.00,-0.43,0.20,1005.89
18.379,0.14,0.98,-0.19,0.94,0.19,0.07,-0.00,-0.43,0.20,1005.90
18.406,0.12,0.94,-0.21,0.94,0.19,0.07,-0.00,-0.43,0.20,1005.90
18.407,0.01,0.98,-0.14,0.94,0.19,0.07,-0.00,-0.43,0.20,1005.90
18.407,0.01,1.01,-0.17,0.94,0.19,0.07,-0.00,-0.43,0.20,1005.90
18.407,0.01,1.01,-0.17,0.94,0.19,0.07,0.23,-0.32,-0.11,1005.90
18.407,0.01,1.01,-0.17,0.51,0.11,0.58,0.23,-0.32,-0.11,1005.90
18.459,0.01,1.01,-0.17,0.51,0.11,0.58,0.23,-0.32,-0.11,1005.91
18.464,-0.01,0.94,-0.22,0.51,0.11,0.58,0.23,-0.32,-0.11,1005.91
18.464,-0.01,0.93,-0.25,0.51,0.11,0.58,0.23,-0.32,-0.11,1005.91
18.464,-0.04,0.99,-0.16,0.51,0.11,0.58,0.23,-0.32,-0.11,1005.91
18.466,-0.04,0.99,-0.16,0.51,0.11,0.58,0.48,-0.55,-0.22,1005.91
18.467,-0.04,0.99,-0.16,0.04,-0.04,0.49,0.48,-0.55,-0.22,1005.91
18.501,-0.04,0.99,-0.16,0.04,-0.04,0.49,0.48,-0.55,-0.22,1005.92
18.523,-0.09,0.98,-0.13,0.04,-0.04,0.49,0.48,-0.55,-0.22,1005.92
18.524,-0.11,0.94,-0.19,0.04,-0.04,0.49,0.48,-0.55,-0.22,1005.92
18.524,-0.03,0.96,-0.23,0.04,-0.04,0.49,0.48,-0.55,-0.22,1005.92
18.524,-0.03,0.96,-0.23,0.04,-0.04,0.49,0.73,-0.57,-0.16,1005.92
18.525,-0.03,0.96,-0.23,-0.32,0.16,1.13,0.73,-0.57,-0.16,1005.92
18.58,-0.03,0.96,-0.23,-0.32,0.16,1.13,0.73,-0.57,-0.16,1005.94
18.581,0.06,1.01,-0.20,-0.32,0.16,1.13,0.73,-0.57,-0.16,1005.94
18.581,0.03,1.04,-0.25,-0.32,0.16,1.13,0.73,-0.57,-0.16,1005.94
18.582,0.03,1.06,-0.29,-0.32,0.16,1.13,0.73,-0.57,-0.16,1005.94
18.582,0.03,1.06,-0.29,-0.32,0.16,1.13,0.99,-0.22,-0.12,1005.94
18.582,0.03,1.06,-0.29,0.94,1.08,1.01,0.99,-0.22,-0.12,1005.94
18.641,0.10,1.06,-0.32,0.94,1.08,1.01,0.99,-0.22,-0.12,1005.94
18.641,0.17,1.09,-0.44,0.94,1.08,1.01,0.99,-0.22,-0.12,1005.94
18.642,0.15,1.34,-0.37,0.94,1.08,1.01,0.99,-0.22,-0.12,1005.94
18.642,0.15,1.34,-0.37,0.94,1.08,1.01,1.38,-0.15,-0.22,1005.94
18.652,0.15,1.34,-0.37,2.02,2.59,0.43,1.38,-0.15,-0.22,1005.94
18.672,0.15,1.34,-0.37,2.02,2.59,0.43,1.38,-0.15,-0.22,1005.94
18.697,0.34,1.68,-0.01,2.02,2.59,0.43,1.38,-0.15,-0.22,1005.94
18.698,0.73,1.61,0.16,2.02,2.59,0.43,1.38,-0.15,-0.22,1005.94
18.698,0.61,1.46,0.17,2.02,2.59,0.43,1.38,-0.15,-0.22,1005.94
18.698,0.61,1.46,0.17,6.64,7.19,6.00,1.38,-0.15,-0.22,1005.94
18.698,0.61,1.46,0.17,6.64,7.19,6.00,2.13,-1.86,-0.28,1005.94
18.699,0.61,1.46,0.17,6.64,7.19,6.00,2.13,-1.86,-0.28,1005.92
18.762,0.61,1.46,0.17,-1.31,6.31,8.23,2.13,-1.86,-0.28,1005.92
18.763,0.15,1.39,0.45,-1.31,6.31,8.23,2.13,-1.86,-0.28,1005.92
