
time,gFx,gFy,gFz,ax,ay,az,wx,wy,wz,
0.067373,0.1970,0.8377,0.5635,0.0000,0.0000,0.0000,0.0000,0.0000,0.0000,
0.068075,0.1970,0.8377,0.5635,0.0000,0.0000,0.0000,0.0000,0.0000,0.0000,
0.068334,0.1970,0.8377,0.5635,0.0000,0.0000,0.0000,0.0000,0.0000,0.0000,
0.068683,0.1970,0.8377,0.5635,-0.0029,0.0558,-0.0669,0.0000,0.0000,0.0000,
0.069055,0.1970,0.8377,0.5635,-0.0029,0.0558,-0.0669,-0.1155,0.2743,0.0528,
0.125531,0.2005,0.8243,0.5474,-0.0029,0.0558,-0.0669,-0.1155,0.2743,0.0528,
0.126409,0.1902,0.8153,0.5477,-0.0029,0.0558,-0.0669,-0.1155,0.2743,0.0528,
0.126877,0.2019,0.8045,0.5538,-0.0029,0.0558,-0.0669,-0.1155,0.2743,0.0528,
0.127312,0.2019,0.8045,0.5538,-0.0029,0.0558,-0.0669,-0.0747,0.1896,0.0067,
0.127741,0.2019,0.8045,0.5538,0.0406,-0.0964,-0.1733,-0.0747,0.1896,0.0067,
0.184457,0.1983,0.8072,0.5565,0.0406,-0.0964,-0.1733,-0.0747,0.1896,0.0067,
0.185131,0.1936,0.7999,0.5613,0.0406,-0.0964,-0.1733,-0.0747,0.1896,0.0067,
0.185650,0.2105,0.8016,0.5794,0.0406,-0.0964,-0.1733,-0.0747,0.1896,0.0067,
0.186086,0.2105,0.8016,0.5794,0.0406,-0.0964,-0.1733,-0.0126,0.2491,0.0748,
0.186542,0.2105,0.8016,0.5794,0.0887,-0.1499,-0.0363,-0.0126,0.2491,0.0748,
0.241995,0.2273,0.8011,0.5887,0.0887,-0.1499,-0.0363,-0.0126,0.2491,0.0748,
0.242746,0.2263,0.7904,0.5897,0.0887,-0.1499,-0.0363,-0.0126,0.2491,0.0748,
0.243087,0.2227,0.7913,0.5760,0.0887,-0.1499,-0.0363,-0.0126,0.2491,0.0748,
0.243568,0.2227,0.7913,0.5760,0.0887,-0.1499,-0.0363,0.1022,0.3297,0.3163,
0.243918,0.2227,0.7913,0.5760,0.2318,-0.1862,0.1293,0.1022,0.3297,0.3163,
0.300917,0.2378,0.7982,0.5655,0.2318,-0.1862,0.1293,0.1022,0.3297,0.3163,
0.301613,0.2676,0.7989,0.5452,0.2318,-0.1862,0.1293,0.1022,0.3297,0.3163,
0.301971,0.2820,0.8238,0.5420,0.2318,-0.1862,0.1293,0.1022,0.3297,0.3163,
0.302497,0.2820,0.8238,0.5420,0.2318,-0.1862,0.1293,0.2370,0.2633,0.7329,
0.302947,0.2820,0.8238,0.5420,0.2832,-0.0408,-0.1036,0.2370,0.2633,0.7329,
0.358747,0.2674,0.8380,0.5335,0.2832,-0.0408,-0.1036,0.2370,0.2633,0.7329,
0.359357,0.2351,0.8600,0.4891,0.2832,-0.0408,-0.1036,0.2370,0.2633,0.7329,
0.359715,0.2361,0.8883,0.4393,0.2832,-0.0408,-0.1036,0.2370,0.2633,0.7329,
0.360094,0.2361,0.8883,0.4393,-0.2780,0.4585,-0.4903,0.2370,0.2633,0.7329,
0.360439,0.2361,0.8883,0.4393,-0.2780,0.4585,-0.4903,0.3496,0.0477,1.0008,
0.417145,0.2508,0.9110,0.4656,-0.2780,0.4585,-0.4903,0.3496,0.0477,1.0008,
0.417789,0.2666,0.9105,0.4488,-0.2780,0.4585,-0.4903,0.3496,0.0477,1.0008,
0.418147,0.2710,0.8412,0.4317,-0.2780,0.4585,-0.4903,0.3496,0.0477,1.0008,
0.418522,0.2710,0.8412,0.4317,-0.2780,0.4585,-0.4903,0.2879,-0.1953,0.7885,
0.418849,0.2710,0.8412,0.4317,-0.4729,0.6599,-0.6133,0.2879,-0.1953,0.7885,
0.476313,0.2385,0.8099,0.4058,-0.4729,0.6599,-0.6133,0.2879,-0.1953,0.7885,
0.477890,0.2517,0.7515,0.3794,-0.4729,0.6599,-0.6133,0.2879,-0.1953,0.7885,
0.478719,0.2859,0.7171,0.3474,-0.4729,0.6599,-0.6133,0.2879,-0.1953,0.7885,
0.479515,0.2859,0.7171,0.3474,-0.6691,-0.5220,-1.0389,0.2879,-0.1953,0.7885,
0.480201,0.2859,0.7171,0.3474,-0.6691,-0.5220,-1.0389,0.2201,-0.2077,0.3843,
0.534527,0.2576,0.6705,0.2827,-0.6691,-0.5220,-1.0389,0.2201,-0.2077,0.3843,
0.535930,0.1997,0.6168,0.1499,-0.6691,-0.5220,-1.0389,0.2201,-0.2077,0.3843,
0.537390,0.1238,0.5850,0.0662,-0.6691,-0.5220,-1.0389,0.2201,-0.2077,0.3843,
0.538473,0.1238,0.5850,0.0662,-0.6691,-0.5220,-1.0389,0.1568,-0.5221,0.1428,
0.539193,0.1238,0.5850,0.0662,-1.3627,-1.6780,-2.6419,0.1568,-0.5221,0.1428,
0.593230,0.1875,0.5799,0.1272,-1.3627,-1.6780,-2.6419,0.1568,-0.5221,0.1428,
0.594979,0.1514,0.6404,0.2366,-1.3627,-1.6780,-2.6419,0.1568,-0.5221,0.1428,
0.595939,-0.2669,0.7574,0.0960,-1.3627,-1.6780,-2.6419,0.1568,-0.5221,0.1428,
0.596734,-0.2669,0.7574,0.0960,-1.3627,-1.6780,-2.6419,0.0476,-1.7678,-0.2441,
0.597492,-0.2669,0.7574,0.0960,-3.0319,-1.2675,-2.1768,0.0476,-1.7678,-0.2441,
0.652482,-0.5801,0.8490,-0.1904,-3.0319,-1.2675,-2.1768,0.0476,-1.7678,-0.2441,
0.655372,-0.3282,0.8343,-0.0186,-3.0319,-1.2675,-2.1768,0.0476,-1.7678,-0.2441,
0.658428,0.2805,0.7862,0.2874,-3.0319,-1.2675,-2.1768,0.0476,-1.7678,-0.2441,
0.660271,0.2805,0.7862,0.2874,-3.0319,-1.2675,-2.1768,-0.5579,-4.8020,0.3649,
0.663294,0.2805,0.7862,0.2874,-5.8673,0.4841,-2.3858,-0.5579,-4.8020,0.3649,
0.709689,1.1261,0.8116,0.4903,-5.8673,0.4841,-2.3858,-0.5579,-4.8020,0.3649,
0.711526,1.4958,0.7921,0.6727,-5.8673,0.4841,-2.3858,-0.5579,-4.8020,0.3649,
0.713342,0.8326,0.7794,0.4288,-5.8673,0.4841,-2.3858,-0.5579,-4.8020,0.3649,
0.714655,0.8326,0.7794,0.4288,-5.8673,0.4841,-2.3858,0.0812,-5.7430,-1.2905,
0.715534,0.8326,0.7794,0.4288,6.8162,-0.0937,3.6175,0.0812,-5.7430,-1.2905,
0.767638,0.4305,0.8541,0.2928,6.8162,-0.0937,3.6175,0.0812,-5.7430,-1.2905,
0.768863,0.3892,0.9576,0.2229,6.8162,-0.0937,3.6175,0.0812,-5.7430,-1.2905,
0.769684,0.5223,0.9835,0.2439,6.8162,-0.0937,3.6175,0.0812,-5.7430,-1.2905,
0.770274,0.5223,0.9835,0.2439,6.8162,-0.0937,3.6175,1.7110,0.2896,-2.5750,
0.771089,0.5223,0.9835,0.2439,1.0686,0.5197,1.5740,1.7110,0.2896,-2.5750,
0.826732,0.5223,0.9835,0.2439,3.2033,0.1475,1.5849,1.7110,0.2896,-2.5750,
0.829930,0.6089,0.9627,0.2420,3.2033,0.1475,1.5849,1.7110,0.2896,-2.5750,
0.830807,0.6009,0.9317,0.2095,3.2033,0.1475,1.5849,1.7110,0.2896,-2.5750,
0.831528,0.5291,0.9059,0.1633,3.2033,0.1475,1.5849,1.7110,0.2896,-2.5750,
0.832135,0.5291,0.9059,0.1633,3.2033,0.1475,1.5849,1.5868,1.3981,-1.9861,
0.884272,0.4283,0.9195,0.0886,3.2033,0.1475,1.5849,1.5868,1.3981,-1.9861,
0.885811,0.3040,0.9776,-0.0181,3.2033,0.1475,1.5849,1.5868,1.3981,-1.9861,
0.886910,0.2469,1.0775,-0.0676,3.2033,0.1475,1.5849,1.5868,1.3981,-1.9861,
0.888398,0.2469,1.0775,-0.0676,3.2033,0.1475,1.5849,1.4604,0.0517,-1.5626,
0.889684,0.2469,1.0775,-0.0676,1.4591,0.4916,0.3286,1.4604,0.0517,-1.5626,
0.942368,0.2342,0.9981,0.0105,1.4591,0.4916,0.3286,1.4604,0.0517,-1.5626,
0.943666,0.2940,1.1307,-0.0283,1.4591,0.4916,0.3286,1.4604,0.0517,-1.5626,
0.944374,0.4803,1.1676,0.0232,1.4591,0.4916,0.3286,1.4604,0.0517,-1.5626,
0.945215,0.4803,1.1676,0.0232,1.4591,0.4916,0.3286,0.6424,-1.5210,-0.8717,
0.946130,0.4803,1.1676,0.0232,1.9587,1.3997,0.7609,0.6424,-1.5210,-0.8717,
1.000436,0.3704,1.1420,0.1533,1.9587,1.3997,0.7609,0.6424,-1.5210,-0.8717,
1.001326,0.3619,1.4547,-0.1299,1.9587,1.3997,0.7609,0.6424,-1.5210,-0.8717,
1.001926,0.6099,1.9292,-0.2627,1.9587,1.3997,0.7609,0.6424,-1.5210,-0.8717,
1.002555,0.6099,1.9292,-0.2627,1.9587,1.3997,0.7609,0.4176,-0.4034,-0.6536,
1.003399,0.6099,1.9292,-0.2627,3.2358,5.0938,0.2067,0.4176,-0.4034,-0.6536,
1.059004,0.8294,1.6547,-0.0601,3.2358,5.0938,0.2067,0.4176,-0.4034,-0.6536,
1.060101,0.2881,0.6783,-0.1487,3.2358,5.0938,0.2067,0.4176,-0.4034,-0.6536,
1.060553,-0.0112,0.5596,-0.3357,3.2358,5.0938,0.2067,0.4176,-0.4034,-0.6536,
1.061078,-0.0112,0.5596,-0.3357,3.2358,5.0938,0.2067,0.3478,1.3217,-0.7564,
1.061691,-0.0112,0.5596,-0.3357,2.6628,-0.2488,-0.6304,0.3478,1.3217,-0.7564,
1.118307,-0.0112,0.5596,-0.3357,-2.1217,-0.3246,-1.1334,0.3478,1.3217,-0.7564,
1.120050,-0.0923,0.7508,-0.1641,-2.1217,-0.3246,-1.1334,0.3478,1.3217,-0.7564,
1.120992,-0.1907,0.9483,-0.2034,-2.1217,-0.3246,-1.1334,0.3478,1.3217,-0.7564,
1.122526,-0.3140,1.1705,-0.4080,-2.1217,-0.3246,-1.1334,0.3478,1.3217,-0.7564,
1.123849,-0.3140,1.1705,-0.4080,-2.1217,-0.3246,-1.1334,0.3571,0.1761,-1.2001,
1.176783,-0.3140,1.1705,-0.4080,-1.3760,1.1316,0.4403,0.3571,0.1761,-1.2001,
1.178213,-0.3152,1.2704,-0.2827,-1.3760,1.1316,0.4403,0.3571,0.1761,-1.2001,
1.178868,-0.1887,1.1185,-0.0496,-1.3760,1.1316,0.4403,0.3571,0.1761,-1.2001,
1.179399,-0.0024,0.9442,0.0493,-1.3760,1.1316,0.4403,0.3571,0.1761,-1.2001,
1.179962,-0.0024,0.9442,0.0493,-1.3760,1.1316,0.4403,-0.0183,-0.5439,-0.5943,
1.234947,0.1204,0.9034,0.0679,-1.3760,1.1316,0.4403,-0.0183,-0.5439,-0.5943,
1.237002,0.0552,0.9474,0.0288,-1.3760,1.1316,0.4403,-0.0183,-0.5439,-0.5943,
1.238009,-0.0598,0.9940,0.0330,-1.3760,1.1316,0.4403,-0.0183,-0.5439,-0.5943,
1.239002,-0.0598,0.9940,0.0330,1.0332,-0.3740,2.0126,-0.0183,-0.5439,-0.5943,
1.240231,-0.0598,0.9940,0.0330,1.0332,-0.3740,2.0126,0.5988,-0.6756,-0.6465,
1.293895,-0.1167,1.0821,0.0217,1.0332,-0.3740,2.0126,0.5988,-0.6756,-0.6465,
1.295259,-0.2490,1.1593,0.0151,1.0332,-0.3740,2.0126,0.5988,-0.6756,-0.6465,
1.296596,-0.3538,1.1490,-0.0042,1.0332,-0.3740,2.0126,0.5988,-0.6756,-0.6465,
1.297462,-0.3538,1.1490,-0.0042,1.0332,-0.3740,2.0126,1.4543,-0.7348,-0.5219,
1.298604,-0.3538,1.1490,-0.0042,-1.2626,1.5324,2.3646,1.4543,-0.7348,-0.5219,
1.350724,-0.2840,1.1083,-0.0215,-1.2626,1.5324,2.3646,1.4543,-0.7348,-0.5219,
1.351978,-0.1900,0.9537,-0.2710,-1.2626,1.5324,2.3646,1.4543,-0.7348,-0.5219,
1.353772,-0.2591,1.1034,-0.5245,-1.2626,1.5324,2.3646,1.4543,-0.7348,-0.5219,
1.354811,-0.2591,1.1034,-0.5245,-0.9405,1.1007,0.6021,1.4543,-0.7348,-0.5219,
1.356257,-0.2591,1.1034,-0.5245,-0.9405,1.1007,0.6021,2.1048,-1.5129,-0.1409,
1.411383,-0.2549,1.5590,-0.4053,-0.9405,1.1007,0.6021,2.1048,-1.5129,-0.1409,
1.414383,-0.1052,1.7836,-0.1265,-0.9405,1.1007,0.6021,2.1048,-1.5129,-0.1409,
1.416496,-0.0046,1.4901,-0.0950,-0.9405,1.1007,0.6021,2.1048,-1.5129,-0.1409,
1.418280,-0.0046,1.4901,-0.0950,-0.9405,1.1007,0.6021,1.5432,-2.6267,0.2328,
1.420648,-0.0046,1.4901,-0.0950,0.6653,6.5723,1.7138,1.5432,-2.6267,0.2328,
1.468998,0.2271,1.2606,-0.2881,0.6653,6.5723,1.7138,1.5432,-2.6267,0.2328,
1.472250,0.5723,1.0602,-0.5162,0.6653,6.5723,1.7138,1.5432,-2.6267,0.2328,
1.475100,0.7091,0.7699,-0.5257,0.6653,6.5723,1.7138,1.5432,-2.6267,0.2328,
1.479007,0.7091,0.7699,-0.5257,0.6653,6.5723,1.7138,0.4797,-3.0154,0.0369,
1.481152,0.7091,0.7699,-0.5257,7.1404,0.9454,-0.6815,0.4797,-3.0154,0.0369,
1.526891,0.6185,0.5110,-0.1856,7.1404,0.9454,-0.6815,0.4797,-3.0154,0.0369,
1.527946,0.3689,0.3736,-0.0654,7.1404,0.9454,-0.6815,0.4797,-3.0154,0.0369,
1.528680,0.3357,0.4571,-0.1868,7.1404,0.9454,-0.6815,0.4797,-3.0154,0.0369,
1.529663,0.3357,0.4571,-0.1868,7.1404,0.9454,-0.6815,-0.5335,-2.0802,1.5135,
1.530692,0.3357,0.4571,-0.1868,5.9056,-4.8671,1.6240,-0.5335,-2.0802,1.5135,
1.584002,0.3098,0.6043,-0.1780,5.9056,-4.8671,1.6240,-0.5335,-2.0802,1.5135,
1.585560,0.2324,0.7144,-0.2237,5.9056,-4.8671,1.6240,-0.5335,-2.0802,1.5135,
1.586539,0.1416,0.8333,-0.2886,5.9056,-4.8671,1.6240,-0.5335,-2.0802,1.5135,
1.587591,0.1416,0.8333,-0.2886,5.9056,-4.8671,1.6240,-0.4592,-1.6420,3.7162,
1.588881,0.1416,0.8333,-0.2886,1.9804,-2.3670,0.4492,-0.4592,-1.6420,3.7162,
1.644831,0.0608,0.9811,-0.3262,1.9804,-2.3670,0.4492,-0.4592,-1.6420,3.7162,
1.646158,-0.0601,1.1083,-0.3474,1.9804,-2.3670,0.4492,-0.4592,-1.6420,3.7162,
1.646754,-0.2339,1.1898,-0.2259,1.9804,-2.3670,0.4492,-0.4592,-1.6420,3.7162,
1.647334,-0.2339,1.1898,-0.2259,-3.2128,1.5561,-0.4165,-0.4592,-1.6420,3.7162,
1.647923,-0.2339,1.1898,-0.2259,-3.2128,1.5561,-0.4165,-0.4044,-0.4498,4.3912,
1.700714,-0.4368,1.1947,-0.1565,-3.2128,1.5561,-0.4165,-0.4044,-0.4498,4.3912,
1.702419,-0.5945,1.1854,-0.1355,-3.2128,1.5561,-0.4165,-0.4044,-0.4498,4.3912,
1.703566,-0.5894,1.1691,-0.0215,-3.2128,1.5561,-0.4165,-0.4044,-0.4498,4.3912,
1.704783,-0.5894,1.1691,-0.0215,-3.2128,1.5561,-0.4165,-0.8585,-0.5402,3.4056,
1.706232,-0.5894,1.1691,-0.0215,-9.1257,2.8786,1.1213,-0.8585,-0.5402,3.4056,
1.761416,-0.5057,0.9557,0.0818,-9.1257,2.8786,1.1213,-0.8585,-0.5402,3.4056,
1.764405,-0.5096,0.7235,0.0039,-9.1257,2.8786,1.1213,-0.8585,-0.5402,3.4056,
1.765763,-0.6815,0.6370,-0.6297,-9.1257,2.8786,1.1213,-0.8585,-0.5402,3.4056,
1.768199,-0.6815,0.6370,-0.6297,-9.1257,2.8786,1.1213,-0.7624,0.1283,-0.2258,
1.769579,-0.6815,0.6370,-0.6297,-8.9706,-1.2445,-0.0470,-0.7624,0.1283,-0.2258,
1.819436,-0.4986,1.2633,-1.3510,-8.9706,-1.2445,-0.0470,-0.7624,0.1283,-0.2258,
1.823161,0.7288,2.4739,0.2092,-8.9706,-1.2445,-0.0470,-0.7624,0.1283,-0.2258,
1.825205,0.5960,1.8840,-0.8856,-8.9706,-1.2445,-0.0470,-0.7624,0.1283,-0.2258,
1.826851,0.5960,1.8840,-0.8856,-8.9706,-1.2445,-0.0470,-0.2275,-1.5439,-1.9183,
1.828480,0.5960,1.8840,-0.8856,0.4238,8.9221,-4.6070,-0.2275,-1.5439,-1.9183,
1.880067,-0.2681,0.5460,-0.6954,0.4238,8.9221,-4.6070,-0.2275,-1.5439,-1.9183,
1.882989,-0.1138,0.5501,0.5049,0.4238,8.9221,-4.6070,-0.2275,-1.5439,-1.9183,
1.884597,0.1057,0.9017,0.4556,0.4238,8.9221,-4.6070,-0.2275,-1.5439,-1.9183,
1.885961,0.1057,0.9017,0.4556,0.4238,8.9221,-4.6070,-0.4787,-1.5919,-2.2142,
1.887369,0.1057,0.9017,0.4556,-1.7025,-3.0756,2.6767,-0.4787,-1.5919,-2.2142,
1.934809,-0.0293,1.0917,-0.0032,-1.7025,-3.0756,2.6767,-0.4787,-1.5919,-2.2142,
1.936074,-0.2437,1.0685,-0.3323,-1.7025,-3.0756,2.6767,-0.4787,-1.5919,-2.2142,
1.936894,-0.3467,1.0196,-0.4410,-1.7025,-3.0756,2.6767,-0.4787,-1.5919,-2.2142,
1.937735,-0.3467,1.0196,-0.4410,-1.7025,-3.0756,2.6767,0.0619,0.4781,-1.5400,
1.938669,-0.3467,1.0196,-0.4410,-1.9516,0.7364,-0.6721,0.0619,0.4781,-1.5400,
1.992994,-0.3467,1.0196,-0.4410,-1.3474,0.2355,0.6188,0.0619,0.4781,-1.5400,
1.994634,-0.3113,1.0438,-0.2498,-1.3474,0.2355,0.6188,0.0619,0.4781,-1.5400,
1.995249,-0.1641,1.0245,-0.1004,-1.3474,0.2355,0.6188,0.0619,0.4781,-1.5400,
1.995719,-0.1538,0.9549,-0.0166,-1.3474,0.2355,0.6188,0.0619,0.4781,-1.5400,
1.996083,-0.1538,0.9549,-0.0166,-1.3474,0.2355,0.6188,-0.0134,-0.7935,-0.9065,
2.050101,-0.1279,0.8905,-0.0847,-1.3474,0.2355,0.6188,-0.0134,-0.7935,-0.9065,
2.050861,0.0173,0.9322,-0.2503,-1.3474,0.2355,0.6188,-0.0134,-0.7935,-0.9065,
2.051210,0.0142,1.0751,-0.2798,-1.3474,0.2355,0.6188,-0.0134,-0.7935,-0.9065,
2.051585,0.0142,1.0751,-0.2798,-1.3474,0.2355,0.6188,0.0018,-0.4439,-0.7754,
2.051963,0.0142,1.0751,-0.2798,0.8507,-0.1276,-0.2086,0.0018,-0.4439,-0.7754,
2.110033,0.0142,1.0751,-0.2798,0.2026,0.3965,0.6993,0.0018,-0.4439,-0.7754,
2.111729,-0.1240,1.0528,-0.1826,0.2026,0.3965,0.6993,0.0018,-0.4439,-0.7754,
2.112977,-0.1616,0.9806,-0.0852,0.2026,0.3965,0.6993,0.0018,-0.4439,-0.7754,
2.114137,-0.1919,0.9967,-0.0794,0.2026,0.3965,0.6993,0.0018,-0.4439,-0.7754,
2.115030,-0.1919,0.9967,-0.0794,0.2026,0.3965,0.6993,0.0955,-0.0142,-1.0798,
2.167501,-0.1428,1.0353,-0.1069,0.2026,0.3965,0.6993,0.0955,-0.0142,-1.0798,
2.168837,-0.0325,1.0543,-0.1548,0.2026,0.3965,0.6993,0.0955,-0.0142,-1.0798,
2.169756,-0.0012,0.9901,-0.1609,0.2026,0.3965,0.6993,0.0955,-0.0142,-1.0798,
2.170529,-0.0012,0.9901,-0.1609,0.2026,0.3965,0.6993,0.3148,0.1165,-1.2612,
2.171450,-0.0012,0.9901,-0.1609,1.8165,0.7290,0.6235,0.3148,0.1165,-1.2612,
2.226278,-0.0459,0.9940,-0.1570,1.8165,0.7290,0.6235,0.3148,0.1165,-1.2612,
2.227624,-0.0398,1.1122,-0.1990,1.8165,0.7290,0.6235,0.3148,0.1165,-1.2612,
2.228285,-0.0618,1.2616,-0.2520,1.8165,0.7290,0.6235,0.3148,0.1165,-1.2612,
2.229132,-0.0618,1.2616,-0.2520,1.8165,0.7290,0.6235,0.6078,0.1291,-1.8792,
2.229844,-0.0618,1.2616,-0.2520,2.8231,2.0111,0.3544,0.6078,0.1291,-1.8792,
2.284586,-0.1089,1.3229,-0.2681,2.8231,2.0111,0.3544,0.6078,0.1291,-1.8792,
2.285992,-0.0422,1.3451,-0.2713,2.8231,2.0111,0.3544,0.6078,0.1291,-1.8792,
2.286642,0.1758,1.5631,-0.2322,2.8231,2.0111,0.3544,0.6078,0.1291,-1.8792,
2.287549,0.1758,1.5631,-0.2322,2.8231,2.0111,0.3544,1.1747,-0.1433,-2.3610,
2.288466,0.1758,1.5631,-0.2322,4.4842,5.4120,0.3679,1.1747,-0.1433,-2.3610,
2.342493,0.6448,1.9585,-0.1018,4.4842,5.4120,0.3679,1.1747,-0.1433,-2.3610,
2.343843,1.2865,2.0647,0.0828,4.4842,5.4120,0.3679,1.1747,-0.1433,-2.3610,
2.345248,0.7523,1.5788,0.3326,4.4842,5.4120,0.3679,1.1747,-0.1433,-2.3610,
2.346277,0.7523,1.5788,0.3326,4.4842,5.4120,0.3679,1.2588,-0.1059,-2.4212,
2.347144,0.7523,1.5788,0.3326,13.9649,10.5631,4.3573,1.2588,-0.1059,-2.4212,
2.401066,-0.4537,1.0956,0.1663,13.9649,10.5631,4.3573,1.2588,-0.1059,-2.4212,
2.402578,-1.0912,1.2433,-0.1279,13.9649,10.5631,4.3573,1.2588,-0.1059,-2.4212,
2.403856,-1.3773,1.2535,-0.2385,13.9649,10.5631,4.3573,1.2588,-0.1059,-2.4212,
2.404837,-1.3773,1.2535,-0.2385,13.9649,10.5631,4.3573,1.5282,1.1257,-3.8774,
2.405771,-1.3773,1.2535,-0.2385,-2.9641,5.5400,3.6042,1.5282,1.1257,-3.8774,
2.465081,-1.0658,0.7979,-0.4165,-2.9641,5.5400,3.6042,1.5282,1.1257,-3.8774,
2.466632,-0.7528,0.5342,-0.2869,-2.9641,5.5400,3.6042,1.5282,1.1257,-3.8774,
2.467297,-0.4656,0.3604,-0.3721,-2.9641,5.5400,3.6042,1.5282,1.1257,-3.8774,
2.467841,-0.4656,0.3604,-0.3721,-2.9641,5.5400,3.6042,0.5384,-0.8725,-0.7491,
2.468462,-0.4656,0.3604,-0.3721,-0.3923,-0.2326,0.5631,0.5384,-0.8725,-0.7491,
2.518213,-0.3040,0.1778,-0.0364,-0.3923,-0.2326,0.5631,0.5384,-0.8725,-0.7491,
2.519558,-0.3860,0.1250,0.0269,-0.3923,-0.2326,0.5631,0.5384,-0.8725,-0.7491,
2.520487,-0.3670,0.2229,-0.1030,-0.3923,-0.2326,0.5631,0.5384,-0.8725,-0.7491,
2.521130,-0.3670,0.2229,-0.1030,2.6708,-5.2184,2.9870,0.5384,-0.8725,-0.7491,
2.522204,-0.3670,0.2229,-0.1030,2.6708,-5.2184,2.9870,-0.9161,-0.7790,2.8216,
2.581934,-0.2654,0.2805,-0.1863,2.6708,-5.2184,2.9870,-0.9161,-0.7790,2.8216,
2.584157,-0.2476,0.4087,-0.3138,2.6708,-5.2184,2.9870,-0.9161,-0.7790,2.8216,
2.584957,-0.3145,0.5181,-0.1311,2.6708,-5.2184,2.9870,-0.9161,-0.7790,2.8216,
2.585553,-0.3145,0.5181,-0.1311,2.6708,-5.2184,2.9870,-1.3142,-1.0482,4.9546,
2.586186,-0.3145,0.5181,-0.1311,1.3013,-4.5904,0.3693,-1.3142,-1.0482,4.9546,
2.634609,-0.2937,0.5623,-0.1018,1.3013,-4.5904,0.3693,-1.3142,-1.0482,4.9546,
2.636118,-0.2762,0.6837,-0.2769,1.3013,-4.5904,0.3693,-1.3142,-1.0482,4.9546,
2.637023,-0.2317,1.0829,-0.3494,1.3013,-4.5904,0.3693,-1.3142,-1.0482,4.9546,
2.638053,-0.2317,1.0829,-0.3494,-1.9183,-1.9011,-0.5966,-1.3142,-1.0482,4.9546,
2.639331,-0.2317,1.0829,-0.3494,-1.9183,-1.9011,-0.5966,-1.1945,-0.0749,6.2901,
2.697542,-0.3597,1.4135,-0.4905,-1.9183,-1.9011,-0.5966,-1.1945,-0.0749,6.2901,
2.699246,-0.7247,1.6254,-0.6185,-1.9183,-1.9011,-0.5966,-1.1945,-0.0749,6.2901,
2.700085,-1.0914,1.7302,-0.4773,-1.9183,-1.9011,-0.5966,-1.1945,-0.0749,6.2901,
2.700913,-1.0914,1.7302,-0.4773,-1.9183,-1.9011,-0.5966,-1.3708,1.2997,6.1904,
2.701664,-1.0914,1.7302,-0.4773,-9.7198,6.2103,-4.1723,-1.3708,1.2997,6.1904,
2.751993,-1.2057,1.4574,-0.1553,-9.7198,6.2103,-4.1723,-1.3708,1.2997,6.1904,
2.754205,-0.7554,1.0868,-0.0901,-9.7198,6.2103,-4.1723,-1.3708,1.2997,6.1904,
2.755317,-0.5840,0.9019,-0.2781,-9.7198,6.2103,-4.1723,-1.3708,1.2997,6.1904,
2.757018,-0.5840,0.9019,-0.2781,-12.7921,2.6568,-1.4552,-1.3708,1.2997,6.1904,
2.758958,-0.5840,0.9019,-0.2781,-12.7921,2.6568,-1.4552,-1.5970,-0.1505,4.0713,
2.810750,-0.7481,0.8304,-0.2835,-12.7921,2.6568,-1.4552,-1.5970,-0.1505,4.0713,
2.814448,-0.9112,0.7791,-0.3011,-12.7921,2.6568,-1.4552,-1.5970,-0.1505,4.0713,
2.817006,-0.9247,0.8914,-0.6824,-12.7921,2.6568,-1.4552,-1.5970,-0.1505,4.0713,
2.818755,-0.9247,0.8914,-0.6824,-12.7921,2.6568,-1.4552,-0.2313,-0.4400,-1.0154,
2.820460,-0.9247,0.8914,-0.6824,-12.1438,-0.6691,-3.8063,-0.2313,-0.4400,-1.0154,
2.867337,0.0322,1.7995,-0.5665,-12.1438,-0.6691,-3.8063,-0.2313,-0.4400,-1.0154,
2.869156,2.0578,2.0522,0.4571,-12.1438,-0.6691,-3.8063,-0.2313,-0.4400,-1.0154,
2.869930,0.9439,1.7619,-0.4212,-12.1438,-0.6691,-3.8063,-0.2313,-0.4400,-1.0154,
2.870757,0.9439,1.7619,-0.4212,6.9376,9.0095,-1.1540,-0.2313,-0.4400,-1.0154,
2.871503,0.9439,1.7619,-0.4212,6.9376,9.0095,-1.1540,-0.5634,-2.7475,-1.5223,
2.926546,-0.8990,1.0895,-0.9598,6.9376,9.0095,-1.1540,-0.5634,-2.7475,-1.5223,
2.929734,-0.7847,0.7237,0.1919,6.9376,9.0095,-1.1540,-0.5634,-2.7475,-1.5223,
2.931449,-0.1611,0.6412,0.4407,6.9376,9.0095,-1.1540,-0.5634,-2.7475,-1.5223,
2.933295,-0.1611,0.6412,0.4407,-7.2599,-1.6520,-0.6623,-0.5634,-2.7475,-1.5223,
2.934968,-0.1611,0.6412,0.4407,-7.2599,-1.6520,-0.6623,-0.3598,0.0607,-2.8625,
2.984224,-0.1045,1.0651,0.1257,-7.2599,-1.6520,-0.6623,-0.3598,0.0607,-2.8625,
2.985725,-0.1548,1.1534,-0.1067,-7.2599,-1.6520,-0.6623,-0.3598,0.0607,-2.8625,
2.986527,-0.2520,1.0458,-0.1084,-7.2599,-1.6520,-0.6623,-0.3598,0.0607,-2.8625,
2.987249,-0.2520,1.0458,-0.1084,-2.0091,0.9050,0.1131,-0.3598,0.0607,-2.8625,
2.988177,-0.2520,1.0458,-0.1084,-2.0091,0.9050,0.1131,0.0055,0.0570,-1.5115,
3.042748,-0.2520,1.0458,-0.1084,-0.1120,0.2957,0.0396,0.0055,0.0570,-1.5115,
3.047815,-0.0816,1.0382,-0.1184,-0.1120,0.2957,0.0396,0.0055,0.0570,-1.5115,
3.049263,0.0056,1.0274,-0.0471,-0.1120,0.2957,0.0396,0.0055,0.0570,-1.5115,
3.050088,-0.0378,1.0145,0.0520,-0.1120,0.2957,0.0396,0.0055,0.0570,-1.5115,
3.050721,-0.0378,1.0145,0.0520,-0.1120,0.2957,0.0396,0.0116,-0.1099,-1.0431,
3.100962,-0.0195,0.9984,0.0554,-0.1120,0.2957,0.0396,0.0116,-0.1099,-1.0431,
3.102363,0.0923,0.9752,0.0203,-0.1120,0.2957,0.0396,0.0116,-0.1099,-1.0431,
3.103595,0.0996,0.9757,-0.0098,-0.1120,0.2957,0.0396,0.0116,-0.1099,-1.0431,
3.104320,0.0996,0.9757,-0.0098,-0.1120,0.2957,0.0396,0.1173,-0.0906,-1.1551,
3.104934,0.0996,0.9757,-0.0098,1.4544,-0.0874,0.6767,0.1173,-0.0906,-1.1551,
3.163901,0.0996,0.9757,-0.0098,-0.3218,0.0092,0.2345,0.1173,-0.0906,-1.1551,
3.165397,-0.0908,0.9776,-0.0051,-0.3218,0.0092,0.2345,0.1173,-0.0906,-1.1551,
3.166305,-0.2444,0.9769,-0.0569,-0.3218,0.0092,0.2345,0.1173,-0.0906,-1.1551,
3.167276,-0.2864,0.9891,-0.0415,-0.3218,0.0092,0.2345,0.1173,-0.0906,-1.1551,
3.168129,-0.2864,0.9891,-0.0415,-0.3218,0.0092,0.2345,0.1435,0.4352,-1.4628,
3.220229,-0.2830,1.0094,-0.0532,-0.3218,0.0092,0.2345,0.1435,0.4352,-1.4628,
3.222525,-0.2127,0.9991,-0.0652,-0.3218,0.0092,0.2345,0.1435,0.4352,-1.4628,
3.224629,-0.1558,0.9715,-0.1021,-0.3218,0.0092,0.2345,0.1435,0.4352,-1.4628,
3.226169,-0.1558,0.9715,-0.1021,-0.3218,0.0092,0.2345,0.1741,0.2226,-1.3245,
3.228204,-0.1558,0.9715,-0.1021,0.3040,0.2896,-0.0241,0.1741,0.2226,-1.3245,
3.278156,-0.1209,0.9395,-0.1272,0.3040,0.2896,-0.0241,0.1741,0.2226,-1.3245,
3.280417,-0.1299,0.9520,-0.1057,0.3040,0.2896,-0.0241,0.1741,0.2226,-1.3245,
3.282340,-0.2058,1.0787,-0.0737,0.3040,0.2896,-0.0241,0.1741,0.2226,-1.3245,
3.284761,-0.2058,1.0787,-0.0737,0.3040,0.2896,-0.0241,0.1710,0.2354,-1.6047,
3.286957,-0.2058,1.0787,-0.0737,1.7701,0.5241,-0.1704,0.1710,0.2354,-1.6047,
3.335358,-0.2747,1.2018,-0.0798,1.7701,0.5241,-0.1704,0.1710,0.2354,-1.6047,
3.338447,-0.2207,1.1996,-0.0935,1.7701,0.5241,-0.1704,0.1710,0.2354,-1.6047,
3.342210,-0.0906,1.1881,-0.1038,1.7701,0.5241,-0.1704,0.1710,0.2354,-1.6047,
3.344443,-0.0906,1.1881,-0.1038,2.3361,2.9480,0.1040,0.1710,0.2354,-1.6047,
3.345619,-0.0906,1.1881,-0.1038,2.3361,2.9480,0.1040,0.3500,-0.0077,-1.9688,
3.394253,-0.0757,1.2040,-0.1402,2.3361,2.9480,0.1040,0.3500,-0.0077,-1.9688,
3.397255,-0.1033,1.3454,-0.1160,2.3361,2.9480,0.1040,0.3500,-0.0077,-1.9688,
3.399251,0.1204,1.8437,-0.0103,2.3361,2.9480,0.1040,0.3500,-0.0077,-1.9688,
3.401090,0.1204,1.8437,-0.0103,5.0843,6.1696,0.5915,0.3500,-0.0077,-1.9688,
3.403100,0.1204,1.8437,-0.0103,5.0843,6.1696,0.5915,0.6457,0.5089,-2.3365,
3.451287,0.8617,2.0832,0.0281,5.0843,6.1696,0.5915,0.6457,0.5089,-2.3365,
3.454377,1.1947,1.6471,-0.0925,5.0843,6.1696,0.5915,0.6457,0.5089,-2.3365,
3.456060,0.3125,1.0616,-0.0554,5.0843,6.1696,0.5915,0.6457,0.5089,-2.3365,
3.457711,0.3125,1.0616,-0.0554,5.0843,6.1696,0.5915,0.4748,1.6133,-2.5530,
3.459699,0.3125,1.0616,-0.0554,13.7582,8.2448,1.8041,0.4748,1.6133,-2.5530,
3.510832,-0.7286,0.9842,-0.2757,13.7582,8.2448,1.8041,0.4748,1.6133,-2.5530,
3.514316,-1.0751,1.2770,-0.3714,13.7582,8.2448,1.8041,0.4748,1.6133,-2.5530,
3.516076,-0.7752,1.0609,-0.2888,13.7582,8.2448,1.8041,0.4748,1.6133,-2.5530,
3.517780,-0.7752,1.0609,-0.2888,13.7582,8.2448,1.8041,0.8528,3.2775,-3.7945,
3.519687,-0.7752,1.0609,-0.2888,-1.4798,4.9544,0.7086,0.8528,3.2775,-3.7945,
3.574202,-0.5364,0.5335,-0.3533,-1.4798,4.9544,0.7086,0.8528,3.2775,-3.7945,
3.577819,-0.7381,0.3604,-0.3794,-1.4798,4.9544,0.7086,0.8528,3.2775,-3.7945,
3.579545,-0.8241,0.3406,-0.6942,-1.4798,4.9544,0.7086,0.8528,3.2775,-3.7945,
3.581622,-0.8241,0.3406,-0.6942,0.1451,-1.3906,-0.3560,0.8528,3.2775,-3.7945,
3.583795,-0.8241,0.3406,-0.6942,0.1451,-1.3906,-0.3560,-0.1055,1.3836,-1.1724,
3.628756,-0.6299,0.2920,-0.4820,0.1451,-1.3906,-0.3560,-0.1055,1.3836,-1.1724,
3.633148,-0.4710,0.1663,-0.2288,0.1451,-1.3906,-0.3560,-0.1055,1.3836,-1.1724,
3.634851,-0.3350,0.1609,-0.2195,0.1451,-1.3906,-0.3560,-0.1055,1.3836,-1.1724,
3.636325,-0.3350,0.1609,-0.2195,0.1451,-1.3906,-0.3560,-1.6103,-0.5944,2.1446,
3.638595,-0.3350,0.1609,-0.2195,1.6558,-4.5317,0.4668,-1.6103,-0.5944,2.1446,
3.685966,-0.1375,0.2276,-0.3997,1.6558,-4.5317,0.4668,-1.6103,-0.5944,2.1446,
3.689779,-0.0579,0.3006,-0.3379,1.6558,-4.5317,0.4668,-1.6103,-0.5944,2.1446,
3.692420,-0.1524,0.4087,-0.2803,1.6558,-4.5317,0.4668,-1.6103,-0.5944,2.1446,
3.695250,-0.1524,0.4087,-0.2803,1.6558,-4.5317,0.4668,-1.6659,-1.6748,4.7292,
3.698367,-0.1524,0.4087,-0.2803,3.3580,-5.2041,-1.0599,-1.6659,-1.6748,4.7292,
3.743680,-0.2346,0.4607,-0.2342,3.3580,-5.2041,-1.0599,-1.6659,-1.6748,4.7292,
3.747565,-0.1944,0.5635,-0.2288,3.3580,-5.2041,-1.0599,-1.6659,-1.6748,4.7292,
3.749641,-0.1607,0.9410,-0.4300,3.3580,-5.2041,-1.0599,-1.6659,-1.6748,4.7292,
3.751798,-0.1607,0.9410,-0.4300,3.3580,-5.2041,-1.0599,-0.4993,-0.5174,5.9287,
3.754518,-0.1607,0.9410,-0.4300,-0.4474,-2.9033,-0.9976,-0.4993,-0.5174,5.9287,
3.803412,-0.3682,1.4105,-0.4178,-0.4474,-2.9033,-0.9976,-0.4993,-0.5174,5.9287,
3.807427,-0.8458,1.7114,-0.3155,-0.4474,-2.9033,-0.9976,-0.4993,-0.5174,5.9287,
3.809974,-1.1849,1.8859,-0.2681,-0.4474,-2.9033,-0.9976,-0.4993,-0.5174,5.9287,
3.812227,-1.1849,1.8859,-0.2681,-0.4474,-2.9033,-0.9976,-0.5724,-0.4592,6.4944,
3.814805,-1.1849,1.8859,-0.2681,-9.7116,6.9654,-1.6325,-0.5724,-0.4592,6.4944,
3.861711,-1.2977,1.6379,-0.0850,-9.7116,6.9654,-1.6325,-0.5724,-0.4592,6.4944,
3.866555,-0.7130,1.1246,0.1392,-9.7116,6.9654,-1.6325,-0.5724,-0.4592,6.4944,
3.868930,-0.3160,0.9259,-0.0061,-9.7116,6.9654,-1.6325,-0.5724,-0.4592,6.4944,
3.871295,-0.3160,0.9259,-0.0061,-9.7116,6.9654,-1.6325,-0.9915,-2.1690,4.5070,
3.873889,-0.3160,0.9259,-0.0061,-11.4742,3.3001,1.6538,-0.9915,-2.1690,4.5070,
3.918105,-0.6136,0.9176,-0.1035,-11.4742,3.3001,1.6538,-0.9915,-2.1690,4.5070,
3.921285,-0.9549,0.8226,-0.3543,-11.4742,3.3001,1.6538,-0.9915,-2.1690,4.5070,
3.923102,-0.8595,1.3109,-0.9576,-11.4742,3.3001,1.6538,-0.9915,-2.1690,4.5070,
3.925953,-0.8595,1.3109,-0.9576,-11.4742,3.3001,1.6538,-0.3270,-0.4361,-1.3072,
3.928815,-0.8595,1.3109,-0.9576,-10.9027,0.9086,-3.1393,-0.3270,-0.4361,-1.3072,
3.977797,0.9107,2.1430,0.7130,-10.9027,0.9086,-3.1393,-0.3270,-0.4361,-1.3072,
3.981700,1.3134,1.8911,-0.3377,-10.9027,0.9086,-3.1393,-0.3270,-0.4361,-1.3072,
3.983914,-0.2520,0.8802,-1.3046,-10.9027,0.9086,-3.1393,-0.3270,-0.4361,-1.3072,
3.985161,-0.2520,0.8802,-1.3046,-10.9027,0.9086,-3.1393,-0.7033,-2.1384,-1.8631,
3.986381,-0.2520,0.8802,-1.3046,4.5764,6.5649,-1.6108,-0.7033,-2.1384,-1.8631,
4.038705,-0.5059,0.5103,0.1362,4.5764,6.5649,-1.6108,-0.7033,-2.1384,-1.8631,
4.040996,-0.3667,0.7269,0.1939,4.5764,6.5649,-1.6108,-0.7033,-2.1384,-1.8631,
4.043160,-0.4092,1.0831,0.1150,4.5764,6.5649,-1.6108,-0.7033,-2.1384,-1.8631,
4.045366,-0.4092,1.0831,0.1150,4.5764,6.5649,-1.6108,-0.3700,0.1680,-2.3038,
4.047299,-0.4092,1.0831,0.1150,-4.6936,-2.0659,2.6296,-0.3700,0.1680,-2.3038,
4.093195,-0.2603,1.1366,-0.1018,-4.6936,-2.0659,2.6296,-0.3700,0.1680,-2.3038,
4.095764,-0.1631,0.9867,-0.1751,-4.6936,-2.0659,2.6296,-0.3700,0.1680,-2.3038,
4.096934,-0.0730,1.0108,-0.1941,-4.6936,-2.0659,2.6296,-0.3700,0.1680,-2.3038,
4.097899,-0.0730,1.0108,-0.1941,-4.6936,-2.0659,2.6296,-0.0532,-0.2830,-1.0189,
4.098794,-0.0730,1.0108,-0.1941,-1.5090,0.5666,-0.3852,-0.0532,-0.2830,-1.0189,
4.153517,-0.0632,1.0377,-0.1309,-1.5090,0.5666,-0.3852,-0.0532,-0.2830,-1.0189,
4.158112,-0.0933,0.9972,-0.0757,-1.5090,0.5666,-0.3852,-0.0532,-0.2830,-1.0189,
4.160030,-0.1292,0.9520,-0.0471,-1.5090,0.5666,-0.3852,-0.0532,-0.2830,-1.0189,
4.161764,-0.1292,0.9520,-0.0471,-1.5090,0.5666,-0.3852,-0.0542,-0.4017,-0.7188,
4.164268,-0.1292,0.9520,-0.0471,-0.3824,0.0942,0.2811,-0.0542,-0.4017,-0.7188,
4.211482,-0.1423,0.9571,-0.1126,-0.3824,0.0942,0.2811,-0.0542,-0.4017,-0.7188,
4.215917,-0.0852,0.9928,-0.1043,-0.3824,0.0942,0.2811,-0.0542,-0.4017,-0.7188,
4.218460,-0.0503,0.9986,-0.1006,-0.3824,0.0942,0.2811,-0.0542,-0.4017,-0.7188,
4.220440,-0.0503,0.9986,-0.1006,-0.3824,0.0942,0.2811,-0.0051,-0.0961,-0.5654,
4.222561,-0.0503,0.9986,-0.1006,-0.0318,-0.0077,0.0654,-0.0051,-0.0961,-0.5654,
4.269903,-0.0503,0.9986,-0.1006,0.4060,0.1390,0.1779,-0.0051,-0.0961,-0.5654,
4.275067,-0.0625,0.9967,-0.0979,0.4060,0.1390,0.1779,-0.0051,-0.0961,-0.5654,
4.276957,-0.0828,0.9960,-0.1096,0.4060,0.1390,0.1779,-0.0051,-0.0961,-0.5654,
4.279120,-0.1030,0.9891,-0.0813,0.4060,0.1390,0.1779,-0.0051,-0.0961,-0.5654,
4.280910,-0.1030,0.9891,-0.0813,0.4060,0.1390,0.1779,0.0320,0.0650,-0.6282,
4.328186,-0.1030,0.9891,-0.0813,0.9370,0.0799,0.5692,0.0320,0.0650,-0.6282,
4.331774,-0.0715,0.9759,-0.0535,0.9370,0.0799,0.5692,0.0320,0.0650,-0.6282,
4.334895,-0.0483,0.9781,-0.0481,0.9370,0.0799,0.5692,0.0320,0.0650,-0.6282,
4.337133,-0.0896,0.9879,-0.0886,0.9370,0.0799,0.5692,0.0320,0.0650,-0.6282,
4.339016,-0.0896,0.9879,-0.0886,0.9370,0.0799,0.5692,0.1209,0.1338,-0.7682,
4.386402,-0.0896,0.9879,-0.0886,2.3768,1.2137,0.3572,0.1209,0.1338,-0.7682,
4.389777,-0.0659,1.0121,-0.1016,2.3768,1.2137,0.3572,0.1209,0.1338,-0.7682,
4.391453,0.0063,1.0692,-0.1235,2.3768,1.2137,0.3572,0.1209,0.1338,-0.7682,
4.393502,0.1126,1.1696,-0.0698,2.3768,1.2137,0.3572,0.1209,0.1338,-0.7682,
4.395422,0.1126,1.1696,-0.0698,2.3768,1.2137,0.3572,0.2394,0.0395,-1.1335,
4.444950,0.3018,1.2973,-0.0024,2.3768,1.2137,0.3572,0.2394,0.0395,-1.1335,
4.448266,0.4266,1.5153,-0.0344,2.3768,1.2137,0.3572,0.2394,0.0395,-1.1335,
4.450469,0.5418,1.7416,-0.2454,2.3768,1.2137,0.3572,0.2394,0.0395,-1.1335,
4.452127,0.5418,1.7416,-0.2454,2.3768,1.2137,0.3572,0.5227,0.2824,-2.0885,
4.454222,0.5418,1.7416,-0.2454,7.3280,5.7549,0.7138,0.5227,0.2824,-2.0885,
4.501842,0.4041,1.7363,-0.4429,7.3280,5.7549,0.7138,0.5227,0.2824,-2.0885,
4.505633,-0.0867,1.2445,-0.4075,7.3280,5.7549,0.7138,0.5227,0.2824,-2.0885,
4.507583,-0.7069,0.6373,-0.1223,7.3280,5.7549,0.7138,0.5227,0.2824,-2.0885,
4.509582,-0.7069,0.6373,-0.1223,7.3280,5.7549,0.7138,1.1193,0.4136,-3.3327,
4.511609,-0.7069,0.6373,-0.1223,3.4910,3.5461,-0.8634,1.1193,0.4136,-3.3327,
4.560548,-1.3964,0.4082,-0.1436,3.4910,3.5461,-0.8634,1.1193,0.4136,-3.3327,
4.564604,-1.6491,0.4397,-0.3345,3.4910,3.5461,-0.8634,1.1193,0.4136,-3.3327,
4.566581,-0.9830,0.2241,-0.2842,3.4910,3.5461,-0.8634,1.1193,0.4136,-3.3327,
4.568469,-0.9830,0.2241,-0.2842,3.4910,3.5461,-0.8634,1.6827,-1.4483,-2.1109,
4.570464,-0.9830,0.2241,-0.2842,-7.0948,-3.8033,0.1206,1.6827,-1.4483,-2.1109,
4.619270,-0.4192,-0.0188,-0.2793,-7.0948,-3.8033,0.1206,1.6827,-1.4483,-2.1109,
4.623120,-0.0842,0.1988,-0.4214,-7.0948,-3.8033,0.1206,1.6827,-1.4483,-2.1109,
4.625615,0.6297,0.0010,0.0649,-7.0948,-3.8033,0.1206,1.6827,-1.4483,-2.1109,
4.627289,0.6297,0.0010,0.0649,-7.0948,-3.8033,0.1206,1.7538,-2.6827,1.4952,
4.629430,0.6297,0.0010,0.0649,6.1254,-6.8628,0.3316,1.7538,-2.6827,1.4952,
4.678741,0.2361,-0.0071,-0.1431,6.1254,-6.8628,0.3316,1.7538,-2.6827,1.4952,
4.683156,-0.3662,0.4134,-0.3145,6.1254,-6.8628,0.3316,1.7538,-2.6827,1.4952,
4.685559,-0.6978,0.6988,-0.3982,6.1254,-6.8628,0.3316,1.7538,-2.6827,1.4952,
4.687716,-0.6978,0.6988,-0.3982,6.1254,-6.8628,0.3316,2.6318,-2.8000,3.1580,
4.689763,-0.6978,0.6988,-0.3982,1.9590,-4.3442,-0.0574,2.6318,-2.8000,3.1580,
4.735179,-0.8932,0.8568,-0.4358,1.9590,-4.3442,-0.0574,2.6318,-2.8000,3.1580,
4.738410,-0.8380,0.8348,-0.2495,1.9590,-4.3442,-0.0574,2.6318,-2.8000,3.1580,
4.740431,-0.4571,0.8390,-0.3672,1.9590,-4.3442,-0.0574,2.6318,-2.8000,3.1580,
4.742006,-0.4571,0.8390,-0.3672,1.9590,-4.3442,-0.0574,2.9238,-6.4294,5.3869,
4.744240,-0.4571,0.8390,-0.3672,-4.0215,-0.4301,-0.7098,2.9238,-6.4294,5.3869,
4.793726,-0.0432,1.0607,-0.3951,-4.0215,-0.4301,-0.7098,2.9238,-6.4294,5.3869,
4.796908,0.0117,1.3146,0.1074,-4.0215,-0.4301,-0.7098,2.9238,-6.4294,5.3869,
4.798613,-0.8390,1.4550,0.3391,-4.0215,-0.4301,-0.7098,2.9238,-6.4294,5.3869,
4.800677,-0.8390,1.4550,0.3391,-4.0215,-0.4301,-0.7098,2.5284,-7.6413,4.7253,
4.803347,-0.8390,1.4550,0.3391,-0.8880,3.4838,3.0500,2.5284,-7.6413,4.7253,
4.852231,-1.8058,1.9526,0.8665,-0.8880,3.4838,3.0500,2.5284,-7.6413,4.7253,
4.856012,0.1660,0.7879,1.7460,-0.8880,3.4838,3.0500,2.5284,-7.6413,4.7253,
4.858080,1.8088,0.4683,-0.2049,-0.8880,3.4838,3.0500,2.5284,-7.6413,4.7253,
4.859678,1.8088,0.4683,-0.2049,-0.8880,3.4838,3.0500,-0.0599,-2.0729,1.0921,
4.862382,1.8088,0.4683,-0.2049,2.2402,1.3087,10.3193,-0.0599,-2.0729,1.0921,
4.916787,1.8088,0.4683,-0.2049,-1.2881,4.3674,-3.2136,-0.0599,-2.0729,1.0921,
4.921228,1.0878,1.6449,-1.2067,-1.2881,4.3674,-3.2136,-0.0599,-2.0729,1.0921,
4.923770,-0.7818,1.6486,-0.0432,-1.2881,4.3674,-3.2136,-0.0599,-2.0729,1.0921,
4.924931,-1.3219,0.8421,-0.5460,-1.2881,4.3674,-3.2136,-0.0599,-2.0729,1.0921,
4.925952,-1.3219,0.8421,-0.5460,-1.2881,4.3674,-3.2136,0.1169,0.7386,-0.8080,
4.969458,-0.6441,0.8914,-0.4458,-1.2881,4.3674,-3.2136,0.1169,0.7386,-0.8080,
4.972586,-0.3355,1.0299,-0.1709,-1.2881,4.3674,-3.2136,0.1169,0.7386,-0.8080,
4.974576,0.0288,0.9828,-0.1062,-1.2881,4.3674,-3.2136,0.1169,0.7386,-0.8080,
4.976230,0.0288,0.9828,-0.1062,-1.2881,4.3674,-3.2136,-0.0226,-1.8206,0.5712,
4.978724,0.0288,0.9828,-0.1062,-1.0923,0.2685,0.0612,-0.0226,-1.8206,0.5712,
5.027186,0.0764,0.9127,-0.1389,-1.0923,0.2685,0.0612,-0.0226,-1.8206,0.5712,
5.030654,-0.2246,0.9300,-0.2810,-1.0923,0.2685,0.0612,-0.0226,-1.8206,0.5712,
5.033335,-0.4573,0.9867,-0.3181,-1.0923,0.2685,0.0612,-0.0226,-1.8206,0.5712,
5.035697,-0.4573,0.9867,-0.3181,-1.0923,0.2685,0.0612,0.2413,-0.2407,0.3144,
5.037714,-0.4573,0.9867,-0.3181,-0.0984,0.0227,0.1113,0.2413,-0.2407,0.3144,
5.086717,-0.4573,0.9867,-0.3181,-1.1548,0.1246,0.1698,0.2413,-0.2407,0.3144,
5.089366,-0.4268,0.9933,-0.2864,-1.1548,0.1246,0.1698,0.2413,-0.2407,0.3144,
5.090604,-0.2764,0.9479,-0.2398,-1.1548,0.1246,0.1698,0.2413,-0.2407,0.3144,
5.091764,-0.1397,0.9322,-0.2117,-1.1548,0.1246,0.1698,0.2413,-0.2407,0.3144,
5.092772,-0.1397,0.9322,-0.2117,-1.1548,0.1246,0.1698,0.1722,-0.3170,0.6459,
5.145099,0.0100,0.9124,-0.2092,-1.1548,0.1246,0.1698,0.1722,-0.3170,0.6459,
5.147907,0.0156,0.9349,-0.2320,-1.1548,0.1246,0.1698,0.1722,-0.3170,0.6459,
5.150183,-0.0918,0.9906,-0.2879,-1.1548,0.1246,0.1698,0.1722,-0.3170,0.6459,
5.151863,-0.0918,0.9906,-0.2879,-1.1548,0.1246,0.1698,0.1543,-0.4695,0.5030,
5.153680,-0.0918,0.9906,-0.2879,1.1619,-0.0113,0.2374,0.1543,-0.4695,0.5030,
5.202613,-0.0847,1.0023,-0.2771,1.1619,-0.0113,0.2374,0.1543,-0.4695,0.5030,
5.207412,-0.0442,1.0108,-0.1856,1.1619,-0.0113,0.2374,0.1543,-0.4695,0.5030,
5.208931,0.0596,0.9798,-0.0737,1.1619,-0.0113,0.2374,0.1543,-0.4695,0.5030,
5.210625,0.0596,0.9798,-0.0737,1.1619,-0.0113,0.2374,0.2411,-0.0900,0.1454,
5.213103,0.0596,0.9798,-0.0737,1.0685,0.5127,0.9735,0.2411,-0.0900,0.1454,
5.260801,0.0515,0.9298,-0.0383,1.0685,0.5127,0.9735,0.2411,-0.0900,0.1454,
5.264332,0.0823,0.9210,-0.0378,1.0685,0.5127,0.9735,0.2411,-0.0900,0.1454,
5.266004,0.0730,0.9708,-0.1248,1.0685,0.5127,0.9735,0.2411,-0.0900,0.1454,
5.267929,0.0730,0.9708,-0.1248,1.0685,0.5127,0.9735,0.6864,-0.1417,-0.3594,
5.269926,0.0730,0.9708,-0.1248,2.1506,0.0969,2.3855,0.6864,-0.1417,-0.3594,
5.320604,-0.1333,0.9996,-0.2671,2.1506,0.0969,2.3855,0.6864,-0.1417,-0.3594,
5.325465,-0.3233,1.0892,-0.3328,2.1506,0.0969,2.3855,0.6864,-0.1417,-0.3594,
5.327387,-0.2769,1.1278,-0.3501,2.1506,0.0969,2.3855,0.6864,-0.1417,-0.3594,
5.329084,-0.2769,1.1278,-0.3501,2.1506,0.0969,2.3855,1.2150,0.1713,-0.7471,
5.331013,-0.2769,1.1278,-0.3501,-0.5553,1.6700,0.5812,1.2150,0.1713,-0.7471,
5.377978,-0.1585,1.0922,-0.4087,-0.5553,1.6700,0.5812,1.2150,0.1713,-0.7471,
5.381150,-0.1065,1.1407,-0.4290,-0.5553,1.6700,0.5812,1.2150,0.1713,-0.7471,
5.383225,0.0501,1.2521,-0.3582,-0.5553,1.6700,0.5812,1.2150,0.1713,-0.7471,
5.385365,0.0501,1.2521,-0.3582,-0.5553,1.6700,0.5812,1.5734,-0.1221,-0.4695,
5.387025,0.0501,1.2521,-0.3582,1.3826,2.9254,0.5462,1.5734,-0.1221,-0.4695,
5.437301,0.3282,1.5458,-0.1333,1.3826,2.9254,0.5462,1.5734,-0.1221,-0.4695,
5.441684,0.6024,1.8798,0.1025,1.3826,2.9254,0.5462,1.5734,-0.1221,-0.4695,
5.444881,0.4827,1.8874,0.3304,1.3826,2.9254,0.5462,1.5734,-0.1221,-0.4695,
5.447107,0.4827,1.8874,0.3304,1.3826,2.9254,0.5462,2.3830,-1.7603,-0.6536,
5.449232,0.4827,1.8874,0.3304,7.3929,9.5127,6.1927,2.3830,-1.7603,-0.6536,
5.494948,0.2244,1.6669,0.7237,7.3929,9.5127,6.1927,2.3830,-1.7603,-0.6536,
5.499315,-0.5215,1.4015,0.5630,7.3929,9.5127,6.1927,2.3830,-1.7603,-0.6536,
5.501300,-1.2003,1.4782,0.0811,7.3929,9.5127,6.1927,2.3830,-1.7603,-0.6536,
5.504395,-1.2003,1.4782,0.0811,7.3929,9.5127,6.1927,1.9098,-2.9482,-1.8222,
5.506633,-1.2003,1.4782,0.0811,-0.4023,7.8639,9.7188,1.9098,-2.9482,-1.8222,
5.553070,-1.1012,1.3263,-0.2581,-0.4023,7.8639,9.7188,1.9098,-2.9482,-1.8222,
5.557842,-0.7347,1.0377,-0.4656,-0.4023,7.8639,9.7188,1.9098,-2.9482,-1.8222,
5.559566,-0.3655,0.9017,-0.2783,-0.4023,7.8639,9.7188,1.9098,-2.9482,-1.8222,
5.561433,-0.3655,0.9017,-0.2783,-0.4023,7.8639,9.7188,1.5029,-3.7953,-1.0820,
5.563383,-0.3655,0.9017,-0.2783,-1.1553,4.3740,1.3594,1.5029,-3.7953,-1.0820,
5.611211,-0.0137,0.4710,0.0188,-1.1553,4.3740,1.3594,1.5029,-3.7953,-1.0820,
5.615190,0.0591,0.3587,-0.0083,-1.1553,4.3740,1.3594,1.5029,-3.7953,-1.0820,
5.617103,-0.0305,0.3951,-0.0159,-1.1553,4.3740,1.3594,1.5029,-3.7953,-1.0820,
5.618807,-0.0305,0.3951,-0.0159,-1.1553,4.3740,1.3594,0.1692,-3.9317,1.6374,
5.620833,-0.0305,0.3951,-0.0159,6.2686,-2.8024,3.1777,0.1692,-3.9317,1.6374,
5.667713,-0.1702,0.4300,-0.0015,6.2686,-2.8024,3.1777,0.1692,-3.9317,1.6374,
5.669194,-0.2039,0.4261,-0.0369,6.2686,-2.8024,3.1777,0.1692,-3.9317,1.6374,
5.670054,-0.1885,0.4617,-0.1065,6.2686,-2.8024,3.1777,0.1692,-3.9317,1.6374,
5.670809,-0.1885,0.4617,-0.1065,6.2686,-2.8024,3.1777,-0.1546,-1.7285,3.6933,
5.672009,-0.1885,0.4617,-0.1065,3.0171,-3.6748,2.0308,-0.1546,-1.7285,3.6933,
5.727430,-0.1843,0.5491,-0.1587,3.0171,-3.6748,2.0308,-0.1546,-1.7285,3.6933,
5.730557,-0.2136,0.7191,-0.1585,3.0171,-3.6748,2.0308,-0.1546,-1.7285,3.6933,
5.734081,-0.2405,0.9400,-0.1480,3.0171,-3.6748,2.0308,-0.1546,-1.7285,3.6933,
5.736927,-0.2405,0.9400,-0.1480,3.0171,-3.6748,2.0308,-0.2301,-0.2502,5.5673,
5.739905,-0.2405,0.9400,-0.1480,-0.0006,-1.9083,0.7826,-0.2301,-0.2502,5.5673,
5.785783,-0.2600,1.1862,-0.1516,-0.0006,-1.9083,0.7826,-0.2301,-0.2502,5.5673,
5.789656,-0.3474,1.5067,-0.2371,-0.0006,-1.9083,0.7826,-0.2301,-0.2502,5.5673,
5.791963,-0.5699,1.7094,-0.4278,-0.0006,-1.9083,0.7826,-0.2301,-0.2502,5.5673,
5.794745,-0.5699,1.7094,-0.4278,-0.0006,-1.9083,0.7826,-0.8235,-0.0533,6.7308,
5.797258,-0.5699,1.7094,-0.4278,-5.3314,4.9718,-0.8052,-0.8235,-0.0533,6.7308,
5.844150,-0.8409,1.6608,-0.3435,-5.3314,4.9718,-0.8052,-0.8235,-0.0533,6.7308,
5.849593,-1.0333,1.5573,-0.0928,-5.3314,4.9718,-0.8052,-0.8235,-0.0533,6.7308,
5.852507,-0.9078,1.3060,0.0540,-5.3314,4.9718,-0.8052,-0.8235,-0.0533,6.7308,
5.855846,-0.9078,1.3060,0.0540,-5.3314,4.9718,-0.8052,-1.2910,-0.2044,5.5569,
5.858531,-0.9078,1.3060,0.0540,-13.2672,6.1128,-0.0277,-1.2910,-0.2044,5.5569,
5.902013,-0.8053,1.0287,-0.1411,-13.2672,6.1128,-0.0277,-1.2910,-0.2044,5.5569,
5.905963,-1.0455,0.8392,-0.1035,-13.2672,6.1128,-0.0277,-1.2910,-0.2044,5.5569,
5.907922,-1.1327,0.8199,-0.1521,-13.2672,6.1128,-0.0277,-1.2910,-0.2044,5.5569,
5.909878,-1.1327,0.8199,-0.1521,-13.2672,6.1128,-0.0277,-0.5722,-0.6811,0.5339,
5.911889,-1.1327,0.8199,-0.1521,-13.9124,0.2073,-0.1769,-0.5722,-0.6811,0.5339,
5.960515,-0.9386,1.0546,-0.4048,-13.9124,0.2073,-0.1769,-0.5722,-0.6811,0.5339,
5.965509,0.3013,1.4862,-0.5254,-13.9124,0.2073,-0.1769,-0.5722,-0.6811,0.5339,
5.967977,2.2629,1.7165,-0.2859,-13.9124,0.2073,-0.1769,-0.5722,-0.6811,0.5339,
5.970640,2.2629,1.7165,-0.2859,-13.9124,0.2073,-0.1769,-0.3688,-1.9429,-2.0547,
5.973532,2.2629,1.7165,-0.2859,2.3007,4.7993,-2.5866,-0.3688,-1.9429,-2.0547,
6.018583,1.5065,1.7341,-0.6751,2.3007,4.7993,-2.5866,-0.3688,-1.9429,-2.0547,
6.021405,-0.8429,1.4657,-0.8136,2.3007,4.7993,-2.5866,-0.3688,-1.9429,-2.0547,
6.023535,-1.4672,0.9530,0.0322,2.3007,4.7993,-2.5866,-0.3688,-1.9429,-2.0547,
6.025895,-1.4672,0.9530,0.0322,2.3007,4.7993,-2.5866,-0.5486,-1.2142,-2.4261,
6.028345,-1.4672,0.9530,0.0322,-4.1514,4.0212,-3.4419,-0.5486,-1.2142,-2.4261,
6.077171,-0.4229,0.4400,0.7252,-4.1514,4.0212,-3.4419,-0.5486,-1.2142,-2.4261,
6.081056,0.1660,0.8243,0.3829,-4.1514,4.0212,-3.4419,-0.5486,-1.2142,-2.4261,
6.083384,0.1575,1.2196,-0.1797,-4.1514,4.0212,-3.4419,-0.5486,-1.2142,-2.4261,
6.084561,0.1575,1.2196,-0.1797,-4.1514,4.0212,-3.4419,-0.3730,-0.3903,-1.3186,
6.085680,0.1575,1.2196,-0.1797,-1.0654,-1.5192,4.0975,-0.3730,-0.3903,-1.3186,
6.136132,-0.3313,1.2081,-0.2827,-1.0654,-1.5192,4.0975,-0.3730,-0.3903,-1.3186,
6.140244,-0.1853,1.1139,-0.3072,-1.0654,-1.5192,4.0975,-0.3730,-0.3903,-1.3186,
6.143649,0.1050,0.9847,-0.1550,-1.0654,-1.5192,4.0975,-0.3730,-0.3903,-1.3186,
6.146087,0.1050,0.9847,-0.1550,-1.0654,-1.5192,4.0975,-0.1214,0.2651,-0.7719,
6.148389,0.1050,0.9847,-0.1550,-1.6387,1.1187,-1.4192,-0.1214,0.2651,-0.7719,
6.193747,0.1047,0.9999,-0.0059,-1.6387,1.1187,-1.4192,-0.1214,0.2651,-0.7719,
6.198429,0.2173,0.9610,0.0989,-1.6387,1.1187,-1.4192,-0.1214,0.2651,-0.7719,
6.200779,0.3203,0.9259,0.1172,-1.6387,1.1187,-1.4192,-0.1214,0.2651,-0.7719,
6.203340,0.3203,0.9259,0.1172,-1.6387,1.1187,-1.4192,-0.0010,-0.1739,-0.7200,
6.204764,0.3203,0.9259,0.1172,2.1847,-0.2526,1.6721,-0.0010,-0.1739,-0.7200,
6.253125,0.3282,0.9154,0.1067,2.1847,-0.2526,1.6721,-0.0010,-0.1739,-0.7200,
6.257672,0.1904,0.9193,0.1084,2.1847,-0.2526,1.6721,-0.0010,-0.1739,-0.7200,
6.259969,-0.1025,0.9684,-0.0286,2.1847,-0.2526,1.6721,-0.0010,-0.1739,-0.7200,
6.262238,-0.1025,0.9684,-0.0286,2.1847,-0.2526,1.6721,0.1686,0.2491,-1.5701,
6.264260,-0.1025,0.9684,-0.0286,2.2762,-0.4603,1.6702,0.1686,0.2491,-1.5701,
6.310298,-0.2464,1.0077,-0.0598,2.2762,-0.4603,1.6702,0.1686,0.2491,-1.5701,
6.314346,-0.2176,0.9901,-0.0120,2.2762,-0.4603,1.6702,0.1686,0.2491,-1.5701,
6.316742,-0.1611,0.9872,-0.0598,2.2762,-0.4603,1.6702,0.1686,0.2491,-1.5701,
6.318326,-0.1611,0.9872,-0.0598,2.2762,-0.4603,1.6702,0.2706,0.1635,-1.7240,
6.321405,-0.1611,0.9872,-0.0598,-0.1728,0.2871,0.7811,0.2706,0.1635,-1.7240,
6.368818,-0.1548,1.0177,-0.1336,-0.1728,0.2871,0.7811,0.2706,0.1635,-1.7240,
6.372442,-0.3030,1.0231,-0.2136,-0.1728,0.2871,0.7811,0.2706,0.1635,-1.7240,
6.374956,-0.3809,0.9842,-0.2544,-0.1728,0.2871,0.7811,0.2706,0.1635,-1.7240,
6.376626,-0.3809,0.9842,-0.2544,-0.1728,0.2871,0.7811,0.3087,0.0756,-1.6652,
6.378645,-0.3809,0.9842,-0.2544,0.0313,0.6558,-0.5665,0.3087,0.0756,-1.6652,
6.428057,-0.2464,1.0255,-0.2263,0.0313,0.6558,-0.5665,0.3087,0.0756,-1.6652,
6.432482,-0.1016,1.1002,-0.1765,0.0313,0.6558,-0.5665,0.3087,0.0756,-1.6652,
6.434641,-0.0422,1.1715,-0.1370,0.0313,0.6558,-0.5665,0.3087,0.0756,-1.6652,
6.436624,-0.0422,1.1715,-0.1370,2.3003,1.8445,-0.1586,0.3087,0.0756,-1.6652,
6.438663,-0.0422,1.1715,-0.1370,2.3003,1.8445,-0.1586,0.3337,0.1432,-1.6174,
6.485718,0.0073,1.2406,-0.1106,2.3003,1.8445,-0.1586,0.3337,0.1432,-1.6174,
6.488405,0.0105,1.3163,-0.0901,2.3003,1.8445,-0.1586,0.3337,0.1432,-1.6174,
6.490067,0.0776,1.3922,-0.0798,2.3003,1.8445,-0.1586,0.3337,0.1432,-1.6174,
6.491666,0.0776,1.3922,-0.0798,4.9425,4.5149,1.0077,0.3337,0.1432,-1.6174,
6.493854,0.0776,1.3922,-0.0798,4.9425,4.5149,1.0077,0.7469,-0.1562,-2.2294,
6.543410,0.2488,1.7013,-0.0847,4.9425,4.5149,1.0077,0.7469,-0.1562,-2.2294,
6.546651,0.8895,1.9834,0.0520,4.9425,4.5149,1.0077,0.7469,-0.1562,-2.2294,
6.548378,1.0980,1.6718,0.0305,4.9425,4.5149,1.0077,0.7469,-0.1562,-2.2294,
6.550214,1.0980,1.6718,0.0305,12.8147,9.8315,2.4851,0.7469,-0.1562,-2.2294,
6.552013,1.0980,1.6718,0.0305,12.8147,9.8315,2.4851,0.9731,0.5137,-2.5074,
6.601973,0.2637,1.2767,0.2510,12.8147,9.8315,2.4851,0.9731,0.5137,-2.5074,
6.605850,-0.7196,1.2150,-0.0618,12.8147,9.8315,2.4851,0.9731,0.5137,-2.5074,
6.607587,-1.1842,1.4425,-0.2195,12.8147,9.8315,2.4851,0.9731,0.5137,-2.5074,
6.609496,-1.1842,1.4425,-0.2195,12.8147,9.8315,2.4851,0.8959,2.1482,-3.8277,
6.611507,-1.1842,1.4425,-0.2195,1.2893,6.6016,3.4737,0.8959,2.1482,-3.8277,
6.660406,-1.0057,1.1036,-0.2197,1.2893,6.6016,3.4737,0.8959,2.1482,-3.8277,
6.664843,-0.7283,0.6192,-0.3274,1.2893,6.6016,3.4737,0.8959,2.1482,-3.8277,
6.667184,-0.7186,0.4512,-0.2952,1.2893,6.6016,3.4737,0.8959,2.1482,-3.8277,
6.669118,-0.7186,0.4512,-0.2952,1.2893,6.6016,3.4737,0.7990,0.4079,-1.7658,
6.671140,-0.7186,0.4512,-0.2952,-0.8385,1.7117,1.2289,0.7990,0.4079,-1.7658,
6.718841,-0.5174,0.3477,-0.4878,-0.8385,1.7117,1.2289,0.7990,0.4079,-1.7658,
6.722434,-0.3401,0.2268,-0.2212,-0.8385,1.7117,1.2289,0.7990,0.4079,-1.7658,
6.725169,-0.2727,0.1145,-0.0955,-0.8385,1.7117,1.2289,0.7990,0.4079,-1.7658,
6.727166,-0.2727,0.1145,-0.0955,-0.8385,1.7117,1.2289,-0.8754,-0.2741,1.4372,
6.729828,-0.2727,0.1145,-0.0955,3.0055,-3.8512,0.9311,-0.8754,-0.2741,1.4372,
6.775566,-0.2554,0.1670,-0.0764,3.0055,-3.8512,0.9311,-0.8754,-0.2741,1.4372,
6.777164,-0.2464,0.2356,-0.1753,3.0055,-3.8512,0.9311,-0.8754,-0.2741,1.4372,
6.777957,-0.2185,0.3870,-0.3374,3.0055,-3.8512,0.9311,-0.8754,-0.2741,1.4372,
6.778697,-0.2185,0.3870,-0.3374,3.0055,-3.8512,0.9311,-1.5007,-0.4091,3.9133,
6.779415,-0.2185,0.3870,-0.3374,2.7838,-5.0804,0.8692,-1.5007,-0.4091,3.9133,
6.835676,-0.2324,0.5457,-0.2896,2.7838,-5.0804,0.8692,-1.5007,-0.4091,3.9133,
6.841857,-0.2649,0.5909,-0.1907,2.7838,-5.0804,0.8692,-1.5007,-0.4091,3.9133,
6.844101,-0.2454,0.6444,-0.1216,2.7838,-5.0804,0.8692,-1.5007,-0.4091,3.9133,
6.845163,-0.2454,0.6444,-0.1216,2.7838,-5.0804,0.8692,-1.9656,-0.3076,5.6850,
6.846275,-0.2454,0.6444,-0.1216,-0.0670,-3.3046,-0.2135,-1.9656,-0.3076,5.6850,
6.893757,-0.1843,0.9442,-0.2671,-0.0670,-3.3046,-0.2135,-1.9656,-0.3076,5.6850,
6.897123,-0.1851,1.5390,-0.4234,-0.0670,-3.3046,-0.2135,-1.9656,-0.3076,5.6850,
6.900105,-0.5108,1.9738,-0.6407,-0.0670,-3.3046,-0.2135,-1.9656,-0.3076,5.6850,
6.903071,-0.5108,1.9738,-0.6407,-0.0670,-3.3046,-0.2135,-1.6748,0.3394,6.5577,
6.905999,-0.5108,1.9738,-0.6407,-4.0713,5.0113,-3.4559,-1.6748,0.3394,6.5577,
6.951207,-0.9559,1.8461,-0.4319,-4.0713,5.0113,-3.4559,-1.6748,0.3394,6.5577,
6.954234,-0.9293,1.4635,0.0005,-4.0713,5.0113,-3.4559,-1.6748,0.3394,6.5577,
6.956350,-0.7628,1.2360,-0.3189,-4.0713,5.0113,-3.4559,-1.6748,0.3394,6.5577,
6.958420,-0.7628,1.2360,-0.3189,-4.0713,5.0113,-3.4559,-1.6388,0.9239,5.4337,
6.960422,-0.7628,1.2360,-0.3189,-12.5755,6.0152,-2.5522,-1.6388,0.9239,5.4337,
7.009880,-0.9601,0.9881,-0.4441,-12.5755,6.0152,-2.5522,-1.6388,0.9239,5.4337,
7.012602,-1.1942,0.6712,-0.2825,-12.5755,6.0152,-2.5522,-1.6388,0.9239,5.4337,
7.013998,-1.0802,0.6334,-0.2957,-12.5755,6.0152,-2.5522,-1.6388,0.9239,5.4337,
7.015168,-1.0802,0.6334,-0.2957,-12.5755,6.0152,-2.5522,-0.4563,-0.6788,0.4079,
7.016544,-1.0802,0.6334,-0.2957,-14.4644,-1.2224,-3.4442,-0.4563,-0.6788,0.4079,
7.068424,-0.4183,1.3844,-0.5870,-14.4644,-1.2224,-3.4442,-0.4563,-0.6788,0.4079,
7.073030,1.9782,1.9655,0.3084,-14.4644,-1.2224,-3.4442,-0.4563,-0.6788,0.4079,
7.076021,2.4370,1.9230,0.2158,-14.4644,-1.2224,-3.4442,-0.4563,-0.6788,0.4079,
7.078698,2.4370,1.9230,0.2158,-14.4644,-1.2224,-3.4442,-0.4983,-2.3671,-1.7416,
7.081517,2.4370,1.9230,0.2158,9.8947,8.0267,-0.0837,-0.4983,-2.3671,-1.7416,
7.127268,-0.5084,1.4643,-0.9190,9.8947,8.0267,-0.0837,-0.4983,-2.3671,-1.7416,
7.130891,-1.1903,0.9186,-0.7215,9.8947,8.0267,-0.0837,-0.4983,-2.3671,-1.7416,
7.134193,-0.4175,0.5264,0.6253,9.8947,8.0267,-0.0837,-0.4983,-2.3671,-1.7416,
7.137683,-0.4175,0.5264,0.6253,9.8947,8.0267,-0.0837,-0.1240,0.3425,-3.4435,
7.140517,-0.4175,0.5264,0.6253,-8.0405,-0.1391,-3.2288,-0.1240,0.3425,-3.4435,
7.185657,-0.2512,0.8646,0.2168,-8.0405,-0.1391,-3.2288,-0.1240,0.3425,-3.4435,
7.189389,-0.2666,1.0817,0.1631,-8.0405,-0.1391,-3.2288,-0.1240,0.3425,-3.4435,
7.191832,-0.3340,1.0941,-0.0806,-8.0405,-0.1391,-3.2288,-0.1240,0.3425,-3.4435,
7.194747,-0.3340,1.0941,-0.0806,-8.0405,-0.1391,-3.2288,-0.0155,-0.4292,-1.6628,
7.197241,-0.3340,1.0941,-0.0806,-2.9200,0.2215,1.0498,-0.0155,-0.4292,-1.6628,
7.245091,-0.1109,1.0206,-0.1221,-2.9200,0.2215,1.0498,-0.0155,-0.4292,-1.6628,
7.248663,0.1687,1.0375,-0.0730,-2.9200,0.2215,1.0498,-0.0155,-0.4292,-1.6628,
7.255281,0.0186,1.0729,0.0501,-2.9200,0.2215,1.0498,-0.0155,-0.4292,-1.6628,
7.257686,0.0186,1.0729,0.0501,-2.9200,0.2215,1.0498,-0.0008,0.1831,-0.9759,
7.260600,0.0186,1.0729,0.0501,0.6535,0.5166,-0.3922,-0.0008,0.1831,-0.9759,
7.310782,-0.2049,1.0077,0.1023,0.6535,0.5166,-0.3922,-0.0008,0.1831,-0.9759,
7.316534,-0.0894,0.9706,0.1109,0.6535,0.5166,-0.3922,-0.0008,0.1831,-0.9759,
7.319726,0.1082,0.9859,0.0418,0.6535,0.5166,-0.3922,-0.0008,0.1831,-0.9759,
7.321751,0.1082,0.9859,0.0418,0.3528,0.0122,0.9608,-0.0008,0.1831,-0.9759,
7.324232,0.1082,0.9859,0.0418,0.3528,0.0122,0.9608,0.1305,-0.2468,-0.9918,
7.359099,0.0630,0.9945,0.0039,0.3528,0.0122,0.9608,0.1305,-0.2468,-0.9918,
7.360559,-0.0628,0.9842,-0.0039,0.3528,0.0122,0.9608,0.1305,-0.2468,-0.9918,
7.361171,-0.1384,0.9967,-0.0088,0.3528,0.0122,0.9608,0.1305,-0.2468,-0.9918,
7.361791,-0.1384,0.9967,-0.0088,0.3528,0.0122,0.9608,0.1855,0.2698,-1.2356,
7.362511,-0.1384,0.9967,-0.0088,1.1796,0.1426,0.2219,0.1855,0.2698,-1.2356,
7.419074,-0.2610,1.0331,-0.0305,1.1796,0.1426,0.2219,0.1855,0.2698,-1.2356,
7.422563,-0.3052,1.0338,-0.0623,1.1796,0.1426,0.2219,0.1855,0.2698,-1.2356,
7.425835,-0.2215,1.0011,-0.1006,1.1796,0.1426,0.2219,0.1855,0.2698,-1.2356,
7.427675,-0.2215,1.0011,-0.1006,1.1796,0.1426,0.2219,0.2022,0.2963,-1.2368,
7.429591,-0.2215,1.0011,-0.1006,-0.2574,0.5812,-0.2309,0.2022,0.2963,-1.2368,
7.477845,-0.1240,0.9913,-0.1345,-0.2574,0.5812,-0.2309,0.2022,0.2963,-1.2368,
7.481253,-0.0964,0.9444,-0.1182,-0.2574,0.5812,-0.2309,0.2022,0.2963,-1.2368,
7.484024,-0.1734,0.9049,-0.0518,-0.2574,0.5812,-0.2309,0.2022,0.2963,-1.2368,
7.486405,-0.1734,0.9049,-0.0518,-0.2574,0.5812,-0.2309,0.1690,0.4796,-1.2783,
7.488404,-0.1734,0.9049,-0.0518,1.6839,0.0410,-0.4196,0.1690,0.4796,-1.2783,
7.535269,-0.2749,0.9718,-0.0466,1.6839,0.0410,-0.4196,0.1690,0.4796,-1.2783,
7.538628,-0.2710,1.0375,-0.0547,1.6839,0.0410,-0.4196,0.1690,0.4796,-1.2783,
7.540337,-0.2271,1.1068,-0.0281,1.6839,0.0410,-0.4196,0.1690,0.4796,-1.2783,
7.542243,-0.2271,1.1068,-0.0281,1.6839,0.0410,-0.4196,0.2142,0.2116,-1.5968,
7.543691,-0.2271,1.1068,-0.0281,1.2622,1.2438,0.3013,0.2142,0.2116,-1.5968,
7.595837,-0.1377,1.1449,0.0305,1.2622,1.2438,0.3013,0.2142,0.2116,-1.5968,
7.599703,-0.0654,1.2111,0.0420,1.2622,1.2438,0.3013,0.2142,0.2116,-1.5968,
7.602366,-0.0452,1.4665,0.0356,1.2622,1.2438,0.3013,0.2142,0.2116,-1.5968,
7.604791,-0.0452,1.4665,0.0356,1.2622,1.2438,0.3013,0.4431,0.1487,-1.9717,
7.606832,-0.0452,1.4665,0.0356,3.9019,3.9987,1.3159,0.4431,0.1487,-1.9717,
7.651403,0.2928,1.8569,0.1145,3.9019,3.9987,1.3159,0.4431,0.1487,-1.9717,
7.654382,0.8548,1.8483,-0.2002,3.9019,3.9987,1.3159,0.4431,0.1487,-1.9717,
7.656422,0.8856,1.6076,-0.4739,3.9019,3.9987,1.3159,0.4431,0.1487,-1.9717,
7.658392,0.8856,1.6076,-0.4739,3.9019,3.9987,1.3159,0.5950,1.3893,-2.5917,
7.660379,0.8856,1.6076,-0.4739,12.2607,9.5500,-0.1490,0.5950,1.3893,-2.5917,
7.710123,0.3135,1.1866,-0.3448,12.2607,9.5500,-0.1490,0.5950,1.3893,-2.5917,
7.713853,-0.5477,0.9122,-0.2295,12.2607,9.5500,-0.1490,0.5950,1.3893,-2.5917,
7.715891,-1.1671,1.1122,-0.3247,12.2607,9.5500,-0.1490,0.5950,1.3893,-2.5917,
7.717780,-1.1671,1.1122,-0.3247,12.2607,9.5500,-0.1490,0.6864,3.3307,-3.8065,
7.719680,-1.1671,1.1122,-0.3247,2.1083,4.0932,0.2382,0.6864,3.3307,-3.8065,
7.768815,-1.2496,1.1107,-0.2635,2.1083,4.0932,0.2382,0.6864,3.3307,-3.8065,
7.772502,-0.8231,0.6028,-0.1565,2.1083,4.0932,0.2382,0.6864,3.3307,-3.8065,
7.775203,-0.7523,0.2678,-0.2803,2.1083,4.0932,0.2382,0.6864,3.3307,-3.8065,
7.776977,-0.7523,0.2678,-0.2803,2.1083,4.0932,0.2382,0.8159,1.2987,-1.9415,
7.779031,-0.7523,0.2678,-0.2803,-2.1017,1.0135,1.6585,0.8159,1.2987,-1.9415,
7.827500,-0.7130,0.2705,-0.3152,-2.1017,1.0135,1.6585,0.8159,1.2987,-1.9415,
7.831173,-0.5103,0.2654,-0.1697,-2.1017,1.0135,1.6585,0.8159,1.2987,-1.9415,
7.834328,-0.2852,0.0986,0.0586,-2.1017,1.0135,1.6585,0.8159,1.2987,-1.9415,
7.836577,-0.2852,0.0986,0.0586,-2.1017,1.0135,1.6585,-0.6771,-0.9086,1.1244,
7.839310,-0.2852,0.0986,0.0586,1.9798,-3.9261,1.9202,-0.6771,-0.9086,1.1244,
7.886242,-0.2969,0.0039,-0.0432,1.9798,-3.9261,1.9202,-0.6771,-0.9086,1.1244,
7.890215,-0.3687,0.0737,-0.1055,1.9798,-3.9261,1.9202,-0.6771,-0.9086,1.1244,
7.893707,-0.3531,0.1506,-0.2896,1.9798,-3.9261,1.9202,-0.6771,-0.9086,1.1244,
7.896469,-0.3531,0.1506,-0.2896,2.4770,-6.4900,1.1058,-0.6771,-0.9086,1.1244,
7.898978,-0.3531,0.1506,-0.2896,2.4770,-6.4900,1.1058,-0.1026,-1.9234,3.5488,
7.943802,-0.3006,0.2403,-0.3699,2.4770,-6.4900,1.1058,-0.1026,-1.9234,3.5488,
7.947904,-0.3181,0.3550,-0.0630,2.4770,-6.4900,1.1058,-0.1026,-1.9234,3.5488,
7.950201,-0.3860,0.4810,-0.0496,2.4770,-6.4900,1.1058,-0.1026,-1.9234,3.5488,
7.952227,-0.3860,0.4810,-0.0496,2.4770,-6.4900,1.1058,0.9183,-2.8929,5.6223,
7.954928,-0.3860,0.4810,-0.0496,0.2754,-5.0629,0.5867,0.9183,-2.8929,5.6223,
8.001652,-0.5726,0.8180,-0.3177,0.2754,-5.0629,0.5867,0.9183,-2.8929,5.6223,
8.007244,-0.8033,1.3595,-0.5535,0.2754,-5.0629,0.5867,0.9183,-2.8929,5.6223,
8.009825,-0.9872,1.6286,-0.5267,0.2754,-5.0629,0.5867,0.9183,-2.8929,5.6223,
8.014545,-0.9872,1.6286,-0.5267,0.2754,-5.0629,0.5867,2.5571,-5.4860,6.7984,
8.018465,-0.9872,1.6286,-0.5267,-6.8214,3.3070,-1.7049,2.5571,-5.4860,6.7984,
8.058861,-1.0372,1.6159,-0.4524,-6.8214,3.3070,-1.7049,2.5571,-5.4860,6.7984,
8.060881,-0.6238,1.4547,-0.1541,-6.8214,3.3070,-1.7049,2.5571,-5.4860,6.7984,
8.061893,-0.0459,1.2516,0.0896,-6.8214,3.3070,-1.7049,2.5571,-5.4860,6.7984,
8.064035,-0.0459,1.2516,0.0896,-6.8214,3.3070,-1.7049,1.8143,-10.0504,5.7605,
8.066800,-0.0459,1.2516,0.0896,-5.6689,5.1880,2.0057,1.8143,-10.0504,5.7605,
8.116904,0.4312,0.9461,0.5608,-5.6689,5.1880,2.0057,1.8143,-10.0504,5.7605,
8.118871,-0.4493,0.9034,-0.0244,-5.6689,5.1880,2.0057,1.8143,-10.0504,5.7605,
8.119983,-0.9793,1.4140,0.8844,-5.6689,5.1880,2.0057,1.8143,-10.0504,5.7605,
8.121066,-0.9793,1.4140,0.8844,-5.6689,5.1880,2.0057,0.0399,-4.9177,0.7107,
8.122023,-0.9793,1.4140,0.8844,-2.5896,1.7210,8.1946,0.0399,-4.9177,0.7107,
8.177294,0.3003,0.9505,1.6435,-2.5896,1.7210,8.1946,0.0399,-4.9177,0.7107,
8.180346,0.5272,1.0687,0.5259,-2.5896,1.7210,8.1946,0.0399,-4.9177,0.7107,
8.182223,0.0217,1.5795,-0.8028,-2.5896,1.7210,8.1946,0.0399,-4.9177,0.7107,
8.184522,0.0217,1.5795,-0.8028,-2.5896,1.7210,8.1946,-0.8734,-0.0537,-0.6911,
8.187462,0.0217,1.5795,-0.8028,3.7639,2.6408,7.4386,-0.8734,-0.0537,-0.6911,
8.235769,-0.2342,1.8268,-1.3485,3.7639,2.6408,7.4386,-0.8734,-0.0537,-0.6911,
8.238756,-0.5728,1.2953,-0.4456,3.7639,2.6408,7.4386,-0.8734,-0.0537,-0.6911,
8.241146,-0.3250,0.8634,-0.2837,3.7639,2.6408,7.4386,-0.8734,-0.0537,-0.6911,
8.244220,-0.3250,0.8634,-0.2837,3.7639,2.6408,7.4386,-0.6046,-0.2252,-0.6475,
8.246601,-0.3250,0.8634,-0.2837,-2.2873,3.7856,-4.0824,-0.6046,-0.2252,-0.6475,
8.293563,-0.0791,0.6812,0.0012,-2.2873,3.7856,-4.0824,-0.6046,-0.2252,-0.6475,
8.297862,-0.1094,0.8534,0.0879,-2.2873,3.7856,-4.0824,-0.6046,-0.2252,-0.6475,
8.300422,-0.2132,1.0140,-0.0037,-2.2873,3.7856,-4.0824,-0.6046,-0.2252,-0.6475,
8.303143,-0.2132,1.0140,-0.0037,0.2867,-0.9585,2.5817,-0.6046,-0.2252,-0.6475,
8.304732,-0.2132,1.0140,-0.0037,0.2867,-0.9585,2.5817,-0.4580,-1.2439,-0.0218,
8.352266,-0.3655,0.9923,-0.2261,0.2867,-0.9585,2.5817,-0.4580,-1.2439,-0.0218,
8.356661,-0.4056,0.9889,-0.3716,0.2867,-0.9585,2.5817,-0.4580,-1.2439,-0.0218,
8.359388,-0.3218,0.9444,-0.3238,0.2867,-0.9585,2.5817,-0.4580,-1.2439,-0.0218,
8.361478,-0.3218,0.9444,-0.3238,0.2867,-0.9585,2.5817,-0.1269,0.0332,0.1935,
8.363994,-0.3218,0.9444,-0.3238,-2.0457,0.2347,-0.7613,-0.1269,0.0332,0.1935,
8.411059,-0.2447,0.9610,-0.2830,-2.0457,0.2347,-0.7613,-0.1269,0.0332,0.1935,
8.416065,-0.1275,0.9972,-0.2251,-2.0457,0.2347,-0.7613,-0.1269,0.0332,0.1935,
8.418751,-0.0015,0.9498,-0.2114,-2.0457,0.2347,-0.7613,-0.1269,0.0332,0.1935,
8.421569,-0.0015,0.9498,-0.2114,-2.0457,0.2347,-0.7613,-0.1637,-0.4640,0.6160,
8.423758,-0.0015,0.9498,-0.2114,0.0263,0.1049,-0.2244,-0.1637,-0.4640,0.6160,
8.469746,0.0344,0.9034,-0.2012,0.0263,0.1049,-0.2244,-0.1637,-0.4640,0.6160,
8.475508,0.0005,0.9298,-0.1035,0.0263,0.1049,-0.2244,-0.1637,-0.4640,0.6160,
8.477460,-0.0576,0.9960,-0.1109,0.0263,0.1049,-0.2244,-0.1637,-0.4640,0.6160,
8.479324,-0.0576,0.9960,-0.1109,0.0263,0.1049,-0.2244,-0.0750,-0.2394,0.3063,
8.482101,-0.0576,0.9960,-0.1109,1.0165,-0.1799,0.6992,-0.0750,-0.2394,0.3063,
8.526930,-0.0615,0.9996,-0.1631,1.0165,-0.1799,0.6992,-0.0750,-0.2394,0.3063,
8.530151,-0.0386,0.9762,-0.1792,1.0165,-0.1799,0.6992,-0.0750,-0.2394,0.3063,
8.533166,-0.0669,0.9781,-0.1255,1.0165,-0.1799,0.6992,-0.0750,-0.2394,0.3063,
8.535416,-0.0669,0.9781,-0.1255,1.0165,-0.1799,0.6992,0.0387,-0.4221,0.0320,
8.537648,-0.0669,0.9781,-0.1255,0.5683,0.2264,0.5141,0.0387,-0.4221,0.0320,
8.586266,-0.1216,0.9591,-0.1260,0.5683,0.2264,0.5141,0.0387,-0.4221,0.0320,
8.589017,-0.2017,0.9596,-0.1707,0.5683,0.2264,0.5141,0.0387,-0.4221,0.0320,
8.591838,-0.1729,1.0089,-0.1897,0.5683,0.2264,0.5141,0.0387,-0.4221,0.0320,
8.594604,-0.1729,1.0089,-0.1897,0.5683,0.2264,0.5141,0.2111,-0.5616,-0.0918,
8.597120,-0.1729,1.0089,-0.1897,-0.3821,0.1693,0.5222,0.2111,-0.5616,-0.0918,
8.644551,-0.0427,1.0177,-0.2144,-0.3821,0.1693,0.5222,0.2111,-0.5616,-0.0918,
8.647111,-0.0364,0.9957,-0.2063,-0.3821,0.1693,0.5222,0.2111,-0.5616,-0.0918,
8.648929,-0.1343,1.0204,-0.2012,-0.3821,0.1693,0.5222,0.2111,-0.5616,-0.0918,
8.650591,-0.1343,1.0204,-0.2012,-0.3821,0.1693,0.5222,0.3942,-0.3773,-0.0997,
8.653231,-0.1343,1.0204,-0.2012,0.6336,0.5650,0.2623,0.3942,-0.3773,-0.0997,
8.701487,-0.0789,1.0458,-0.2110,0.6336,0.5650,0.2623,0.3942,-0.3773,-0.0997,
8.704564,-0.0051,1.0050,-0.1941,0.6336,0.5650,0.2623,0.3942,-0.3773,-0.0997,
8.706368,-0.0259,0.9762,-0.1858,0.6336,0.5650,0.2623,0.3942,-0.3773,-0.0997,
8.708065,-0.0259,0.9762,-0.1858,0.6336,0.5650,0.2623,0.7465,-0.3028,-0.2997,
8.710036,-0.0259,0.9762,-0.1858,1.1578,0.6645,0.7302,0.7465,-0.3028,-0.2997,
8.760831,-0.0298,1.0135,-0.1836,1.1578,0.6645,0.7302,0.7465,-0.3028,-0.2997,
8.764259,-0.0784,1.0231,-0.1985,1.1578,0.6645,0.7302,0.7465,-0.3028,-0.2997,
8.766196,-0.1209,1.0106,-0.2166,1.1578,0.6645,0.7302,0.7465,-0.3028,-0.2997,
8.768084,-0.1209,1.0106,-0.2166,1.1578,0.6645,0.7302,1.2345,-0.4569,-0.6111,
8.769953,-0.1209,1.0106,-0.2166,1.1519,0.9889,1.2917,1.2345,-0.4569,-0.6111,
8.818975,-0.1275,1.0370,-0.2036,1.1519,0.9889,1.2917,1.2345,-0.4569,-0.6111,
8.822450,-0.1072,1.0079,-0.2454,1.1519,0.9889,1.2917,1.2345,-0.4569,-0.6111,
8.823829,-0.0984,0.9896,-0.3196,1.1519,0.9889,1.2917,1.2345,-0.4569,-0.6111,
8.824937,-0.0984,0.9896,-0.3196,1.2984,1.3718,1.4867,1.2345,-0.4569,-0.6111,
8.826070,-0.0984,0.9896,-0.3196,1.2984,1.3718,1.4867,1.6725,-0.6200,-0.7379,
8.884192,0.0310,1.0936,-0.3609,1.2984,1.3718,1.4867,1.6725,-0.6200,-0.7379,
8.887740,0.2464,1.4325,-0.3355,1.2984,1.3718,1.4867,1.6725,-0.6200,-0.7379,
8.889625,0.3609,1.8359,-0.2151,1.2984,1.3718,1.4867,1.6725,-0.6200,-0.7379,
8.891715,0.3609,1.8359,-0.2151,1.2984,1.3718,1.4867,2.1879,-0.5846,-0.8053,
8.894246,0.3609,1.8359,-0.2151,4.9254,6.2984,1.9435,2.1879,-0.5846,-0.8053,
8.934252,0.1170,1.7468,0.0076,4.9254,6.2984,1.9435,2.1879,-0.5846,-0.8053,
8.936045,-0.4705,1.2711,0.2874,4.9254,6.2984,1.9435,2.1879,-0.5846,-0.8053,
8.937091,-1.0970,1.0795,0.1292,4.9254,6.2984,1.9435,2.1879,-0.5846,-0.8053,
8.938238,-1.0970,1.0795,0.1292,4.9254,6.2984,1.9435,2.5149,-2.0470,-1.0572,
8.939188,-1.0970,1.0795,0.1292,-0.7857,6.3138,6.8800,2.5149,-2.0470,-1.0572,
8.993740,-1.5380,1.1935,-0.0764,-0.7857,6.3138,6.8800,2.5149,-2.0470,-1.0572,
8.995682,-1.5126,1.0904,-0.3662,-0.7857,6.3138,6.8800,2.5149,-2.0470,-1.0572,
8.996785,-0.8646,0.7462,-0.5269,-0.7857,6.3138,6.8800,2.5149,-2.0470,-1.0572,
8.997814,-0.8646,0.7462,-0.5269,-0.7857,6.3138,6.8800,2.4913,-5.0366,-0.5913,
8.998822,-0.8646,0.7462,-0.5269,-6.9166,3.7082,1.8157,2.4913,-5.0366,-0.5913,
9.052166,-0.2847,0.7703,-0.5789,-6.9166,3.7082,1.8157,2.4913,-5.0366,-0.5913,
9.056112,0.3794,0.7208,-0.0877,-6.9166,3.7082,1.8157,2.4913,-5.0366,-0.5913,
9.058360,0.1531,0.4485,0.3721,-6.9166,3.7082,1.8157,2.4913,-5.0366,-0.5913,
9.060743,0.1531,0.4485,0.3721,-6.9166,3.7082,1.8157,1.7302,-4.7257,1.7174,
9.063433,0.1531,0.4485,0.3721,7.1696,-0.0355,2.8654,1.7302,-4.7257,1.7174,
9.110767,-0.2942,0.4825,0.2520,7.1696,-0.0355,2.8654,1.7302,-4.7257,1.7174,
9.114931,-0.4847,0.5391,0.1318,7.1696,-0.0355,2.8654,1.7302,-4.7257,1.7174,
9.117249,-0.3582,0.5350,0.0945,7.1696,-0.0355,2.8654,1.7302,-4.7257,1.7174,
9.119706,-0.3582,0.5350,0.0945,7.1696,-0.0355,2.8654,1.2692,-3.1032,2.6235,
9.121904,-0.3582,0.5350,0.0945,2.2140,-1.9489,4.6717,1.2692,-3.1032,2.6235,
9.169353,-0.2217,0.5040,0.0796,2.2140,-1.9489,4.6717,1.2692,-3.1032,2.6235,
9.174350,-0.1448,0.5613,0.0530,2.2140,-1.9489,4.6717,1.2692,-3.1032,2.6235,
9.176298,-0.1221,0.7012,0.0371,2.2140,-1.9489,4.6717,1.2692,-3.1032,2.6235,
9.178296,-0.1221,0.7012,0.0371,2.2140,-1.9489,4.6717,0.8513,-1.9059,4.6017,
9.180511,-0.1221,0.7012,0.0371,2.5599,-2.4489,3.3959,0.8513,-1.9059,4.6017,
9.228029,-0.2088,0.8761,0.0464,2.5599,-2.4489,3.3959,0.8513,-1.9059,4.6017,
9.232312,-0.2615,1.0477,0.0264,2.5599,-2.4489,3.3959,0.8513,-1.9059,4.6017,
9.235045,-0.2893,1.1632,0.0444,2.5599,-2.4489,3.3959,0.8513,-1.9059,4.6017,
9.237125,-0.2893,1.1632,0.0444,2.5599,-2.4489,3.3959,-0.0295,-0.7849,5.6054,
9.239670,-0.2893,1.1632,0.0444,-1.0410,0.9187,3.0079,-0.0295,-0.7849,5.6054,
9.284144,-0.4307,1.3334,-0.0210,-1.0410,0.9187,3.0079,-0.0295,-0.7849,5.6054,
9.286541,-0.5140,1.5480,-0.1106,-1.0410,0.9187,3.0079,-0.0295,-0.7849,5.6054,
9.288328,-0.4969,1.5966,-0.0195,-1.0410,0.9187,3.0079,-0.0295,-0.7849,5.6054,
9.291143,-0.4969,1.5966,-0.0195,-1.0410,0.9187,3.0079,-0.7801,-0.5734,6.0983,
9.293505,-0.4969,1.5966,-0.0195,-6.3787,5.3211,1.6819,-0.7801,-0.5734,6.0983,
9.343733,-0.4673,1.5265,0.1050,-6.3787,5.3211,1.6819,-0.7801,-0.5734,6.0983,
9.347281,-0.6444,1.4657,0.0642,-6.3787,5.3211,1.6819,-0.7801,-0.5734,6.0983,
9.349641,-0.8187,1.3124,-0.1106,-6.3787,5.3211,1.6819,-0.7801,-0.5734,6.0983,
9.351890,-0.8187,1.3124,-0.1106,-6.3787,5.3211,1.6819,-1.1165,0.5710,4.3692,
9.354885,-0.8187,1.3124,-0.1106,-10.1674,5.2727,1.6414,-1.1165,0.5710,4.3692,
9.401382,-0.9000,0.9540,-0.2009,-10.1674,5.2727,1.6414,-1.1165,0.5710,4.3692,
9.405606,-1.0314,0.6536,-0.2835,-10.1674,5.2727,1.6414,-1.1165,0.5710,4.3692,
9.408391,-1.0719,0.7406,-0.4344,-10.1674,5.2727,1.6414,-1.1165,0.5710,4.3692,
9.413350,-1.0719,0.7406,-0.4344,-10.1674,5.2727,1.6414,-0.6325,0.9713,0.1458,
9.416461,-1.0719,0.7406,-0.4344,-13.5805,-1.1117,-2.0711,-0.6325,0.9713,0.1458,
9.460099,-0.8731,1.1234,-0.8043,-13.5805,-1.1117,-2.0711,-0.6325,0.9713,0.1458,
9.464618,0.5633,1.4938,-0.5086,-13.5805,-1.1117,-2.0711,-0.6325,0.9713,0.1458,
9.467599,2.2515,1.5568,-0.2276,-13.5805,-1.1117,-2.0711,-0.6325,0.9713,0.1458,
9.470345,2.2515,1.5568,-0.2276,-13.5805,-1.1117,-2.0711,-0.4113,-2.5198,-1.4732,
9.473546,2.2515,1.5568,-0.2276,3.4369,4.4678,-3.7670,-0.4113,-2.5198,-1.4732,
9.518229,0.8043,1.4750,-0.6551,3.4369,4.4678,-3.7670,-0.4113,-2.5198,-1.4732,
9.521227,-0.9273,1.3808,-0.3169,3.4369,4.4678,-3.7670,-0.4113,-2.5198,-1.4732,
9.523892,-0.2486,0.7784,0.1673,3.4369,4.4678,-3.7670,-0.4113,-2.5198,-1.4732,
9.527048,-0.2486,0.7784,0.1673,3.4369,4.4678,-3.7670,-0.5919,-1.9096,-2.0541,
9.529932,-0.2486,0.7784,0.1673,-2.8120,2.3488,-1.4025,-0.5919,-1.9096,-2.0541,
9.577257,0.3255,0.5804,0.4080,-2.8120,2.3488,-1.4025,-0.5919,-1.9096,-2.0541,
9.581116,0.0298,0.9762,0.1284,-2.8120,2.3488,-1.4025,-0.5919,-1.9096,-2.0541,
9.583639,-0.2918,1.1539,-0.1209,-2.8120,2.3488,-1.4025,-0.5919,-1.9096,-2.0541,
9.585871,-0.2918,1.1539,-0.1209,-2.8120,2.3488,-1.4025,-0.2969,0.4913,-1.8043,
9.588132,-0.2918,1.1539,-0.1209,-0.4037,-0.7904,2.3583,-0.2969,0.4913,-1.8043,
9.639057,-0.4153,1.0760,-0.0867,-0.4037,-0.7904,2.3583,-0.2969,0.4913,-1.8043,
9.643358,-0.0532,1.0321,-0.1104,-0.4037,-0.7904,2.3583,-0.2969,0.4913,-1.8043,
9.644593,0.2095,1.0377,-0.0984,-0.4037,-0.7904,2.3583,-0.2969,0.4913,-1.8043,
9.645357,0.2095,1.0377,-0.0984,-0.4037,-0.7904,2.3583,-0.1026,-0.2834,-1.1631,
9.646300,0.2095,1.0377,-0.0984,-0.7732,0.5968,-0.0203,-0.1026,-0.2834,-1.1631,
9.693846,0.0830,1.0116,0.0420,-0.7732,0.5968,-0.0203,-0.1026,-0.2834,-1.1631,
9.698830,-0.0928,0.9576,0.0408,-0.7732,0.5968,-0.0203,-0.1026,-0.2834,-1.1631,
9.701499,-0.2271,0.9632,-0.0613,-0.7732,0.5968,-0.0203,-0.1026,-0.2834,-1.1631,
9.705176,-0.2271,0.9632,-0.0613,-0.7732,0.5968,-0.0203,0.0153,-0.3166,-1.2521,
9.707639,-0.2271,0.9632,-0.0613,0.0227,-0.0665,0.9986,0.0153,-0.3166,-1.2521,
9.750989,-0.2144,1.0008,-0.0972,0.0227,-0.0665,0.9986,0.0153,-0.3166,-1.2521,
9.752574,-0.1770,1.0079,-0.0994,0.0227,-0.0665,0.9986,0.0153,-0.3166,-1.2521,
9.756928,-0.1687,1.0316,-0.0923,0.0227,-0.0665,0.9986,0.0153,-0.3166,-1.2521,
9.758306,-0.1687,1.0316,-0.0923,0.0227,-0.0665,0.9986,0.0372,-0.0928,-1.1028,
9.759639,-0.1687,1.0316,-0.0923,-0.4032,0.3534,0.0004,0.0372,-0.0928,-1.1028,
9.811382,-0.1533,1.0692,-0.1040,-0.4032,0.3534,0.0004,0.0372,-0.0928,-1.1028,
9.814597,-0.1682,1.0086,-0.0911,-0.4032,0.3534,0.0004,0.0372,-0.0928,-1.1028,
9.816512,-0.2202,0.9493,-0.0559,-0.4032,0.3534,0.0004,0.0372,-0.0928,-1.1028,
9.818508,-0.2202,0.9493,-0.0559,-0.4032,0.3534,0.0004,0.0525,0.0919,-1.0810,
9.820338,-0.2202,0.9493,-0.0559,0.2480,0.4151,0.1603,0.0525,0.0919,-1.0810,
9.867258,-0.2102,0.9464,-0.0403,0.2480,0.4151,0.1603,0.0525,0.0919,-1.0810,
9.868809,-0.1934,0.9671,-0.0215,0.2480,0.4151,0.1603,0.0525,0.0919,-1.0810,
9.869555,-0.2110,0.9623,-0.0396,0.2480,0.4151,0.1603,0.0525,0.0919,-1.0810,
9.870358,-0.2110,0.9623,-0.0396,0.2480,0.4151,0.1603,0.0592,0.3553,-1.1270,
9.871126,-0.2110,0.9623,-0.0396,0.5968,0.0752,0.7182,0.0592,0.3553,-1.1270,
9.927081,-0.2097,0.9664,-0.0923,0.5968,0.0752,0.7182,0.0592,0.3553,-1.1270,
9.930072,-0.1597,1.0282,-0.1033,0.5968,0.0752,0.7182,0.0592,0.3553,-1.1270,
9.931965,-0.1643,1.1132,-0.0974,0.5968,0.0752,0.7182,0.0592,0.3553,-1.1270,
9.934347,-0.1643,1.1132,-0.0974,0.5968,0.0752,0.7182,0.1458,0.1550,-1.3427,
9.936065,-0.1643,1.1132,-0.0974,1.5455,1.0562,0.1930,0.1458,0.1550,-1.3427,
9.986449,-0.1814,1.1498,-0.0811,1.5455,1.0562,0.1930,0.1458,0.1550,-1.3427,
9.989400,-0.1248,1.1488,-0.0352,1.5455,1.0562,0.1930,0.1458,0.1550,-1.3427,
9.991056,-0.0313,1.2340,-0.0210,1.5455,1.0562,0.1930,0.1458,0.1550,-1.3427,
9.993070,-0.0313,1.2340,-0.0210,1.5455,1.0562,0.1930,0.4123,0.0941,-1.8149,
9.995152,-0.0313,1.2340,-0.0210,3.0694,2.8249,0.9201,0.4123,0.0941,-1.8149,
10.042323,0.0671,1.3693,-0.0679,3.0694,2.8249,0.9201,0.4123,0.0941,-1.8149,
10.044045,0.2666,1.5971,0.0232,3.0694,2.8249,0.9201,0.4123,0.0941,-1.8149,
10.044895,0.5599,1.8588,-0.0801,3.0694,2.8249,0.9201,0.4123,0.0941,-1.8149,
10.045704,0.5599,1.8588,-0.0801,3.0694,2.8249,0.9201,0.7460,0.5581,-2.4441,
10.046682,0.5599,1.8588,-0.0801,8.0917,7.6656,1.4557,0.7460,0.5581,-2.4441,
10.103276,0.9112,1.8889,-0.1941,8.0917,7.6656,1.4557,0.7460,0.5581,-2.4441,
10.105748,0.7916,1.5832,-0.0977,8.0917,7.6656,1.4557,0.7460,0.5581,-2.4441,
10.106944,-0.2105,1.1307,-0.0046,8.0917,7.6656,1.4557,0.7460,0.5581,-2.4441,
10.107787,-0.2105,1.1307,-0.0046,8.0917,7.6656,1.4557,0.4636,1.9218,-3.2679,
10.108727,-0.2105,1.1307,-0.0046,11.0374,7.9693,1.7268,0.4636,1.9218,-3.2679,
10.161066,-1.0502,1.1542,-0.2810,11.0374,7.9693,1.7268,0.4636,1.9218,-3.2679,
10.163400,-1.1864,1.2924,-0.2986,11.0374,7.9693,1.7268,0.4636,1.9218,-3.2679,
10.164455,-0.7584,0.7884,-0.2710,11.0374,7.9693,1.7268,0.4636,1.9218,-3.2679,
10.165402,-0.7584,0.7884,-0.2710,11.0374,7.9693,1.7268,0.9442,2.3612,-3.6485,
10.166350,-0.7584,0.7884,-0.2710,-2.6924,5.0153,1.1568,0.9442,2.3612,-3.6485,
10.217270,-0.7735,0.3736,-0.2845,-2.6924,5.0153,1.1568,0.9442,2.3612,-3.6485,
10.219330,-0.8365,0.4056,-0.5640,-2.6924,5.0153,1.1568,0.9442,2.3612,-3.6485,
10.220225,-0.5750,0.3457,-0.4407,-2.6924,5.0153,1.1568,0.9442,2.3612,-3.6485,
10.220976,-0.5750,0.3457,-0.4407,-2.6924,5.0153,1.1568,-0.5162,0.1419,-0.4351,
10.222107,-0.5750,0.3457,-0.4407,0.0557,-1.7863,-0.3727,-0.5162,0.1419,-0.4351,
10.276639,-0.3028,0.1585,-0.1214,0.0557,-1.7863,-0.3727,-0.5162,0.1419,-0.4351,
10.278427,-0.0486,-0.0266,-0.0906,0.0557,-1.7863,-0.3727,-0.5162,0.1419,-0.4351,
10.278975,-0.1338,0.0259,-0.0899,0.0557,-1.7863,-0.3727,-0.5162,0.1419,-0.4351,
10.279458,-0.1338,0.0259,-0.0899,0.0557,-1.7863,-0.3727,-1.6795,-0.5860,2.9251,
10.280017,-0.1338,0.0259,-0.0899,4.5826,-6.3263,1.9832,-1.6795,-0.5860,2.9251,
10.335409,-0.2950,0.2564,-0.2964,4.5826,-6.3263,1.9832,-1.6795,-0.5860,2.9251,
10.336698,-0.2259,0.4617,-0.3736,4.5826,-6.3263,1.9832,-1.6795,-0.5860,2.9251,
10.337057,-0.1096,0.6082,-0.2862,4.5826,-6.3263,1.9832,-1.6795,-0.5860,2.9251,
10.337473,-0.1096,0.6082,-0.2862,4.5826,-6.3263,1.9832,-1.5628,-0.9373,4.7909,
10.337919,-0.1096,0.6082,-0.2862,2.0427,-4.1186,-1.1200,-1.5628,-0.9373,4.7909,
10.394767,-0.0833,0.6199,-0.2222,2.0427,-4.1186,-1.1200,-1.5628,-0.9373,4.7909,
10.396189,-0.1018,0.7476,-0.1345,2.0427,-4.1186,-1.1200,-1.5628,-0.9373,4.7909,
10.396633,-0.0923,1.1434,-0.3365,2.0427,-4.1186,-1.1200,-1.5628,-0.9373,4.7909,
10.397049,-0.0923,1.1434,-0.3365,2.0427,-4.1186,-1.1200,-1.2831,0.3370,6.3714,
10.397496,-0.0923,1.1434,-0.3365,-0.2034,-1.2595,-0.8941,-1.2831,0.3370,6.3714,
10.450312,-0.1463,1.7773,-0.5694,-0.2034,-1.2595,-0.8941,-1.2831,0.3370,6.3714,
10.452123,-0.5960,2.1794,-0.6898,-0.2034,-1.2595,-0.8941,-1.2831,0.3370,6.3714,
10.453389,-1.1764,2.0119,-0.2888,-0.2034,-1.2595,-0.8941,-1.2831,0.3370,6.3714,
10.454425,-1.1764,2.0119,-0.2888,-0.2034,-1.2595,-0.8941,-1.3533,0.8343,6.4392,
10.455375,-1.1764,2.0119,-0.2888,-8.9923,10.1978,-4.4162,-1.3533,0.8343,6.4392,
10.509221,-1.0682,1.3244,0.1201,-8.9923,10.1978,-4.4162,-1.3533,0.8343,6.4392,
10.511840,-0.7345,0.9886,-0.0923,-8.9923,10.1978,-4.4162,-1.3533,0.8343,6.4392,
10.513527,-0.8119,0.9986,-0.2019,-8.9923,10.1978,-4.4162,-1.3533,0.8343,6.4392,
10.515027,-0.8119,0.9986,-0.2019,-8.9923,10.1978,-4.4162,-1.2325,-0.9340,4.0334,
10.516279,-0.8119,0.9986,-0.2019,-13.1218,2.3407,-0.3308,-1.2325,-0.9340,4.0334,
10.568899,-0.8775,0.8243,-0.0225,-13.1218,2.3407,-0.3308,-1.2325,-0.9340,4.0334,
10.572938,-0.8687,0.7728,-0.1248,-13.1218,2.3407,-0.3308,-1.2325,-0.9340,4.0334,
10.576046,-0.6153,1.2506,-0.5164,-13.1218,2.3407,-0.3308,-1.2325,-0.9340,4.0334,
10.579447,-0.6153,1.2506,-0.5164,-13.1218,2.3407,-0.3308,-0.1279,-1.6047,-1.8558,
10.582440,-0.6153,1.2506,-0.5164,-11.1292,0.3751,-1.5612,-0.1279,-1.6047,-1.8558,
10.625467,1.3361,1.6730,0.0254,-11.1292,0.3751,-1.5612,-0.1279,-1.6047,-1.8558,
10.627670,2.7227,1.6149,-0.0649,-11.1292,0.3751,-1.5612,-0.1279,-1.6047,-1.8558,
10.629014,0.2129,1.4569,-0.9896,-11.1292,0.3751,-1.5612,-0.1279,-1.6047,-1.8558,
10.630285,0.2129,1.4569,-0.9896,-11.1292,0.3751,-1.5612,-0.3712,-2.0142,-1.4718,
10.633589,0.2129,1.4569,-0.9896,11.2102,6.1954,-2.5611,-0.3712,-2.0142,-1.4718,
10.684227,-1.2750,1.1957,-0.3501,11.2102,6.1954,-2.5611,-0.3712,-2.0142,-1.4718,
10.686447,-0.9981,0.8419,0.1257,11.2102,6.1954,-2.5611,-0.3712,-2.0142,-1.4718,
10.687500,-0.0054,0.7525,0.3462,11.2102,6.1954,-2.5611,-0.3712,-2.0142,-1.4718,
10.688408,-0.0054,0.7525,0.3462,-8.3695,-0.5383,0.8874,-0.3712,-2.0142,-1.4718,
10.689495,-0.0054,0.7525,0.3462,-8.3695,-0.5383,0.8874,-0.4842,0.4152,-3.0448,
10.742701,0.1480,0.9737,0.2588,-8.3695,-0.5383,0.8874,-0.4842,0.4152,-3.0448,
10.747092,-0.1746,1.0760,-0.0525,-8.3695,-0.5383,0.8874,-0.4842,0.4152,-3.0448,
10.749025,-0.2447,1.0265,-0.0410,-8.3695,-0.5383,0.8874,-0.4842,0.4152,-3.0448,
10.751050,-0.2447,1.0265,-0.0410,-8.3695,-0.5383,0.8874,-0.0534,-0.2828,-1.6786,
10.753639,-0.2447,1.0265,-0.0410,-0.8426,0.3450,0.9857,-0.0534,-0.2828,-1.6786,
10.801835,-0.0740,1.0123,-0.1245,-0.8426,0.3450,0.9857,-0.0534,-0.2828,-1.6786,
10.806463,-0.0679,1.0775,-0.1199,-0.8426,0.3450,0.9857,-0.0534,-0.2828,-1.6786,
10.808389,-0.1985,1.0516,0.0151,-0.8426,0.3450,0.9857,-0.0534,-0.2828,-1.6786,
10.810284,-0.1985,1.0516,0.0151,-0.8426,0.3450,0.9857,-0.0094,0.0860,-1.2679,
10.813837,-0.1985,1.0516,0.0151,-0.3475,0.5777,-0.3000,-0.0094,0.0860,-1.2679,
10.860470,-0.2295,0.9964,0.0215,-0.3475,0.5777,-0.3000,-0.0094,0.0860,-1.2679,
10.864294,-0.0691,0.9762,0.0078,-0.3475,0.5777,-0.3000,-0.0094,0.0860,-1.2679,
10.865222,0.0540,0.9786,-0.0408,-0.3475,0.5777,-0.3000,-0.0094,0.0860,-1.2679,
10.866257,0.0540,0.9786,-0.0408,-0.3475,0.5777,-0.3000,0.0617,-0.1751,-1.0360,
10.867184,0.0540,0.9786,-0.0408,0.5440,0.0216,0.4272,0.0617,-0.1751,-1.0360,
10.917869,-0.0942,1.0028,-0.0364,0.5440,0.0216,0.4272,0.0617,-0.1751,-1.0360,
10.920283,-0.1990,0.9981,-0.0374,0.5440,0.0216,0.4272,0.0617,-0.1751,-1.0360,
10.921669,-0.1736,0.9962,-0.0120,0.5440,0.0216,0.4272,0.0617,-0.1751,-1.0360,
10.923118,-0.1736,0.9962,-0.0120,0.5440,0.0216,0.4272,0.0804,0.3059,-1.2258,
10.925521,-0.1736,0.9962,-0.0120,0.4848,0.2893,0.2567,0.0804,0.3059,-1.2258,
10.978890,-0.2078,1.0306,-0.0142,0.4848,0.2893,0.2567,0.0804,0.3059,-1.2258,
10.985905,-0.2197,1.0528,-0.0420,0.4848,0.2893,0.2567,0.0804,0.3059,-1.2258,
10.988162,-0.1680,1.0113,-0.0835,0.4848,0.2893,0.2567,0.0804,0.3059,-1.2258,
10.990354,-0.1680,1.0113,-0.0835,0.4848,0.2893,0.2567,0.1321,0.2753,-1.2549,
10.992393,-0.1680,1.0113,-0.0835,0.7318,0.7719,0.1874,0.1321,0.2753,-1.2549,
11.036000,-0.1406,0.9552,-0.1358,0.7318,0.7719,0.1874,0.1321,0.2753,-1.2549,
11.039496,-0.2139,0.8761,-0.1162,0.7318,0.7719,0.1874,0.1321,0.2753,-1.2549,
11.040955,-0.4039,0.8639,-0.0669,0.7318,0.7719,0.1874,0.1321,0.2753,-1.2549,
11.043029,-0.4039,0.8639,-0.0669,0.7318,0.7719,0.1874,0.1258,0.5374,-1.4915,
11.045213,-0.4039,0.8639,-0.0669,0.9616,-0.2572,-0.2297,0.1258,0.5374,-1.4915,
11.093396,-0.4759,0.9630,-0.1016,0.9616,-0.2572,-0.2297,0.1258,0.5374,-1.4915,
11.097785,-0.3013,1.0436,-0.1162,0.9616,-0.2572,-0.2297,0.1258,0.5374,-1.4915,
11.099854,-0.1814,1.1048,-0.0750,0.9616,-0.2572,-0.2297,0.1258,0.5374,-1.4915,
11.101661,-0.1814,1.1048,-0.0750,0.9616,-0.2572,-0.2297,0.1818,0.1012,-1.4758,
11.103773,-0.1814,1.1048,-0.0750,1.0511,1.4170,-0.0286,0.1818,0.1012,-1.4758,
11.151366,-0.1372,1.1578,-0.0110,1.0511,1.4170,-0.0286,0.1818,0.1012,-1.4758,
11.153938,-0.0767,1.1666,0.0186,1.0511,1.4170,-0.0286,0.1818,0.1012,-1.4758,
11.155889,0.0032,1.2181,-0.0134,1.0511,1.4170,-0.0286,0.1818,0.1012,-1.4758,
11.158225,0.0032,1.2181,-0.0134,4.3505,3.3027,1.0839,0.1818,0.1012,-1.4758,
11.160524,0.0032,1.2181,-0.0134,4.3505,3.3027,1.0839,0.4127,-0.0358,-1.8739,
11.210269,0.1038,1.5192,-0.0662,4.3505,3.3027,1.0839,0.4127,-0.0358,-1.8739,
11.213702,0.6038,1.9355,-0.1172,4.3505,3.3027,1.0839,0.4127,-0.0358,-1.8739,
11.215834,1.1486,1.7800,-0.3169,4.3505,3.3027,1.0839,0.4127,-0.0358,-1.8739,
11.217813,1.1486,1.7800,-0.3169,11.8583,9.4795,0.2054,0.4127,-0.0358,-1.8739,
11.219895,1.1486,1.7800,-0.3169,11.8583,9.4795,0.2054,0.5824,1.4451,-2.3543,
11.267415,0.4998,1.2711,-0.1533,11.8583,9.4795,0.2054,0.5824,1.4451,-2.3543,
11.269737,-0.6724,1.0282,-0.0925,11.8583,9.4795,0.2054,0.5824,1.4451,-2.3543,
11.270751,-1.2811,1.3151,-0.2935,11.8583,9.4795,0.2054,0.5824,1.4451,-2.3543,
11.271816,-1.2811,1.3151,-0.2935,2.0315,5.5685,1.5052,0.5824,1.4451,-2.3543,
11.272958,-1.2811,1.3151,-0.2935,2.0315,5.5685,1.5052,0.6976,3.1497,-3.7037,
11.327301,-1.2074,1.2904,-0.2732,2.0315,5.5685,1.5052,0.6976,3.1497,-3.7037,
11.331254,-0.8502,0.7569,-0.1917,2.0315,5.5685,1.5052,0.6976,3.1497,-3.7037,
11.333395,-0.8238,0.4688,-0.2991,2.0315,5.5685,1.5052,0.6976,3.1497,-3.7037,
11.335532,-0.8238,0.4688,-0.2991,2.0315,5.5685,1.5052,1.0753,0.8715,-1.8283,
11.337611,-0.8238,0.4688,-0.2991,-2.1583,2.9098,1.4550,1.0753,0.8715,-1.8283,
11.385640,-0.7176,0.3045,-0.4561,-2.1583,2.9098,1.4550,1.0753,0.8715,-1.8283,
11.389340,-0.5323,0.2092,-0.1404,-2.1583,2.9098,1.4550,1.0753,0.8715,-1.8283,
11.391147,-0.2442,0.0071,0.0347,-2.1583,2.9098,1.4550,1.0753,0.8715,-1.8283,
11.393105,-0.2442,0.0071,0.0347,-2.1583,2.9098,1.4550,-0.4113,-0.7642,1.4396,
11.396361,-0.2442,0.0071,0.0347,2.0320,-4.2220,1.6335,-0.4113,-0.7642,1.4396,
11.443200,-0.0735,-0.1721,0.0562,2.0320,-4.2220,1.6335,-0.4113,-0.7642,1.4396,
11.451025,-0.1494,-0.1243,-0.0032,2.0320,-4.2220,1.6335,-0.4113,-0.7642,1.4396,
11.454056,-0.2700,0.2871,-0.5022,2.0320,-4.2220,1.6335,-0.4113,-0.7642,1.4396,
11.456976,-0.2700,0.2871,-0.5022,2.0320,-4.2220,1.6335,0.1586,-1.0218,4.1607,
11.459144,-0.2700,0.2871,-0.5022,3.8076,-7.3130,1.6639,0.1586,-1.0218,4.1607,
11.500742,-0.2261,0.5574,-0.2049,3.8076,-7.3130,1.6639,0.1586,-1.0218,4.1607,
11.502519,-0.3431,0.6168,-0.2671,3.8076,-7.3130,1.6639,0.1586,-1.0218,4.1607,
11.504230,-0.6700,0.8387,-0.3111,3.8076,-7.3130,1.6639,0.1586,-1.0218,4.1607,
11.506425,-0.6700,0.8387,-0.3111,3.8076,-7.3130,1.6639,0.7856,-1.5960,6.0354,
11.508482,-0.6700,0.8387,-0.3111,-1.1505,-2.0058,0.5459,0.7856,-1.5960,6.0354,
11.560880,-0.8448,1.1183,-0.1956,-1.1505,-2.0058,0.5459,0.7856,-1.5960,6.0354,
11.564534,-1.2147,1.4179,-0.4195,-1.1505,-2.0058,0.5459,0.7856,-1.5960,6.0354,
11.566162,-1.2535,1.4528,-0.5733,-1.1505,-2.0058,0.5459,0.7856,-1.5960,6.0354,
11.567313,-1.2535,1.4528,-0.5733,-1.1505,-2.0058,0.5459,1.6015,-5.8635,7.0827,
11.568179,-1.2535,1.4528,-0.5733,-10.3091,4.0345,-0.4372,1.6015,-5.8635,7.0827,
11.618210,-0.7667,1.3610,-0.5162,-10.3091,4.0345,-0.4372,1.6015,-5.8635,7.0827,
11.620790,-0.0049,1.3309,-0.0039,-10.3091,4.0345,-0.4372,1.6015,-5.8635,7.0827,
11.622528,0.7020,1.2770,0.2149,-10.3091,4.0345,-0.4372,1.6015,-5.8635,7.0827,
11.624979,0.7020,1.2770,0.2149,-10.3091,4.0345,-0.4372,1.4999,-11.7486,6.3563,
11.628506,0.7020,1.2770,0.2149,-0.3552,4.2451,3.1830,1.4999,-11.7486,6.3563,
11.677380,0.8724,1.1625,0.5460,-0.3552,4.2451,3.1830,1.4999,-11.7486,6.3563,
11.680793,0.2388,1.0641,0.7762,-0.3552,4.2451,3.1830,1.4999,-11.7486,6.3563,
11.683264,-0.6324,0.8807,0.5591,-0.3552,4.2451,3.1830,1.4999,-11.7486,6.3563,
11.685750,-0.6324,0.8807,0.5591,-0.3552,4.2451,3.1830,-0.0232,-3.7961,1.5296,
11.687535,-0.6324,0.8807,0.5591,1.5771,1.4119,10.1666,-0.0232,-3.7961,1.5296,
11.734728,-1.8193,1.5292,0.3372,1.5771,1.4119,10.1666,-0.0232,-3.7961,1.5296,
11.737809,-1.3798,1.4462,1.3038,1.5771,1.4119,10.1666,-0.0232,-3.7961,1.5296,
11.739512,0.0474,0.5506,0.0515,1.5771,1.4119,10.1666,-0.0232,-3.7961,1.5296,
11.741265,0.0474,0.5506,0.0515,-9.4001,2.5852,8.9780,-0.0232,-3.7961,1.5296,
11.743950,0.0474,0.5506,0.0515,-9.4001,2.5852,8.9780,-0.8681,0.6241,-1.6560,
11.794032,0.0178,0.7161,-1.0511,-9.4001,2.5852,8.9780,-0.8681,0.6241,-1.6560,
11.797807,-0.4007,1.5966,-0.9498,-9.4001,2.5852,8.9780,-0.8681,0.6241,-1.6560,
11.800185,-0.3865,1.6772,-0.3506,-9.4001,2.5852,8.9780,-0.8681,0.6241,-1.6560,
11.802996,-0.3865,1.6772,-0.3506,-9.4001,2.5852,8.9780,-0.5777,-1.7055,-0.4072,
11.804449,-0.3865,1.6772,-0.3506,-1.0692,3.9487,-4.5812,-0.5777,-1.7055,-0.4072,
11.852062,0.1799,1.0582,-0.3997,-1.0692,3.9487,-4.5812,-0.5777,-1.7055,-0.4072,
11.856410,0.3401,0.7611,-0.2849,-1.0692,3.9487,-4.5812,-0.5777,-1.7055,-0.4072,
11.858944,-0.0947,0.8333,-0.0132,-1.0692,3.9487,-4.5812,-0.5777,-1.7055,-0.4072,
11.860788,-0.0947,0.8333,-0.0132,-1.0692,3.9487,-4.5812,-0.4747,-1.5359,-0.1164,
11.863199,-0.0947,0.8333,-0.0132,3.1027,-0.4815,0.4164,-0.4747,-1.5359,-0.1164,
11.910408,-0.4273,0.9952,-0.0945,3.1027,-0.4815,0.4164,-0.4747,-1.5359,-0.1164,
11.915402,-0.6065,0.9894,-0.2320,3.1027,-0.4815,0.4164,-0.4747,-1.5359,-0.1164,
11.917900,-0.5709,0.9291,-0.3196,3.1027,-0.4815,0.4164,-0.4747,-1.5359,-0.1164,
11.920183,-0.5709,0.9291,-0.3196,-3.3221,0.3793,0.5260,-0.4747,-1.5359,-0.1164,
11.923335,-0.5709,0.9291,-0.3196,-3.3221,0.3793,0.5260,-0.1043,0.0375,-0.2916,
11.969905,-0.3536,0.9239,-0.3479,-3.3221,0.3793,0.5260,-0.1043,0.0375,-0.2916,
11.975285,-0.2324,0.9671,-0.3120,-3.3221,0.3793,0.5260,-0.1043,0.0375,-0.2916,
11.977576,-0.2041,1.0008,-0.2595,-3.3221,0.3793,0.5260,-0.1043,0.0375,-0.2916,
11.979956,-0.2041,1.0008,-0.2595,-0.9107,0.2345,-0.4246,-0.1043,0.0375,-0.2916,
11.982207,-0.2041,1.0008,-0.2595,-0.9107,0.2345,-0.4246,-0.0450,-0.3852,0.6042,
12.026816,-0.1301,0.9701,-0.2371,-0.9107,0.2345,-0.4246,-0.0450,-0.3852,0.6042,
12.030918,-0.0491,0.9332,-0.2178,-0.9107,0.2345,-0.4246,-0.0450,-0.3852,0.6042,
12.033415,0.0156,0.8927,-0.2361,-0.9107,0.2345,-0.4246,-0.0450,-0.3852,0.6042,
12.035806,0.0156,0.8927,-0.2361,-0.9107,0.2345,-0.4246,0.0142,-0.3551,0.6378,
12.037464,0.0156,0.8927,-0.2361,0.8312,-0.1314,0.2930,0.0142,-0.3551,0.6378,
12.085173,-0.0400,0.9349,-0.2364,0.8312,-0.1314,0.2930,0.0142,-0.3551,0.6378,
12.087538,-0.1668,0.9576,-0.2464,0.8312,-0.1314,0.2930,0.0142,-0.3551,0.6378,
12.089316,-0.1978,0.9618,-0.1853,0.8312,-0.1314,0.2930,0.0142,-0.3551,0.6378,
12.090813,-0.1978,0.9618,-0.1853,-0.0548,0.0543,0.3979,0.0142,-0.3551,0.6378,
12.092344,-0.1978,0.9618,-0.1853,-0.0548,0.0543,0.3979,0.1132,-0.3241,0.2739,
12.143924,-0.0100,0.9940,-0.1323,-0.0548,0.0543,0.3979,0.1132,-0.3241,0.2739,
12.147011,0.1975,0.9869,-0.0930,-0.0548,0.0543,0.3979,0.1132,-0.3241,0.2739,
12.149045,0.0566,0.9239,-0.2241,-0.0548,0.0543,0.3979,0.1132,-0.3241,0.2739,
12.150886,0.0566,0.9239,-0.2241,2.0643,0.2704,1.2661,0.1132,-0.3241,0.2739,
12.152865,0.0566,0.9239,-0.2241,2.0643,0.2704,1.2661,0.4046,-0.5699,0.0996,
12.201913,-0.3074,0.9564,-0.1697,2.0643,0.2704,1.2661,0.4046,-0.5699,0.0996,
12.205950,-0.2532,0.9879,-0.1721,2.0643,0.2704,1.2661,0.4046,-0.5699,0.0996,
12.207742,-0.1318,0.9859,-0.2285,2.0643,0.2704,1.2661,0.4046,-0.5699,0.0996,
12.209390,-0.1318,0.9859,-0.2285,2.0643,0.2704,1.2661,0.7147,-0.3974,-0.2404,
12.212088,-0.1318,0.9859,-0.2285,-0.7870,0.4856,1.2013,0.7147,-0.3974,-0.2404,
12.261878,-0.0396,0.9845,-0.2652,-0.7870,0.4856,1.2013,0.7147,-0.3974,-0.2404,
12.266106,0.0122,0.9898,-0.2219,-0.7870,0.4856,1.2013,0.7147,-0.3974,-0.2404,
12.267900,-0.1150,1.0255,-0.1726,-0.7870,0.4856,1.2013,0.7147,-0.3974,-0.2404,
12.269573,-0.1150,1.0255,-0.1726,-0.7870,0.4856,1.2013,1.0590,-0.3040,-0.2356,
12.271328,-0.1150,1.0255,-0.1726,1.1720,0.9243,1.4120,1.0590,-0.3040,-0.2356,
12.317985,-0.1748,1.1417,-0.1431,1.1720,0.9243,1.4120,1.0590,-0.3040,-0.2356,
12.319712,-0.0347,1.2084,-0.1438,1.1720,0.9243,1.4120,1.0590,-0.3040,-0.2356,
12.320904,0.1550,1.3119,-0.1812,1.1720,0.9243,1.4120,1.0590,-0.3040,-0.2356,
12.321922,0.1550,1.3119,-0.1812,1.1720,0.9243,1.4120,1.6300,-1.4728,-0.4736,
12.323541,0.1550,1.3119,-0.1812,2.0024,3.4535,2.6518,1.6300,-1.4728,-0.4736,
12.377092,0.3279,1.5246,-0.2232,2.0024,3.4535,2.6518,1.6300,-1.4728,-0.4736,
12.380038,0.4197,1.6855,-0.1946,2.0024,3.4535,2.6518,1.6300,-1.4728,-0.4736,
12.381862,0.3648,1.6239,-0.0740,2.0024,3.4535,2.6518,1.6300,-1.4728,-0.4736,
12.383854,0.3648,1.6239,-0.0740,2.0024,3.4535,2.6518,2.4196,-1.8892,-0.9715,
12.385892,0.3648,1.6239,-0.0740,6.6698,7.9516,3.3722,2.4196,-1.8892,-0.9715,
12.434286,0.0859,1.4450,0.1204,6.6698,7.9516,3.3722,2.4196,-1.8892,-0.9715,
12.436075,-0.4822,1.2401,0.1362,6.6698,7.9516,3.3722,2.4196,-1.8892,-0.9715,
12.437151,-1.1471,1.1837,0.0039,6.6698,7.9516,3.3722,2.4196,-1.8892,-0.9715,
12.438189,-1.1471,1.1837,0.0039,-0.5574,5.7513,6.1634,2.4196,-1.8892,-0.9715,
12.439315,-1.1471,1.1837,0.0039,-0.5574,5.7513,6.1634,2.3474,-2.5901,-1.5129,
12.494302,-1.2655,1.0548,-0.2845,-0.5574,5.7513,6.1634,2.3474,-2.5901,-1.5129,
12.498215,-0.9166,0.9354,-0.5030,-0.5574,5.7513,6.1634,2.3474,-2.5901,-1.5129,
12.500394,-0.6192,0.9901,-0.4695,-0.5574,5.7513,6.1634,2.3474,-2.5901,-1.5129,
12.502161,-0.6192,0.9901,-0.4695,-0.5574,5.7513,6.1634,1.8754,-4.8244,-0.5190,
12.503921,-0.6192,0.9901,-0.4695,-3.0083,3.4941,0.4067,1.8754,-4.8244,-0.5190,
12.553603,-0.1099,0.7027,-0.0903,-3.0083,3.4941,0.4067,1.8754,-4.8244,-0.5190,
12.557622,0.1499,0.3746,0.3538,-3.0083,3.4941,0.4067,1.8754,-4.8244,-0.5190,
12.559737,0.1008,0.3821,0.3829,-3.0083,3.4941,0.4067,1.8754,-4.8244,-0.5190,
12.561800,0.1008,0.3821,0.3829,-3.0083,3.4941,0.4067,0.6886,-5.1641,2.4616,
12.564572,0.1008,0.3821,0.3829,6.6669,-2.1946,4.8790,0.6886,-5.1641,2.4616,
12.610403,0.0032,0.5472,0.1824,6.6669,-2.1946,4.8790,0.6886,-5.1641,2.4616,
12.613825,-0.0183,0.6395,0.1013,6.6669,-2.1946,4.8790,0.6886,-5.1641,2.4616,
12.615820,-0.0911,0.6546,0.0557,6.6669,-2.1946,4.8790,0.6886,-5.1641,2.4616,
12.617584,-0.0911,0.6546,0.0557,6.6669,-2.1946,4.8790,0.8894,-2.1107,3.5506,
12.619764,-0.0911,0.6546,0.0557,4.5411,-1.9555,3.4879,0.8894,-2.1107,3.5506,
12.669695,-0.1282,0.6866,0.0249,4.5411,-1.9555,3.4879,0.8894,-2.1107,3.5506,
12.673944,-0.2075,0.8206,-0.0393,4.5411,-1.9555,3.4879,0.8894,-2.1107,3.5506,
12.676347,-0.3221,1.0099,-0.0706,4.5411,-1.9555,3.4879,0.8894,-2.1107,3.5506,
12.678268,-0.3221,1.0099,-0.0706,0.2963,-0.7089,2.3455,0.8894,-2.1107,3.5506,
12.680197,-0.3221,1.0099,-0.0706,0.2963,-0.7089,2.3455,0.4097,0.5174,4.7491,
12.727332,-0.4305,1.1940,-0.1087,0.2963,-0.7089,2.3455,0.4097,0.5174,4.7491,
12.730452,-0.5713,1.3307,-0.1360,0.2963,-0.7089,2.3455,0.4097,0.5174,4.7491,
12.732937,-0.7423,1.4677,-0.2713,0.2963,-0.7089,2.3455,0.4097,0.5174,4.7491,
12.734945,-0.7423,1.4677,-0.2713,-6.3140,3.6304,0.4711,0.4097,0.5174,4.7491,
12.737166,-0.7423,1.4677,-0.2713,-6.3140,3.6304,0.4711,-0.8589,-0.0645,5.9082,
12.783675,-0.7801,1.5185,-0.2368,-6.3140,3.6304,0.4711,-0.8589,-0.0645,5.9082,
12.785470,-0.7369,1.4267,-0.0979,-6.3140,3.6304,0.4711,-0.8589,-0.0645,5.9082,
12.786424,-0.7872,1.3651,0.0764,-6.3140,3.6304,0.4711,-0.8589,-0.0645,5.9082,
12.787133,-0.7872,1.3651,0.0764,-6.3140,3.6304,0.4711,-1.2826,-1.1969,5.7094,
12.787788,-0.7872,1.3651,0.0764,-10.8972,5.1444,0.7758,-1.2826,-1.1969,5.7094,
12.842334,-0.8998,1.2301,0.0381,-10.8972,5.1444,0.7758,-1.2826,-1.1969,5.7094,
12.844470,-0.9293,0.9503,-0.0632,-10.8972,5.1444,0.7758,-1.2826,-1.1969,5.7094,
12.845697,-1.1947,0.7613,-0.1519,-10.8972,5.1444,0.7758,-1.2826,-1.1969,5.7094,
12.847055,-1.1947,0.7613,-0.1519,-10.8972,5.1444,0.7758,-0.7493,0.0279,1.2983,
12.848687,-1.1947,0.7613,-0.1519,-13.6835,0.8757,0.6370,-0.7493,0.0279,1.2983,
12.902148,-1.3644,0.8348,-0.6546,-13.6835,0.8757,0.6370,-0.7493,0.0279,1.2983,
12.906248,-0.2029,1.5983,-0.9442,-13.6835,0.8757,0.6370,-0.7493,0.0279,1.2983,
12.908963,2.1990,1.9179,0.0547,-13.6835,0.8757,0.6370,-0.7493,0.0279,1.2983,
12.911587,2.1990,1.9179,0.0547,-13.6835,0.8757,0.6370,-0.4718,-1.5780,-1.5520,
12.914939,2.1990,1.9179,0.0547,-0.8091,5.0579,-3.6963,-0.4718,-1.5780,-1.5520,
12.959594,1.3038,1.4372,-0.4546,-0.8091,5.0579,-3.6963,-0.4718,-1.5780,-1.5520,
12.961875,-0.9124,1.1771,-0.7098,-0.8091,5.0579,-3.6963,-0.4718,-1.5780,-1.5520,
12.963856,-0.9845,0.8729,-0.0278,-0.8091,5.0579,-3.6963,-0.4718,-1.5780,-1.5520,
12.966549,-0.9845,0.8729,-0.0278,-0.8091,5.0579,-3.6963,-0.5685,-1.6962,-2.4443,
12.969363,-0.9845,0.8729,-0.0278,-3.2899,1.8554,-2.5975,-0.5685,-1.6962,-2.4443,
13.017792,-0.1497,0.5391,0.7491,-3.2899,1.8554,-2.5975,-0.5685,-1.6962,-2.4443,
13.020863,0.0764,0.9332,0.3382,-3.2899,1.8554,-2.5975,-0.5685,-1.6962,-2.4443,
13.022356,0.0977,1.1442,-0.2190,-3.2899,1.8554,-2.5975,-0.5685,-1.6962,-2.4443,
13.025194,0.0977,1.1442,-0.2190,-3.2899,1.8554,-2.5975,-0.3722,0.0438,-1.4404,
13.027737,0.0977,1.1442,-0.2190,-0.4602,-1.0758,3.8642,-0.3722,0.0438,-1.4404,
13.076918,-0.0496,1.1390,-0.2913,-0.4602,-1.0758,3.8642,-0.3722,0.0438,-1.4404,
13.080775,-0.1428,1.0743,-0.0303,-0.4602,-1.0758,3.8642,-0.3722,0.0438,-1.4404,
13.083082,-0.1792,1.0003,-0.1126,-0.4602,-1.0758,3.8642,-0.3722,0.0438,-1.4404,
13.085376,-0.1792,1.0003,-0.1126,-0.4602,-1.0758,3.8642,-0.0735,0.1128,-1.1871,
13.087812,-0.1792,1.0003,-0.1126,-1.0750,0.8421,-0.4254,-0.0735,0.1128,-1.1871,
13.136579,-0.1792,1.0003,-0.1126,1.3440,0.0827,0.5536,-0.0735,0.1128,-1.1871,
13.140579,-0.0051,0.9745,-0.0632,1.3440,0.0827,0.5536,-0.0735,0.1128,-1.1871,
13.142863,0.1148,0.9903,-0.0388,1.3440,0.0827,0.5536,-0.0735,0.1128,-1.1871,
13.145300,0.0889,1.0094,-0.0256,1.3440,0.0827,0.5536,-0.0735,0.1128,-1.1871,
13.147508,0.0889,1.0094,-0.0256,1.3440,0.0827,0.5536,-0.0035,-0.3687,-0.9922,
13.194816,0.0461,0.9815,-0.0491,1.3440,0.0827,0.5536,-0.0035,-0.3687,-0.9922,
13.198913,-0.0894,0.9664,-0.0044,1.3440,0.0827,0.5536,-0.0035,-0.3687,-0.9922,
13.201100,-0.2903,0.9945,-0.0513,1.3440,0.0827,0.5536,-0.0035,-0.3687,-0.9922,
13.203812,-0.2903,0.9945,-0.0513,1.3440,0.0827,0.5536,0.0812,0.1201,-1.4007,
13.205756,-0.2903,0.9945,-0.0513,0.3761,0.0712,0.6719,0.0812,0.1201,-1.4007,
13.251175,-0.2730,1.0233,-0.1170,0.3761,0.0712,0.6719,0.0812,0.1201,-1.4007,
13.253771,-0.2009,1.0045,-0.1316,0.3761,0.0712,0.6719,0.0812,0.1201,-1.4007,
13.254733,-0.2251,0.9774,-0.1287,0.3761,0.0712,0.6719,0.0812,0.1201,-1.4007,
13.255715,-0.2251,0.9774,-0.1287,0.3761,0.0712,0.6719,0.1252,0.1900,-1.2783,
13.256711,-0.2251,0.9774,-0.1287,-0.1206,0.4124,-0.1265,0.1252,0.1900,-1.2783,
13.310220,-0.2234,0.9967,-0.1172,-0.1206,0.4124,-0.1265,0.1252,0.1900,-1.2783,
13.313412,-0.1743,1.0011,-0.1355,-0.1206,0.4124,-0.1265,0.1252,0.1900,-1.2783,
13.315313,-0.1206,0.9894,-0.1238,-0.1206,0.4124,-0.1265,0.1252,0.1900,-1.2783,
13.316741,-0.1206,0.9894,-0.1238,-0.1206,0.4124,-0.1265,0.1417,0.1236,-1.3392,
13.318850,-0.1206,0.9894,-0.1238,1.1683,0.5507,-0.0288,0.1417,0.1236,-1.3392,
13.369790,-0.1389,1.0909,-0.0957,1.1683,0.5507,-0.0288,0.1417,0.1236,-1.3392,
13.373495,-0.2009,1.2113,-0.1047,1.1683,0.5507,-0.0288,0.1417,0.1236,-1.3392,
13.375345,-0.1377,1.2042,-0.1079,1.1683,0.5507,-0.0288,0.1417,0.1236,-1.3392,
13.377241,-0.1377,1.2042,-0.1079,1.1683,0.5507,-0.0288,0.3514,-0.0450,-1.7489,
13.379251,-0.1377,1.2042,-0.1079,2.1893,2.5693,0.3631,0.3514,-0.0450,-1.7489,
13.427053,-0.0335,1.2338,-0.0877,2.1893,2.5693,0.3631,0.3514,-0.0450,-1.7489,
13.429473,0.0212,1.3502,-0.1184,2.1893,2.5693,0.3631,0.3514,-0.0450,-1.7489,
13.431153,0.1116,1.5382,-0.1160,2.1893,2.5693,0.3631,0.3514,-0.0450,-1.7489,
13.433070,0.1116,1.5382,-0.1160,2.1893,2.5693,0.3631,0.7149,0.1405,-2.2109,
13.434737,0.1116,1.5382,-0.1160,5.0824,5.1146,0.7002,0.7149,0.1405,-2.2109,
13.484520,0.4576,1.8359,-0.0786,5.0824,5.1146,0.7002,0.7149,0.1405,-2.2109,
13.486521,0.9920,1.8662,-0.0952,5.0824,5.1146,0.7002,0.7149,0.1405,-2.2109,
13.488015,0.9166,1.4928,0.0430,5.0824,5.1146,0.7002,0.7149,0.1405,-2.2109,
13.489132,0.9166,1.4928,0.0430,5.0824,5.1146,0.7002,0.7404,0.7029,-2.5459,
13.490211,0.9166,1.4928,0.0430,13.3543,9.3380,1.8568,0.7404,0.7029,-2.5459,
13.543557,-0.0354,1.0558,0.1477,13.3543,9.3380,1.8568,0.7404,0.7029,-2.5459,
13.547939,-0.8893,1.1425,-0.2188,13.3543,9.3380,1.8568,0.7404,0.7029,-2.5459,
13.550465,-1.1339,1.4076,-0.3179,13.3543,9.3380,1.8568,0.7404,0.7029,-2.5459,
13.553408,-1.1339,1.4076,-0.3179,13.3543,9.3380,1.8568,0.7391,2.6559,-3.8432,
13.556100,-1.1339,1.4076,-0.3179,-0.0079,5.5728,2.2459,0.7391,2.6559,-3.8432,
13.602092,-0.8182,0.9554,-0.3426,-0.0079,5.5728,2.2459,0.7391,2.6559,-3.8432,
13.606165,-0.6556,0.5213,-0.2376,-0.0079,5.5728,2.2459,0.7391,2.6559,-3.8432,
13.608329,-0.6461,0.4112,-0.3037,-0.0079,5.5728,2.2459,0.7391,2.6559,-3.8432,
13.610439,-0.6461,0.4112,-0.3037,-0.0079,5.5728,2.2459,0.2152,1.0584,-1.5555,
13.612503,-0.6461,0.4112,-0.3037,0.0901,0.6207,1.1089,0.2152,1.0584,-1.5555,
13.660379,-0.5738,0.3860,-0.4163,0.0901,0.6207,1.1089,0.2152,1.0584,-1.5555,
13.664436,-0.3833,0.2605,-0.1294,0.0901,0.6207,1.1089,0.2152,1.0584,-1.5555,
13.666715,-0.2266,0.1177,-0.0549,0.0901,0.6207,1.1089,0.2152,1.0584,-1.5555,
13.668408,-0.2266,0.1177,-0.0549,0.0901,0.6207,1.1089,-1.4686,-0.0847,1.4875,
13.670816,-0.2266,0.1177,-0.0549,2.5966,-3.8921,1.4675,-1.4686,-0.0847,1.4875,
13.719333,-0.2266,0.1177,-0.0549,2.7090,-5.1761,-0.2991,-1.4686,-0.0847,1.4875,
13.722729,-0.2129,0.1345,-0.0942,2.7090,-5.1761,-0.2991,-1.4686,-0.0847,1.4875,
13.725283,-0.2627,0.2622,-0.3286,2.7090,-5.1761,-0.2991,-1.4686,-0.0847,1.4875,
13.727528,-0.2058,0.4327,-0.4180,2.7090,-5.1761,-0.2991,-1.4686,-0.0847,1.4875,
13.729850,-0.2058,0.4327,-0.4180,2.7090,-5.1761,-0.2991,-1.6799,-0.8548,3.8591,
13.776405,-0.1931,0.5823,-0.2771,2.7090,-5.1761,-0.2991,-1.6799,-0.8548,3.8591,
13.780202,-0.1885,0.5972,-0.1804,2.7090,-5.1761,-0.2991,-1.6799,-0.8548,3.8591,
13.782076,-0.1587,0.7039,-0.1155,2.7090,-5.1761,-0.2991,-1.6799,-0.8548,3.8591,
13.784061,-0.1587,0.7039,-0.1155,2.7090,-5.1761,-0.2991,-1.8057,-0.4539,5.7813,
13.786596,-0.1587,0.7039,-0.1155,0.2893,-3.0810,-0.4302,-1.8057,-0.4539,5.7813,
13.834496,-0.1311,1.0846,-0.3296,0.2893,-3.0810,-0.4302,-1.8057,-0.4539,5.7813,
13.836808,-0.1465,1.6489,-0.4510,0.2893,-3.0810,-0.4302,-1.8057,-0.4539,5.7813,
13.838415,-0.4600,2.0739,-0.5367,0.2893,-3.0810,-0.4302,-1.8057,-0.4539,5.7813,
13.839933,-0.4600,2.0739,-0.5367,0.2893,-3.0810,-0.4302,-1.3846,0.5482,6.4471,
13.841325,-0.4600,2.0739,-0.5367,-3.8713,6.1774,-3.5710,-1.3846,0.5482,6.4471,
13.893948,-0.4600,2.0739,-0.5367,-13.3225,5.7742,-2.6466,-1.3846,0.5482,6.4471,
13.898245,-0.9505,1.9169,-0.3831,-13.3225,5.7742,-2.6466,-1.3846,0.5482,6.4471,
13.901813,-1.0253,1.4062,-0.0513,-13.3225,5.7742,-2.6466,-1.3846,0.5482,6.4471,
13.904369,-0.8985,1.1442,-0.3045,-13.3225,5.7742,-2.6466,-1.3846,0.5482,6.4471,
13.906029,-0.8985,1.1442,-0.3045,-13.3225,5.7742,-2.6466,-1.5186,1.1254,5.0041,
13.954387,-0.9955,0.9276,-0.3951,-13.3225,5.7742,-2.6466,-1.5186,1.1254,5.0041,
13.959091,-1.1661,0.7794,-0.2830,-13.3225,5.7742,-2.6466,-1.5186,1.1254,5.0041,
13.960859,-1.1525,0.9496,-0.5577,-13.3225,5.7742,-2.6466,-1.5186,1.1254,5.0041,
13.964328,-1.1525,0.9496,-0.5577,-13.3225,5.7742,-2.6466,-0.3297,-0.5650,-0.0971,
13.967627,-1.1525,0.9496,-0.5577,-14.4751,-0.1545,-4.2300,-0.3297,-0.5650,-0.0971,
14.011795,0.0867,1.6169,-0.5001,-14.4751,-0.1545,-4.2300,-0.3297,-0.5650,-0.0971,
14.018336,2.3342,1.7941,0.2022,-14.4751,-0.1545,-4.2300,-0.3297,-0.5650,-0.0971,
14.021297,1.4108,1.5280,-0.3199,-14.4751,-0.1545,-4.2300,-0.3297,-0.5650,-0.0971,
14.023991,1.4108,1.5280,-0.3199,-14.4751,-0.1545,-4.2300,-0.4859,-2.8267,-1.7434,
14.025343,1.4108,1.5280,-0.3199,9.6113,6.8615,-1.9038,-0.4859,-2.8267,-1.7434,
14.068424,-0.9962,1.2543,-0.7244,9.6113,6.8615,-1.9038,-0.4859,-2.8267,-1.7434,
14.072423,-0.9215,0.7960,0.4185,9.6113,6.8615,-1.9038,-0.4859,-2.8267,-1.7434,
14.074754,-0.0779,0.6187,0.3787,9.6113,6.8615,-1.9038,-0.4859,-2.8267,-1.7434,
14.076427,-0.0779,0.6187,0.3787,-7.6145,-0.9063,0.2089,-0.4859,-2.8267,-1.7434,
14.078162,-0.0779,0.6187,0.3787,-7.6145,-0.9063,0.2089,-0.2580,0.1737,-3.0336,
14.126605,-0.0730,1.0104,0.0867,-7.6145,-0.9063,0.2089,-0.2580,0.1737,-3.0336,
14.130221,-0.1570,1.1598,-0.0603,-7.6145,-0.9063,0.2089,-0.2580,0.1737,-3.0336,
14.132825,-0.2044,1.1166,-0.0391,-7.6145,-0.9063,0.2089,-0.2580,0.1737,-3.0336,
14.135365,-0.2044,1.1166,-0.0391,-7.6145,-0.9063,0.2089,0.0045,0.1234,-1.5569,
14.137765,-0.2044,1.1166,-0.0391,-1.6098,1.0345,-0.0709,0.0045,0.1234,-1.5569,
14.186877,0.0728,1.0277,-0.0366,-1.6098,1.0345,-0.0709,0.0045,0.1234,-1.5569,
14.190034,0.1116,1.0060,0.0081,-1.6098,1.0345,-0.0709,0.0045,0.1234,-1.5569,
14.191799,-0.1980,0.9981,0.1150,-1.6098,1.0345,-0.0709,0.0045,0.1234,-1.5569,
14.193313,-0.1980,0.9981,0.1150,-1.6098,1.0345,-0.0709,0.0676,0.0387,-1.2103,
14.194880,-0.1980,0.9981,0.1150,0.4418,0.2089,0.2864,0.0676,0.0387,-1.2103,
14.244524,-0.2832,0.9647,0.0991,0.4418,0.2089,0.2864,0.0676,0.0387,-1.2103,
14.248486,-0.0376,0.9874,0.0039,0.4418,0.2089,0.2864,0.0676,0.0387,-1.2103,
14.250525,0.0908,1.0360,-0.0269,0.4418,0.2089,0.2864,0.0676,0.0387,-1.2103,
14.252476,0.0908,1.0360,-0.0269,0.4418,0.2089,0.2864,0.1358,-0.0902,-1.0266,
14.255017,0.0908,1.0360,-0.0269,0.3094,0.1110,0.3196,0.1358,-0.0902,-1.0266,
14.307047,-0.0249,1.0392,0.0200,0.3094,0.1110,0.3196,0.1358,-0.0902,-1.0266,
14.310209,-0.0867,1.0006,0.0188,0.3094,0.1110,0.3196,0.1358,-0.0902,-1.0266,
14.312038,-0.1257,0.9701,0.0347,0.3094,0.1110,0.3196,0.1358,-0.0902,-1.0266,
14.313765,-0.1257,0.9701,0.0347,0.3094,0.1110,0.3196,0.1531,0.3596,-1.2742,
14.315837,-0.1257,0.9701,0.0347,0.9799,0.2837,0.4205,0.1531,0.3596,-1.2742,
14.360022,-0.2154,0.9813,0.0181,0.9799,0.2837,0.4205,0.1531,0.3596,-1.2742,
14.363794,-0.2097,0.9789,0.0081,0.9799,0.2837,0.4205,0.1531,0.3596,-1.2742,
14.365610,-0.1756,0.9745,-0.0095,0.9799,0.2837,0.4205,0.1531,0.3596,-1.2742,
14.367587,-0.1756,0.9745,-0.0095,0.9799,0.2837,0.4205,0.1674,0.3887,-1.3923,
14.369615,-0.1756,0.9745,-0.0095,0.5471,0.2106,0.3693,0.1674,0.3887,-1.3923,
14.418183,-0.1997,0.9537,-0.0689,0.5471,0.2106,0.3693,0.1674,0.3887,-1.3923,
14.420843,-0.2422,0.9237,-0.1028,0.5471,0.2106,0.3693,0.1674,0.3887,-1.3923,
14.422579,-0.2466,0.9627,-0.1206,0.5471,0.2106,0.3693,0.1674,0.3887,-1.3923,
14.424972,-0.2466,0.9627,-0.1206,0.5471,0.2106,0.3693,0.0922,0.4191,-1.5487,
14.427134,-0.2466,0.9627,-0.1206,1.0680,0.1653,-0.5097,0.0922,0.4191,-1.5487,
14.477121,-0.2493,1.0868,-0.1008,1.0680,0.1653,-0.5097,0.0922,0.4191,-1.5487,
14.480466,-0.2263,1.2194,-0.0684,1.0680,0.1653,-0.5097,0.0922,0.4191,-1.5487,
14.482345,-0.0344,1.2601,-0.0396,1.0680,0.1653,-0.5097,0.0922,0.4191,-1.5487,
14.484426,-0.0344,1.2601,-0.0396,1.0680,0.1653,-0.5097,0.1932,0.0047,-1.8197,
14.486703,-0.0344,1.2601,-0.0396,2.5541,2.8965,-0.1352,0.1932,0.0047,-1.8197,
14.533628,0.1550,1.3129,-0.0161,2.5541,2.8965,-0.1352,0.1932,0.0047,-1.8197,
14.534940,0.0767,1.3104,-0.1013,2.5541,2.8965,-0.1352,0.1932,0.0047,-1.8197,
14.535722,-0.0200,1.4191,-0.2073,2.5541,2.8965,-0.1352,0.1932,0.0047,-1.8197,
14.536481,-0.0200,1.4191,-0.2073,2.5541,2.8965,-0.1352,0.3938,0.5474,-2.5827,
14.537154,-0.0200,1.4191,-0.2073,6.0507,5.1125,-0.1616,0.3938,0.5474,-2.5827,
14.593071,-0.0200,1.4191,-0.2073,12.8338,9.4557,0.1154,0.3938,0.5474,-2.5827,
14.595036,0.3692,1.8283,-0.1697,12.8338,9.4557,0.1154,0.3938,0.5474,-2.5827,
14.595827,1.0531,1.9526,-0.2207,12.8338,9.4557,0.1154,0.3938,0.5474,-2.5827,
14.596492,0.6065,1.3317,-0.1509,12.8338,9.4557,0.1154,0.3938,0.5474,-2.5827,
14.597334,0.6065,1.3317,-0.1509,12.8338,9.4557,0.1154,0.4506,2.2517,-2.8118,
14.651287,-0.6558,0.8922,-0.0884,12.8338,9.4557,0.1154,0.4506,2.2517,-2.8118,
14.654166,-1.3810,1.1029,-0.3233,12.8338,9.4557,0.1154,0.4506,2.2517,-2.8118,
14.657325,-1.4828,1.1840,-0.3887,12.8338,9.4557,0.1154,0.4506,2.2517,-2.8118,
14.659217,-1.4828,1.1840,-0.3887,12.8338,9.4557,0.1154,1.2399,2.9607,-3.8499,
14.661329,-1.4828,1.1840,-0.3887,-4.2392,4.7727,0.8808,1.2399,2.9607,-3.8499,
14.710027,-0.9823,0.6741,-0.1487,-4.2392,4.7727,0.8808,1.2399,2.9607,-3.8499,
14.713252,-0.8556,0.3467,-0.2205,-4.2392,4.7727,0.8808,1.2399,2.9607,-3.8499,
14.715490,-0.7135,0.1702,-0.3567,-4.2392,4.7727,0.8808,1.2399,2.9607,-3.8499,
14.717766,-0.7135,0.1702,-0.3567,-4.2392,4.7727,0.8808,0.3865,-0.6102,-0.3516,
14.719898,-0.7135,0.1702,-0.3567,-0.8233,-1.4674,0.9615,0.3865,-0.6102,-0.3516,
14.768805,-0.3721,0.0852,-0.0356,-0.8233,-1.4674,0.9615,0.3865,-0.6102,-0.3516,
14.772410,-0.0667,-0.2034,0.1279,-0.8233,-1.4674,0.9615,0.3865,-0.6102,-0.3516,
14.774683,-0.1255,-0.1677,0.0266,-0.8233,-1.4674,0.9615,0.3865,-0.6102,-0.3516,
14.776418,-0.1255,-0.1677,0.0266,-0.8233,-1.4674,0.9615,-0.2256,-1.6656,3.1263,
14.779170,-0.1255,-0.1677,0.0266,4.7730,-7.5042,2.8935,-0.2256,-1.6656,3.1263,
14.830980,-0.1533,-0.0107,-0.1555,4.7730,-7.5042,2.8935,-0.2256,-1.6656,3.1263,
14.834352,-0.3958,0.2710,-0.4432,4.7730,-7.5042,2.8935,-0.2256,-1.6656,3.1263,
14.836793,-0.5113,0.4485,-0.1470,4.7730,-7.5042,2.8935,-0.2256,-1.6656,3.1263,
14.839135,-0.5113,0.4485,-0.1470,4.7730,-7.5042,2.8935,0.9446,-1.9104,5.0802,
14.841358,-0.5113,0.4485,-0.1470,1.1974,-5.7178,-0.1532,0.9446,-1.9104,5.0802,
14.885888,-0.4268,0.4788,-0.0283,1.1974,-5.7178,-0.1532,0.9446,-1.9104,5.0802,
14.890237,-0.5828,0.7327,-0.3277,1.1974,-5.7178,-0.1532,0.9446,-1.9104,5.0802,
14.893492,-0.8128,1.2318,-0.2783,1.1974,-5.7178,-0.1532,0.9446,-1.9104,5.0802,
14.895787,-0.8128,1.2318,-0.2783,1.1974,-5.7178,-0.1532,1.9430,-4.3506,6.7689,
14.901502,-0.8128,1.2318,-0.2783,-4.0529,-1.0596,0.3774,1.9430,-4.3506,6.7689,
14.943197,-0.9183,1.4667,-0.2571,-4.0529,-1.0596,0.3774,1.9430,-4.3506,6.7689,
14.945225,-0.9437,1.6423,-0.2954,-4.0529,-1.0596,0.3774,1.9430,-4.3506,6.7689,
14.946187,-0.6121,1.6740,-0.1152,-4.0529,-1.0596,0.3774,1.9430,-4.3506,6.7689,
14.947048,-0.6121,1.6740,-0.1152,-4.0529,-1.0596,0.3774,3.0598,-8.1246,6.4254,
14.948019,-0.6121,1.6740,-0.1152,-7.9944,6.7082,1.5062,3.0598,-8.1246,6.4254,
15.003681,-0.2415,1.5837,0.2598,-7.9944,6.7082,1.5062,3.0598,-8.1246,6.4254,
15.006570,0.1021,1.2899,0.5311,-7.9944,6.7082,1.5062,3.0598,-8.1246,6.4254,
15.008657,0.3731,0.7757,0.7745,-7.9944,6.7082,1.5062,3.0598,-8.1246,6.4254,
15.010414,0.3731,0.7757,0.7745,-7.9944,6.7082,1.5062,0.6986,-7.7924,3.3203,
15.012240,0.3731,0.7757,0.7745,0.9361,3.1132,9.0101,0.6986,-7.7924,3.3203,
15.059106,-0.4856,0.7308,0.1926,0.9361,3.1132,9.0101,0.6986,-7.7924,3.3203,
15.061094,-0.9713,1.2824,0.5506,0.9361,3.1132,9.0101,0.6986,-7.7924,3.3203,
15.061904,-0.3929,1.0340,1.1478,0.9361,3.1132,9.0101,0.6986,-7.7924,3.3203,
15.062828,-0.3929,1.0340,1.1478,0.9361,3.1132,9.0101,-0.5431,-0.6312,-0.5479,
15.064825,-0.3929,1.0340,1.1478,-5.3446,1.0296,9.6317,-0.5431,-0.6312,-0.5479,
15.117977,0.0339,1.1146,-0.0833,-5.3446,1.0296,9.6317,-0.5431,-0.6312,-0.5479,
15.121456,0.0054,1.8190,-0.9952,-5.3446,1.0296,9.6317,-0.5431,-0.6312,-0.5479,
15.124323,-0.1673,1.6921,-0.8998,-5.3446,1.0296,9.6317,-0.5431,-0.6312,-0.5479,
15.128465,-0.1673,1.6921,-0.8998,-5.3446,1.0296,9.6317,-0.5903,-0.0389,-0.2547,
15.131167,-0.1673,1.6921,-0.8998,0.4146,5.9827,-3.2630,-0.5903,-0.0389,-0.2547,
15.175443,-0.1504,0.9344,-0.4568,0.4146,5.9827,-3.2630,-0.5903,-0.0389,-0.2547,
15.177367,0.2554,0.7337,-0.2928,0.4146,5.9827,-3.2630,-0.5903,-0.0389,-0.2547,
15.178430,0.0078,1.0174,0.0681,0.4146,5.9827,-3.2630,-0.5903,-0.0389,-0.2547,
15.179462,0.0078,1.0174,0.0681,0.4146,5.9827,-3.2630,-0.6272,-1.1859,0.0961,
15.180580,0.0078,1.0174,0.0681,1.3326,-0.4626,0.5635,-0.6272,-1.1859,0.0961,
15.235712,-0.1970,1.1012,0.0461,1.3326,-0.4626,0.5635,-0.6272,-1.1859,0.0961,
15.239326,-0.2334,0.9173,-0.1477,1.3326,-0.4626,0.5635,-0.6272,-1.1859,0.0961,
15.241917,-0.2771,0.9198,-0.2385,1.3326,-0.4626,0.5635,-0.6272,-1.1859,0.0961,
15.243834,-0.2771,0.9198,-0.2385,1.3326,-0.4626,0.5635,-0.1776,-0.2665,0.0342,
15.245129,-0.2771,0.9198,-0.2385,-1.3011,0.3271,1.5413,-0.1776,-0.2665,0.0342,
15.294021,-0.3196,0.9430,-0.2578,-1.3011,0.3271,1.5413,-0.1776,-0.2665,0.0342,
15.297956,-0.2776,0.9466,-0.2928,-1.3011,0.3271,1.5413,-0.1776,-0.2665,0.0342,
15.300361,-0.1477,0.9513,-0.2862,-1.3011,0.3271,1.5413,-0.1776,-0.2665,0.0342,
15.302552,-0.1477,0.9513,-0.2862,-1.3011,0.3271,1.5413,-0.0175,-0.6302,0.5123,
15.304437,-0.1477,0.9513,-0.2862,-1.5776,-0.0210,-0.1225,-0.0175,-0.6302,0.5123,
15.352611,0.0344,0.9364,-0.2923,-1.5776,-0.0210,-0.1225,-0.0175,-0.6302,0.5123,
15.354652,0.1704,0.9166,-0.2422,-1.5776,-0.0210,-0.1225,-0.0175,-0.6302,0.5123,
15.355301,0.1404,0.9400,-0.2180,-1.5776,-0.0210,-0.1225,-0.0175,-0.6302,0.5123,
15.356173,0.1404,0.9400,-0.2180,-1.5776,-0.0210,-0.1225,-0.0674,-0.7815,0.5634,
15.357101,0.1404,0.9400,-0.2180,1.7650,-0.2090,0.0801,-0.0674,-0.7815,0.5634,
15.411617,-0.0002,0.9708,-0.2100,1.7650,-0.2090,0.0801,-0.0674,-0.7815,0.5634,
15.413915,-0.1087,0.9637,-0.2185,1.7650,-0.2090,0.0801,-0.0674,-0.7815,0.5634,
15.414669,-0.0352,0.9356,-0.1853,1.7650,-0.2090,0.0801,-0.0674,-0.7815,0.5634,
15.415438,-0.0352,0.9356,-0.1853,1.7650,-0.2090,0.0801,0.0167,-0.4824,0.0387,
15.416182,-0.0352,0.9356,-0.1853,0.2131,0.0435,0.5155,0.0167,-0.4824,0.0387,
15.469436,0.0544,0.9659,-0.1038,0.2131,0.0435,0.5155,0.0167,-0.4824,0.0387,
15.472303,-0.0461,1.0028,-0.1904,0.2131,0.0435,0.5155,0.0167,-0.4824,0.0387,
15.474190,-0.1746,0.9837,-0.2212,0.2131,0.0435,0.5155,0.0167,-0.4824,0.0387,
15.476069,-0.1746,0.9837,-0.2212,0.2131,0.0435,0.5155,0.2329,-0.6487,-0.1348,
15.478112,-0.1746,0.9837,-0.2212,0.3055,0.3474,0.9190,0.2329,-0.6487,-0.1348,
15.527767,-0.1509,0.9593,-0.2886,0.3055,0.3474,0.9190,0.2329,-0.6487,-0.1348,
15.531549,-0.1306,0.9681,-0.2447,0.3055,0.3474,0.9190,0.2329,-0.6487,-0.1348,
15.534518,-0.1060,0.9830,-0.2151,0.3055,0.3474,0.9190,0.2329,-0.6487,-0.1348,
15.536432,-0.1060,0.9830,-0.2151,0.3055,0.3474,0.9190,0.4194,-0.2981,-0.0582,
15.538356,-0.1060,0.9830,-0.2151,-0.3334,0.2748,0.3632,0.4194,-0.2981,-0.0582,
15.585787,-0.0210,1.0174,-0.1775,-0.3334,0.2748,0.3632,0.4194,-0.2981,-0.0582,
15.588822,0.0361,1.0108,-0.2200,-0.3334,0.2748,0.3632,0.4194,-0.2981,-0.0582,
15.591176,0.0767,0.9701,-0.2920,-0.3334,0.2748,0.3632,0.4194,-0.2981,-0.0582,
15.593116,0.0767,0.9701,-0.2920,-0.3334,0.2748,0.3632,0.7021,-0.0159,-0.0607,
15.595127,0.0767,0.9701,-0.2920,1.2459,0.6764,0.9146,0.7021,-0.0159,-0.0607,
15.646042,0.0354,1.0182,-0.2637,1.2459,0.6764,0.9146,0.7021,-0.0159,-0.0607,
15.649972,0.0427,1.0463,-0.2527,1.2459,0.6764,0.9146,0.7021,-0.0159,-0.0607,
15.652524,-0.0398,1.0707,-0.2102,1.2459,0.6764,0.9146,0.7021,-0.0159,-0.0607,
15.654971,-0.0398,1.0707,-0.2102,1.2459,0.6764,0.9146,1.2828,0.5034,-0.4009,
15.657008,-0.0398,1.0707,-0.2102,1.1571,1.3862,1.4697,1.2828,0.5034,-0.4009,
15.702113,0.0293,1.1903,-0.3648,1.1571,1.3862,1.4697,1.2828,0.5034,-0.4009,
15.705474,0.2657,1.5380,-0.3643,1.1571,1.3862,1.4697,1.2828,0.5034,-0.4009,
15.707157,0.4954,1.8215,-0.1958,1.1571,1.3862,1.4697,1.2828,0.5034,-0.4009,
15.708785,0.4954,1.8215,-0.1958,1.1571,1.3862,1.4697,2.2433,-1.1612,-0.5573,
15.710155,0.4954,1.8215,-0.1958,4.1247,6.5119,1.8205,2.2433,-1.1612,-0.5573,
15.759621,0.4583,1.7653,-0.0693,4.1247,6.5119,1.8205,2.2433,-1.1612,-0.5573,
15.762575,0.2000,1.5434,0.3360,4.1247,6.5119,1.8205,2.2433,-1.1612,-0.5573,
15.765022,-0.4510,1.4994,0.4876,4.1247,6.5119,1.8205,2.2433,-1.1612,-0.5573,
15.767038,-0.4510,1.4994,0.4876,4.1247,6.5119,1.8205,2.6176,-2.5259,-1.1103,
15.770028,-0.4510,1.4994,0.4876,3.4592,8.1710,8.0523,2.6176,-2.5259,-1.1103,
15.818006,-1.0045,1.5204,0.3174,3.4592,8.1710,8.0523,2.6176,-2.5259,-1.1103,
15.821205,-1.0817,1.3700,0.0120,3.4592,8.1710,8.0523,2.6176,-2.5259,-1.1103,
15.822907,-0.9190,1.0043,-0.2344,3.4592,8.1710,8.0523,2.6176,-2.5259,-1.1103,
15.825267,-0.9190,1.0043,-0.2344,3.4592,8.1710,8.0523,2.1399,-4.3718,-1.2985,
15.827718,-0.9190,1.0043,-0.2344,-4.9778,6.0733,5.7170,2.1399,-4.3718,-1.2985,
15.875998,-0.6592,0.9625,-0.4773,-4.9778,6.0733,5.7170,2.1399,-4.3718,-1.2985,
15.878481,-0.1255,0.7862,-0.1997,-4.9778,6.0733,5.7170,2.1399,-4.3718,-1.2985,
15.879261,0.0383,0.5179,0.1438,-4.9778,6.0733,5.7170,2.1399,-4.3718,-1.2985,
15.880295,0.0383,0.5179,0.1438,-4.9778,6.0733,5.7170,1.4058,-4.8045,0.4327,
15.881185,0.0383,0.5179,0.1438,3.5681,0.9988,2.6007,1.4058,-4.8045,0.4327,
15.935963,-0.2415,0.4310,0.2403,3.5681,0.9988,2.6007,1.4058,-4.8045,0.4327,
15.939112,-0.3379,0.4720,0.1861,3.5681,0.9988,2.6007,1.4058,-4.8045,0.4327,
15.941117,-0.2405,0.4981,0.1751,3.5681,0.9988,2.6007,1.4058,-4.8045,0.4327,
15.943067,-0.2405,0.4981,0.1751,3.2338,-2.4753,5.0468,1.4058,-4.8045,0.4327,
15.944496,-0.2405,0.4981,0.1751,3.2338,-2.4753,5.0468,0.4070,-3.7424,2.2055,
15.995643,-0.1936,0.5110,0.1284,3.2338,-2.4753,5.0468,0.4070,-3.7424,2.2055,
15.999327,-0.1680,0.5787,0.0706,3.2338,-2.4753,5.0468,0.4070,-3.7424,2.2055,
16.001750,-0.0808,0.6986,0.0105,3.2338,-2.4753,5.0468,0.4070,-3.7424,2.2055,
16.003762,-0.0808,0.6986,0.0105,3.2338,-2.4753,5.0468,0.2535,-2.0230,4.3154,
16.004921,-0.0808,0.6986,0.0105,2.8083,-2.4308,3.1929,0.2535,-2.0230,4.3154,
16.051532,-0.1226,0.8189,-0.0098,2.8083,-2.4308,3.1929,0.2535,-2.0230,4.3154,
16.055523,-0.2520,0.9906,-0.0671,2.8083,-2.4308,3.1929,0.2535,-2.0230,4.3154,
16.057201,-0.3306,1.1525,-0.1345,2.8083,-2.4308,3.1929,0.2535,-2.0230,4.3154,
16.059001,-0.3306,1.1525,-0.1345,2.8083,-2.4308,3.1929,-0.1926,-0.3816,5.4583,
16.061688,-0.3306,1.1525,-0.1345,-0.7890,0.4388,1.6015,-0.1926,-0.3816,5.4583,
16.109137,-0.3916,1.3082,-0.1436,-0.7890,0.4388,1.6015,-0.1926,-0.3816,5.4583,
16.111495,-0.5289,1.5397,-0.2910,-0.7890,0.4388,1.6015,-0.1926,-0.3816,5.4583,
16.113097,-0.5682,1.5871,-0.2432,-0.7890,0.4388,1.6015,-0.1926,-0.3816,5.4583,
16.114736,-0.5682,1.5871,-0.2432,-0.7890,0.4388,1.6015,-1.0440,-0.8295,6.3681,
16.116296,-0.5682,1.5871,-0.2432,-6.6186,5.1079,-0.4707,-1.0440,-0.8295,6.3681,
16.167905,-0.6549,1.4782,-0.1206,-6.6186,5.1079,-0.4707,-1.0440,-0.8295,6.3681,
16.171203,-0.7855,1.4245,-0.0217,-6.6186,5.1079,-0.4707,-1.0440,-0.8295,6.3681,
16.174812,-0.8062,1.2907,-0.1235,-6.6186,5.1079,-0.4707,-1.0440,-0.8295,6.3681,
16.177769,-0.8062,1.2907,-0.1235,-6.6186,5.1079,-0.4707,-1.2321,-0.1018,5.0136,
16.180754,-0.8062,1.2907,-0.1235,-11.5325,5.0328,0.2325,-1.2321,-0.1018,5.0136,
16.227412,-1.0499,1.0751,-0.2442,-11.5325,5.0328,0.2325,-1.2321,-0.1018,5.0136,
16.231211,-1.2401,0.8617,-0.1343,-11.5325,5.0328,0.2325,-1.2321,-0.1018,5.0136,
16.233852,-1.0992,0.7872,-0.1528,-11.5325,5.0328,0.2325,-1.2321,-0.1018,5.0136,
16.236826,-1.0992,0.7872,-0.1528,-11.5325,5.0328,0.2325,-0.7302,0.1456,0.5024,
16.239693,-1.0992,0.7872,-0.1528,-15.2656,0.3153,-1.0196,-0.7302,0.1456,0.5024,
16.284968,-0.8563,1.0519,-0.5845,-15.2656,0.3153,-1.0196,-0.7302,0.1456,0.5024,
16.289088,0.3291,1.4145,-0.6263,-15.2656,0.3153,-1.0196,-0.7302,0.1456,0.5024,
16.291943,2.1719,1.6694,-0.1902,-15.2656,0.3153,-1.0196,-0.7302,0.1456,0.5024,
16.295226,2.1719,1.6694,-0.1902,-15.2656,0.3153,-1.0196,-0.4417,-1.8990,-1.9110,
16.297982,2.1719,1.6694,-0.1902,2.2100,4.4242,-3.6169,-0.4417,-1.8990,-1.9110,
16.345633,1.2897,1.6095,-0.5152,2.2100,4.4242,-3.6169,-0.4417,-1.8990,-1.9110,
16.350723,-0.7750,1.4394,-0.6373,2.2100,4.4242,-3.6169,-0.4417,-1.8990,-1.9110,
16.353337,-0.7320,1.0150,-0.1858,2.2100,4.4242,-3.6169,-0.4417,-1.8990,-1.9110,
16.356002,-0.7320,1.0150,-0.1858,2.2100,4.4242,-3.6169,-0.5028,-2.0346,-2.1826,
16.358640,-0.7320,1.0150,-0.1858,-2.5312,3.7762,-3.3281,-0.5028,-2.0346,-2.1826,
16.404459,0.1150,0.5367,0.4705,-2.5312,3.7762,-3.3281,-0.5028,-2.0346,-2.1826,
16.408525,0.1719,0.8394,0.6910,-2.5312,3.7762,-3.3281,-0.5028,-2.0346,-2.1826,
16.410826,0.1094,1.0358,0.0730,-2.5312,3.7762,-3.3281,-0.5028,-2.0346,-2.1826,
16.414330,0.1094,1.0358,0.0730,-2.5312,3.7762,-3.3281,-0.4557,-0.2620,-1.8269,
16.417178,0.1094,1.0358,0.0730,0.5029,-1.7538,4.7691,-0.4557,-0.2620,-1.8269,
16.460634,-0.2879,1.0370,-0.2718,0.5029,-1.7538,4.7691,-0.4557,-0.2620,-1.8269,
16.466177,-0.3804,1.0572,-0.2027,0.5029,-1.7538,4.7691,-0.4557,-0.2620,-1.8269,
16.468757,-0.1990,1.1288,-0.1619,0.5029,-1.7538,4.7691,-0.4557,-0.2620,-1.8269,
16.471197,-0.1990,1.1288,-0.1619,0.5029,-1.7538,4.7691,-0.1002,0.5498,-1.4538,
16.474482,-0.1990,1.1288,-0.1619,-2.7805,0.8443,-1.3840,-0.1002,0.5498,-1.4538,
16.520479,-0.0859,1.0460,-0.0833,-2.7805,0.8443,-1.3840,-0.1002,0.5498,-1.4538,
16.525511,-0.1453,1.0162,0.0039,-2.7805,0.8443,-1.3840,-0.1002,0.5498,-1.4538,
16.526705,-0.0288,1.0025,0.0012,-2.7805,0.8443,-1.3840,-0.1002,0.5498,-1.4538,
16.527759,-0.0288,1.0025,0.0012,-2.7805,0.8443,-1.3840,-0.1248,-0.4675,-0.7568,
16.529021,-0.0288,1.0025,0.0012,-0.3459,0.3290,0.3524,-0.1248,-0.4675,-0.7568,
16.576484,0.2058,0.9481,0.0188,-0.3459,0.3290,0.3524,-0.1248,-0.4675,-0.7568,
16.579655,0.1485,0.9596,0.0486,-0.3459,0.3290,0.3524,-0.1248,-0.4675,-0.7568,
16.582490,-0.0989,0.9754,0.0391,-0.3459,0.3290,0.3524,-0.1248,-0.4675,-0.7568,
16.585167,-0.0989,0.9754,0.0391,-0.3459,0.3290,0.3524,-0.0411,0.0232,-0.9680,
16.587389,-0.0989,0.9754,0.0391,1.8513,-0.2182,0.9189,-0.0411,0.0232,-0.9680,
16.635755,-0.1355,1.0013,0.0178,1.8513,-0.2182,0.9189,-0.0411,0.0232,-0.9680,
16.639533,-0.0505,1.0182,0.0088,1.8513,-0.2182,0.9189,-0.0411,0.0232,-0.9680,
16.641848,-0.0884,1.0055,-0.0181,1.8513,-0.2182,0.9189,-0.0411,0.0232,-0.9680,
16.644068,-0.0884,1.0055,-0.0181,1.8513,-0.2182,0.9189,0.0759,0.0538,-1.2722,
16.645173,-0.0884,1.0055,-0.0181,0.8166,0.3439,0.6351,0.0759,0.0538,-1.2722,
16.694285,-0.0884,1.0055,-0.0181,0.7965,0.2506,-0.1098,0.0759,0.0538,-1.2722,
16.696750,-0.1748,0.9884,-0.0742,0.7965,0.2506,-0.1098,0.0759,0.0538,-1.2722,
16.698283,-0.1687,0.9815,-0.0996,0.7965,0.2506,-0.1098,0.0759,0.0538,-1.2722,
16.699319,-0.1807,0.9698,-0.0801,0.7965,0.2506,-0.1098,0.0759,0.0538,-1.2722,
16.700700,-0.1807,0.9698,-0.0801,0.7965,0.2506,-0.1098,0.1431,0.2519,-1.4864,
16.751937,-0.2193,0.9820,-0.0452,0.7965,0.2506,-0.1098,0.1431,0.2519,-1.4864,
16.755584,-0.3072,1.0572,-0.0547,0.7965,0.2506,-0.1098,0.1431,0.2519,-1.4864,
16.757107,-0.2556,1.1393,-0.1099,0.7965,0.2506,-0.1098,0.1431,0.2519,-1.4864,
16.759117,-0.2556,1.1393,-0.1099,0.7965,0.2506,-0.1098,0.2183,0.2645,-1.6907,
16.761152,-0.2556,1.1393,-0.1099,0.8358,1.3104,0.1940,0.2183,0.2645,-1.6907,
16.808824,-0.1465,1.1927,-0.1096,0.8358,1.3104,0.1940,0.2183,0.2645,-1.6907,
16.810737,-0.1194,1.2582,-0.0628,0.8358,1.3104,0.1940,0.2183,0.2645,-1.6907,
16.812104,-0.0439,1.2785,-0.1013,0.8358,1.3104,0.1940,0.2183,0.2645,-1.6907,
16.813429,-0.0439,1.2785,-0.1013,0.8358,1.3104,0.1940,0.4337,-0.0024,-1.9574,
16.814790,-0.0439,1.2785,-0.1013,3.3329,3.5207,0.2032,0.4337,-0.0024,-1.9574,
16.868734,0.0098,1.3085,-0.1685,3.3329,3.5207,0.2032,0.4337,-0.0024,-1.9574,
16.872103,0.2305,1.5988,-0.1160,3.3329,3.5207,0.2032,0.4337,-0.0024,-1.9574,
16.874669,0.7596,1.9946,-0.0847,3.3329,3.5207,0.2032,0.4337,-0.0024,-1.9574,
16.877074,0.7596,1.9946,-0.0847,3.3329,3.5207,0.2032,0.5954,0.6036,-2.4671,
16.879351,0.7596,1.9946,-0.0847,8.6121,7.9711,0.3498,0.5954,0.6036,-2.4671,
16.926970,1.1512,2.0122,-0.1782,8.6121,7.9711,0.3498,0.5954,0.6036,-2.4671,
16.930705,0.7149,1.4469,-0.0381,8.6121,7.9711,0.3498,0.5954,0.6036,-2.4671,
16.932524,-0.4896,0.9811,-0.0364,8.6121,7.9711,0.3498,0.5954,0.6036,-2.4671,
16.934321,-0.4896,0.9811,-0.0364,8.6121,7.9711,0.3498,0.4494,2.3105,-3.3145,
16.936282,-0.4896,0.9811,-0.0364,10.8228,7.5413,1.7094,0.4494,2.3105,-3.3145,
16.985609,-1.1788,1.1788,-0.3379,10.8228,7.5413,1.7094,0.4494,2.3105,-3.3145,
16.988991,-1.0731,1.2494,-0.3174,10.8228,7.5413,1.7094,0.4494,2.3105,-3.3145,
16.991198,-0.7630,0.7113,-0.2381,10.8228,7.5413,1.7094,0.4494,2.3105,-3.3145,
16.993462,-0.7630,0.7113,-0.2381,10.8228,7.5413,1.7094,0.8244,2.4518,-3.3870,
16.995749,-0.7630,0.7113,-0.2381,-2.6952,4.7013,0.8660,0.8244,2.4518,-3.3870,
17.043436,-0.8883,0.4373,-0.2937,-2.6952,4.7013,0.8660,0.8244,2.4518,-3.3870,
17.046792,-0.7283,0.3279,-0.5604,-2.6952,4.7013,0.8660,0.8244,2.4518,-3.3870,
17.048661,-0.4476,0.2520,-0.2119,-2.6952,4.7013,0.8660,0.8244,2.4518,-3.3870,
17.050404,-0.4476,0.2520,-0.2119,-2.6952,4.7013,0.8660,-0.8656,0.2796,0.0045,
17.053485,-0.4476,0.2520,-0.2119,0.3362,-2.3838,0.1379,-0.8656,0.2796,0.0045,
17.101255,-0.1643,-0.0054,-0.0166,0.3362,-2.3838,0.1379,-0.8656,0.2796,0.0045,
17.104270,-0.0801,-0.0310,-0.1096,0.3362,-2.3838,0.1379,-0.8656,0.2796,0.0045,
17.106956,-0.1182,0.0979,-0.1343,0.3362,-2.3838,0.1379,-0.8656,0.2796,0.0045,
17.109816,-0.1182,0.0979,-0.1343,0.3362,-2.3838,0.1379,-1.6836,-0.3529,3.3547,
17.123291,-0.1182,0.0979,-0.1343,4.6023,-6.9783,1.9682,-1.6836,-0.3529,3.3547,
17.159392,-0.2332,0.3413,-0.3116,4.6023,-6.9783,1.9682,-1.6836,-0.3529,3.3547,
17.162157,-0.2171,0.5457,-0.3724,4.6023,-6.9783,1.9682,-1.6836,-0.3529,3.3547,
17.164746,-0.1406,0.6207,-0.2962,4.6023,-6.9783,1.9682,-1.6836,-0.3529,3.3547,
17.167065,-0.1406,0.6207,-0.2962,4.6023,-6.9783,1.9682,-1.5168,-0.6622,5.1252,
17.169539,-0.1406,0.6207,-0.2962,1.5140,-3.7968,-1.2477,-1.5168,-0.6622,5.1252,
17.219074,-0.1165,0.6094,-0.1113,1.5140,-3.7968,-1.2477,-1.5168,-0.6622,5.1252,
17.224068,-0.1450,0.8775,-0.1865,1.5140,-3.7968,-1.2477,-1.5168,-0.6622,5.1252,
17.227654,-0.2547,1.3917,-0.3448,1.5140,-3.7968,-1.2477,-1.5168,-0.6622,5.1252,
17.230062,-0.2547,1.3917,-0.3448,1.5140,-3.7968,-1.2477,-1.2077,0.1248,6.5402,
17.232751,-0.2547,1.3917,-0.3448,-1.7421,-0.0836,-0.7808,-1.2077,0.1248,6.5402,
17.275103,-0.5003,2.0920,-0.4522,-1.7421,-0.0836,-0.7808,-1.2077,0.1248,6.5402,
17.276827,-0.8035,2.2700,-0.3848,-1.7421,-0.0836,-0.7808,-1.2077,0.1248,6.5402,
17.277823,-0.9645,1.7453,0.1438,-1.7421,-0.0836,-0.7808,-1.2077,0.1248,6.5402,
17.278687,-0.9645,1.7453,0.1438,-1.7421,-0.0836,-0.7808,-1.4753,-0.0509,6.6715,
17.279669,-0.9645,1.7453,0.1438,-10.8900,10.9314,-1.7060,-1.4753,-0.0509,6.6715,
17.334510,-0.5611,1.1808,0.2993,-10.8900,10.9314,-1.7060,-1.4753,-0.0509,6.6715,
17.337898,-0.5223,1.0834,-0.2161,-10.8900,10.9314,-1.7060,-1.4753,-0.0509,6.6715,
17.340258,-0.9005,0.8717,-0.1460,-10.8900,10.9314,-1.7060,-1.4753,-0.0509,6.6715,
17.342416,-0.9005,0.8717,-0.1460,-10.8900,10.9314,-1.7060,-1.1197,-0.3551,2.8723,
17.344112,-0.9005,0.8717,-0.1460,-11.2227,1.8792,-0.1163,-1.1197,-0.3551,2.8723,
17.394229,-1.0397,0.7159,-0.1167,-11.2227,1.8792,-0.1163,-1.1197,-0.3551,2.8723,
17.398136,-1.0973,0.8846,-0.3948,-11.2227,1.8792,-0.1163,-1.1197,-0.3551,2.8723,
17.401032,-0.6155,1.3903,-0.9266,-11.2227,1.8792,-0.1163,-1.1197,-0.3551,2.8723,
17.404552,-0.6155,1.3903,-0.9266,-11.2227,1.8792,-0.1163,-0.2118,-1.6935,-2.3848,
17.407536,-0.6155,1.3903,-0.9266,-12.2985,0.8154,-4.2182,-0.2118,-1.6935,-2.3848,
17.452194,1.5348,1.5155,-0.1135,-12.2985,0.8154,-4.2182,-0.2118,-1.6935,-2.3848,
17.456914,2.8584,1.4647,-0.4317,-12.2985,0.8154,-4.2182,-0.2118,-1.6935,-2.3848,
17.459867,0.2730,1.8647,-0.5071,-12.2985,0.8154,-4.2182,-0.2118,-1.6935,-2.3848,
17.463866,0.2730,1.8647,-0.5071,-12.2985,0.8154,-4.2182,-0.9263,-4.4512,-0.8397,
17.465872,0.2730,1.8647,-0.5071,12.3341,6.5776,-2.6458,-0.9263,-4.4512,-0.8397,
17.509835,-1.1527,1.3180,-0.0654,12.3341,6.5776,-2.6458,-0.9263,-4.4512,-0.8397,
17.514333,-0.2845,0.4837,0.0288,12.3341,6.5776,-2.6458,-0.9263,-4.4512,-0.8397,
17.516192,0.4043,0.7789,0.3597,12.3341,6.5776,-2.6458,-0.9263,-4.4512,-0.8397,
17.517938,0.4043,0.7789,0.3597,12.3341,6.5776,-2.6458,-0.5017,1.2154,-2.9794,
17.519628,0.4043,0.7789,0.3597,-4.5919,-1.1831,1.4357,-0.5017,1.2154,-2.9794,
17.567863,-0.0335,1.0941,0.1104,-4.5919,-1.1831,1.4357,-0.5017,1.2154,-2.9794,
17.570817,-0.3636,1.0414,0.1067,-4.5919,-1.1831,1.4357,-0.5017,1.2154,-2.9794,
17.573308,-0.2549,0.9960,-0.1050,-4.5919,-1.1831,1.4357,-0.5017,1.2154,-2.9794,
17.575448,-0.2549,0.9960,-0.1050,-4.5919,-1.1831,1.4357,0.0430,-0.2105,-2.0055,
17.577245,-0.2549,0.9960,-0.1050,-2.1759,0.5317,0.7577,0.0430,-0.2105,-2.0055,
17.628290,0.0264,0.9369,-0.0742,-2.1759,0.5317,0.7577,0.0430,-0.2105,-2.0055,
17.631432,0.0537,0.9996,-0.0291,-2.1759,0.5317,0.7577,0.0430,-0.2105,-2.0055,
17.633897,-0.1602,1.0416,0.0007,-2.1759,0.5317,0.7577,0.0430,-0.2105,-2.0055,
17.636299,-0.1602,1.0416,0.0007,-2.1759,0.5317,0.7577,0.0556,-0.1873,-1.4312,
17.638606,-0.1602,1.0416,0.0007,0.4971,0.0612,0.0825,0.0556,-0.1873,-1.4312,
17.686153,-0.2317,1.0060,-0.0801,0.4971,0.0612,0.0825,0.0556,-0.1873,-1.4312,
17.688996,-0.1841,0.9608,-0.0908,0.4971,0.0612,0.0825,0.0556,-0.1873,-1.4312,
17.691081,-0.1069,0.9710,-0.0532,0.4971,0.0612,0.0825,0.0556,-0.1873,-1.4312,
17.693096,-0.1069,0.9710,-0.0532,0.4971,0.0612,0.0825,0.0564,-0.0552,-1.3284,
17.695173,-0.1069,0.9710,-0.0532,-0.1983,0.0185,-0.2815,0.0564,-0.0552,-1.3284,
17.744305,-0.1069,0.9710,-0.0532,-0.0700,0.2662,0.2009,0.0564,-0.0552,-1.3284,
17.748222,-0.1658,0.9737,-0.0232,-0.0700,0.2662,0.2009,0.0564,-0.0552,-1.3284,
17.750016,-0.2559,0.9828,-0.0310,-0.0700,0.2662,0.2009,0.0564,-0.0552,-1.3284,
17.751789,-0.2696,1.0177,-0.0320,-0.0700,0.2662,0.2009,0.0564,-0.0552,-1.3284,
17.754160,-0.2696,1.0177,-0.0320,-0.0700,0.2662,0.2009,0.0224,0.2014,-1.2309,
17.802449,-0.2740,1.0509,-0.0579,-0.0700,0.2662,0.2009,0.0224,0.2014,-1.2309,
17.806711,-0.2327,1.0231,-0.0872,-0.0700,0.2662,0.2009,0.0224,0.2014,-1.2309,
17.808779,-0.1704,0.9637,-0.0830,-0.0700,0.2662,0.2009,0.0224,0.2014,-1.2309,
17.810561,-0.1704,0.9637,-0.0830,-0.0700,0.2662,0.2009,0.0511,0.1102,-1.1065,
17.812455,-0.1704,0.9637,-0.0830,0.5685,0.6252,-0.2152,0.0511,0.1102,-1.1065,
17.859475,-0.1450,0.9088,-0.0779,0.5685,0.6252,-0.2152,0.0511,0.1102,-1.1065,
17.861737,-0.2171,0.9479,-0.0708,0.5685,0.6252,-0.2152,0.0511,0.1102,-1.1065,
17.863200,-0.2500,1.0245,-0.0986,0.5685,0.6252,-0.2152,0.0511,0.1102,-1.1065,
17.865343,-0.2500,1.0245,-0.0986,0.5685,0.6252,-0.2152,0.0240,0.3325,-1.3632,
17.867554,-0.2500,1.0245,-0.0986,1.4746,0.3586,-0.2004,0.0240,0.3325,-1.3632,
17.918028,-0.1941,1.0892,-0.0791,1.4746,0.3586,-0.2004,0.0240,0.3325,-1.3632,
17.920642,-0.1321,1.1735,-0.0586,1.4746,0.3586,-0.2004,0.0240,0.3325,-1.3632,
17.922773,-0.1597,1.1652,-0.0647,1.4746,0.3586,-0.2004,0.0240,0.3325,-1.3632,
17.924333,-0.1597,1.1652,-0.0647,2.7491,2.5109,0.0225,0.0240,0.3325,-1.3632,
17.925547,-0.1597,1.1652,-0.0647,2.7491,2.5109,0.0225,0.1682,-0.0370,-1.7562,
17.977835,-0.1631,1.1158,-0.0820,2.7491,2.5109,0.0225,0.1682,-0.0370,-1.7562,
17.981118,-0.1004,1.1810,-0.1238,2.7491,2.5109,0.0225,0.1682,-0.0370,-1.7562,
17.983216,0.0696,1.5473,-0.1509,2.7491,2.5109,0.0225,0.1682,-0.0370,-1.7562,
17.984479,0.0696,1.5473,-0.1509,2.7491,2.5109,0.0225,0.2830,0.4537,-2.2624,
17.985523,0.0696,1.5473,-0.1509,4.7058,4.4535,-0.2087,0.2830,0.4537,-2.2624,
18.035129,0.6917,1.9680,-0.1394,4.7058,4.4535,-0.2087,0.2830,0.4537,-2.2624,
