time,gFx,gFy,gFz,ax,ay,az,wx,wy,wz,P
0.014,-0.24,0.44,0.89,-0.01,0.00,-0.01,-0.01,0.01,0.00,1008.83
0.014,-0.24,0.44,0.90,-0.01,0.00,-0.01,-0.01,0.01,0.00,1008.83
0.014,-0.24,0.44,0.89,-0.01,0.00,-0.01,-0.01,0.01,0.00,1008.83
0.015,-0.24,0.44,0.90,-0.01,0.00,-0.01,-0.01,0.01,0.00,1008.83
0.015,-0.24,0.44,0.90,-0.01,0.00,-0.01,0.01,-0.01,-0.00,1008.83
0.015,-0.24,0.44,0.90,-0.01,0.00,-0.01,0.01,-0.01,-0.00,1008.83
0.05,-0.24,0.44,0.90,-0.01,0.00,-0.01,0.01,-0.01,-0.00,1008.85
0.068,-0.24,0.44,0.90,-0.01,0.00,-0.01,0.01,-0.01,-0.00,1008.85
0.069,-0.24,0.44,0.90,-0.01,0.00,-0.01,0.01,-0.01,-0.00,1008.85
0.069,-0.24,0.44,0.90,-0.01,0.00,-0.01,0.01,-0.01,-0.00,1008.85
0.069,-0.24,0.44,0.90,0.02,0.01,0.00,0.01,-0.01,-0.00,1008.85
0.069,-0.24,0.44,0.90,0.02,0.01,0.00,0.00,-0.01,-0.00,1008.85
0.127,-0.24,0.44,0.90,0.02,0.01,0.00,0.00,-0.01,-0.00,1008.85
0.127,-0.24,0.45,0.89,0.02,0.01,0.00,0.00,-0.01,-0.00,1008.85
0.127,-0.24,0.45,0.90,0.02,0.01,0.00,0.00,-0.01,-0.00,1008.85
0.127,-0.24,0.45,0.90,0.02,0.01,0.00,0.00,0.01,0.00,1008.85
0.128,-0.24,0.45,0.90,0.02,0.03,-0.02,0.00,0.01,0.00,1008.85
0.13,-0.24,0.45,0.90,0.02,0.03,-0.02,0.00,0.01,0.00,1008.84
0.185,-0.24,0.44,0.90,0.02,0.03,-0.02,0.00,0.01,0.00,1008.84
0.186,-0.24,0.44,0.90,0.02,0.03,-0.02,0.00,0.01,0.00,1008.84
0.186,-0.24,0.44,0.90,0.02,0.03,-0.02,0.00,0.01,0.00,1008.84
0.186,-0.24,0.44,0.90,0.02,0.03,-0.02,-0.01,0.00,0.00,1008.84
0.186,-0.24,0.44,0.90,0.01,0.00,0.01,-0.01,0.00,0.00,1008.84
0.21,-0.24,0.44,0.90,0.01,0.00,0.01,-0.01,0.00,0.00,1008.83
0.243,-0.23,0.44,0.90,0.01,0.00,0.01,-0.01,0.00,0.00,1008.83
0.243,-0.24,0.44,0.91,0.01,0.00,0.01,-0.01,0.00,0.00,1008.83
0.244,-0.23,0.44,0.91,0.01,0.00,0.01,-0.01,0.00,0.00,1008.83
0.244,-0.23,0.44,0.91,0.01,0.00,0.01,-0.01,0.00,-0.00,1008.83
0.244,-0.23,0.44,0.91,0.07,0.01,0.08,-0.01,0.00,-0.00,1008.83
0.25,-0.23,0.44,0.91,0.07,0.01,0.08,-0.01,0.00,-0.00,1008.84
0.302,-0.23,0.44,0.91,0.34,-0.05,0.12,-0.01,0.00,-0.00,1008.84
0.303,-0.22,0.44,0.91,0.34,-0.05,0.12,-0.01,0.00,-0.00,1008.84
0.303,-0.21,0.44,0.90,0.34,-0.05,0.12,-0.01,0.00,-0.00,1008.84
0.304,-0.17,0.43,0.92,0.34,-0.05,0.12,-0.01,0.00,-0.00,1008.84
0.304,-0.17,0.43,0.92,0.34,-0.05,0.12,-0.00,-0.01,0.05,1008.84
0.33,-0.17,0.43,0.92,0.34,-0.05,0.12,-0.00,-0.01,0.05,1008.84
0.36,-0.16,0.40,0.93,0.34,-0.05,0.12,-0.00,-0.01,0.05,1008.84
0.361,-0.10,0.39,0.94,0.34,-0.05,0.12,-0.00,-0.01,0.05,1008.84
0.361,-0.03,0.38,0.95,0.34,-0.05,0.12,-0.00,-0.01,0.05,1008.84
0.361,-0.03,0.38,0.95,0.34,-0.05,0.12,0.11,0.07,0.37,1008.84
0.362,-0.03,0.38,0.95,1.28,-0.59,0.42,0.11,0.07,0.37,1008.84
0.41,-0.03,0.38,0.95,1.28,-0.59,0.42,0.11,0.07,0.37,1008.84
0.423,-0.03,0.38,0.95,2.14,-1.06,-0.08,0.11,0.07,0.37,1008.84
0.423,-0.03,0.37,0.91,2.14,-1.06,-0.08,0.11,0.07,0.37,1008.84
0.423,0.01,0.35,0.87,2.14,-1.06,-0.08,0.11,0.07,0.37,1008.84
0.424,0.03,0.39,0.84,2.14,-1.06,-0.08,0.11,0.07,0.37,1008.84
0.424,0.03,0.39,0.84,2.14,-1.06,-0.08,0.40,0.53,1.04,1008.84
0.45,0.03,0.39,0.84,2.14,-1.06,-0.08,0.40,0.53,1.04,1008.84
0.477,0.03,0.37,0.79,2.14,-1.06,-0.08,0.40,0.53,1.04,1008.84
0.478,0.04,0.35,0.84,2.14,-1.06,-0.08,0.40,0.53,1.04,1008.84
0.478,-0.02,0.40,0.86,2.14,-1.06,-0.08,0.40,0.53,1.04,1008.84
0.478,-0.02,0.40,0.86,2.14,-1.06,-0.08,0.80,0.65,1.80,1008.84
0.478,-0.02,0.40,0.86,1.97,-1.59,-0.17,0.80,0.65,1.80,1008.84
0.53,-0.02,0.40,0.86,1.97,-1.59,-0.17,0.80,0.65,1.80,1008.83
0.535,-0.02,0.45,0.76,1.97,-1.59,-0.17,0.80,0.65,1.80,1008.83
0.536,0.03,0.54,0.52,1.97,-1.59,-0.17,0.80,0.65,1.80,1008.83
0.536,-0.02,0.65,0.34,1.97,-1.59,-0.17,0.80,0.65,1.80,1008.83
0.537,-0.02,0.65,0.34,1.97,-1.59,-0.17,1.58,-0.29,2.35,1008.83
0.538,-0.02,0.65,0.34,0.87,-0.83,-2.43,1.58,-0.29,2.35,1008.83
0.594,-0.13,0.66,0.10,0.87,-0.83,-2.43,1.58,-0.29,2.35,1008.83
0.596,-0.32,0.59,-0.12,0.87,-0.83,-2.43,1.58,-0.29,2.35,1008.83
0.597,-0.37,0.73,-0.01,0.87,-0.83,-2.43,1.58,-0.29,2.35,1008.83
0.597,-0.37,0.73,-0.01,0.87,-0.83,-2.43,1.02,-2.52,2.23,1008.83
0.598,-0.37,0.73,-0.01,-3.61,-0.16,-7.16,1.02,-2.52,2.23,1008.83
0.61,-0.37,0.73,-0.01,-3.61,-0.16,-7.16,1.02,-2.52,2.23,1008.81
0.651,-0.37,0.73,-0.01,-3.61,-0.16,-7.16,1.02,-2.52,2.23,1008.76
0.655,-0.21,0.84,0.47,-3.61,-0.16,-7.16,1.02,-2.52,2.23,1008.76
0.656,-0.13,0.74,0.62,-3.61,-0.16,-7.16,1.02,-2.52,2.23,1008.76
0.657,0.31,0.67,0.49,-3.61,-0.16,-7.16,1.02,-2.52,2.23,1008.76
0.658,0.31,0.67,0.49,-3.61,-0.16,-7.16,0.51,-5.92,2.35,1008.76
0.659,0.31,0.67,0.49,-4.05,0.87,-0.74,0.51,-5.92,2.35,1008.76
0.712,1.02,0.60,0.37,-4.05,0.87,-0.74,0.51,-5.92,2.35,1008.76
0.713,1.36,0.67,0.36,-4.05,0.87,-0.74,0.51,-5.92,2.35,1008.76
0.714,0.82,0.89,0.37,-4.05,0.87,-0.74,0.51,-5.92,2.35,1008.76
0.715,0.82,0.89,0.37,4.84,0.18,-0.41,0.51,-5.92,2.35,1008.76
0.716,0.82,0.89,0.37,4.84,0.18,-0.41,1.91,-4.14,0.71,1008.76
0.736,0.82,0.89,0.37,4.84,0.18,-0.41,1.91,-4.14,0.71,1008.75
0.769,0.43,0.96,0.50,4.84,0.18,-0.41,1.91,-4.14,0.71,1008.75
0.77,0.45,0.90,0.53,4.84,0.18,-0.41,1.91,-4.14,0.71,1008.75
0.771,0.50,0.85,0.53,4.84,0.18,-0.41,1.91,-4.14,0.71,1008.75
0.771,0.50,0.85,0.53,4.84,0.18,-0.41,1.51,0.77,-0.56,1008.75
0.772,0.50,0.85,0.53,-0.66,1.45,1.40,1.51,0.77,-0.56,1008.75
0.811,0.50,0.85,0.53,-0.66,1.45,1.40,1.51,0.77,-0.56,1008.82
0.828,0.48,0.86,0.53,-0.66,1.45,1.40,1.51,0.77,-0.56,1008.82
0.829,0.40,0.88,0.54,-0.66,1.45,1.40,1.51,0.77,-0.56,1008.82
0.829,0.33,0.93,0.54,-0.66,1.45,1.40,1.51,0.77,-0.56,1008.82
0.83,0.33,0.93,0.54,-0.56,0.78,1.61,1.51,0.77,-0.56,1008.82
0.83,0.33,0.93,0.54,-0.56,0.78,1.61,1.40,1.83,-0.69,1008.82
0.85,0.33,0.93,0.54,-0.56,0.78,1.61,1.40,1.83,-0.69,1008.84
0.885,0.28,0.95,0.52,-0.56,0.78,1.61,1.40,1.83,-0.69,1008.84
0.886,0.26,0.96,0.46,-0.56,0.78,1.61,1.40,1.83,-0.69,1008.84
0.887,0.27,0.93,0.42,-0.56,0.78,1.61,1.40,1.83,-0.69,1008.84
0.887,0.27,0.93,0.42,-0.56,0.78,1.61,1.41,0.52,-0.74,1008.84
0.887,0.27,0.93,0.42,-1.35,0.88,1.46,1.41,0.52,-0.74,1008.84
0.93,0.27,0.93,0.42,-1.35,0.88,1.46,1.41,0.52,-0.74,1008.83
0.944,0.31,0.89,0.42,-1.35,0.88,1.46,1.41,0.52,-0.74,1008.83
0.945,0.35,0.88,0.44,-1.35,0.88,1.46,1.41,0.52,-0.74,1008.83
0.945,0.38,0.91,0.42,-1.35,0.88,1.46,1.41,0.52,-0.74,1008.83
0.946,0.38,0.91,0.42,-1.35,0.88,1.46,1.18,-0.93,-0.74,1008.83
0.946,0.38,0.91,0.42,-0.33,-0.02,1.80,1.18,-0.93,-0.74,1008.83
1.003,0.44,0.93,0.39,-0.33,-0.02,1.80,1.18,-0.93,-0.74,1008.83
1.004,0.45,0.95,0.34,-0.33,-0.02,1.80,1.18,-0.93,-0.74,1008.83
1.004,0.40,0.97,0.32,-0.33,-0.02,1.80,1.18,-0.93,-0.74,1008.83
1.005,0.40,0.97,0.32,0.78,0.26,1.62,1.18,-0.93,-0.74,1008.83
1.005,0.40,0.97,0.32,0.78,0.26,1.62,1.10,-0.31,-0.79,1008.83
1.01,0.40,0.97,0.32,0.78,0.26,1.62,1.10,-0.31,-0.79,1008.83
1.051,0.40,0.97,0.32,0.78,0.26,1.62,1.10,-0.31,-0.79,1008.85
1.06,0.36,0.97,0.32,0.78,0.26,1.62,1.10,-0.31,-0.79,1008.85
1.062,0.35,0.97,0.32,0.78,0.26,1.62,1.10,-0.31,-0.79,1008.85
1.063,0.36,0.98,0.31,0.78,0.26,1.62,1.10,-0.31,-0.79,1008.85
1.064,0.36,0.98,0.31,0.78,0.26,1.62,1.00,0.13,-0.78,1008.85
1.065,0.36,0.98,0.31,0.50,0.22,1.78,1.00,0.13,-0.78,1008.85
1.123,0.39,0.97,0.26,0.50,0.22,1.78,1.00,0.13,-0.78,1008.85
1.124,0.40,0.95,0.22,0.50,0.22,1.78,1.00,0.13,-0.78,1008.85
1.125,0.37,0.95,0.16,0.50,0.22,1.78,1.00,0.13,-0.78,1008.85
1.125,0.37,0.95,0.16,1.19,-0.10,1.31,1.00,0.13,-0.78,1008.85
1.126,0.37,0.95,0.16,1.19,-0.10,1.31,0.95,-0.09,-0.77,1008.85
1.13,0.37,0.95,0.16,1.19,-0.10,1.31,0.95,-0.09,-0.77,1008.85
1.176,0.34,0.96,0.09,1.19,-0.10,1.31,0.95,-0.09,-0.77,1008.85
1.177,0.34,0.95,0.04,1.19,-0.10,1.31,0.95,-0.09,-0.77,1008.85
1.177,0.24,0.94,0.11,1.19,-0.10,1.31,0.95,-0.09,-0.77,1008.85
1.178,0.24,0.94,0.11,1.19,-0.10,1.31,0.92,-0.51,-0.84,1008.85
1.181,0.24,0.94,0.11,0.82,-0.33,0.53,0.92,-0.51,-0.84,1008.85
1.21,0.24,0.94,0.11,0.82,-0.33,0.53,0.92,-0.51,-0.84,1008.85
1.234,0.17,1.25,-0.09,0.82,-0.33,0.53,0.92,-0.51,-0.84,1008.85
1.235,0.54,1.84,0.10,0.82,-0.33,0.53,0.92,-0.51,-0.84,1008.85
1.236,0.74,1.97,0.22,0.82,-0.33,0.53,0.92,-0.51,-0.84,1008.85
1.236,0.74,1.97,0.22,0.82,-0.33,0.53,0.27,-0.71,-0.69,1008.85
1.237,0.74,1.97,0.22,2.88,6.64,0.73,0.27,-0.71,-0.69,1008.85
1.25,0.74,1.97,0.22,2.88,6.64,0.73,0.27,-0.71,-0.69,1008.84
1.293,0.53,1.05,0.01,2.88,6.64,0.73,0.27,-0.71,-0.69,1008.84
1.294,0.26,0.55,-0.37,2.88,6.64,0.73,0.27,-0.71,-0.69,1008.84
1.295,-0.13,0.51,-0.29,2.88,6.64,0.73,0.27,-0.71,-0.69,1008.84
1.295,-0.13,0.51,-0.29,2.88,6.64,0.73,0.85,0.80,-1.12,1008.84
1.296,-0.13,0.51,-0.29,0.90,-3.02,-1.67,0.85,0.80,-1.12,1008.84
1.332,-0.13,0.51,-0.29,0.90,-3.02,-1.67,0.85,0.80,-1.12,1008.80
1.361,-0.49,0.72,0.05,0.90,-3.02,-1.67,0.85,0.80,-1.12,1008.80
1.363,-0.50,1.11,-0.02,0.90,-3.02,-1.67,0.85,0.80,-1.12,1008.80
1.363,-0.07,1.37,-0.16,0.90,-3.02,-1.67,0.85,0.80,-1.12,1008.80
1.364,-0.07,1.37,-0.16,-4.21,0.48,-0.09,0.85,0.80,-1.12,1008.80
1.365,-0.07,1.37,-0.16,-4.21,0.48,-0.09,-0.11,0.32,-0.68,1008.80
1.411,0.31,1.30,-0.17,-4.21,0.48,-0.09,-0.11,0.32,-0.68,1008.80
1.413,0.29,1.07,-0.07,-4.21,0.48,-0.09,-0.11,0.32,-0.68,1008.80
1.414,0.08,0.91,0.01,-4.21,0.48,-0.09,-0.11,0.32,-0.68,1008.80
1.415,0.08,0.91,0.01,-4.21,0.48,-0.09,0.13,-0.14,-0.10,1008.80
1.416,0.08,0.91,0.01,1.50,0.72,-0.28,0.13,-0.14,-0.10,1008.80
1.417,0.08,0.91,0.01,1.50,0.72,-0.28,0.13,-0.14,-0.10,1008.82
1.454,0.08,0.91,0.01,1.50,0.72,-0.28,0.13,-0.14,-0.10,1008.80
1.475,-0.05,0.85,0.00,1.50,0.72,-0.28,0.13,-0.14,-0.10,1008.80
1.482,-0.04,0.97,-0.09,1.50,0.72,-0.28,0.13,-0.14,-0.10,1008.80
1.483,0.06,1.10,-0.12,1.50,0.72,-0.28,0.13,-0.14,-0.10,1008.80
1.484,0.06,1.10,-0.12,1.50,0.72,-0.28,0.15,-0.06,-0.23,1008.80
1.484,0.06,1.10,-0.12,-0.66,-0.43,-0.13,0.15,-0.06,-0.23,1008.80
1.528,0.16,1.06,-0.09,-0.66,-0.43,-0.13,0.15,-0.06,-0.23,1008.80
1.531,0.16,1.02,-0.03,-0.66,-0.43,-0.13,0.15,-0.06,-0.23,1008.80
1.532,0.06,1.00,0.05,-0.66,-0.43,-0.13,0.15,-0.06,-0.23,1008.80
1.533,0.06,1.00,0.05,-0.66,-0.43,-0.13,0.13,0.16,-0.17,1008.80
1.534,0.06,1.00,0.05,0.74,0.10,0.39,0.13,0.16,-0.17,1008.80
1.535,0.06,1.00,0.05,0.74,0.10,0.39,0.13,0.16,-0.17,1008.83
1.593,0.01,0.98,0.01,0.74,0.10,0.39,0.13,0.16,-0.17,1008.83
1.597,-0.03,1.03,-0.02,0.74,0.10,0.39,0.13,0.16,-0.17,1008.83
1.598,0.02,1.02,-0.01,0.74,0.10,0.39,0.13,0.16,-0.17,1008.83
1.6,0.02,1.02,-0.01,0.74,0.10,0.39,0.38,-0.33,-0.25,1008.83
1.601,0.02,1.02,-0.01,-0.34,-0.05,0.77,0.38,-0.33,-0.25,1008.83
1.611,0.02,1.02,-0.01,-0.34,-0.05,0.77,0.38,-0.33,-0.25,1008.84
1.645,0.09,0.97,0.05,-0.34,-0.05,0.77,0.38,-0.33,-0.25,1008.84
1.647,0.11,0.99,0.08,-0.34,-0.05,0.77,0.38,-0.33,-0.25,1008.84
1.647,0.10,1.08,0.07,-0.34,-0.05,0.77,0.38,-0.33,-0.25,1008.84
1.648,0.10,1.08,0.07,-0.34,-0.05,0.77,0.60,-0.14,-0.23,1008.84
1.648,0.10,1.08,0.07,0.76,0.02,1.76,0.60,-0.14,-0.23,1008.84
1.654,0.10,1.08,0.07,0.76,0.02,1.76,0.60,-0.14,-0.23,1008.85
1.704,0.05,1.14,0.07,0.76,0.02,1.76,0.60,-0.14,-0.23,1008.85
1.705,-0.03,1.10,0.10,0.76,0.02,1.76,0.60,-0.14,-0.23,1008.85
1.705,-0.03,1.05,-0.02,0.76,0.02,1.76,0.60,-0.14,-0.23,1008.85
1.706,-0.03,1.05,-0.02,0.76,0.02,1.76,1.00,-0.47,-0.31,1008.85
1.706,-0.03,1.05,-0.02,-0.02,0.89,2.16,1.00,-0.47,-0.31,1008.85
1.73,-0.03,1.05,-0.02,-0.02,0.89,2.16,1.00,-0.47,-0.31,1008.84
1.76,0.01,1.02,-0.20,-0.02,0.89,2.16,1.00,-0.47,-0.31,1008.84
1.762,-0.04,1.14,-0.28,-0.02,0.89,2.16,1.00,-0.47,-0.31,1008.84
1.763,-0.05,1.23,0.08,-0.02,0.89,2.16,1.00,-0.47,-0.31,1008.84
1.764,-0.05,1.23,0.08,-0.02,0.89,2.16,1.40,-1.61,-0.31,1008.84
1.765,-0.05,1.23,0.08,0.09,1.36,1.10,1.40,-1.61,-0.31,1008.84
1.811,-0.05,1.23,0.08,0.09,1.36,1.10,1.40,-1.61,-0.31,1008.79
1.819,0.01,1.22,0.04,0.09,1.36,1.10,1.40,-1.61,-0.31,1008.79
1.82,0.09,1.22,0.03,0.09,1.36,1.10,1.40,-1.61,-0.31,1008.79
1.821,0.20,1.09,0.10,0.09,1.36,1.10,1.40,-1.61,-0.31,1008.79
1.821,0.20,1.09,0.10,0.09,1.36,1.10,1.47,-2.02,-0.24,1008.79
1.822,0.20,1.09,0.10,1.76,2.00,3.63,1.47,-2.02,-0.24,1008.79
1.851,0.20,1.09,0.10,1.76,2.00,3.63,1.47,-2.02,-0.24,1008.79
1.877,-0.13,1.01,0.15,1.76,2.00,3.63,1.47,-2.02,-0.24,1008.79
1.878,-0.40,1.16,0.04,1.76,2.00,3.63,1.47,-2.02,-0.24,1008.79
1.878,-0.36,1.23,-0.05,1.76,2.00,3.63,1.47,-2.02,-0.24,1008.79
1.881,-0.36,1.23,-0.05,1.76,2.00,3.63,1.27,-1.47,-0.81,1008.79
1.885,-0.36,1.23,-0.05,-1.35,1.85,4.08,1.27,-1.47,-0.81,1008.79
1.93,-0.36,1.23,-0.05,-1.35,1.85,4.08,1.27,-1.47,-0.81,1008.87
1.935,-0.27,1.28,-0.30,-1.35,1.85,4.08,1.27,-1.47,-0.81,1008.87
1.935,0.08,1.09,-0.27,-1.35,1.85,4.08,1.27,-1.47,-0.81,1008.87
1.936,0.44,0.74,0.08,-1.35,1.85,4.08,1.27,-1.47,-0.81,1008.87
1.936,0.44,0.74,0.08,-1.35,1.85,4.08,0.40,-4.04,0.27,1008.87
1.937,0.44,0.74,0.08,3.01,0.92,1.74,0.40,-4.04,0.27,1008.87
1.993,0.57,0.58,0.06,3.01,0.92,1.74,0.40,-4.04,0.27,1008.87
1.994,0.45,0.66,0.02,3.01,0.92,1.74,0.40,-4.04,0.27,1008.87
1.994,0.34,0.72,-0.06,3.01,0.92,1.74,0.40,-4.04,0.27,1008.87
1.994,0.34,0.72,-0.06,3.01,0.92,1.74,-0.61,-4.06,2.05,1008.87
1.996,0.34,0.72,-0.06,6.06,-3.09,2.53,-0.61,-4.06,2.05,1008.87
2.01,0.34,0.72,-0.06,6.06,-3.09,2.53,-0.61,-4.06,2.05,1008.92
2.051,0.34,0.72,-0.06,6.06,-3.09,2.53,-0.61,-4.06,2.05,1008.89
2.053,0.27,0.81,-0.13,6.06,-3.09,2.53,-0.61,-4.06,2.05,1008.89
2.053,0.22,0.93,-0.18,6.06,-3.09,2.53,-0.61,-4.06,2.05,1008.89
2.053,0.12,1.07,-0.20,6.06,-3.09,2.53,-0.61,-4.06,2.05,1008.89
2.054,0.12,1.07,-0.20,6.06,-3.09,2.53,-0.48,-1.57,3.10,1008.89
2.054,0.12,1.07,-0.20,2.05,-0.54,0.41,-0.48,-1.57,3.10,1008.89
2.11,-0.05,1.18,-0.19,2.05,-0.54,0.41,-0.48,-1.57,3.10,1008.89
2.111,-0.21,1.19,-0.14,2.05,-0.54,0.41,-0.48,-1.57,3.10,1008.89
2.112,-0.29,1.11,-0.15,2.05,-0.54,0.41,-0.48,-1.57,3.10,1008.89
2.112,-0.29,1.11,-0.15,-3.43,1.67,-0.03,-0.48,-1.57,3.10,1008.89
2.113,-0.29,1.11,-0.15,-3.43,1.67,-0.03,-0.95,-0.51,3.24,1008.89
2.133,-0.29,1.11,-0.15,-3.43,1.67,-0.03,-0.95,-0.51,3.24,1008.92
2.176,-0.22,1.05,-0.25,-3.43,1.67,-0.03,-0.95,-0.51,3.24,1008.92
2.181,-0.14,1.04,-0.27,-3.43,1.67,-0.03,-0.95,-0.51,3.24,1008.92
2.183,-0.10,1.04,-0.29,-3.43,1.67,-0.03,-0.95,-0.51,3.24,1008.92
2.183,-0.10,1.04,-0.29,-4.72,0.86,-1.48,-0.95,-0.51,3.24,1008.92
2.184,-0.10,1.04,-0.29,-4.72,0.86,-1.48,-1.07,-1.28,3.10,1008.92
2.211,-0.10,1.04,-0.29,-4.72,0.86,-1.48,-1.07,-1.28,3.10,1008.88
2.228,-0.08,0.94,-0.23,-4.72,0.86,-1.48,-1.07,-1.28,3.10,1008.88
2.229,-0.33,0.92,-0.15,-4.72,0.86,-1.48,-1.07,-1.28,3.10,1008.88
2.232,-0.60,0.97,-0.08,-4.72,0.86,-1.48,-1.07,-1.28,3.10,1008.88
2.233,-0.60,0.97,-0.08,-4.72,0.86,-1.48,-0.74,-1.58,1.82,1008.88
2.235,-0.60,0.97,-0.08,-7.22,0.21,-0.40,-0.74,-1.58,1.82,1008.88
2.252,-0.60,0.97,-0.08,-7.22,0.21,-0.40,-0.74,-1.58,1.82,1008.88
2.294,-0.58,0.86,-0.17,-7.22,0.21,-0.40,-0.74,-1.58,1.82,1008.88
2.296,-0.52,0.84,-0.16,-7.22,0.21,-0.40,-0.74,-1.58,1.82,1008.88
2.297,-0.60,1.04,-0.26,-7.22,0.21,-0.40,-0.74,-1.58,1.82,1008.88
2.298,-0.60,1.04,-0.26,-7.22,0.21,-0.40,-0.33,-1.32,-0.63,1008.88
2.3,-0.60,1.04,-0.26,-8.92,-0.20,-0.68,-0.33,-1.32,-0.63,1008.88
2.332,-0.60,1.04,-0.26,-8.92,-0.20,-0.68,-0.33,-1.32,-0.63,1008.88
2.345,-0.14,1.74,-0.83,-8.92,-0.20,-0.68,-0.33,-1.32,-0.63,1008.88
2.346,1.79,1.77,0.34,-8.92,-0.20,-0.68,-0.33,-1.32,-0.63,1008.88
2.348,1.01,1.48,-0.11,-8.92,-0.20,-0.68,-0.33,-1.32,-0.63,1008.88
2.349,1.01,1.48,-0.11,-8.92,-0.20,-0.68,-0.65,-0.42,-0.94,1008.88
2.35,1.01,1.48,-0.11,5.78,6.80,-0.95,-0.65,-0.42,-0.94,1008.88
2.404,-0.44,0.91,-1.20,5.78,6.80,-0.95,-0.65,-0.42,-0.94,1008.88
2.406,-0.64,0.59,-0.40,5.78,6.80,-0.95,-0.65,-0.42,-0.94,1008.88
2.407,-0.77,0.87,0.64,5.78,6.80,-0.95,-0.65,-0.42,-0.94,1008.88
2.407,-0.77,0.87,0.64,5.78,6.80,-0.95,-0.19,0.08,-2.75,1008.88
2.409,-0.77,0.87,0.64,-7.30,-2.07,-2.20,-0.19,0.08,-2.75,1008.88
2.412,-0.77,0.87,0.64,-7.30,-2.07,-2.20,-0.19,0.08,-2.75,1008.87
2.452,-0.77,0.87,0.64,-7.30,-2.07,-2.20,-0.19,0.08,-2.75,1008.83
2.463,0.00,1.14,0.23,-7.30,-2.07,-2.20,-0.19,0.08,-2.75,1008.83
2.465,0.48,1.10,0.03,-7.30,-2.07,-2.20,-0.19,0.08,-2.75,1008.83
2.466,0.31,0.94,0.08,-7.30,-2.07,-2.20,-0.19,0.08,-2.75,1008.83
2.467,0.31,0.94,0.08,-7.30,-2.07,-2.20,-0.10,-0.75,-0.89,1008.83
2.468,0.31,0.94,0.08,1.88,0.51,1.94,-0.10,-0.75,-0.89,1008.83
2.523,-0.00,0.94,0.01,1.88,0.51,1.94,-0.10,-0.75,-0.89,1008.83
2.525,-0.18,0.98,-0.10,1.88,0.51,1.94,-0.10,-0.75,-0.89,1008.83
2.525,-0.26,1.02,-0.11,1.88,0.51,1.94,-0.10,-0.75,-0.89,1008.83
2.526,-0.26,1.02,-0.11,-1.35,-0.31,0.25,-0.10,-0.75,-0.89,1008.83
2.527,-0.26,1.02,-0.11,-1.35,-0.31,0.25,0.04,-0.06,-1.32,1008.83
2.531,-0.26,1.02,-0.11,-1.35,-0.31,0.25,0.04,-0.06,-1.32,1008.82
2.582,-0.21,1.02,-0.14,-1.35,-0.31,0.25,0.04,-0.06,-1.32,1008.82
2.583,-0.06,0.99,-0.13,-1.35,-0.31,0.25,0.04,-0.06,-1.32,1008.82
2.584,-0.00,1.01,-0.10,-1.35,-0.31,0.25,0.04,-0.06,-1.32,1008.82
2.584,-0.00,1.01,-0.10,-1.35,-0.31,0.25,0.08,-0.35,-0.87,1008.82
2.584,-0.00,1.01,-0.10,-0.30,0.00,-0.28,0.08,-0.35,-0.87,1008.82
2.611,-0.00,1.01,-0.10,-0.30,0.00,-0.28,0.08,-0.35,-0.87,1008.83
2.637,-0.06,1.01,-0.10,-0.30,0.00,-0.28,0.08,-0.35,-0.87,1008.83
2.639,-0.13,1.01,-0.09,-0.30,0.00,-0.28,0.08,-0.35,-0.87,1008.83
2.64,-0.15,1.01,-0.10,-0.30,0.00,-0.28,0.08,-0.35,-0.87,1008.83
2.641,-0.15,1.01,-0.10,-0.30,0.00,-0.28,0.10,-0.05,-0.92,1008.83
2.642,-0.15,1.01,-0.10,0.03,0.05,0.06,0.10,-0.05,-0.92,1008.83
2.652,-0.15,1.01,-0.10,0.03,0.05,0.06,0.10,-0.05,-0.92,1008.87
2.694,-0.17,0.99,-0.09,0.03,0.05,0.06,0.10,-0.05,-0.92,1008.87
2.695,-0.20,0.98,-0.08,0.03,0.05,0.06,0.10,-0.05,-0.92,1008.87
2.696,-0.21,0.99,-0.09,0.03,0.05,0.06,0.10,-0.05,-0.92,1008.87
2.696,-0.21,0.99,-0.09,0.03,0.05,0.06,0.16,0.10,-0.87,1008.87
2.697,-0.21,0.99,-0.09,-0.27,-0.06,0.24,0.16,0.10,-0.87,1008.87
2.731,-0.21,0.99,-0.09,-0.27,-0.06,0.24,0.16,0.10,-0.87,1008.89
2.754,-0.20,0.99,-0.10,-0.27,-0.06,0.24,0.16,0.10,-0.87,1008.89
2.756,-0.18,0.97,-0.10,-0.27,-0.06,0.24,0.16,0.10,-0.87,1008.89
2.758,-0.21,0.95,-0.12,-0.27,-0.06,0.24,0.16,0.10,-0.87,1008.89
2.765,-0.21,0.95,-0.12,-0.27,-0.06,0.24,0.19,0.14,-0.81,1008.89
2.766,-0.21,0.95,-0.12,0.13,-0.15,0.14,0.19,0.14,-0.81,1008.89
2.81,-0.27,0.95,-0.12,0.13,-0.15,0.14,0.19,0.14,-0.81,1008.89
2.812,-0.28,0.97,-0.14,0.13,-0.15,0.14,0.19,0.14,-0.81,1008.89
2.812,-0.25,0.99,-0.13,0.13,-0.15,0.14,0.19,0.14,-0.81,1008.89
2.813,-0.25,0.99,-0.13,0.13,-0.15,0.14,0.18,0.20,-0.82,1008.89
2.814,-0.25,0.99,-0.13,-0.12,-0.06,0.05,0.18,0.20,-0.82,1008.89
2.814,-0.25,0.99,-0.13,-0.12,-0.06,0.05,0.18,0.20,-0.82,1008.91
2.852,-0.25,0.99,-0.13,-0.12,-0.06,0.05,0.18,0.20,-0.82,1008.91
2.87,-0.22,0.99,-0.13,-0.12,-0.06,0.05,0.18,0.20,-0.82,1008.91
2.872,-0.21,1.01,-0.10,-0.12,-0.06,0.05,0.18,0.20,-0.82,1008.91
2.873,-0.17,1.05,-0.07,-0.12,-0.06,0.05,0.18,0.20,-0.82,1008.91
2.875,-0.17,1.05,-0.07,1.01,0.62,0.49,0.18,0.20,-0.82,1008.91
2.876,-0.17,1.05,-0.07,1.01,0.62,0.49,0.29,0.03,-0.88,1008.91
2.928,-0.17,1.09,-0.04,1.01,0.62,0.49,0.29,0.03,-0.88,1008.91
2.929,-0.17,1.08,-0.07,1.01,0.62,0.49,0.29,0.03,-0.88,1008.91
2.929,-0.16,1.07,-0.14,1.01,0.62,0.49,0.29,0.03,-0.88,1008.91
2.93,-0.16,1.07,-0.14,1.01,0.62,0.49,0.53,0.02,-1.21,1008.91
2.93,-0.16,1.07,-0.14,2.00,1.46,0.95,0.53,0.02,-1.21,1008.91
2.932,-0.16,1.07,-0.14,2.00,1.46,0.95,0.53,0.02,-1.21,1008.91
2.986,-0.13,1.13,-0.20,2.00,1.46,0.95,0.53,0.02,-1.21,1008.91
2.989,-0.03,1.30,-0.18,2.00,1.46,0.95,0.53,0.02,-1.21,1008.91
2.99,0.16,1.48,-0.21,2.00,1.46,0.95,0.53,0.02,-1.21,1008.91
2.991,0.16,1.48,-0.21,2.00,1.46,0.95,0.86,0.21,-1.56,1008.91
2.992,0.16,1.48,-0.21,4.30,4.07,0.31,0.86,0.21,-1.56,1008.91
3.012,0.16,1.48,-0.21,4.30,4.07,0.31,0.86,0.21,-1.56,1008.90
3.045,0.44,1.52,-0.27,4.30,4.07,0.31,0.86,0.21,-1.56,1008.90
3.047,0.76,1.59,-0.37,4.30,4.07,0.31,0.86,0.21,-1.56,1008.90
3.048,0.72,1.51,-0.14,4.30,4.07,0.31,0.86,0.21,-1.56,1008.90
3.049,0.72,1.51,-0.14,4.30,4.07,0.31,1.07,0.37,-2.04,1008.90
3.051,0.72,1.51,-0.14,11.34,7.00,0.35,1.07,0.37,-2.04,1008.90
3.054,0.72,1.51,-0.14,11.34,7.00,0.35,1.07,0.37,-2.04,1008.88
3.103,-0.09,1.09,0.11,11.34,7.00,0.35,1.07,0.37,-2.04,1008.88
3.104,-1.03,1.12,-0.10,11.34,7.00,0.35,1.07,0.37,-2.04,1008.88
3.105,-1.21,1.19,-0.12,11.34,7.00,0.35,1.07,0.37,-2.04,1008.88
3.105,-1.21,1.19,-0.12,11.34,7.00,0.35,1.40,0.97,-3.54,1008.88
3.105,-1.21,1.19,-0.12,-1.20,4.37,3.39,1.40,0.97,-3.54,1008.88
3.131,-1.21,1.19,-0.12,-1.20,4.37,3.39,1.40,0.97,-3.54,1008.88
3.162,-1.01,0.86,-0.14,-1.20,4.37,3.39,1.40,0.97,-3.54,1008.88
3.165,-0.92,0.57,-0.18,-1.20,4.37,3.39,1.40,0.97,-3.54,1008.88
3.166,-0.90,0.62,-0.18,-1.20,4.37,3.39,1.40,0.97,-3.54,1008.88
3.167,-0.90,0.62,-0.18,-1.20,4.37,3.39,1.36,-0.89,-0.84,1008.88
3.168,-0.90,0.62,-0.18,-2.25,0.58,2.21,1.36,-0.89,-0.84,1008.88
3.211,-0.90,0.62,-0.18,-2.25,0.58,2.21,1.36,-0.89,-0.84,1008.86
3.219,-0.57,0.44,-0.13,-2.25,0.58,2.21,1.36,-0.89,-0.84,1008.86
3.221,-0.16,0.26,0.24,-2.25,0.58,2.21,1.36,-0.89,-0.84,1008.86
3.222,-0.06,0.13,0.32,-2.25,0.58,2.21,1.36,-0.89,-0.84,1008.86
3.223,-0.06,0.13,0.32,-2.25,0.58,2.21,0.51,-2.09,2.46,1008.86
3.225,-0.06,0.13,0.32,3.83,-4.18,4.54,0.51,-2.09,2.46,1008.86
3.253,-0.06,0.13,0.32,3.83,-4.18,4.54,0.51,-2.09,2.46,1008.84
3.278,-0.13,0.27,0.24,3.83,-4.18,4.54,0.51,-2.09,2.46,1008.84
3.28,-0.14,0.48,0.08,3.83,-4.18,4.54,0.51,-2.09,2.46,1008.84
3.28,-0.21,0.72,0.04,3.83,-4.18,4.54,0.51,-2.09,2.46,1008.84
3.281,-0.21,0.72,0.04,3.83,-4.18,4.54,1.33,-0.98,3.87,1008.84
3.283,-0.21,0.72,0.04,3.31,-3.10,4.49,1.33,-0.98,3.87,1008.84
3.332,-0.21,0.72,0.04,3.31,-3.10,4.49,1.33,-0.98,3.87,1008.89
3.337,-0.21,0.72,0.04,-3.57,1.16,4.31,1.33,-0.98,3.87,1008.89
3.339,-0.44,0.90,0.05,-3.57,1.16,4.31,1.33,-0.98,3.87,1008.89
3.339,-0.66,1.04,0.01,-3.57,1.16,4.31,1.33,-0.98,3.87,1008.89
3.34,-0.78,1.12,0.21,-3.57,1.16,4.31,1.33,-0.98,3.87,1008.89
3.341,-0.78,1.12,0.21,-3.57,1.16,4.31,0.68,-0.51,4.93,1008.89
3.394,-0.85,1.19,0.23,-3.57,1.16,4.31,0.68,-0.51,4.93,1008.89
3.395,-0.79,1.27,0.09,-3.57,1.16,4.31,0.68,-0.51,4.93,1008.89
3.396,-0.69,1.36,-0.03,-3.57,1.16,4.31,0.68,-0.51,4.93,1008.89
3.396,-0.69,1.36,-0.03,-3.57,1.16,4.31,-0.55,-1.98,5.87,1008.89
3.397,-0.69,1.36,-0.03,-7.64,3.10,3.90,-0.55,-1.98,5.87,1008.89
3.411,-0.69,1.36,-0.03,-7.64,3.10,3.90,-0.55,-1.98,5.87,1008.87
3.452,-0.69,1.36,-0.03,-7.64,3.10,3.90,-0.55,-1.98,5.87,1008.81
3.455,-0.61,1.39,-0.00,-7.64,3.10,3.90,-0.55,-1.98,5.87,1008.81
3.456,-0.37,1.33,-0.00,-7.64,3.10,3.90,-0.55,-1.98,5.87,1008.81
3.457,-0.13,1.27,0.08,-7.64,3.10,3.90,-0.55,-1.98,5.87,1008.81
3.458,-0.13,1.27,0.08,-7.64,3.10,3.90,-1.27,-3.30,5.70,1008.81
3.46,-0.13,1.27,0.08,-6.15,3.82,2.73,-1.27,-3.30,5.70,1008.81
3.511,-0.23,1.36,0.13,-6.15,3.82,2.73,-1.27,-3.30,5.70,1008.81
3.512,-0.48,1.37,0.09,-6.15,3.82,2.73,-1.27,-3.30,5.70,1008.81
3.513,-0.68,1.16,0.01,-6.15,3.82,2.73,-1.27,-3.30,5.70,1008.81
3.513,-0.68,1.16,0.01,-6.15,3.82,2.73,-1.30,-1.65,3.40,1008.81
3.514,-0.68,1.16,0.01,-8.45,3.86,2.81,-1.30,-1.65,3.40,1008.81
3.531,-0.68,1.16,0.01,-8.45,3.86,2.81,-1.30,-1.65,3.40,1008.79
3.569,-0.69,0.96,-0.04,-8.45,3.86,2.81,-1.30,-1.65,3.40,1008.79
3.57,-0.64,0.91,-0.11,-8.45,3.86,2.81,-1.30,-1.65,3.40,1008.79
3.572,-0.65,0.91,-0.17,-8.45,3.86,2.81,-1.30,-1.65,3.40,1008.79
3.573,-0.65,0.91,-0.17,-8.45,3.86,2.81,-1.11,-1.82,0.47,1008.79
3.574,-0.65,0.91,-0.17,-10.27,0.26,0.89,-1.11,-1.82,0.47,1008.79
3.611,-0.65,0.91,-0.17,-10.27,0.26,0.89,-1.11,-1.82,0.47,1008.83
3.627,-0.67,0.90,-0.27,-10.27,0.26,0.89,-1.11,-1.82,0.47,1008.83
3.63,-0.62,0.97,-0.57,-10.27,0.26,0.89,-1.11,-1.82,0.47,1008.83
3.631,-0.05,1.09,-1.17,-10.27,0.26,0.89,-1.11,-1.82,0.47,1008.83
3.631,-0.05,1.09,-1.17,-10.27,0.26,0.89,-0.49,-3.40,-1.62,1008.83
3.632,-0.05,1.09,-1.17,-6.76,0.48,-4.19,-0.49,-3.40,-1.62,1008.83
3.652,-0.05,1.09,-1.17,-6.76,0.48,-4.19,-0.49,-3.40,-1.62,1008.86
3.699,-0.05,1.09,-1.17,6.87,4.50,-4.34,-0.49,-3.40,-1.62,1008.86
3.702,1.23,1.04,-1.12,6.87,4.50,-4.34,-0.49,-3.40,-1.62,1008.86
3.703,1.68,1.37,-0.81,6.87,4.50,-4.34,-0.49,-3.40,-1.62,1008.86
3.703,-0.27,1.86,-0.12,6.87,4.50,-4.34,-0.49,-3.40,-1.62,1008.86
3.704,-0.27,1.86,-0.12,6.87,4.50,-4.34,-0.81,-2.78,-0.65,1008.86
3.731,-0.27,1.86,-0.12,6.87,4.50,-4.34,-0.81,-2.78,-0.65,1008.84
3.744,-0.58,0.96,-0.20,6.87,4.50,-4.34,-0.81,-2.78,-0.65,1008.84
3.745,0.04,0.40,0.39,6.87,4.50,-4.34,-0.81,-2.78,-0.65,1008.84
3.745,0.30,0.65,0.19,6.87,4.50,-4.34,-0.81,-2.78,-0.65,1008.84
3.745,0.30,0.65,0.19,6.87,4.50,-4.34,-0.48,-0.59,-2.12,1008.84
3.746,0.30,0.65,0.19,-1.27,-3.05,3.30,-0.48,-0.59,-2.12,1008.84
3.803,-0.13,1.12,0.06,-1.27,-3.05,3.30,-0.48,-0.59,-2.12,1008.84
3.805,-0.49,1.25,-0.14,-1.27,-3.05,3.30,-0.48,-0.59,-2.12,1008.84
3.806,-0.36,0.99,-0.31,-1.27,-3.05,3.30,-0.48,-0.59,-2.12,1008.84
3.807,-0.36,0.99,-0.31,-1.27,-3.05,3.30,-0.04,-0.07,-1.77,1008.84
3.809,-0.36,0.99,-0.31,-2.65,1.35,0.79,-0.04,-0.07,-1.77,1008.84
3.811,-0.36,0.99,-0.31,-2.65,1.35,0.79,-0.04,-0.07,-1.77,1008.83
3.852,-0.36,0.99,-0.31,-2.65,1.35,0.79,-0.04,-0.07,-1.77,1008.91
3.861,-0.18,0.93,-0.31,-2.65,1.35,0.79,-0.04,-0.07,-1.77,1008.91
3.863,-0.22,0.98,-0.20,-2.65,1.35,0.79,-0.04,-0.07,-1.77,1008.91
3.864,-0.30,1.00,-0.18,-2.65,1.35,0.79,-0.04,-0.07,-1.77,1008.91
3.865,-0.30,1.00,-0.18,-2.65,1.35,0.79,0.07,-0.44,-1.02,1008.91
3.866,-0.30,1.00,-0.18,-1.08,-0.04,-0.20,0.07,-0.44,-1.02,1008.91
3.919,-0.27,1.02,-0.24,-1.08,-0.04,-0.20,0.07,-0.44,-1.02,1008.91
3.921,-0.21,1.01,-0.27,-1.08,-0.04,-0.20,0.07,-0.44,-1.02,1008.91
3.922,-0.20,1.00,-0.26,-1.08,-0.04,-0.20,0.07,-0.44,-1.02,1008.91
3.923,-0.20,1.00,-0.26,-1.08,-0.04,-0.20,0.08,-0.28,-0.61,1008.91
3.924,-0.20,1.00,-0.26,-0.61,0.37,-0.44,0.08,-0.28,-0.61,1008.91
3.932,-0.20,1.00,-0.26,-0.61,0.37,-0.44,0.08,-0.28,-0.61,1008.91
3.978,-0.22,0.99,-0.24,-0.61,0.37,-0.44,0.08,-0.28,-0.61,1008.91
3.979,-0.22,1.02,-0.22,-0.61,0.37,-0.44,0.08,-0.28,-0.61,1008.91
3.98,-0.16,1.00,-0.19,-0.61,0.37,-0.44,0.08,-0.28,-0.61,1008.91
3.982,-0.16,1.00,-0.19,-0.11,0.37,-0.01,0.08,-0.28,-0.61,1008.91
3.983,-0.16,1.00,-0.19,-0.11,0.37,-0.01,0.06,-0.06,-0.44,1008.91
4.013,-0.16,1.00,-0.19,-0.11,0.37,-0.01,0.06,-0.06,-0.44,1008.93
4.038,-0.21,0.98,-0.16,-0.11,0.37,-0.01,0.06,-0.06,-0.44,1008.93
4.039,-0.22,0.96,-0.15,-0.11,0.37,-0.01,0.06,-0.06,-0.44,1008.93
4.039,-0.17,0.94,-0.15,-0.11,0.37,-0.01,0.06,-0.06,-0.44,1008.93
4.039,-0.17,0.94,-0.15,-0.11,0.37,-0.01,0.14,-0.21,-0.44,1008.93
4.039,-0.17,0.94,-0.15,0.17,-0.00,0.64,0.14,-0.21,-0.44,1008.93
4.053,-0.17,0.94,-0.15,0.17,-0.00,0.64,0.14,-0.21,-0.44,1008.90
4.095,-0.15,0.96,-0.15,0.17,-0.00,0.64,0.14,-0.21,-0.44,1008.90
4.096,-0.10,0.97,-0.17,0.17,-0.00,0.64,0.14,-0.21,-0.44,1008.90
4.096,-0.15,0.95,-0.19,0.17,-0.00,0.64,0.14,-0.21,-0.44,1008.90
4.097,-0.15,0.95,-0.19,0.17,-0.00,0.64,0.18,-0.01,-0.58,1008.90
4.098,-0.15,0.95,-0.19,1.13,0.09,0.57,0.18,-0.01,-0.58,1008.90
4.131,-0.15,0.95,-0.19,1.13,0.09,0.57,0.18,-0.01,-0.58,1008.89
4.155,-0.23,0.94,-0.21,1.13,0.09,0.57,0.18,-0.01,-0.58,1008.89
4.157,-0.25,0.97,-0.23,1.13,0.09,0.57,0.18,-0.01,-0.58,1008.89
4.158,-0.15,0.98,-0.21,1.13,0.09,0.57,0.18,-0.01,-0.58,1008.89
4.159,-0.15,0.98,-0.21,1.13,0.09,0.57,0.33,0.14,-0.83,1008.89
4.161,-0.15,0.98,-0.21,0.74,0.30,0.30,0.33,0.14,-0.83,1008.89
4.211,-0.08,1.02,-0.15,0.74,0.30,0.30,0.33,0.14,-0.83,1008.89
4.212,-0.02,1.13,-0.09,0.74,0.30,0.30,0.33,0.14,-0.83,1008.89
4.213,0.04,1.24,-0.09,0.74,0.30,0.30,0.33,0.14,-0.83,1008.89
4.213,0.04,1.24,-0.09,0.74,0.30,0.30,0.76,-0.35,-1.17,1008.89
4.214,0.04,1.24,-0.09,0.74,0.30,0.30,0.76,-0.35,-1.17,1008.88
4.214,0.04,1.24,-0.09,3.26,2.23,1.66,0.76,-0.35,-1.17,1008.88
4.252,0.04,1.24,-0.09,3.26,2.23,1.66,0.76,-0.35,-1.17,1008.87
4.272,0.11,1.33,-0.18,3.26,2.23,1.66,0.76,-0.35,-1.17,1008.87
4.274,0.22,1.53,-0.25,3.26,2.23,1.66,0.76,-0.35,-1.17,1008.87
4.275,0.49,1.69,-0.23,3.26,2.23,1.66,0.76,-0.35,-1.17,1008.87
4.276,0.49,1.69,-0.23,3.26,2.23,1.66,1.36,-0.31,-1.69,1008.87
4.277,0.49,1.69,-0.23,6.89,6.51,1.19,1.36,-0.31,-1.69,1008.87
4.327,0.95,1.64,-0.05,6.89,6.51,1.19,1.36,-0.31,-1.69,1008.87
4.328,0.63,1.30,0.12,6.89,6.51,1.19,1.36,-0.31,-1.69,1008.87
4.329,-0.33,1.10,0.18,6.89,6.51,1.19,1.36,-0.31,-1.69,1008.87
4.329,-0.33,1.10,0.18,6.89,6.51,1.19,1.35,0.03,-2.56,1008.87
4.33,-0.33,1.10,0.18,9.32,5.76,4.72,1.35,0.03,-2.56,1008.87
4.331,-0.33,1.10,0.18,9.32,5.76,4.72,1.35,0.03,-2.56,1008.88
4.395,-1.14,1.34,-0.10,9.32,5.76,4.72,1.35,0.03,-2.56,1008.88
4.397,-1.39,1.29,-0.31,9.32,5.76,4.72,1.35,0.03,-2.56,1008.88
4.398,-1.09,0.84,-0.41,9.32,5.76,4.72,1.35,0.03,-2.56,1008.88
4.405,-1.09,0.84,-0.41,9.32,5.76,4.72,1.88,-0.13,-3.17,1008.88
4.406,-1.09,0.84,-0.41,-5.22,5.35,1.84,1.88,-0.13,-3.17,1008.88
4.411,-1.09,0.84,-0.41,-5.22,5.35,1.84,1.88,-0.13,-3.17,1008.87
4.445,-0.75,0.62,-0.29,-5.22,5.35,1.84,1.88,-0.13,-3.17,1008.87
4.446,-0.47,0.51,-0.21,-5.22,5.35,1.84,1.88,-0.13,-3.17,1008.87
4.447,-0.21,0.35,0.05,-5.22,5.35,1.84,1.88,-0.13,-3.17,1008.87
4.447,-0.21,0.35,0.05,-5.22,5.35,1.84,0.17,-2.08,0.52,1008.87
4.448,-0.21,0.35,0.05,2.19,-1.30,2.23,0.17,-2.08,0.52,1008.87
4.452,-0.21,0.35,0.05,2.19,-1.30,2.23,0.17,-2.08,0.52,1008.88
4.503,-0.04,0.17,0.21,2.19,-1.30,2.23,0.17,-2.08,0.52,1008.88
4.505,-0.10,0.25,0.06,2.19,-1.30,2.23,0.17,-2.08,0.52,1008.88
4.505,-0.15,0.44,-0.08,2.19,-1.30,2.23,0.17,-2.08,0.52,1008.88
4.506,-0.15,0.44,-0.08,2.19,-1.30,2.23,-0.05,-1.42,2.85,1008.88
4.506,-0.15,0.44,-0.08,4.99,-4.31,3.67,-0.05,-1.42,2.85,1008.88
4.532,-0.15,0.44,-0.08,4.99,-4.31,3.67,-0.05,-1.42,2.85,1008.85
4.561,-0.22,0.60,-0.10,4.99,-4.31,3.67,-0.05,-1.42,2.85,1008.85
4.563,-0.34,0.64,-0.08,4.99,-4.31,3.67,-0.05,-1.42,2.85,1008.85
4.564,-0.47,0.70,-0.16,4.99,-4.31,3.67,-0.05,-1.42,2.85,1008.85
4.564,-0.47,0.70,-0.16,4.99,-4.31,3.67,-0.36,0.20,3.91,1008.85
4.566,-0.47,0.70,-0.16,0.75,-1.99,1.83,-0.36,0.20,3.91,1008.85
4.614,-0.47,0.70,-0.16,0.75,-1.99,1.83,-0.36,0.20,3.91,1008.90
4.625,-0.46,0.83,-0.19,0.75,-1.99,1.83,-0.36,0.20,3.91,1008.90
4.627,-0.47,0.97,-0.25,0.75,-1.99,1.83,-0.36,0.20,3.91,1008.90
4.627,-0.60,1.17,-0.28,0.75,-1.99,1.83,-0.36,0.20,3.91,1008.90
4.628,-0.60,1.17,-0.28,0.75,-1.99,1.83,-1.24,1.23,4.95,1008.90
4.629,-0.60,1.17,-0.28,-3.57,0.38,0.14,-1.24,1.23,4.95,1008.90
4.651,-0.60,1.17,-0.28,-3.57,0.38,0.14,-1.24,1.23,4.95,1008.89
4.678,-0.73,1.34,-0.27,-3.57,0.38,0.14,-1.24,1.23,4.95,1008.89
4.68,-0.71,1.42,-0.42,-3.57,0.38,0.14,-1.24,1.23,4.95,1008.89
4.681,-0.52,1.36,-0.39,-3.57,0.38,0.14,-1.24,1.23,4.95,1008.89
4.682,-0.52,1.36,-0.39,-3.57,0.38,0.14,-2.10,-0.17,5.40,1008.89
4.683,-0.52,1.36,-0.39,-7.81,3.84,-2.14,-2.10,-0.17,5.40,1008.89
4.731,-0.52,1.36,-0.39,-7.81,3.84,-2.14,-2.10,-0.17,5.40,1008.84
4.735,-0.40,1.29,-0.20,-7.81,3.84,-2.14,-2.10,-0.17,5.40,1008.84
4.736,-0.36,1.21,-0.20,-7.81,3.84,-2.14,-2.10,-0.17,5.40,1008.84
4.736,-0.33,1.24,-0.21,-7.81,3.84,-2.14,-2.10,-0.17,5.40,1008.84
4.737,-0.33,1.24,-0.21,-7.81,3.84,-2.14,-1.76,-0.41,4.42,1008.84
4.738,-0.33,1.24,-0.21,-7.22,3.12,-1.46,-1.76,-0.41,4.42,1008.84
4.806,-0.40,1.17,-0.30,-7.22,3.12,-1.46,-1.76,-0.41,4.42,1008.84
4.807,-0.49,0.98,-0.29,-7.22,3.12,-1.46,-1.76,-0.41,4.42,1008.84
4.808,-0.66,0.77,-0.28,-7.22,3.12,-1.46,-1.76,-0.41,4.42,1008.84
4.808,-0.66,0.77,-0.28,-7.22,3.12,-1.46,-0.86,0.66,1.25,1008.84
4.809,-0.66,0.77,-0.28,-9.26,0.71,-2.90,-0.86,0.66,1.25,1008.84
4.811,-0.66,0.77,-0.28,-9.26,0.71,-2.90,-0.86,0.66,1.25,1008.81
4.852,-0.66,0.77,-0.28,-9.26,0.71,-2.90,-0.86,0.66,1.25,1008.84
4.856,-0.76,0.81,-0.23,-9.26,0.71,-2.90,-0.86,0.66,1.25,1008.84
4.857,-0.76,1.06,-0.32,-9.26,0.71,-2.90,-0.86,0.66,1.25,1008.84
4.858,-0.31,1.24,-0.56,-9.26,0.71,-2.90,-0.86,0.66,1.25,1008.84
4.86,-0.31,1.24,-0.56,-9.09,0.94,-3.51,-0.86,0.66,1.25,1008.84
4.861,-0.31,1.24,-0.56,-9.09,0.94,-3.51,-0.07,-0.71,-1.77,1008.84
4.914,1.17,1.08,-0.18,-9.09,0.94,-3.51,-0.07,-0.71,-1.77,1008.84
4.915,2.08,1.27,-0.25,-9.09,0.94,-3.51,-0.07,-0.71,-1.77,1008.84
4.916,0.04,1.96,-0.39,-9.09,0.94,-3.51,-0.07,-0.71,-1.77,1008.84
4.916,0.04,1.96,-0.39,-9.09,0.94,-3.51,-0.53,-1.80,-0.21,1008.84
4.917,0.04,1.96,-0.39,7.64,4.73,-2.51,-0.53,-1.80,-0.21,1008.84
4.931,0.04,1.96,-0.39,7.64,4.73,-2.51,-0.53,-1.80,-0.21,1008.85
4.969,-0.68,1.29,-0.54,7.64,4.73,-2.51,-0.53,-1.80,-0.21,1008.85
4.97,-0.09,0.60,0.04,7.64,4.73,-2.51,-0.53,-1.80,-0.21,1008.85
4.971,0.19,0.68,0.57,7.64,4.73,-2.51,-0.53,-1.80,-0.21,1008.85
4.971,0.19,0.68,0.57,7.64,4.73,-2.51,-0.37,-0.49,-1.90,1008.85
4.972,0.19,0.68,0.57,-3.89,-1.18,0.26,-0.37,-0.49,-1.90,1008.85
5.015,0.19,0.68,0.57,-3.89,-1.18,0.26,-0.37,-0.49,-1.90,1008.80
5.036,0.32,0.98,0.37,-3.89,-1.18,0.26,-0.37,-0.49,-1.90,1008.80
5.037,0.22,1.08,0.05,-3.89,-1.18,0.26,-0.37,-0.49,-1.90,1008.80
5.037,-0.02,1.03,0.04,-3.89,-1.18,0.26,-0.37,-0.49,-1.90,1008.80
5.038,-0.02,1.03,0.04,0.43,0.35,1.47,-0.37,-0.49,-1.90,1008.80
5.038,-0.02,1.03,0.04,0.43,0.35,1.47,-0.12,-0.04,-1.30,1008.80
5.051,-0.02,1.03,0.04,0.43,0.35,1.47,-0.12,-0.04,-1.30,1008.85
5.086,-0.03,0.99,-0.03,0.43,0.35,1.47,-0.12,-0.04,-1.30,1008.85
5.086,-0.02,1.01,-0.05,0.43,0.35,1.47,-0.12,-0.04,-1.30,1008.85
5.087,-0.05,1.05,-0.00,0.43,0.35,1.47,-0.12,-0.04,-1.30,1008.85
5.087,-0.05,1.05,-0.00,0.43,0.35,1.47,-0.00,0.09,-1.14,1008.85
5.088,-0.05,1.05,-0.00,-0.91,0.14,-0.31,-0.00,0.09,-1.14,1008.85
5.132,-0.05,1.05,-0.00,-0.91,0.14,-0.31,-0.00,0.09,-1.14,1008.87
5.145,-0.01,1.04,0.06,-0.91,0.14,-0.31,-0.00,0.09,-1.14,1008.87
5.147,0.04,1.00,0.05,-0.91,0.14,-0.31,-0.00,0.09,-1.14,1008.87
5.148,0.05,1.01,0.01,-0.91,0.14,-0.31,-0.00,0.09,-1.14,1008.87
5.149,0.05,1.01,0.01,-0.91,0.14,-0.31,0.06,-0.05,-0.87,1008.87
5.15,0.05,1.01,0.01,0.16,0.15,0.39,0.06,-0.05,-0.87,1008.87
5.206,0.00,1.05,-0.00,0.16,0.15,0.39,0.06,-0.05,-0.87,1008.87
5.208,-0.04,1.04,-0.01,0.16,0.15,0.39,0.06,-0.05,-0.87,1008.87
5.209,-0.06,1.01,0.01,0.16,0.15,0.39,0.06,-0.05,-0.87,1008.87
5.21,-0.06,1.01,0.01,0.16,0.15,0.39,0.14,0.32,-0.90,1008.87
5.212,-0.06,1.01,0.01,0.09,0.29,0.07,0.14,0.32,-0.90,1008.87
5.213,-0.06,1.01,0.01,0.09,0.29,0.07,0.14,0.32,-0.90,1008.86
5.252,-0.06,1.01,0.01,0.09,0.29,0.07,0.14,0.32,-0.90,1008.86
5.261,-0.06,0.99,0.02,0.09,0.29,0.07,0.14,0.32,-0.90,1008.86
5.262,-0.11,0.99,0.01,0.09,0.29,0.07,0.14,0.32,-0.90,1008.86
5.263,-0.11,0.99,-0.01,0.09,0.29,0.07,0.14,0.32,-0.90,1008.86
5.264,-0.11,0.99,-0.01,-0.01,-0.11,0.24,0.14,0.32,-0.90,1008.86
5.265,-0.11,0.99,-0.01,-0.01,-0.11,0.24,0.16,0.21,-0.88,1008.86
5.319,-0.09,0.98,-0.02,-0.01,-0.11,0.24,0.16,0.21,-0.88,1008.86
5.321,-0.05,0.97,-0.02,-0.01,-0.11,0.24,0.16,0.21,-0.88,1008.86
5.322,-0.08,0.95,0.02,-0.01,-0.11,0.24,0.16,0.21,-0.88,1008.86
5.323,-0.08,0.95,0.02,-0.01,-0.11,0.24,0.15,0.31,-0.90,1008.86
5.324,-0.08,0.95,0.02,0.69,-0.23,0.21,0.15,0.31,-0.90,1008.86
5.331,-0.08,0.95,0.02,0.69,-0.23,0.21,0.15,0.31,-0.90,1008.86
5.379,-0.18,0.94,0.01,0.69,-0.23,0.21,0.15,0.31,-0.90,1008.86
5.381,-0.21,0.97,-0.01,0.69,-0.23,0.21,0.15,0.31,-0.90,1008.86
5.383,-0.13,1.00,-0.02,0.69,-0.23,0.21,0.15,0.31,-0.90,1008.86
5.384,-0.13,1.00,-0.02,0.69,-0.23,0.21,0.16,0.19,-1.10,1008.86
5.385,-0.13,1.00,-0.02,0.32,-0.12,0.29,0.16,0.19,-1.10,1008.86
5.412,-0.13,1.00,-0.02,0.32,-0.12,0.29,0.16,0.19,-1.10,1008.87
5.436,-0.12,1.02,-0.05,0.32,-0.12,0.29,0.16,0.19,-1.10,1008.87
5.437,-0.11,1.03,-0.06,0.32,-0.12,0.29,0.16,0.19,-1.10,1008.87
5.437,-0.19,1.05,-0.04,0.32,-0.12,0.29,0.16,0.19,-1.10,1008.87
5.438,-0.19,1.05,-0.04,0.32,-0.12,0.29,0.23,-0.13,-1.33,1008.87
5.439,-0.19,1.05,-0.04,1.37,0.70,-0.02,0.23,-0.13,-1.33,1008.87
5.452,-0.19,1.05,-0.04,1.37,0.70,-0.02,0.23,-0.13,-1.33,1008.88
5.498,-0.31,1.05,-0.07,1.37,0.70,-0.02,0.23,-0.13,-1.33,1008.88
5.5,-0.30,1.05,-0.07,1.37,0.70,-0.02,0.23,-0.13,-1.33,1008.88
5.502,-0.22,1.11,-0.04,1.37,0.70,-0.02,0.23,-0.13,-1.33,1008.88
5.503,-0.22,1.11,-0.04,1.37,0.70,-0.02,0.33,0.19,-1.51,1008.88
5.504,-0.22,1.11,-0.04,0.82,1.35,0.10,0.33,0.19,-1.51,1008.88
5.531,-0.22,1.11,-0.04,0.82,1.35,0.10,0.33,0.19,-1.51,1008.89
5.553,-0.14,1.18,-0.06,0.82,1.35,0.10,0.33,0.19,-1.51,1008.89
5.555,-0.12,1.29,-0.07,0.82,1.35,0.10,0.33,0.19,-1.51,1008.89
5.556,-0.07,1.39,-0.13,0.82,1.35,0.10,0.33,0.19,-1.51,1008.89
5.556,-0.07,1.39,-0.13,0.82,1.35,0.10,0.52,0.57,-1.66,1008.89
5.557,-0.07,1.39,-0.13,3.22,3.77,0.26,0.52,0.57,-1.66,1008.89
5.611,0.09,1.46,-0.17,3.22,3.77,0.26,0.52,0.57,-1.66,1008.89
5.613,0.49,1.47,-0.27,3.22,3.77,0.26,0.52,0.57,-1.66,1008.89
5.613,0.77,1.44,-0.35,3.22,3.77,0.26,0.52,0.57,-1.66,1008.89
5.614,0.77,1.44,-0.35,3.22,3.77,0.26,0.70,1.13,-1.93,1008.89
5.615,0.77,1.44,-0.35,9.43,5.94,-0.81,0.70,1.13,-1.93,1008.89
5.617,0.77,1.44,-0.35,9.43,5.94,-0.81,0.70,1.13,-1.93,1008.90
5.653,0.77,1.44,-0.35,9.43,5.94,-0.81,0.70,1.13,-1.93,1008.88
5.669,0.44,1.14,-0.19,9.43,5.94,-0.81,0.70,1.13,-1.93,1008.88
5.67,-0.40,0.80,-0.08,9.43,5.94,-0.81,0.70,1.13,-1.93,1008.88
5.67,-1.20,0.92,-0.26,9.43,5.94,-0.81,0.70,1.13,-1.93,1008.88
5.671,-1.20,0.92,-0.26,9.43,5.94,-0.81,0.88,2.03,-3.33,1008.88
5.671,-1.20,0.92,-0.26,2.40,2.21,1.11,0.88,2.03,-3.33,1008.88
5.728,-1.29,1.11,-0.29,2.40,2.21,1.11,0.88,2.03,-3.33,1008.88
5.73,-0.97,0.81,-0.11,2.40,2.21,1.11,0.88,2.03,-3.33,1008.88
5.73,-0.99,0.57,-0.05,2.40,2.21,1.11,0.88,2.03,-3.33,1008.88
5.731,-0.99,0.57,-0.05,2.40,2.21,1.11,1.07,0.40,-1.90,1008.88
5.732,-0.99,0.57,-0.05,-3.68,1.89,1.91,1.07,0.40,-1.90,1008.88
5.732,-0.99,0.57,-0.05,-3.68,1.89,1.91,1.07,0.40,-1.90,1008.88
5.785,-0.97,0.62,-0.15,-3.68,1.89,1.91,1.07,0.40,-1.90,1008.88
5.786,-0.58,0.39,-0.11,-3.68,1.89,1.91,1.07,0.40,-1.90,1008.88
5.786,0.02,0.12,0.33,-3.68,1.89,1.91,1.07,0.40,-1.90,1008.88
5.786,0.02,0.12,0.33,-3.68,1.89,1.91,-0.07,-2.25,1.44,1008.88
5.787,0.02,0.12,0.33,1.76,-3.05,2.61,-0.07,-2.25,1.44,1008.88
5.812,0.02,0.12,0.33,1.76,-3.05,2.61,-0.07,-2.25,1.44,1008.86
5.845,0.20,-0.00,0.33,1.76,-3.05,2.61,-0.07,-2.25,1.44,1008.86
5.846,0.13,0.20,0.02,1.76,-3.05,2.61,-0.07,-2.25,1.44,1008.86
5.846,-0.15,0.48,-0.14,1.76,-3.05,2.61,-0.07,-2.25,1.44,1008.86
5.847,-0.15,0.48,-0.14,1.76,-3.05,2.61,0.92,-1.18,3.29,1008.86
5.847,-0.15,0.48,-0.14,6.00,-5.52,2.98,0.92,-1.18,3.29,1008.86
5.855,-0.15,0.48,-0.14,6.00,-5.52,2.98,0.92,-1.18,3.29,1008.85
5.904,-0.53,0.67,-0.10,6.00,-5.52,2.98,0.92,-1.18,3.29,1008.85
5.905,-0.84,0.72,-0.05,6.00,-5.52,2.98,0.92,-1.18,3.29,1008.85
5.905,-0.82,0.75,0.13,6.00,-5.52,2.98,0.92,-1.18,3.29,1008.85
5.905,-0.82,0.75,0.13,6.00,-5.52,2.98,0.96,-0.70,4.41,1008.85
5.906,-0.82,0.75,0.13,-3.77,-1.73,2.48,0.96,-0.70,4.41,1008.85
5.932,-0.82,0.75,0.13,-3.77,-1.73,2.48,0.96,-0.70,4.41,1008.88
5.962,-0.88,0.90,0.07,-3.77,-1.73,2.48,0.96,-0.70,4.41,1008.88
5.963,-1.02,1.09,0.02,-3.77,-1.73,2.48,0.96,-0.70,4.41,1008.88
5.963,-0.96,1.19,-0.17,-3.77,-1.73,2.48,0.96,-0.70,4.41,1008.88
5.964,-0.96,1.19,-0.17,-3.77,-1.73,2.48,0.70,-3.64,5.73,1008.88
5.964,-0.96,1.19,-0.17,-8.28,1.02,2.14,0.70,-3.64,5.73,1008.88
6.011,-0.96,1.19,-0.17,-8.28,1.02,2.14,0.70,-3.64,5.73,1008.84
6.019,-0.66,1.21,-0.29,-8.28,1.02,2.14,0.70,-3.64,5.73,1008.84
6.019,-0.40,1.24,-0.26,-8.28,1.02,2.14,0.70,-3.64,5.73,1008.84
6.019,-0.32,1.30,-0.09,-8.28,1.02,2.14,0.70,-3.64,5.73,1008.84
6.02,-0.32,1.30,-0.09,-8.28,1.02,2.14,0.81,-6.87,5.70,1008.84
6.02,-0.32,1.30,-0.09,-5.40,3.00,0.79,0.81,-6.87,5.70,1008.84
6.051,-0.32,1.30,-0.09,-5.40,3.00,0.79,0.81,-6.87,5.70,1008.79
6.077,-0.43,1.38,0.06,-5.40,3.00,0.79,0.81,-6.87,5.70,1008.79
6.078,-0.46,1.34,0.20,-5.40,3.00,0.79,0.81,-6.87,5.70,1008.79
6.078,-0.29,1.11,0.32,-5.40,3.00,0.79,0.81,-6.87,5.70,1008.79
6.078,-0.29,1.11,0.32,-5.40,3.00,0.79,-0.01,-7.73,3.31,1008.79
6.079,-0.29,1.11,0.32,-5.02,3.41,5.24,-0.01,-7.73,3.31,1008.79
6.131,-0.29,1.11,0.32,-5.02,3.41,5.24,-0.01,-7.73,3.31,1008.79
6.135,-0.05,0.91,0.23,-5.02,3.41,5.24,-0.01,-7.73,3.31,1008.79
6.136,0.01,0.88,0.22,-5.02,3.41,5.24,-0.01,-7.73,3.31,1008.79
6.136,-0.28,0.93,0.22,-5.02,3.41,5.24,-0.01,-7.73,3.31,1008.79
6.136,-0.28,0.93,0.22,-1.81,-0.28,5.38,-0.01,-7.73,3.31,1008.79
6.137,-0.28,0.93,0.22,-1.81,-0.28,5.38,-0.61,-4.14,0.87,1008.79
6.201,-0.28,0.93,0.22,-3.54,0.80,-2.39,-0.61,-4.14,0.87,1008.79
6.202,-0.59,0.87,-0.02,-3.54,0.80,-2.39,-0.61,-4.14,0.87,1008.79
6.202,-0.57,1.02,-0.71,-3.54,0.80,-2.39,-0.61,-4.14,0.87,1008.79
6.203,0.19,1.20,-0.90,-3.54,0.80,-2.39,-0.61,-4.14,0.87,1008.79
6.203,0.19,1.20,-0.90,-3.54,0.80,-2.39,-0.56,-0.38,-0.46,1008.79
6.211,0.19,1.20,-0.90,-3.54,0.80,-2.39,-0.56,-0.38,-0.46,1008.86
6.251,0.19,1.20,-0.90,-3.54,0.80,-2.39,-0.56,-0.38,-0.46,1008.88
6.253,0.37,1.38,-0.88,-3.54,0.80,-2.39,-0.56,-0.38,-0.46,1008.88
6.253,-0.03,1.23,-0.65,-3.54,0.80,-2.39,-0.56,-0.38,-0.46,1008.88
6.254,-0.37,0.98,-0.09,-3.54,0.80,-2.39,-0.56,-0.38,-0.46,1008.88
6.254,-0.37,0.98,-0.09,-0.30,2.28,-2.74,-0.56,-0.38,-0.46,1008.88
6.254,-0.37,0.98,-0.09,-0.30,2.28,-2.74,-0.85,-0.68,-0.13,1008.88
6.31,-0.21,0.92,0.08,-0.30,2.28,-2.74,-0.85,-0.68,-0.13,1008.88
6.311,0.16,0.98,0.07,-0.30,2.28,-2.74,-0.85,-0.68,-0.13,1008.88
6.311,0.26,1.04,-0.07,-0.30,2.28,-2.74,-0.85,-0.68,-0.13,1008.88
6.312,0.26,1.04,-0.07,-0.30,2.28,-2.74,-0.65,-0.57,0.41,1008.88
6.312,0.26,1.04,-0.07,0.31,0.05,2.43,-0.65,-0.57,0.41,1008.88
6.331,0.26,1.04,-0.07,0.31,0.05,2.43,-0.65,-0.57,0.41,1008.85
6.369,0.12,1.09,-0.23,0.31,0.05,2.43,-0.65,-0.57,0.41,1008.85
6.369,-0.07,1.03,-0.22,0.31,0.05,2.43,-0.65,-0.57,0.41,1008.85
6.37,-0.03,0.95,-0.21,0.31,0.05,2.43,-0.65,-0.57,0.41,1008.85
6.37,-0.03,0.95,-0.21,0.31,0.05,2.43,-0.35,-0.06,0.16,1008.85
6.37,-0.03,0.95,-0.21,-0.37,0.41,-0.18,-0.35,-0.06,0.16,1008.85
6.411,-0.03,0.95,-0.21,-0.37,0.41,-0.18,-0.35,-0.06,0.16,1008.90
6.427,0.24,0.94,-0.14,-0.37,0.41,-0.18,-0.35,-0.06,0.16,1008.90
6.428,0.42,0.98,-0.09,-0.37,0.41,-0.18,-0.35,-0.06,0.16,1008.90
6.428,0.33,0.97,-0.07,-0.37,0.41,-0.18,-0.35,-0.06,0.16,1008.90
6.429,0.33,0.97,-0.07,2.82,-0.17,0.81,-0.35,-0.06,0.16,1008.90
6.429,0.33,0.97,-0.07,2.82,-0.17,0.81,-0.31,-0.49,-0.03,1008.90
6.451,0.33,0.97,-0.07,2.82,-0.17,0.81,-0.31,-0.49,-0.03,1008.88
6.487,0.07,0.93,-0.10,2.82,-0.17,0.81,-0.31,-0.49,-0.03,1008.88
6.489,-0.25,0.98,-0.13,2.82,-0.17,0.81,-0.31,-0.49,-0.03,1008.88
6.49,-0.29,1.01,-0.15,2.82,-0.17,0.81,-0.31,-0.49,-0.03,1008.88
6.491,-0.29,1.01,-0.15,2.82,-0.17,0.81,-0.19,-0.17,-0.66,1008.88
6.492,-0.29,1.01,-0.15,-1.54,-0.11,0.43,-0.19,-0.17,-0.66,1008.88
6.535,-0.29,1.01,-0.15,-1.54,-0.11,0.43,-0.19,-0.17,-0.66,1008.90
6.552,-0.29,1.01,-0.15,-0.47,0.06,0.17,-0.19,-0.17,-0.66,1008.90
6.553,-0.14,0.98,-0.14,-0.47,0.06,0.17,-0.19,-0.17,-0.66,1008.90
6.554,-0.02,0.97,-0.15,-0.47,0.06,0.17,-0.19,-0.17,-0.66,1008.90
6.554,-0.01,1.02,-0.15,-0.47,0.06,0.17,-0.19,-0.17,-0.66,1008.90
6.554,-0.01,1.02,-0.15,-0.47,0.06,0.17,-0.15,-0.45,-0.11,1008.90
6.604,-0.01,1.02,-0.15,0.90,0.02,1.15,-0.15,-0.45,-0.11,1008.90
6.605,0.03,1.00,-0.10,0.90,0.02,1.15,-0.15,-0.45,-0.11,1008.90
6.605,0.13,0.97,0.01,0.90,0.02,1.15,-0.15,-0.45,-0.11,1008.90
6.606,0.04,0.99,-0.04,0.90,0.02,1.15,-0.15,-0.45,-0.11,1008.90
6.606,0.04,0.99,-0.04,0.90,0.02,1.15,-0.00,-0.41,-0.18,1008.90
6.612,0.04,0.99,-0.04,0.90,0.02,1.15,-0.00,-0.41,-0.18,1008.90
6.652,0.04,0.99,-0.04,0.90,0.02,1.15,-0.00,-0.41,-0.18,1008.91
6.66,-0.07,1.00,-0.10,0.90,0.02,1.15,-0.00,-0.41,-0.18,1008.91
6.662,-0.11,0.99,-0.08,0.90,0.02,1.15,-0.00,-0.41,-0.18,1008.91
6.663,-0.08,0.97,-0.07,0.90,0.02,1.15,-0.00,-0.41,-0.18,1008.91
6.665,-0.08,0.97,-0.07,0.90,0.02,1.15,0.24,-0.46,-0.40,1008.91
6.666,-0.08,0.97,-0.07,-0.33,0.05,0.87,0.24,-0.46,-0.40,1008.91
6.721,-0.08,0.98,-0.10,-0.33,0.05,0.87,0.24,-0.46,-0.40,1008.91
6.723,-0.09,0.97,-0.21,-0.33,0.05,0.87,0.24,-0.46,-0.40,1008.91
6.724,-0.20,0.97,-0.19,-0.33,0.05,0.87,0.24,-0.46,-0.40,1008.91
6.724,-0.20,0.97,-0.19,-0.33,0.05,0.87,0.43,-0.36,-0.34,1008.91
6.725,-0.20,0.97,-0.19,-0.47,-0.02,0.26,0.43,-0.36,-0.34,1008.91
6.74,-0.20,0.97,-0.19,-0.47,-0.02,0.26,0.43,-0.36,-0.34,1008.91
6.777,-0.24,0.95,-0.18,-0.47,-0.02,0.26,0.43,-0.36,-0.34,1008.91
6.778,-0.27,0.95,-0.24,-0.47,-0.02,0.26,0.43,-0.36,-0.34,1008.91
6.779,-0.22,1.00,-0.26,-0.47,-0.02,0.26,0.43,-0.36,-0.34,1008.91
6.78,-0.22,1.00,-0.26,-0.47,-0.02,0.26,0.44,-0.31,-0.10,1008.91
6.781,-0.22,1.00,-0.26,-1.51,-0.02,-0.07,0.44,-0.31,-0.10,1008.91
6.817,-0.22,1.00,-0.26,-1.51,-0.02,-0.07,0.44,-0.31,-0.10,1008.91
6.848,-0.01,1.01,-0.20,-1.51,-0.02,-0.07,0.44,-0.31,-0.10,1008.91
6.849,0.08,0.99,-0.18,-1.51,-0.02,-0.07,0.44,-0.31,-0.10,1008.91
6.849,-0.03,1.00,-0.16,-1.51,-0.02,-0.07,0.44,-0.31,-0.10,1008.91
6.85,-0.03,1.00,-0.16,0.92,0.34,0.65,0.44,-0.31,-0.10,1008.91
6.85,-0.03,1.00,-0.16,0.92,0.34,0.65,0.52,-0.13,0.12,1008.91
6.852,-0.03,1.00,-0.16,0.92,0.34,0.65,0.52,-0.13,0.12,1008.91
6.896,-0.03,1.00,-0.16,1.30,0.57,1.73,0.52,-0.13,0.12,1008.91
6.898,-0.07,1.01,-0.17,1.30,0.57,1.73,0.52,-0.13,0.12,1008.91
6.899,0.03,1.00,-0.11,1.30,0.57,1.73,0.52,-0.13,0.12,1008.91
6.9,0.14,1.01,-0.08,1.30,0.57,1.73,0.52,-0.13,0.12,1008.91
6.901,0.14,1.01,-0.08,1.30,0.57,1.73,1.04,-0.43,-0.20,1008.91
6.933,0.14,1.01,-0.08,1.30,0.57,1.73,1.04,-0.43,-0.20,1008.89
6.953,0.17,1.05,-0.11,1.30,0.57,1.73,1.04,-0.43,-0.20,1008.89
6.954,0.19,1.13,-0.18,1.30,0.57,1.73,1.04,-0.43,-0.20,1008.89
6.954,0.10,1.31,-0.26,1.30,0.57,1.73,1.04,-0.43,-0.20,1008.89
6.955,0.10,1.31,-0.26,1.30,0.57,1.73,1.70,-0.43,-0.70,1008.89
6.955,0.10,1.31,-0.26,2.85,2.45,1.96,1.70,-0.43,-0.70,1008.89
7.02,0.12,1.50,-0.23,2.85,2.45,1.96,1.70,-0.43,-0.70,1008.89
7.023,0.31,1.51,-0.20,2.85,2.45,1.96,1.70,-0.43,-0.70,1008.89
7.024,0.37,1.51,-0.12,2.85,2.45,1.96,1.70,-0.43,-0.70,1008.89
7.025,0.37,1.51,-0.12,2.85,2.45,1.96,2.30,-0.98,-1.00,1008.89
7.026,0.37,1.51,-0.12,4.66,6.37,2.98,2.30,-0.98,-1.00,1008.89
7.027,0.37,1.51,-0.12,4.66,6.37,2.98,2.30,-0.98,-1.00,1008.89
7.052,0.37,1.51,-0.12,4.66,6.37,2.98,2.30,-0.98,-1.00,1008.89
7.069,0.23,1.47,0.11,4.66,6.37,2.98,2.30,-0.98,-1.00,1008.89
7.07,-0.14,1.38,0.30,4.66,6.37,2.98,2.30,-0.98,-1.00,1008.89
7.071,-0.78,1.29,0.23,4.66,6.37,2.98,2.30,-0.98,-1.00,1008.89
7.073,-0.78,1.29,0.23,1.06,6.00,7.52,2.30,-0.98,-1.00,1008.89
7.074,-0.78,1.29,0.23,1.06,6.00,7.52,2.31,-1.97,-1.58,1008.89
7.133,-1.22,1.19,-0.13,1.06,6.00,7.52,2.31,-1.97,-1.58,1008.89
7.134,-1.18,0.92,-0.38,1.06,6.00,7.52,2.31,-1.97,-1.58,1008.89
7.134,-0.88,0.96,-0.47,1.06,6.00,7.52,2.31,-1.97,-1.58,1008.89
7.135,-0.88,0.96,-0.47,-5.70,3.42,2.24,2.31,-1.97,-1.58,1008.89
7.136,-0.88,0.96,-0.47,-5.70,3.42,2.24,2.28,-3.56,-1.04,1008.89
7.136,-0.88,0.96,-0.47,-5.70,3.42,2.24,2.28,-3.56,-1.04,1008.88
7.187,-0.43,0.79,-0.18,-5.70,3.42,2.24,2.28,-3.56,-1.04,1008.88
7.189,-0.08,0.43,0.17,-5.70,3.42,2.24,2.28,-3.56,-1.04,1008.88
7.19,-0.05,0.35,0.17,-5.70,3.42,2.24,2.28,-3.56,-1.04,1008.88
7.191,-0.05,0.35,0.17,-5.70,3.42,2.24,1.00,-5.11,1.59,1008.88
7.197,-0.05,0.35,0.17,3.95,-1.70,4.60,1.00,-5.11,1.59,1008.88
7.212,-0.05,0.35,0.17,3.95,-1.70,4.60,1.00,-5.11,1.59,1008.88
7.245,-0.27,0.47,0.09,3.95,-1.70,4.60,1.00,-5.11,1.59,1008.88
7.247,-0.39,0.58,0.10,3.95,-1.70,4.60,1.00,-5.11,1.59,1008.88
7.248,-0.44,0.64,0.11,3.95,-1.70,4.60,1.00,-5.11,1.59,1008.88
7.249,-0.44,0.64,0.11,3.95,-1.70,4.60,0.81,-3.92,2.74,1008.88
7.25,-0.44,0.64,0.11,1.85,-2.00,4.03,0.81,-3.92,2.74,1008.88
7.252,-0.44,0.64,0.11,1.85,-2.00,4.03,0.81,-3.92,2.74,1008.87
7.304,-0.34,0.65,0.04,1.85,-2.00,4.03,0.81,-3.92,2.74,1008.87
7.306,-0.20,0.71,0.13,1.85,-2.00,4.03,0.81,-3.92,2.74,1008.87
7.307,-0.18,0.88,0.14,1.85,-2.00,4.03,0.81,-3.92,2.74,1008.87
7.308,-0.18,0.88,0.14,1.85,-2.00,4.03,0.73,-2.13,4.35,1008.87
7.309,-0.18,0.88,0.14,1.33,-1.27,3.74,0.73,-2.13,4.35,1008.87
7.332,-0.18,0.88,0.14,1.33,-1.27,3.74,0.73,-2.13,4.35,1008.90
7.361,-0.30,1.03,0.02,1.33,-1.27,3.74,0.73,-2.13,4.35,1008.90
7.364,-0.51,1.18,-0.07,1.33,-1.27,3.74,0.73,-2.13,4.35,1008.90
7.364,-0.62,1.28,-0.10,1.33,-1.27,3.74,0.73,-2.13,4.35,1008.90
7.365,-0.62,1.28,-0.10,1.33,-1.27,3.74,-0.21,-0.58,4.65,1008.90
7.366,-0.62,1.28,-0.10,-3.26,2.07,1.99,-0.21,-0.58,4.65,1008.90
7.421,-0.62,1.28,-0.10,-3.26,2.07,1.99,-0.21,-0.58,4.65,1008.89
7.428,-0.61,1.18,-0.13,-3.26,2.07,1.99,-0.21,-0.58,4.65,1008.89
7.429,-0.52,1.10,-0.10,-3.26,2.07,1.99,-0.21,-0.58,4.65,1008.89
7.429,-0.49,1.18,-0.12,-3.26,2.07,1.99,-0.21,-0.58,4.65,1008.89
7.43,-0.49,1.18,-0.12,-3.26,2.07,1.99,-1.45,-0.71,4.84,1008.89
7.431,-0.49,1.18,-0.12,-6.36,1.76,0.52,-1.45,-0.71,4.84,1008.89
7.452,-0.49,1.18,-0.12,-6.36,1.76,0.52,-1.45,-0.71,4.84,1008.84
7.479,-0.45,1.35,-0.20,-6.36,1.76,0.52,-1.45,-0.71,4.84,1008.84
7.48,-0.35,1.23,-0.24,-6.36,1.76,0.52,-1.45,-0.71,4.84,1008.84
7.48,-0.34,1.11,-0.08,-6.36,1.76,0.52,-1.45,-0.71,4.84,1008.84
7.481,-0.34,1.11,-0.08,-6.36,1.76,0.52,-1.61,-0.80,4.35,1008.84
7.482,-0.34,1.11,-0.08,-7.02,2.93,-0.76,-1.61,-0.80,4.35,1008.84
7.537,-0.34,1.11,-0.08,-7.02,2.93,-0.76,-1.61,-0.80,4.35,1008.81
7.538,-0.23,1.17,-0.07,-7.02,2.93,-0.76,-1.61,-0.80,4.35,1008.81
7.538,-0.03,1.10,-0.11,-7.02,2.93,-0.76,-1.61,-0.80,4.35,1008.81
7.539,-0.08,0.97,-0.10,-7.02,2.93,-0.76,-1.61,-0.80,4.35,1008.81
7.54,-0.08,0.97,-0.10,-5.65,1.95,-0.57,-1.61,-0.80,4.35,1008.81
7.54,-0.08,0.97,-0.10,-5.65,1.95,-0.57,-1.09,0.08,2.66,1008.81
7.595,-0.35,0.87,-0.18,-5.65,1.95,-0.57,-1.09,0.08,2.66,1008.81
7.597,-0.55,0.77,-0.21,-5.65,1.95,-0.57,-1.09,0.08,2.66,1008.81
7.598,-0.55,0.79,-0.15,-5.65,1.95,-0.57,-1.09,0.08,2.66,1008.81
7.599,-0.55,0.79,-0.15,-5.65,1.95,-0.57,-0.34,0.61,-0.29,1008.81
7.6,-0.55,0.79,-0.15,-9.00,-0.74,-1.77,-0.34,0.61,-0.29,1008.81
7.613,-0.55,0.79,-0.15,-9.00,-0.74,-1.77,-0.34,0.61,-0.29,1008.82
7.652,-0.55,0.79,-0.15,-9.00,-0.74,-1.77,-0.34,0.61,-0.29,1008.86
7.653,-0.59,0.89,-0.23,-9.00,-0.74,-1.77,-0.34,0.61,-0.29,1008.86
7.654,-0.37,1.15,-0.51,-9.00,-0.74,-1.77,-0.34,0.61,-0.29,1008.86
7.654,0.88,1.35,0.05,-9.00,-0.74,-1.77,-0.34,0.61,-0.29,1008.86
7.655,0.88,1.35,0.05,-3.51,1.95,-2.05,-0.34,0.61,-0.29,1008.86
7.655,0.88,1.35,0.05,-3.51,1.95,-2.05,-0.10,-0.94,-1.81,1008.86
7.718,2.56,1.13,0.36,-3.51,1.95,-2.05,-0.10,-0.94,-1.81,1008.86
7.72,0.73,1.54,-0.17,-3.51,1.95,-2.05,-0.10,-0.94,-1.81,1008.86
7.722,-0.96,1.66,-0.80,-3.51,1.95,-2.05,-0.10,-0.94,-1.81,1008.86
7.722,-0.96,1.66,-0.80,-3.51,1.95,-2.05,-0.58,-1.40,-1.04,1008.86
7.723,-0.96,1.66,-0.80,4.86,4.75,-1.85,-0.58,-1.40,-1.04,1008.86
7.74,-0.96,1.66,-0.80,4.86,4.75,-1.85,-0.58,-1.40,-1.04,1008.84
7.77,-0.18,0.78,-0.06,4.86,4.75,-1.85,-0.58,-1.40,-1.04,1008.84
7.771,0.38,0.66,0.43,4.86,4.75,-1.85,-0.58,-1.40,-1.04,1008.84
7.773,0.13,1.04,0.29,4.86,4.75,-1.85,-0.58,-1.40,-1.04,1008.84
7.774,0.13,1.04,0.29,4.86,4.75,-1.85,-0.36,0.19,-1.83,1008.84
7.775,0.13,1.04,0.29,-0.66,-1.50,2.08,-0.36,0.19,-1.83,1008.84
7.819,0.13,1.04,0.29,-0.66,-1.50,2.08,-0.36,0.19,-1.83,1008.83
7.834,0.13,1.04,0.29,-2.37,0.08,0.36,-0.36,0.19,-1.83,1008.83
7.836,-0.17,1.08,0.18,-2.37,0.08,0.36,-0.36,0.19,-1.83,1008.83
7.837,-0.23,0.93,0.01,-2.37,0.08,0.36,-0.36,0.19,-1.83,1008.83
7.837,-0.05,0.99,-0.04,-2.37,0.08,0.36,-0.36,0.19,-1.83,1008.83
7.838,-0.05,0.99,-0.04,-2.37,0.08,0.36,-0.01,0.01,-1.42,1008.83
7.857,-0.05,0.99,-0.04,-2.37,0.08,0.36,-0.01,0.01,-1.42,1008.84
7.886,0.19,1.07,0.00,-2.37,0.08,0.36,-0.01,0.01,-1.42,1008.84
7.887,0.18,1.05,0.05,-2.37,0.08,0.36,-0.01,0.01,-1.42,1008.84
7.887,-0.11,0.99,0.09,-2.37,0.08,0.36,-0.01,0.01,-1.42,1008.84
7.888,-0.11,0.99,0.09,-2.37,0.08,0.36,0.01,0.16,-1.05,1008.84
7.888,-0.11,0.99,0.09,0.54,0.43,0.37,0.01,0.16,-1.05,1008.84
7.932,-0.11,0.99,0.09,0.54,0.43,0.37,0.01,0.16,-1.05,1008.84
7.946,-0.11,0.99,0.09,-1.00,0.12,0.04,0.01,0.16,-1.05,1008.84
7.947,-0.24,0.98,0.04,-1.00,0.12,0.04,0.01,0.16,-1.05,1008.84
7.947,-0.15,1.01,0.01,-1.00,0.12,0.04,0.01,0.16,-1.05,1008.84
7.948,0.04,1.04,-0.01,-1.00,0.12,0.04,0.01,0.16,-1.05,1008.84
7.948,0.04,1.04,-0.01,-1.00,0.12,0.04,0.04,0.16,-0.78,1008.84
8.005,0.00,1.04,0.04,-1.00,0.12,0.04,0.04,0.16,-0.78,1008.84
8.006,-0.13,1.03,0.08,-1.00,0.12,0.04,0.04,0.16,-0.78,1008.84
8.006,-0.09,1.03,0.07,-1.00,0.12,0.04,0.04,0.16,-0.78,1008.84
8.007,-0.09,1.03,0.07,-0.18,0.33,0.54,0.04,0.16,-0.78,1008.84
8.007,-0.09,1.03,0.07,-0.18,0.33,0.54,0.02,0.36,-0.64,1008.84
8.015,-0.09,1.03,0.07,-0.18,0.33,0.54,0.02,0.36,-0.64,1008.86
8.054,-0.09,1.03,0.07,-0.18,0.33,0.54,0.02,0.36,-0.64,1008.86
8.061,0.03,1.03,0.03,-0.18,0.33,0.54,0.02,0.36,-0.64,1008.86
8.062,0.11,1.02,-0.01,-0.18,0.33,0.54,0.02,0.36,-0.64,1008.86
8.062,0.07,0.98,0.04,-0.18,0.33,0.54,0.02,0.36,-0.64,1008.86
8.063,0.07,0.98,0.04,1.57,0.16,0.18,0.02,0.36,-0.64,1008.86
8.063,0.07,0.98,0.04,1.57,0.16,0.18,0.08,0.32,-0.69,1008.86
8.121,-0.01,0.95,0.08,1.57,0.16,0.18,0.08,0.32,-0.69,1008.86
8.123,-0.08,0.98,0.09,1.57,0.16,0.18,0.08,0.32,-0.69,1008.86
8.123,-0.06,1.01,0.03,1.57,0.16,0.18,0.08,0.32,-0.69,1008.86
8.124,-0.06,1.01,0.03,1.05,-0.06,0.71,0.08,0.32,-0.69,1008.86
8.124,-0.06,1.01,0.03,1.05,-0.06,0.71,0.11,0.34,-1.18,1008.86
8.137,-0.06,1.01,0.03,1.05,-0.06,0.71,0.11,0.34,-1.18,1008.85
8.178,-0.06,1.01,-0.03,1.05,-0.06,0.71,0.11,0.34,-1.18,1008.85
8.179,-0.14,0.99,-0.05,1.05,-0.06,0.71,0.11,0.34,-1.18,1008.85
8.18,-0.18,1.01,-0.03,1.05,-0.06,0.71,0.11,0.34,-1.18,1008.85
8.18,-0.18,1.01,-0.03,1.05,-0.06,0.71,0.11,0.17,-1.47,1008.85
8.181,-0.18,1.01,-0.03,1.10,0.35,-0.24,0.11,0.17,-1.47,1008.85
8.219,-0.18,1.01,-0.03,1.10,0.35,-0.24,0.11,0.17,-1.47,1008.86
8.237,-0.13,1.05,0.01,1.10,0.35,-0.24,0.11,0.17,-1.47,1008.86
8.238,-0.18,1.10,0.03,1.10,0.35,-0.24,0.11,0.17,-1.47,1008.86
8.239,-0.20,1.10,0.05,1.10,0.35,-0.24,0.11,0.17,-1.47,1008.86
8.239,-0.20,1.10,0.05,1.10,0.35,-0.24,0.11,0.02,-1.71,1008.86
8.24,-0.20,1.10,0.05,1.58,1.38,0.49,0.11,0.02,-1.71,1008.86
8.253,-0.20,1.10,0.05,1.58,1.38,0.49,0.11,0.02,-1.71,1008.87
8.295,-0.22,1.10,0.02,1.58,1.38,0.49,0.11,0.02,-1.71,1008.87
8.298,-0.24,1.10,-0.04,1.58,1.38,0.49,0.11,0.02,-1.71,1008.87
8.3,-0.16,1.16,-0.07,1.58,1.38,0.49,0.11,0.02,-1.71,1008.87
8.301,-0.16,1.16,-0.07,2.18,2.13,0.05,0.11,0.02,-1.71,1008.87
8.303,-0.16,1.16,-0.07,2.18,2.13,0.05,0.14,0.37,-1.87,1008.87
8.336,-0.16,1.16,-0.07,2.18,2.13,0.05,0.14,0.37,-1.87,1008.88
8.353,0.01,1.40,0.04,2.18,2.13,0.05,0.14,0.37,-1.87,1008.88
8.354,0.41,1.64,0.12,2.18,2.13,0.05,0.14,0.37,-1.87,1008.88
8.355,0.82,1.66,-0.16,2.18,2.13,0.05,0.14,0.37,-1.87,1008.88
8.355,0.82,1.66,-0.16,2.18,2.13,0.05,0.35,0.51,-2.00,1008.88
8.355,0.82,1.66,-0.16,9.09,6.94,0.66,0.35,0.51,-2.00,1008.88
8.411,1.19,1.54,-0.36,9.09,6.94,0.66,0.35,0.51,-2.00,1008.88
8.412,0.74,1.19,-0.23,9.09,6.94,0.66,0.35,0.51,-2.00,1008.88
8.412,-0.68,1.22,-0.16,9.09,6.94,0.66,0.35,0.51,-2.00,1008.88
8.413,-0.68,1.22,-0.16,9.09,6.94,0.66,0.25,2.83,-3.61,1008.88
8.413,-0.68,1.22,-0.16,10.37,5.64,-0.73,0.25,2.83,-3.61,1008.88
8.414,-0.68,1.22,-0.16,10.37,5.64,-0.73,0.25,2.83,-3.61,1008.88
8.452,-0.68,1.22,-0.16,10.37,5.64,-0.73,0.25,2.83,-3.61,1008.90
8.474,-0.68,1.22,-0.16,-6.21,4.34,-0.28,0.25,2.83,-3.61,1008.90
8.478,-1.47,1.39,-0.22,-6.21,4.34,-0.28,0.25,2.83,-3.61,1008.90
8.478,-1.44,1.09,-0.31,-6.21,4.34,-0.28,0.25,2.83,-3.61,1008.90
8.479,-1.27,0.63,-0.45,-6.21,4.34,-0.28,0.25,2.83,-3.61,1008.90
8.482,-1.27,0.63,-0.45,-6.21,4.34,-0.28,0.48,2.48,-3.62,1008.90
8.548,-1.17,0.58,-0.48,-6.21,4.34,-0.28,0.48,2.48,-3.62,1008.90
8.549,-0.69,0.33,-0.31,-6.21,4.34,-0.28,0.48,2.48,-3.62,1008.90
8.549,-0.17,0.02,-0.06,-6.21,4.34,-0.28,0.48,2.48,-3.62,1008.90
8.55,-0.17,0.02,-0.06,0.85,-3.14,-0.90,0.48,2.48,-3.62,1008.90
8.55,-0.17,0.02,-0.06,0.85,-3.14,-0.90,-1.72,-1.07,0.32,1008.90
8.551,-0.17,0.02,-0.06,0.85,-3.14,-0.90,-1.72,-1.07,0.32,1008.89
8.588,0.19,-0.09,-0.20,0.85,-3.14,-0.90,-1.72,-1.07,0.32,1008.89
8.589,0.15,0.08,-0.41,0.85,-3.14,-0.90,-1.72,-1.07,0.32,1008.89
8.589,-0.20,0.33,-0.38,0.85,-3.14,-0.90,-1.72,-1.07,0.32,1008.89
8.59,-0.20,0.33,-0.38,0.85,-3.14,-0.90,-1.13,-0.12,2.67,1008.89
8.591,-0.20,0.33,-0.38,6.78,-6.23,-1.84,-1.13,-0.12,2.67,1008.89
8.613,-0.20,0.33,-0.38,6.78,-6.23,-1.84,-1.13,-0.12,2.67,1008.87
8.649,-0.49,0.39,-0.30,6.78,-6.23,-1.84,-1.13,-0.12,2.67,1008.87
8.65,-0.49,0.36,-0.30,6.78,-6.23,-1.84,-1.13,-0.12,2.67,1008.87
8.65,-0.44,0.44,-0.34,6.78,-6.23,-1.84,-1.13,-0.12,2.67,1008.87
8.65,-0.44,0.44,-0.34,6.78,-6.23,-1.84,-1.12,1.12,3.67,1008.87
8.651,-0.44,0.44,-0.34,-0.12,-4.55,-1.76,-1.12,1.12,3.67,1008.87
8.653,-0.44,0.44,-0.34,-0.12,-4.55,-1.76,-1.12,1.12,3.67,1008.93
8.704,-0.44,0.61,-0.29,-0.12,-4.55,-1.76,-1.12,1.12,3.67,1008.93
8.705,-0.41,0.73,-0.19,-0.12,-4.55,-1.76,-1.12,1.12,3.67,1008.93
8.706,-0.38,0.85,-0.27,-0.12,-4.55,-1.76,-1.12,1.12,3.67,1008.93
8.706,-0.38,0.85,-0.27,-0.12,-4.55,-1.76,-1.17,1.20,4.99,1008.93
8.707,-0.38,0.85,-0.27,-2.15,-2.23,-1.51,-1.17,1.20,4.99,1008.93
8.739,-0.38,0.85,-0.27,-2.15,-2.23,-1.51,-1.17,1.20,4.99,1008.90
8.763,-0.36,1.09,-0.39,-2.15,-2.23,-1.51,-1.17,1.20,4.99,1008.90
8.764,-0.24,1.37,-0.35,-2.15,-2.23,-1.51,-1.17,1.20,4.99,1008.90
8.765,-0.24,1.54,-0.35,-2.15,-2.23,-1.51,-1.17,1.20,4.99,1008.90
8.765,-0.24,1.54,-0.35,-2.15,-2.23,-1.51,-1.13,1.55,5.49,1008.90
8.766,-0.24,1.54,-0.35,-3.93,3.46,-3.22,-1.13,1.55,5.49,1008.90
8.814,-0.24,1.54,-0.35,-3.93,3.46,-3.22,-1.13,1.55,5.49,1008.85
8.821,-0.30,1.58,-0.30,-3.93,3.46,-3.22,-1.13,1.55,5.49,1008.85
8.821,-0.22,1.55,-0.25,-3.93,3.46,-3.22,-1.13,1.55,5.49,1008.85
8.822,-0.22,1.38,-0.23,-3.93,3.46,-3.22,-1.13,1.55,5.49,1008.85
8.822,-0.22,1.38,-0.23,-3.93,3.46,-3.22,-1.13,2.07,4.47,1008.85
8.823,-0.22,1.38,-0.23,-5.92,5.64,-3.04,-1.13,2.07,4.47,1008.85
8.857,-0.22,1.38,-0.23,-5.92,5.64,-3.04,-1.13,2.07,4.47,1008.81
8.878,-0.22,1.38,-0.23,-9.46,0.43,-2.37,-1.13,2.07,4.47,1008.81
8.879,-0.38,1.09,-0.26,-9.46,0.43,-2.37,-1.13,2.07,4.47,1008.81
8.882,-0.63,0.91,-0.15,-9.46,0.43,-2.37,-1.13,2.07,4.47,1008.81
8.883,-0.65,0.81,-0.06,-9.46,0.43,-2.37,-1.13,2.07,4.47,1008.81
8.883,-0.65,0.81,-0.06,-9.46,0.43,-2.37,-0.37,0.91,1.36,1008.81
8.939,-0.65,0.81,-0.06,-9.46,0.43,-2.37,-0.37,0.91,1.36,1008.83
8.94,-0.65,0.81,-0.06,-1.97,3.12,0.00,-0.37,0.91,1.36,1008.83
8.941,-0.44,0.90,-0.06,-1.97,3.12,0.00,-0.37,0.91,1.36,1008.83
8.941,-0.32,1.33,-0.27,-1.97,3.12,0.00,-0.37,0.91,1.36,1008.83
8.941,1.19,1.50,0.53,-1.97,3.12,0.00,-0.37,0.91,1.36,1008.83
8.942,1.19,1.50,0.53,-1.97,3.12,0.00,0.06,-0.84,-1.20,1008.83
8.994,2.04,1.12,0.55,-1.97,3.12,0.00,0.06,-0.84,-1.20,1008.83
8.995,-0.10,1.18,-0.14,-1.97,3.12,0.00,0.06,-0.84,-1.20,1008.83
8.995,-0.89,1.27,-0.89,-1.97,3.12,0.00,0.06,-0.84,-1.20,1008.83
8.996,-0.89,1.27,-0.89,-1.97,3.12,0.00,0.10,-0.34,-1.86,1008.83
8.996,-0.89,1.27,-0.89,0.99,2.26,-2.05,0.10,-0.34,-1.86,1008.83
9.016,-0.89,1.27,-0.89,0.99,2.26,-2.05,0.10,-0.34,-1.86,1008.86
9.055,-0.17,0.98,-0.09,0.99,2.26,-2.05,0.10,-0.34,-1.86,1008.86
9.055,0.23,0.87,0.38,0.99,2.26,-2.05,0.10,-0.34,-1.86,1008.86
9.056,0.18,0.95,0.16,0.99,2.26,-2.05,0.10,-0.34,-1.86,1008.86
9.056,0.18,0.95,0.16,0.99,2.26,-2.05,-0.13,-0.22,-1.51,1008.86
9.056,0.18,0.95,0.16,0.99,2.26,-2.05,-0.13,-0.22,-1.51,1008.89
9.057,0.18,0.95,0.16,-0.80,-0.44,0.92,-0.13,-0.22,-1.51,1008.89
9.111,-0.23,1.10,0.18,-0.80,-0.44,0.92,-0.13,-0.22,-1.51,1008.89
9.112,-0.15,1.01,0.09,-0.80,-0.44,0.92,-0.13,-0.22,-1.51,1008.89
9.112,0.16,0.95,0.02,-0.80,-0.44,0.92,-0.13,-0.22,-1.51,1008.89
9.113,0.16,0.95,0.02,-0.80,-0.44,0.92,0.04,-0.15,-1.12,1008.89
9.113,0.16,0.95,0.02,-1.63,0.34,0.41,0.04,-0.15,-1.12,1008.89
9.133,0.16,0.95,0.02,-1.63,0.34,0.41,0.04,-0.15,-1.12,1008.85
9.169,0.21,1.05,0.01,-1.63,0.34,0.41,0.04,-0.15,-1.12,1008.85
9.17,0.01,1.07,0.07,-1.63,0.34,0.41,0.04,-0.15,-1.12,1008.85
9.171,-0.12,1.02,0.10,-1.63,0.34,0.41,0.04,-0.15,-1.12,1008.85
9.172,-0.12,1.02,0.10,-1.63,0.34,0.41,0.05,0.23,-0.95,1008.85
9.172,-0.12,1.02,0.10,-0.05,0.54,0.07,0.05,0.23,-0.95,1008.85
9.214,-0.12,1.02,0.10,-0.05,0.54,0.07,0.05,0.23,-0.95,1008.87
9.229,-0.04,1.00,0.12,-0.05,0.54,0.07,0.05,0.23,-0.95,1008.87
9.23,0.11,1.01,0.10,-0.05,0.54,0.07,0.05,0.23,-0.95,1008.87
9.23,0.16,1.01,0.08,-0.05,0.54,0.07,0.05,0.23,-0.95,1008.87
9.23,0.16,1.01,0.08,-0.05,0.54,0.07,0.14,-0.01,-0.76,1008.87
9.231,0.16,1.01,0.08,0.76,0.13,0.52,0.14,-0.01,-0.76,1008.87
9.252,0.16,1.01,0.08,0.76,0.13,0.52,0.14,-0.01,-0.76,1008.85
9.287,0.10,1.01,0.07,0.76,0.13,0.52,0.14,-0.01,-0.76,1008.85
9.287,-0.02,1.00,0.06,0.76,0.13,0.52,0.14,-0.01,-0.76,1008.85
9.288,-0.14,0.99,0.05,0.76,0.13,0.52,0.14,-0.01,-0.76,1008.85
9.288,-0.14,0.99,0.05,0.76,0.13,0.52,0.21,0.38,-1.05,1008.85
9.289,-0.14,0.99,0.05,0.43,0.09,0.30,0.21,0.38,-1.05,1008.85
9.338,-0.14,0.99,0.05,0.43,0.09,0.30,0.21,0.38,-1.05,1008.85
9.357,-0.12,1.00,0.04,0.43,0.09,0.30,0.21,0.38,-1.05,1008.85
9.358,-0.11,1.00,0.02,0.43,0.09,0.30,0.21,0.38,-1.05,1008.85
9.359,-0.14,1.00,0.00,0.43,0.09,0.30,0.21,0.38,-1.05,1008.85
9.36,-0.14,1.00,0.00,0.43,0.09,0.30,0.19,0.37,-0.98,1008.85
9.36,-0.14,1.00,0.00,-0.02,0.14,-0.01,0.19,0.37,-0.98,1008.85
9.404,-0.16,0.99,-0.03,-0.02,0.14,-0.01,0.19,0.37,-0.98,1008.85
9.405,-0.14,0.98,-0.00,-0.02,0.14,-0.01,0.19,0.37,-0.98,1008.85
9.405,-0.18,0.95,0.02,-0.02,0.14,-0.01,0.19,0.37,-0.98,1008.85
9.405,-0.18,0.95,0.02,0.14,-0.05,-0.13,0.19,0.37,-0.98,1008.85
9.406,-0.18,0.95,0.02,0.14,-0.05,-0.13,0.11,0.35,-0.95,1008.85
9.413,-0.18,0.95,0.02,0.14,-0.05,-0.13,0.11,0.35,-0.95,1008.86
9.453,-0.18,0.95,0.02,0.14,-0.05,-0.13,0.11,0.35,-0.95,1008.86
9.478,-0.23,0.95,0.05,0.14,-0.05,-0.13,0.11,0.35,-0.95,1008.86
9.48,-0.22,0.99,0.04,0.14,-0.05,-0.13,0.11,0.35,-0.95,1008.86
9.48,-0.17,1.02,-0.01,0.14,-0.05,-0.13,0.11,0.35,-0.95,1008.86
9.481,-0.17,1.02,-0.01,0.14,-0.05,-0.13,0.05,0.27,-0.97,1008.86
9.482,-0.17,1.02,-0.01,0.22,0.18,0.20,0.05,0.27,-0.97,1008.86
9.52,-0.18,1.02,-0.04,0.22,0.18,0.20,0.05,0.27,-0.97,1008.86
9.522,-0.26,0.99,-0.01,0.22,0.18,0.20,0.05,0.27,-0.97,1008.86
9.523,-0.33,0.97,-0.00,0.22,0.18,0.20,0.05,0.27,-0.97,1008.86
9.524,-0.33,0.97,-0.00,0.22,0.18,0.20,0.02,0.19,-1.07,1008.86
9.526,-0.33,0.97,-0.00,0.34,0.39,-0.19,0.02,0.19,-1.07,1008.86
9.533,-0.33,0.97,-0.00,0.34,0.39,-0.19,0.02,0.19,-1.07,1008.87
9.577,-0.31,1.01,0.00,0.34,0.39,-0.19,0.02,0.19,-1.07,1008.87
9.579,-0.24,1.06,0.01,0.34,0.39,-0.19,0.02,0.19,-1.07,1008.87
9.579,-0.21,1.06,0.00,0.34,0.39,-0.19,0.02,0.19,-1.07,1008.87
9.58,-0.21,1.06,0.00,0.34,0.39,-0.19,0.00,0.23,-1.05,1008.87
9.581,-0.21,1.06,0.00,0.92,1.04,0.06,0.00,0.23,-1.05,1008.87
9.614,-0.21,1.06,0.00,0.92,1.04,0.06,0.00,0.23,-1.05,1008.87
9.64,-0.22,1.06,-0.01,0.92,1.04,0.06,0.00,0.23,-1.05,1008.87
9.642,-0.24,1.04,-0.03,0.92,1.04,0.06,0.00,0.23,-1.05,1008.87
9.642,-0.23,1.09,-0.06,0.92,1.04,0.06,0.00,0.23,-1.05,1008.87
9.643,-0.23,1.09,-0.06,0.92,1.04,0.06,0.04,0.61,-1.26,1008.87
9.644,-0.23,1.09,-0.06,1.76,1.51,-0.13,0.04,0.61,-1.26,1008.87
9.652,-0.23,1.09,-0.06,1.76,1.51,-0.13,0.04,0.61,-1.26,1008.87
9.695,-0.14,1.26,-0.09,1.76,1.51,-0.13,0.04,0.61,-1.26,1008.87
9.697,0.07,1.44,-0.17,1.76,1.51,-0.13,0.04,0.61,-1.26,1008.87
9.697,0.42,1.56,-0.26,1.76,1.51,-0.13,0.04,0.61,-1.26,1008.87
9.698,0.42,1.56,-0.26,5.77,5.27,-1.03,0.04,0.61,-1.26,1008.87
9.699,0.42,1.56,-0.26,5.77,5.27,-1.03,0.24,1.16,-1.48,1008.87
9.736,0.42,1.56,-0.26,5.77,5.27,-1.03,0.24,1.16,-1.48,1008.87
9.765,0.71,1.40,-0.38,5.77,5.27,-1.03,0.24,1.16,-1.48,1008.87
9.766,0.39,1.17,-0.35,5.77,5.27,-1.03,0.24,1.16,-1.48,1008.87
9.767,-0.22,0.88,-0.20,5.77,5.27,-1.03,0.24,1.16,-1.48,1008.87
9.767,-0.22,0.88,-0.20,8.44,3.34,-1.62,0.24,1.16,-1.48,1008.87
9.768,-0.22,0.88,-0.20,8.44,3.34,-1.62,0.15,2.30,-2.48,1008.87
9.812,-0.85,0.81,-0.22,8.44,3.34,-1.62,0.15,2.30,-2.48,1008.87
9.813,-1.30,1.04,-0.37,8.44,3.34,-1.62,0.15,2.30,-2.48,1008.87
9.813,-1.13,1.01,-0.39,8.44,3.34,-1.62,0.15,2.30,-2.48,1008.87
9.813,-1.13,1.01,-0.39,8.44,3.34,-1.62,0.89,2.09,-3.10,1008.87
9.814,-1.13,1.01,-0.39,-4.00,2.60,-0.63,0.89,2.09,-3.10,1008.87
9.815,-1.13,1.01,-0.39,-4.00,2.60,-0.63,0.89,2.09,-3.10,1008.89
9.852,-1.13,1.01,-0.39,-4.00,2.60,-0.63,0.89,2.09,-3.10,1008.88
9.873,-0.77,0.80,-0.11,-4.00,2.60,-0.63,0.89,2.09,-3.10,1008.88
9.874,-0.72,0.61,0.13,-4.00,2.60,-0.63,0.89,2.09,-3.10,1008.88
9.874,-0.69,0.51,0.11,-4.00,2.60,-0.63,0.89,2.09,-3.10,1008.88
9.875,-0.69,0.51,0.11,-4.00,2.60,-0.63,0.02,-0.54,-0.60,1008.88
9.875,-0.69,0.51,0.11,-0.09,-0.21,2.73,0.02,-0.54,-0.60,1008.88
9.929,-0.49,0.35,0.03,-0.09,-0.21,2.73,0.02,-0.54,-0.60,1008.88
9.932,-0.08,0.20,0.28,-0.09,-0.21,2.73,0.02,-0.54,-0.60,1008.88
9.933,0.04,0.16,0.20,-0.09,-0.21,2.73,0.02,-0.54,-0.60,1008.88
9.934,0.04,0.16,0.20,-0.09,-0.21,2.73,0.10,-1.35,1.87,1008.88
9.935,0.04,0.16,0.20,4.66,-4.81,3.42,0.10,-1.35,1.87,1008.88
9.936,0.04,0.16,0.20,4.66,-4.81,3.42,0.10,-1.35,1.87,1008.86
9.986,-0.00,0.33,-0.03,4.66,-4.81,3.42,0.10,-1.35,1.87,1008.86
9.987,-0.21,0.51,-0.15,4.66,-4.81,3.42,0.10,-1.35,1.87,1008.86
9.988,-0.46,0.68,-0.11,4.66,-4.81,3.42,0.10,-1.35,1.87,1008.86
9.988,-0.46,0.68,-0.11,4.66,-4.81,3.42,1.36,0.39,3.00,1008.86
9.989,-0.46,0.68,-0.11,2.74,-2.98,1.52,1.36,0.39,3.00,1008.86
10.013,-0.46,0.68,-0.11,2.74,-2.98,1.52,1.36,0.39,3.00,1008.89
10.046,-0.71,0.76,-0.06,2.74,-2.98,1.52,1.36,0.39,3.00,1008.89
10.048,-0.93,0.94,0.00,2.74,-2.98,1.52,1.36,0.39,3.00,1008.89
10.049,-1.02,1.06,0.05,2.74,-2.98,1.52,1.36,0.39,3.00,1008.89
10.05,-1.02,1.06,0.05,2.74,-2.98,1.52,1.06,-0.63,4.20,1008.89
10.052,-1.02,1.06,0.05,-5.59,0.27,2.75,1.06,-0.63,4.20,1008.89
10.055,-1.02,1.06,0.05,-5.59,0.27,2.75,1.06,-0.63,4.20,1008.91
10.102,-0.86,1.00,-0.09,-5.59,0.27,2.75,1.06,-0.63,4.20,1008.91
10.103,-0.67,1.03,-0.23,-5.59,0.27,2.75,1.06,-0.63,4.20,1008.91
10.103,-0.58,1.14,-0.29,-5.59,0.27,2.75,1.06,-0.63,4.20,1008.91
10.104,-0.58,1.14,-0.29,-5.59,0.27,2.75,0.86,-4.64,5.45,1008.91
10.104,-0.58,1.14,-0.29,-5.83,1.09,0.68,0.86,-4.64,5.45,1008.91
10.143,-0.58,1.14,-0.29,-5.83,1.09,0.68,0.86,-4.64,5.45,1008.86
10.163,-0.41,1.16,-0.22,-5.83,1.09,0.68,0.86,-4.64,5.45,1008.86
10.163,-0.20,1.12,-0.13,-5.83,1.09,0.68,0.86,-4.64,5.45,1008.86
10.164,-0.18,1.20,-0.12,-5.83,1.09,0.68,0.86,-4.64,5.45,1008.86
10.164,-0.18,1.20,-0.12,-5.83,1.09,0.68,0.93,-6.88,4.84,1008.86
10.164,-0.18,1.20,-0.12,-2.93,2.19,1.53,0.93,-6.88,4.84,1008.86
10.212,-0.18,1.20,-0.12,-2.93,2.19,1.53,0.93,-6.88,4.84,1008.80
10.218,-0.35,1.30,0.02,-2.93,2.19,1.53,0.93,-6.88,4.84,1008.80
10.219,-0.42,1.29,0.20,-2.93,2.19,1.53,0.93,-6.88,4.84,1008.80
10.219,-0.21,1.14,0.25,-2.93,2.19,1.53,0.93,-6.88,4.84,1008.80
10.219,-0.21,1.14,0.25,-2.93,2.19,1.53,0.23,-7.06,2.97,1008.80
10.219,-0.21,1.14,0.25,-3.71,3.09,4.90,0.23,-7.06,2.97,1008.80
10.252,-0.21,1.14,0.25,-3.71,3.09,4.90,0.23,-7.06,2.97,1008.79
10.278,0.11,0.97,0.22,-3.71,3.09,4.90,0.23,-7.06,2.97,1008.79
10.279,0.19,0.88,0.21,-3.71,3.09,4.90,0.23,-7.06,2.97,1008.79
10.279,-0.02,0.84,0.24,-3.71,3.09,4.90,0.23,-7.06,2.97,1008.79
10.279,-0.02,0.84,0.24,-3.71,3.09,4.90,-0.34,-3.96,1.16,1008.79
10.28,-0.02,0.84,0.24,0.57,-0.38,5.37,-0.34,-3.96,1.16,1008.79
10.333,-0.02,0.84,0.24,0.57,-0.38,5.37,-0.34,-3.96,1.16,1008.84
10.336,-0.24,0.82,0.24,0.57,-0.38,5.37,-0.34,-3.96,1.16,1008.84
10.336,-0.86,0.91,-0.23,0.57,-0.38,5.37,-0.34,-3.96,1.16,1008.84
10.337,-1.13,1.46,-1.08,0.57,-0.38,5.37,-0.34,-3.96,1.16,1008.84
10.337,-1.13,1.46,-1.08,0.57,-0.38,5.37,-0.49,0.11,-0.63,1008.84
10.337,-1.13,1.46,-1.08,-7.18,1.15,-0.54,-0.49,0.11,-0.63,1008.84
10.396,0.04,1.01,-0.41,-7.18,1.15,-0.54,-0.49,0.11,-0.63,1008.84
10.398,0.36,0.98,-0.52,-7.18,1.15,-0.54,-0.49,0.11,-0.63,1008.84
10.398,0.18,1.13,-0.55,-7.18,1.15,-0.54,-0.49,0.11,-0.63,1008.84
10.398,0.18,1.13,-0.55,-7.18,1.15,-0.54,-0.72,-1.04,0.33,1008.84
10.4,0.18,1.13,-0.55,1.93,0.81,-2.24,-0.72,-1.04,0.33,1008.84
10.414,0.18,1.13,-0.55,1.93,0.81,-2.24,-0.72,-1.04,0.33,1008.88
10.454,-0.10,1.12,-0.20,1.93,0.81,-2.24,-0.72,-1.04,0.33,1008.88
10.455,0.14,1.02,-0.09,1.93,0.81,-2.24,-0.72,-1.04,0.33,1008.88
10.456,0.45,0.95,0.04,1.93,0.81,-2.24,-0.72,-1.04,0.33,1008.88
10.457,0.45,0.95,0.04,1.93,0.81,-2.24,-0.73,-1.18,0.05,1008.88
10.457,0.45,0.95,0.04,1.93,0.81,-2.24,-0.73,-1.18,0.05,1008.82
10.458,0.45,0.95,0.04,1.75,0.58,1.37,-0.73,-1.18,0.05,1008.82
10.511,0.22,1.01,0.06,1.75,0.58,1.37,-0.73,-1.18,0.05,1008.82
10.512,-0.16,1.04,-0.06,1.75,0.58,1.37,-0.73,-1.18,0.05,1008.82
10.513,-0.40,1.01,-0.22,1.75,0.58,1.37,-0.73,-1.18,0.05,1008.82
10.514,-0.40,1.01,-0.22,1.75,0.58,1.37,-0.36,0.11,-0.42,1008.82
10.514,-0.40,1.01,-0.22,-0.71,0.43,1.22,-0.36,0.11,-0.42,1008.82
10.533,-0.40,1.01,-0.22,-0.71,0.43,1.22,-0.36,0.11,-0.42,1008.89
10.574,-0.39,0.99,-0.24,-0.71,0.43,1.22,-0.36,0.11,-0.42,1008.89
10.576,-0.19,1.00,-0.27,-0.71,0.43,1.22,-0.36,0.11,-0.42,1008.89
10.577,0.02,1.00,-0.21,-0.71,0.43,1.22,-0.36,0.11,-0.42,1008.89
10.578,0.02,1.00,-0.21,-0.71,0.43,1.22,-0.30,-0.58,0.22,1008.89
10.579,0.02,1.00,-0.21,-1.49,0.22,-0.54,-0.30,-0.58,0.22,1008.89
10.614,0.02,1.00,-0.21,-1.49,0.22,-0.54,-0.30,-0.58,0.22,1008.91
10.629,0.06,0.98,-0.13,-1.49,0.22,-0.54,-0.30,-0.58,0.22,1008.91
10.629,0.02,0.97,-0.13,-1.49,0.22,-0.54,-0.30,-0.58,0.22,1008.91
10.63,-0.02,0.97,-0.12,-1.49,0.22,-0.54,-0.30,-0.58,0.22,1008.91
10.63,-0.02,0.97,-0.12,0.46,-0.11,0.38,-0.30,-0.58,0.22,1008.91
10.63,-0.02,0.97,-0.12,0.46,-0.11,0.38,-0.28,-0.47,0.25,1008.91
10.654,-0.02,0.97,-0.12,0.46,-0.11,0.38,-0.28,-0.47,0.25,1008.89
10.686,-0.06,0.99,-0.13,0.46,-0.11,0.38,-0.28,-0.47,0.25,1008.89
10.687,-0.07,0.99,-0.11,0.46,-0.11,0.38,-0.28,-0.47,0.25,1008.89
10.688,-0.04,0.99,-0.13,0.46,-0.11,0.38,-0.28,-0.47,0.25,1008.89
10.688,-0.04,0.99,-0.13,0.46,-0.11,0.38,-0.20,-0.32,0.16,1008.89
10.689,-0.04,0.99,-0.13,-0.38,0.05,0.29,-0.20,-0.32,0.16,1008.89
10.734,-0.04,0.99,-0.13,-0.38,0.05,0.29,-0.20,-0.32,0.16,1008.89
10.744,0.03,0.99,-0.11,-0.38,0.05,0.29,-0.20,-0.32,0.16,1008.89
10.745,0.09,0.98,-0.09,-0.38,0.05,0.29,-0.20,-0.32,0.16,1008.89
10.745,0.09,0.98,-0.11,-0.38,0.05,0.29,-0.20,-0.32,0.16,1008.89
10.746,0.09,0.98,-0.11,-0.38,0.05,0.29,-0.15,-0.60,0.18,1008.89
10.746,0.09,0.98,-0.11,0.83,-0.00,0.37,-0.15,-0.60,0.18,1008.89
10.803,0.07,0.99,-0.06,0.83,-0.00,0.37,-0.15,-0.60,0.18,1008.89
10.805,0.02,0.99,-0.09,0.83,-0.00,0.37,-0.15,-0.60,0.18,1008.89
10.805,-0.00,0.99,-0.12,0.83,-0.00,0.37,-0.15,-0.60,0.18,1008.89
10.806,-0.00,0.99,-0.12,0.83,-0.00,0.37,0.02,-0.35,-0.10,1008.89
10.806,-0.00,0.99,-0.12,0.48,0.04,0.51,0.02,-0.35,-0.10,1008.89
10.814,-0.00,0.99,-0.12,0.48,0.04,0.51,0.02,-0.35,-0.10,1008.87
10.853,-0.00,0.99,-0.12,0.48,0.04,0.51,0.02,-0.35,-0.10,1008.87
10.865,0.02,0.99,-0.11,0.48,0.04,0.51,0.02,-0.35,-0.10,1008.87
10.866,0.10,0.99,-0.08,0.48,0.04,0.51,0.02,-0.35,-0.10,1008.87
10.866,0.18,0.96,0.03,0.48,0.04,0.51,0.02,-0.35,-0.10,1008.87
10.866,0.18,0.96,0.03,1.30,-0.02,0.92,0.02,-0.35,-0.10,1008.87
10.867,0.18,0.96,0.03,1.30,-0.02,0.92,0.17,-0.29,-0.23,1008.87
10.92,0.06,0.97,-0.10,1.30,-0.02,0.92,0.17,-0.29,-0.23,1008.87
10.924,-0.13,1.01,-0.14,1.30,-0.02,0.92,0.17,-0.29,-0.23,1008.87
10.925,-0.15,0.99,-0.15,1.30,-0.02,0.92,0.17,-0.29,-0.23,1008.87
10.926,-0.15,0.99,-0.15,1.30,-0.02,0.92,0.47,-0.04,-0.56,1008.87
10.927,-0.15,0.99,-0.15,-0.08,0.12,0.43,0.47,-0.04,-0.56,1008.87
10.934,-0.15,0.99,-0.15,-0.08,0.12,0.43,0.47,-0.04,-0.56,1008.87
10.978,-0.03,0.99,-0.10,-0.08,0.12,0.43,0.47,-0.04,-0.56,1008.87
10.98,0.06,0.99,-0.05,-0.08,0.12,0.43,0.47,-0.04,-0.56,1008.87
10.982,-0.03,0.99,-0.08,-0.08,0.12,0.43,0.47,-0.04,-0.56,1008.87
10.983,-0.03,0.99,-0.08,-0.08,0.12,0.43,0.73,-0.03,-0.51,1008.87
10.984,-0.03,0.99,-0.08,0.90,0.20,1.33,0.73,-0.03,-0.51,1008.87
11.015,-0.03,0.99,-0.08,0.90,0.20,1.33,0.73,-0.03,-0.51,1008.89
11.036,-0.29,1.03,-0.23,0.90,0.20,1.33,0.73,-0.03,-0.51,1008.89
11.037,-0.35,1.04,-0.35,0.90,0.20,1.33,0.73,-0.03,-0.51,1008.89
11.038,-0.31,1.00,-0.41,0.90,0.20,1.33,0.73,-0.03,-0.51,1008.89
11.038,-0.31,1.00,-0.41,0.90,0.20,1.33,0.93,0.16,-0.48,1008.89
11.039,-0.31,1.00,-0.41,-1.92,0.71,-0.59,0.93,0.16,-0.48,1008.89
11.053,-0.31,1.00,-0.41,-1.92,0.71,-0.59,0.93,0.16,-0.48,1008.90
11.094,-0.17,1.00,-0.29,-1.92,0.71,-0.59,0.93,0.16,-0.48,1008.90
11.096,-0.00,1.01,-0.28,-1.92,0.71,-0.59,0.93,0.16,-0.48,1008.90
11.096,0.07,1.09,-0.43,-1.92,0.71,-0.59,0.93,0.16,-0.48,1008.90
11.097,0.07,1.09,-0.43,1.03,0.96,-0.08,0.93,0.16,-0.48,1008.90
11.097,0.07,1.09,-0.43,1.03,0.96,-0.08,1.08,-0.71,-0.18,1008.90
11.133,0.07,1.09,-0.43,1.03,0.96,-0.08,1.08,-0.71,-0.18,1008.90
11.153,0.21,1.25,-0.28,1.03,0.96,-0.08,1.08,-0.71,-0.18,1008.90
11.154,0.32,1.33,-0.14,1.03,0.96,-0.08,1.08,-0.71,-0.18,1008.90
11.154,0.33,1.26,-0.07,1.03,0.96,-0.08,1.08,-0.71,-0.18,1008.90
11.155,0.33,1.26,-0.07,1.03,0.96,-0.08,1.51,-1.25,-0.79,1008.90
11.156,0.33,1.26,-0.07,4.77,3.72,2.19,1.51,-1.25,-0.79,1008.90
11.211,0.22,1.26,-0.06,4.77,3.72,2.19,1.51,-1.25,-0.79,1008.90
11.213,0.16,1.33,-0.08,4.77,3.72,2.19,1.51,-1.25,-0.79,1008.90
11.213,0.17,1.32,0.01,4.77,3.72,2.19,1.51,-1.25,-0.79,1008.90
11.214,0.17,1.32,0.01,4.77,3.72,2.19,1.81,-0.59,-1.46,1008.90
11.214,0.17,1.32,0.01,4.58,4.53,4.10,1.81,-0.59,-1.46,1008.90
11.215,0.17,1.32,0.01,4.58,4.53,4.10,1.81,-0.59,-1.46,1008.86
11.257,0.17,1.32,0.01,4.58,4.53,4.10,1.81,-0.59,-1.46,1008.87
11.288,0.14,1.22,0.01,4.58,4.53,4.10,1.81,-0.59,-1.46,1008.87
11.29,-0.27,1.18,0.07,4.58,4.53,4.10,1.81,-0.59,-1.46,1008.87
11.29,-0.95,1.22,-0.01,4.58,4.53,4.10,1.81,-0.59,-1.46,1008.87
11.29,-0.95,1.22,-0.01,0.42,4.44,5.37,1.81,-0.59,-1.46,1008.87
11.291,-0.95,1.22,-0.01,0.42,4.44,5.37,1.83,-0.75,-2.11,1008.87
11.328,-1.16,1.06,-0.25,0.42,4.44,5.37,1.83,-0.75,-2.11,1008.87
11.33,-0.98,0.98,-0.55,0.42,4.44,5.37,1.83,-0.75,-2.11,1008.87
11.331,-0.61,0.91,-0.43,0.42,4.44,5.37,1.83,-0.75,-2.11,1008.87
11.332,-0.61,0.91,-0.43,0.42,4.44,5.37,1.56,-2.82,-0.87,1008.87
11.333,-0.61,0.91,-0.43,-3.79,2.88,0.99,1.56,-2.82,-0.87,1008.87
11.334,-0.61,0.91,-0.43,-3.79,2.88,0.99,1.56,-2.82,-0.87,1008.85
11.392,-0.18,0.63,0.02,-3.79,2.88,0.99,1.56,-2.82,-0.87,1008.85
11.393,-0.10,0.44,0.22,-3.79,2.88,0.99,1.56,-2.82,-0.87,1008.85
11.393,-0.24,0.46,0.10,-3.79,2.88,0.99,1.56,-2.82,-0.87,1008.85
11.394,-0.24,0.46,0.10,-3.79,2.88,0.99,0.39,-4.69,1.91,1008.85
11.395,-0.24,0.46,0.10,3.85,-2.26,4.64,0.39,-4.69,1.91,1008.85
11.413,-0.24,0.46,0.10,3.85,-2.26,4.64,0.39,-4.69,1.91,1008.86
11.446,-0.32,0.54,0.06,3.85,-2.26,4.64,0.39,-4.69,1.91,1008.86
11.447,-0.38,0.54,0.02,3.85,-2.26,4.64,0.39,-4.69,1.91,1008.86
11.448,-0.45,0.59,-0.07,3.85,-2.26,4.64,0.39,-4.69,1.91,1008.86
11.449,-0.45,0.59,-0.07,3.85,-2.26,4.64,0.61,-2.94,2.99,1008.86
11.451,-0.45,0.59,-0.07,1.00,-2.54,2.91,0.61,-2.94,2.99,1008.86
11.464,-0.45,0.59,-0.07,1.00,-2.54,2.91,0.61,-2.94,2.99,1008.86
11.504,-0.42,0.69,-0.04,1.00,-2.54,2.91,0.61,-2.94,2.99,1008.86
11.505,-0.41,0.77,-0.00,1.00,-2.54,2.91,0.61,-2.94,2.99,1008.86
11.505,-0.46,0.87,-0.02,1.00,-2.54,2.91,0.61,-2.94,2.99,1008.86
11.506,-0.46,0.87,-0.02,-1.17,-1.24,2.30,0.61,-2.94,2.99,1008.86
11.506,-0.46,0.87,-0.02,-1.17,-1.24,2.30,0.43,-2.27,4.23,1008.86
11.534,-0.46,0.87,-0.02,-1.17,-1.24,2.30,0.43,-2.27,4.23,1008.90
11.562,-0.52,0.95,-0.04,-1.17,-1.24,2.30,0.43,-2.27,4.23,1008.90
11.564,-0.50,0.97,-0.05,-1.17,-1.24,2.30,0.43,-2.27,4.23,1008.90
11.566,-0.37,1.00,-0.07,-1.17,-1.24,2.30,0.43,-2.27,4.23,1008.90
11.571,-0.37,1.00,-0.07,-1.17,-1.24,2.30,-0.03,-2.68,5.05,1008.90
11.573,-0.37,1.00,-0.07,-3.78,0.14,1.66,-0.03,-2.68,5.05,1008.90
11.614,-0.37,1.00,-0.07,-3.78,0.14,1.66,-0.03,-2.68,5.05,1008.87
11.62,-0.18,1.07,-0.07,-3.78,0.14,1.66,-0.03,-2.68,5.05,1008.87
11.62,-0.12,1.20,-0.09,-3.78,0.14,1.66,-0.03,-2.68,5.05,1008.87
11.621,-0.18,1.37,-0.13,-3.78,0.14,1.66,-0.03,-2.68,5.05,1008.87
11.621,-0.18,1.37,-0.13,-3.78,0.14,1.66,-0.32,-2.11,5.21,1008.87
11.622,-0.18,1.37,-0.13,-3.33,2.55,1.06,-0.32,-2.11,5.21,1008.87
11.654,-0.18,1.37,-0.13,-3.33,2.55,1.06,-0.32,-2.11,5.21,1008.84
11.678,-0.30,1.37,-0.09,-3.33,2.55,1.06,-0.32,-2.11,5.21,1008.84
11.679,-0.61,1.33,-0.00,-3.33,2.55,1.06,-0.32,-2.11,5.21,1008.84
11.68,-0.84,1.25,-0.07,-3.33,2.55,1.06,-0.32,-2.11,5.21,1008.84
11.68,-0.84,1.25,-0.07,-9.20,4.01,1.25,-0.32,-2.11,5.21,1008.84
11.681,-0.84,1.25,-0.07,-9.20,4.01,1.25,-0.62,-0.81,3.65,1008.84
11.734,-0.84,1.25,-0.07,-9.20,4.01,1.25,-0.62,-0.81,3.65,1008.83
11.737,-0.62,1.06,-0.05,-9.20,4.01,1.25,-0.62,-0.81,3.65,1008.83
11.737,-0.63,0.98,-0.05,-9.20,4.01,1.25,-0.62,-0.81,3.65,1008.83
11.738,-0.75,0.98,0.01,-9.20,4.01,1.25,-0.62,-0.81,3.65,1008.83
11.738,-0.75,0.98,0.01,-9.20,4.01,1.25,-0.74,-1.35,1.03,1008.83
11.738,-0.75,0.98,0.01,-10.22,1.08,1.39,-0.74,-1.35,1.03,1008.83
11.798,-0.71,1.04,-0.12,-10.22,1.08,1.39,-0.74,-1.35,1.03,1008.83
11.8,-0.26,1.26,-0.58,-10.22,1.08,1.39,-0.74,-1.35,1.03,1008.83
11.8,1.26,1.08,-0.26,-10.22,1.08,1.39,-0.74,-1.35,1.03,1008.83
11.8,1.26,1.08,-0.26,-2.10,1.97,-1.35,-0.74,-1.35,1.03,1008.83
11.801,1.26,1.08,-0.26,-2.10,1.97,-1.35,-0.63,-1.95,-0.80,1008.83
11.812,1.26,1.08,-0.26,-2.10,1.97,-1.35,-0.63,-1.95,-0.80,1008.83
11.865,2.03,0.96,-0.63,-2.10,1.97,-1.35,-0.63,-1.95,-0.80,1008.83
11.866,0.36,1.38,-0.68,-2.10,1.97,-1.35,-0.63,-1.95,-0.80,1008.83
11.867,-0.64,1.34,-0.54,-2.10,1.97,-1.35,-0.63,-1.95,-0.80,1008.83
11.867,-0.64,1.34,-0.54,-2.10,1.97,-1.35,-0.37,-0.42,-1.39,1008.83
11.868,-0.64,1.34,-0.54,3.41,2.71,-4.33,-0.37,-0.42,-1.39,1008.83
11.868,-0.64,1.34,-0.54,3.41,2.71,-4.33,-0.37,-0.42,-1.39,1008.84
11.912,-0.63,0.85,0.04,3.41,2.71,-4.33,-0.37,-0.42,-1.39,1008.84
11.914,-0.22,0.71,0.35,3.41,2.71,-4.33,-0.37,-0.42,-1.39,1008.84
11.915,0.31,0.88,0.31,3.41,2.71,-4.33,-0.37,-0.42,-1.39,1008.84
11.915,0.31,0.88,0.31,3.41,2.71,-4.33,-0.72,-0.81,-1.18,1008.84
11.915,0.31,0.88,0.31,-3.30,-1.54,3.64,-0.72,-0.81,-1.18,1008.84
11.934,0.31,0.88,0.31,-3.30,-1.54,3.64,-0.72,-0.81,-1.18,1008.82
11.969,0.52,1.08,-0.10,-3.30,-1.54,3.64,-0.72,-0.81,-1.18,1008.82
11.97,0.26,1.06,-0.14,-3.30,-1.54,3.64,-0.72,-0.81,-1.18,1008.82
11.97,-0.01,1.01,-0.06,-3.30,-1.54,3.64,-0.72,-0.81,-1.18,1008.82
11.97,-0.01,1.01,-0.06,-3.30,-1.54,3.64,-0.22,0.03,-1.12,1008.82
11.971,-0.01,1.01,-0.06,1.58,0.65,0.26,-0.22,0.03,-1.12,1008.82
12.013,-0.01,1.01,-0.06,1.58,0.65,0.26,-0.22,0.03,-1.12,1008.83
12.028,-0.06,1.03,-0.07,1.58,0.65,0.26,-0.22,0.03,-1.12,1008.83
12.03,0.08,0.99,0.04,1.58,0.65,0.26,-0.22,0.03,-1.12,1008.83
12.031,0.18,0.96,0.04,1.58,0.65,0.26,-0.22,0.03,-1.12,1008.83
12.033,0.18,0.96,0.04,0.38,0.09,1.20,-0.22,0.03,-1.12,1008.83
12.034,0.18,0.96,0.04,0.38,0.09,1.20,-0.12,-0.44,-1.15,1008.83
12.056,0.18,0.96,0.04,0.38,0.09,1.20,-0.12,-0.44,-1.15,1008.84
12.089,0.18,0.96,0.04,-0.85,0.18,-0.06,-0.12,-0.44,-1.15,1008.84
12.09,0.03,1.00,-0.05,-0.85,0.18,-0.06,-0.12,-0.44,-1.15,1008.84
12.09,-0.17,1.01,-0.14,-0.85,0.18,-0.06,-0.12,-0.44,-1.15,1008.84
12.091,-0.26,1.01,-0.19,-0.85,0.18,-0.06,-0.12,-0.44,-1.15,1008.84
12.091,-0.26,1.01,-0.19,-0.85,0.18,-0.06,0.06,-0.21,-1.24,1008.84
12.134,-0.26,1.01,-0.19,-0.85,0.18,-0.06,0.06,-0.21,-1.24,1008.84
12.145,-0.21,1.02,-0.19,-0.85,0.18,-0.06,0.06,-0.21,-1.24,1008.84
12.146,-0.13,1.04,-0.19,-0.85,0.18,-0.06,0.06,-0.21,-1.24,1008.84
12.147,-0.08,1.03,-0.11,-0.85,0.18,-0.06,0.06,-0.21,-1.24,1008.84
12.148,-0.08,1.03,-0.11,-0.85,0.18,-0.06,0.00,-0.10,-0.85,1008.84
12.149,-0.08,1.03,-0.11,-0.44,0.50,-0.43,0.00,-0.10,-0.85,1008.84
12.204,-0.07,0.97,-0.06,-0.44,0.50,-0.43,0.00,-0.10,-0.85,1008.84
12.205,-0.07,0.95,-0.05,-0.44,0.50,-0.43,0.00,-0.10,-0.85,1008.84
12.206,-0.11,0.97,-0.05,-0.44,0.50,-0.43,0.00,-0.10,-0.85,1008.84
12.206,-0.11,0.97,-0.05,-0.44,0.50,-0.43,0.05,0.12,-0.85,1008.84
12.207,-0.11,0.97,-0.05,0.62,-0.13,0.71,0.05,0.12,-0.85,1008.84
12.213,-0.11,0.97,-0.05,0.62,-0.13,0.71,0.05,0.12,-0.85,1008.88
12.253,-0.11,0.97,-0.05,0.62,-0.13,0.71,0.05,0.12,-0.85,1008.89
12.262,-0.19,0.98,-0.09,0.62,-0.13,0.71,0.05,0.12,-0.85,1008.89
12.263,-0.22,0.97,-0.11,0.62,-0.13,0.71,0.05,0.12,-0.85,1008.89
12.264,-0.17,0.97,-0.11,0.62,-0.13,0.71,0.05,0.12,-0.85,1008.89
12.265,-0.17,0.97,-0.11,0.62,-0.13,0.71,0.11,0.12,-0.96,1008.89
12.266,-0.17,0.97,-0.11,0.04,0.08,0.28,0.11,0.12,-0.96,1008.89
12.321,-0.15,0.96,-0.08,0.04,0.08,0.28,0.11,0.12,-0.96,1008.89
12.322,-0.21,0.98,-0.09,0.04,0.08,0.28,0.11,0.12,-0.96,1008.89
12.322,-0.18,1.00,-0.11,0.04,0.08,0.28,0.11,0.12,-0.96,1008.89
12.323,-0.18,1.00,-0.11,0.04,0.08,0.28,0.18,0.05,-1.06,1008.89
12.323,-0.18,1.00,-0.11,0.73,0.24,0.48,0.18,0.05,-1.06,1008.89
12.334,-0.18,1.00,-0.11,0.73,0.24,0.48,0.18,0.05,-1.06,1008.90
12.385,-0.17,1.04,-0.07,0.73,0.24,0.48,0.18,0.05,-1.06,1008.90
12.386,-0.16,1.08,-0.05,0.73,0.24,0.48,0.18,0.05,-1.06,1008.90
12.386,-0.17,1.15,-0.05,0.73,0.24,0.48,0.18,0.05,-1.06,1008.90
12.387,-0.17,1.15,-0.05,0.73,0.24,0.48,0.42,-0.07,-1.34,1008.90
12.387,-0.17,1.15,-0.05,1.60,1.57,1.01,0.42,-0.07,-1.34,1008.90
12.413,-0.17,1.15,-0.05,1.60,1.57,1.01,0.42,-0.07,-1.34,1008.91
12.437,-0.13,1.22,-0.12,1.60,1.57,1.01,0.42,-0.07,-1.34,1008.91
12.438,-0.10,1.22,-0.20,1.60,1.57,1.01,0.42,-0.07,-1.34,1008.91
12.438,-0.09,1.23,-0.24,1.60,1.57,1.01,0.42,-0.07,-1.34,1008.91
12.439,-0.09,1.23,-0.24,1.60,1.57,1.01,0.76,0.13,-1.73,1008.91
12.439,-0.09,1.23,-0.24,3.00,3.30,0.17,0.76,0.13,-1.73,1008.91
12.453,-0.09,1.23,-0.24,3.00,3.30,0.17,0.76,0.13,-1.73,1008.91
12.495,-0.09,1.36,-0.25,3.00,3.30,0.17,0.76,0.13,-1.73,1008.91
12.497,0.10,1.62,-0.21,3.00,3.30,0.17,0.76,0.13,-1.73,1008.91
12.498,0.61,1.79,-0.17,3.00,3.30,0.17,0.76,0.13,-1.73,1008.91
12.499,0.61,1.79,-0.17,6.89,7.44,0.50,0.76,0.13,-1.73,1008.91
12.501,0.61,1.79,-0.17,6.89,7.44,0.50,1.11,0.07,-1.95,1008.91
12.533,0.61,1.79,-0.17,6.89,7.44,0.50,1.11,0.07,-1.95,1008.90
12.554,1.06,1.71,-0.10,6.89,7.44,0.50,1.11,0.07,-1.95,1008.90
12.556,0.65,1.20,0.14,6.89,7.44,0.50,1.11,0.07,-1.95,1008.90
12.557,-0.44,0.92,0.08,6.89,7.44,0.50,1.11,0.07,-1.95,1008.90
12.558,-0.44,0.92,0.08,9.99,5.31,3.54,1.11,0.07,-1.95,1008.90
12.559,-0.44,0.92,0.08,9.99,5.31,3.54,0.96,0.71,-2.82,1008.90
12.614,-0.44,0.92,0.08,-4.72,3.99,2.40,0.96,0.71,-2.82,1008.90
12.617,-1.21,1.20,-0.12,-4.72,3.99,2.40,0.96,0.71,-2.82,1008.90
12.618,-1.23,1.11,-0.11,-4.72,3.99,2.40,0.96,0.71,-2.82,1008.90
12.619,-1.09,0.71,-0.25,-4.72,3.99,2.40,0.96,0.71,-2.82,1008.90
12.62,-1.09,0.71,-0.25,-4.72,3.99,2.40,1.34,0.92,-2.95,1008.90
12.622,-1.09,0.71,-0.25,-4.72,3.99,2.40,1.34,0.92,-2.95,1008.87
12.654,-1.09,0.71,-0.25,-4.72,3.99,2.40,1.34,0.92,-2.95,1008.88
12.671,-0.97,0.53,-0.26,-4.72,3.99,2.40,1.34,0.92,-2.95,1008.88
12.672,-0.62,0.43,-0.23,-4.72,3.99,2.40,1.34,0.92,-2.95,1008.88
12.672,-0.22,0.25,0.08,-4.72,3.99,2.40,1.34,0.92,-2.95,1008.88
12.672,-0.22,0.25,0.08,0.97,-2.28,1.83,1.34,0.92,-2.95,1008.88
12.673,-0.22,0.25,0.08,0.97,-2.28,1.83,0.04,-1.87,0.92,1008.88
12.729,-0.02,0.03,0.34,0.97,-2.28,1.83,0.04,-1.87,0.92,1008.88
12.73,-0.08,0.11,0.16,0.97,-2.28,1.83,0.04,-1.87,0.92,1008.88
12.731,-0.20,0.34,0.06,0.97,-2.28,1.83,0.04,-1.87,0.92,1008.88
12.731,-0.20,0.34,0.06,4.52,-5.85,4.55,0.04,-1.87,0.92,1008.88
12.733,-0.20,0.34,0.06,4.52,-5.85,4.55,0.20,-1.23,3.70,1008.88
12.734,-0.20,0.34,0.06,4.52,-5.85,4.55,0.20,-1.23,3.70,1008.85
12.788,-0.24,0.59,-0.06,4.52,-5.85,4.55,0.20,-1.23,3.70,1008.85
12.79,-0.34,0.73,0.01,4.52,-5.85,4.55,0.20,-1.23,3.70,1008.85
12.792,-0.43,0.81,0.07,4.52,-5.85,4.55,0.20,-1.23,3.70,1008.85
12.793,-0.43,0.81,0.07,4.52,-5.85,4.55,0.17,-0.72,4.78,1008.85
12.794,-0.43,0.81,0.07,0.06,-1.71,2.62,0.17,-0.72,4.78,1008.85
12.814,-0.43,0.81,0.07,0.06,-1.71,2.62,0.17,-0.72,4.78,1008.89
12.845,-0.51,0.93,0.00,0.06,-1.71,2.62,0.17,-0.72,4.78,1008.89
12.846,-0.54,1.17,0.02,0.06,-1.71,2.62,0.17,-0.72,4.78,1008.89
12.847,-0.65,1.38,0.03,0.06,-1.71,2.62,0.17,-0.72,4.78,1008.89
12.847,-0.65,1.38,0.03,0.06,-1.71,2.62,-0.70,-0.62,5.74,1008.89
12.848,-0.65,1.38,0.03,-5.01,1.97,2.23,-0.70,-0.62,5.74,1008.89
12.855,-0.65,1.38,0.03,-5.01,1.97,2.23,-0.70,-0.62,5.74,1008.88
12.907,-0.68,1.52,-0.05,-5.01,1.97,2.23,-0.70,-0.62,5.74,1008.88
12.908,-0.37,1.47,-0.03,-5.01,1.97,2.23,-0.70,-0.62,5.74,1008.88
12.908,-0.10,1.40,0.05,-5.01,1.97,2.23,-0.70,-0.62,5.74,1008.88
12.909,-0.10,1.40,0.05,-5.01,1.97,2.23,-1.75,-1.37,6.11,1008.88
12.909,-0.10,1.40,0.05,-6.33,5.07,1.07,-1.75,-1.37,6.11,1008.88
12.933,-0.10,1.40,0.05,-6.33,5.07,1.07,-1.75,-1.37,6.11,1008.82
12.966,0.01,1.45,0.15,-6.33,5.07,1.07,-1.75,-1.37,6.11,1008.82
12.966,-0.06,1.45,0.10,-6.33,5.07,1.07,-1.75,-1.37,6.11,1008.82
12.967,-0.40,1.21,-0.16,-6.33,5.07,1.07,-1.75,-1.37,6.11,1008.82
12.967,-0.40,1.21,-0.16,-6.33,5.07,1.07,-1.59,0.24,3.91,1008.82
12.968,-0.40,1.21,-0.16,-6.04,4.85,0.62,-1.59,0.24,3.91,1008.82
13.014,-0.40,1.21,-0.16,-6.04,4.85,0.62,-1.59,0.24,3.91,1008.81
13.02,-0.63,1.00,-0.15,-6.04,4.85,0.62,-1.59,0.24,3.91,1008.81
13.021,-0.64,0.77,-0.23,-6.04,4.85,0.62,-1.59,0.24,3.91,1008.81
13.021,-0.79,0.67,-0.43,-6.04,4.85,0.62,-1.59,0.24,3.91,1008.81
13.022,-0.79,0.67,-0.43,-6.04,4.85,0.62,-0.63,1.07,0.01,1008.81
13.022,-0.79,0.67,-0.43,-11.11,-0.65,-2.89,-0.63,1.07,0.01,1008.81
13.054,-0.79,0.67,-0.43,-11.11,-0.65,-2.89,-0.63,1.07,0.01,1008.83
13.078,-0.94,0.85,-0.66,-11.11,-0.65,-2.89,-0.63,1.07,0.01,1008.83
13.079,-0.43,1.56,-1.11,-11.11,-0.65,-2.89,-0.63,1.07,0.01,1008.83
13.079,1.99,1.46,-0.10,-11.11,-0.65,-2.89,-0.63,1.07,0.01,1008.83
13.08,1.99,1.46,-0.10,-11.11,-0.65,-2.89,-0.28,-2.22,-1.45,1008.83
13.08,1.99,1.46,-0.10,-1.58,3.69,-5.91,-0.28,-2.22,-1.45,1008.83
13.134,1.99,1.46,-0.10,-1.58,3.69,-5.91,-0.28,-2.22,-1.45,1008.80
13.136,2.33,1.25,-0.36,-1.58,3.69,-5.91,-0.28,-2.22,-1.45,1008.80
13.137,-0.34,1.81,-0.15,-1.58,3.69,-5.91,-0.28,-2.22,-1.45,1008.80
13.137,-1.16,1.20,-0.40,-1.58,3.69,-5.91,-0.28,-2.22,-1.45,1008.80
13.138,-1.16,1.20,-0.40,-1.58,3.69,-5.91,-0.52,-1.83,-2.41,1008.80
13.139,-1.16,1.20,-0.40,0.43,4.44,-2.71,-0.52,-1.83,-2.41,1008.80
13.194,-0.21,0.33,0.97,0.43,4.44,-2.71,-0.52,-1.83,-2.41,1008.80
13.195,0.41,0.64,0.21,0.43,4.44,-2.71,-0.52,-1.83,-2.41,1008.80
13.195,0.08,1.21,-0.06,0.43,4.44,-2.71,-0.52,-1.83,-2.41,1008.80
13.195,0.08,1.21,-0.06,0.43,4.44,-2.71,-0.16,-0.04,-1.77,1008.80
13.196,0.08,1.21,-0.06,-0.36,-2.50,3.82,-0.16,-0.04,-1.77,1008.80
13.214,0.08,1.21,-0.06,-0.36,-2.50,3.82,-0.16,-0.04,-1.77,1008.85
13.254,-0.44,1.28,-0.05,-0.36,-2.50,3.82,-0.16,-0.04,-1.77,1008.85
13.256,-0.32,0.97,-0.09,-0.36,-2.50,3.82,-0.16,-0.04,-1.77,1008.85
13.257,-0.00,0.93,-0.07,-0.36,-2.50,3.82,-0.16,-0.04,-1.77,1008.85
13.258,-0.00,0.93,-0.07,-0.36,-2.50,3.82,-0.06,-0.09,-1.25,1008.85
13.259,-0.00,0.93,-0.07,-0.36,-2.50,3.82,-0.06,-0.09,-1.25,1008.89
13.26,-0.00,0.93,-0.07,-3.03,0.67,-0.54,-0.06,-0.09,-1.25,1008.89
13.312,0.22,1.05,-0.00,-3.03,0.67,-0.54,-0.06,-0.09,-1.25,1008.89
13.314,0.14,1.06,0.08,-3.03,0.67,-0.54,-0.06,-0.09,-1.25,1008.89
13.315,-0.02,0.98,0.04,-3.03,0.67,-0.54,-0.06,-0.09,-1.25,1008.89
13.315,-0.02,0.98,0.04,1.04,0.34,0.47,-0.06,-0.09,-1.25,1008.89
13.316,-0.02,0.98,0.04,1.04,0.34,0.47,-0.09,-0.21,-0.84,1008.89
13.334,-0.02,0.98,0.04,1.04,0.34,0.47,-0.09,-0.21,-0.84,1008.85
13.375,-0.13,0.97,0.01,1.04,0.34,0.47,-0.09,-0.21,-0.84,1008.85
13.377,-0.09,1.03,-0.01,1.04,0.34,0.47,-0.09,-0.21,-0.84,1008.85
13.378,0.04,1.04,0.01,1.04,0.34,0.47,-0.09,-0.21,-0.84,1008.85
13.378,0.04,1.04,0.01,1.04,0.34,0.47,-0.03,0.03,-0.85,1008.85
13.379,0.04,1.04,0.01,-0.18,0.18,0.11,-0.03,0.03,-0.85,1008.85
13.414,0.04,1.04,0.01,-0.18,0.18,0.11,-0.03,0.03,-0.85,1008.86
13.428,0.05,1.01,0.04,-0.18,0.18,0.11,-0.03,0.03,-0.85,1008.86
13.429,-0.01,1.01,0.05,-0.18,0.18,0.11,-0.03,0.03,-0.85,1008.86
13.429,-0.01,1.01,0.03,-0.18,0.18,0.11,-0.03,0.03,-0.85,1008.86
13.429,-0.01,1.01,0.03,-0.18,0.18,0.11,0.05,0.02,-0.95,1008.86
13.43,-0.01,1.01,0.03,1.04,0.22,0.46,0.05,0.02,-0.95,1008.86
13.454,-0.01,1.01,0.03,1.04,0.22,0.46,0.05,0.02,-0.95,1008.86
13.501,-0.00,1.01,0.00,1.04,0.22,0.46,0.05,0.02,-0.95,1008.86
13.502,-0.07,0.99,-0.03,1.04,0.22,0.46,0.05,0.02,-0.95,1008.86
13.503,-0.17,0.98,-0.07,1.04,0.22,0.46,0.05,0.02,-0.95,1008.86
13.503,-0.17,0.98,-0.07,1.04,0.22,0.46,0.14,0.14,-1.26,1008.86
13.504,-0.17,0.98,-0.07,0.86,0.11,-0.13,0.14,0.14,-1.26,1008.86
13.533,-0.17,0.98,-0.07,0.86,0.11,-0.13,0.14,0.14,-1.26,1008.86
13.545,-0.20,0.96,-0.09,0.86,0.11,-0.13,0.14,0.14,-1.26,1008.86
13.546,-0.26,0.95,-0.06,0.86,0.11,-0.13,0.14,0.14,-1.26,1008.86
13.547,-0.33,0.95,-0.03,0.86,0.11,-0.13,0.14,0.14,-1.26,1008.86
13.547,-0.33,0.95,-0.03,0.86,0.11,-0.13,0.11,0.42,-1.34,1008.86
13.548,-0.33,0.95,-0.03,-0.22,-0.10,-0.26,0.11,0.42,-1.34,1008.86
13.604,-0.29,0.96,-0.02,-0.22,-0.10,-0.26,0.11,0.42,-1.34,1008.86
13.605,-0.28,1.00,-0.03,-0.22,-0.10,-0.26,0.11,0.42,-1.34,1008.86
13.606,-0.24,1.03,-0.03,-0.22,-0.10,-0.26,0.11,0.42,-1.34,1008.86
13.606,-0.24,1.03,-0.03,-0.22,-0.10,-0.26,0.08,-0.02,-1.22,1008.86
13.607,-0.24,1.03,-0.03,0.41,0.52,0.06,0.08,-0.02,-1.22,1008.86
13.614,-0.24,1.03,-0.03,0.41,0.52,0.06,0.08,-0.02,-1.22,1008.89
13.654,-0.24,1.03,-0.03,0.41,0.52,0.06,0.08,-0.02,-1.22,1008.90
13.662,-0.18,1.06,-0.01,0.41,0.52,0.06,0.08,-0.02,-1.22,1008.90
13.662,-0.23,1.07,0.02,0.41,0.52,0.06,0.08,-0.02,-1.22,1008.90
13.663,-0.24,1.07,0.01,0.41,0.52,0.06,0.08,-0.02,-1.22,1008.90
13.663,-0.24,1.07,0.01,0.41,0.52,0.06,0.14,0.17,-1.36,1008.90
13.664,-0.24,1.07,0.01,1.59,1.48,0.47,0.14,0.17,-1.36,1008.90
13.72,-0.25,1.08,-0.01,1.59,1.48,0.47,0.14,0.17,-1.36,1008.90
13.721,-0.23,1.11,-0.05,1.59,1.48,0.47,0.14,0.17,-1.36,1008.90
13.722,-0.11,1.23,-0.06,1.59,1.48,0.47,0.14,0.17,-1.36,1008.90
13.722,-0.11,1.23,-0.06,1.59,1.48,0.47,0.24,0.49,-1.57,1008.90
13.723,-0.11,1.23,-0.06,2.55,2.51,0.27,0.24,0.49,-1.57,1008.90
13.735,-0.11,1.23,-0.06,2.55,2.51,0.27,0.24,0.49,-1.57,1008.90
13.782,0.07,1.37,-0.08,2.55,2.51,0.27,0.24,0.49,-1.57,1008.90
13.783,0.25,1.40,-0.20,2.55,2.51,0.27,0.24,0.49,-1.57,1008.90
13.784,0.50,1.44,-0.32,2.55,2.51,0.27,0.24,0.49,-1.57,1008.90
13.784,0.50,1.44,-0.32,2.55,2.51,0.27,0.48,1.05,-1.87,1008.90
13.785,0.50,1.44,-0.32,7.87,5.59,-0.75,0.48,1.05,-1.87,1008.90
13.814,0.50,1.44,-0.32,7.87,5.59,-0.75,0.48,1.05,-1.87,1008.89
13.837,0.67,1.38,-0.28,7.87,5.59,-0.75,0.48,1.05,-1.87,1008.89
13.838,0.18,0.99,-0.12,7.87,5.59,-0.75,0.48,1.05,-1.87,1008.89
13.839,-0.72,0.89,-0.19,7.87,5.59,-0.75,0.48,1.05,-1.87,1008.89
13.839,-0.72,0.89,-0.19,7.87,5.59,-0.75,0.61,2.48,-2.90,1008.89
13.84,-0.72,0.89,-0.19,6.53,3.43,0.35,0.61,2.48,-2.90,1008.89
13.854,-0.72,0.89,-0.19,6.53,3.43,0.35,0.61,2.48,-2.90,1008.88
13.901,-1.23,1.13,-0.36,6.53,3.43,0.35,0.61,2.48,-2.90,1008.88
13.901,-1.08,1.05,-0.33,6.53,3.43,0.35,0.61,2.48,-2.90,1008.88
13.902,-0.90,0.70,-0.19,6.53,3.43,0.35,0.61,2.48,-2.90,1008.88
13.902,-0.90,0.70,-0.19,6.53,3.43,0.35,1.07,1.89,-2.77,1008.88
13.902,-0.90,0.70,-0.19,-3.53,3.37,0.56,1.07,1.89,-2.77,1008.88
13.933,-0.90,0.70,-0.19,-3.53,3.37,0.56,1.07,1.89,-2.77,1008.88
13.953,-0.89,0.57,-0.25,-3.53,3.37,0.56,1.07,1.89,-2.77,1008.88
13.953,-0.60,0.48,-0.33,-3.53,3.37,0.56,1.07,1.89,-2.77,1008.88
13.954,-0.27,0.29,-0.09,-3.53,3.37,0.56,1.07,1.89,-2.77,1008.88
13.954,-0.27,0.29,-0.09,-3.53,3.37,0.56,-0.38,-0.57,0.17,1008.88
13.954,-0.27,0.29,-0.09,1.24,-1.77,0.86,-0.38,-0.57,0.17,1008.88
14.012,-0.05,0.16,0.03,1.24,-1.77,0.86,-0.38,-0.57,0.17,1008.88
14.012,0.04,0.13,-0.05,1.24,-1.77,0.86,-0.38,-0.57,0.17,1008.88
14.013,0.08,0.31,-0.21,1.24,-1.77,0.86,-0.38,-0.57,0.17,1008.88
14.013,0.08,0.31,-0.21,1.24,-1.77,0.86,-0.32,-0.25,2.81,1008.88
14.013,0.08,0.31,-0.21,6.04,-5.23,2.07,-0.32,-0.25,2.81,1008.88
14.013,0.08,0.31,-0.21,6.04,-5.23,2.07,-0.32,-0.25,2.81,1008.86
14.054,0.08,0.31,-0.21,6.04,-5.23,2.07,-0.32,-0.25,2.81,1008.88
14.069,-0.15,0.59,-0.52,6.04,-5.23,2.07,-0.32,-0.25,2.81,1008.88
14.07,-0.31,0.71,-0.33,6.04,-5.23,2.07,-0.32,-0.25,2.81,1008.88
14.07,-0.48,0.73,-0.31,6.04,-5.23,2.07,-0.32,-0.25,2.81,1008.88
14.071,-0.48,0.73,-0.31,6.04,-5.23,2.07,0.21,0.03,3.82,1008.88
14.071,-0.48,0.73,-0.31,1.02,-1.60,-0.88,0.21,0.03,3.82,1008.88
14.128,-0.65,0.88,-0.38,1.02,-1.60,-0.88,0.21,0.03,3.82,1008.88
14.129,-0.56,0.95,-0.40,1.02,-1.60,-0.88,0.21,0.03,3.82,1008.88
14.13,-0.53,1.02,-0.41,1.02,-1.60,-0.88,0.21,0.03,3.82,1008.88
14.132,-0.53,1.02,-0.41,1.02,-1.60,-0.88,0.30,-1.41,5.14,1008.88
14.133,-0.53,1.02,-0.41,-3.92,0.27,-1.03,0.30,-1.41,5.14,1008.88
14.136,-0.53,1.02,-0.41,-3.92,0.27,-1.03,0.30,-1.41,5.14,1008.89
14.187,-0.73,1.17,-0.45,-3.92,0.27,-1.03,0.30,-1.41,5.14,1008.89
14.187,-0.65,1.15,-0.41,-3.92,0.27,-1.03,0.30,-1.41,5.14,1008.89
14.188,-0.41,1.12,-0.45,-3.92,0.27,-1.03,0.30,-1.41,5.14,1008.89
14.188,-0.41,1.12,-0.45,-3.92,0.27,-1.03,0.69,-5.11,5.65,1008.89
14.189,-0.41,1.12,-0.45,-6.13,2.09,-1.17,0.69,-5.11,5.65,1008.89
14.216,-0.41,1.12,-0.45,-6.13,2.09,-1.17,0.69,-5.11,5.65,1008.83
14.244,-0.19,1.21,-0.44,-6.13,2.09,-1.17,0.69,-5.11,5.65,1008.83
14.245,-0.15,1.26,-0.17,-6.13,2.09,-1.17,0.69,-5.11,5.65,1008.83
14.245,-0.17,1.18,0.05,-6.13,2.09,-1.17,0.69,-5.11,5.65,1008.83
14.246,-0.17,1.18,0.05,-2.80,3.15,2.14,0.69,-5.11,5.65,1008.83
14.247,-0.17,1.18,0.05,-2.80,3.15,2.14,0.96,-7.41,4.62,1008.83
14.253,-0.17,1.18,0.05,-2.80,3.15,2.14,0.96,-7.41,4.62,1008.78
14.302,-0.09,1.13,0.08,-2.80,3.15,2.14,0.96,-7.41,4.62,1008.78
14.303,-0.03,1.09,0.13,-2.80,3.15,2.14,0.96,-7.41,4.62,1008.78
14.304,-0.06,1.03,0.20,-2.80,3.15,2.14,0.96,-7.41,4.62,1008.78
14.304,-0.06,1.03,0.20,-2.80,3.15,2.14,0.18,-5.24,2.10,1008.78
14.305,-0.06,1.03,0.20,-1.46,1.96,5.61,0.18,-5.24,2.10,1008.78
14.334,-0.06,1.03,0.20,-1.46,1.96,5.61,0.18,-5.24,2.10,1008.77
14.362,-0.07,0.91,0.26,-1.46,1.96,5.61,0.18,-5.24,2.10,1008.77
14.363,-0.37,1.19,0.22,-1.46,1.96,5.61,0.18,-5.24,2.10,1008.77
14.363,-0.68,1.44,0.59,-1.46,1.96,5.61,0.18,-5.24,2.10,1008.77
14.363,-0.68,1.44,0.59,-1.46,1.96,5.61,-0.57,-1.87,-0.24,1008.77
14.364,-0.68,1.44,0.59,-3.93,2.74,7.46,-0.57,-1.87,-0.24,1008.77
14.413,-0.68,1.44,0.59,-3.93,2.74,7.46,-0.57,-1.87,-0.24,1008.83
14.419,-0.31,1.16,0.67,-3.93,2.74,7.46,-0.57,-1.87,-0.24,1008.83
14.42,0.30,1.10,-0.09,-3.93,2.74,7.46,-0.57,-1.87,-0.24,1008.83
14.42,0.39,1.23,-0.84,-3.93,2.74,7.46,-0.57,-1.87,-0.24,1008.83
14.421,0.39,1.23,-0.84,1.31,2.32,2.60,-0.57,-1.87,-0.24,1008.83
14.421,0.39,1.23,-0.84,1.31,2.32,2.60,-0.95,-0.85,-0.29,1008.83
14.453,0.39,1.23,-0.84,1.31,2.32,2.60,-0.95,-0.85,-0.29,1008.85
14.478,-0.03,1.35,-0.96,1.31,2.32,2.60,-0.95,-0.85,-0.29,1008.85
14.478,-0.33,1.15,-0.54,1.31,2.32,2.60,-0.95,-0.85,-0.29,1008.85
14.479,-0.22,0.99,-0.35,1.31,2.32,2.60,-0.95,-0.85,-0.29,1008.85
14.479,-0.22,0.99,-0.35,1.31,2.32,2.60,-0.94,-0.77,-0.29,1008.85
14.479,-0.22,0.99,-0.35,-1.49,2.09,-3.11,-0.94,-0.77,-0.29,1008.85
14.534,-0.22,0.99,-0.35,-1.49,2.09,-3.11,-0.94,-0.77,-0.29,1008.85
14.537,0.05,0.97,-0.03,-1.49,2.09,-3.11,-0.94,-0.77,-0.29,1008.85
14.537,0.15,0.94,0.02,-1.49,2.09,-3.11,-0.94,-0.77,-0.29,1008.85
14.537,0.12,0.91,-0.12,-1.49,2.09,-3.11,-0.94,-0.77,-0.29,1008.85
14.538,0.12,0.91,-0.12,-1.49,2.09,-3.11,-0.83,-1.00,0.22,1008.85
14.538,0.12,0.91,-0.12,1.46,-0.18,2.02,-0.83,-1.00,0.22,1008.85
14.602,-0.05,0.97,-0.17,1.46,-0.18,2.02,-0.83,-1.00,0.22,1008.85
14.603,-0.16,1.04,-0.25,1.46,-0.18,2.02,-0.83,-1.00,0.22,1008.85
14.603,-0.14,1.02,-0.32,1.46,-0.18,2.02,-0.83,-1.00,0.22,1008.85
14.603,-0.14,1.02,-0.32,1.46,-0.18,2.02,-0.51,0.14,-0.01,1008.85
14.604,-0.14,1.02,-0.32,-0.77,0.42,-0.26,-0.51,0.14,-0.01,1008.85
14.613,-0.14,1.02,-0.32,-0.77,0.42,-0.26,-0.51,0.14,-0.01,1008.89
14.653,-0.05,1.00,-0.26,-0.77,0.42,-0.26,-0.51,0.14,-0.01,1008.89
14.654,0.02,0.92,-0.12,-0.77,0.42,-0.26,-0.51,0.14,-0.01,1008.89
14.655,-0.05,0.91,-0.06,-0.77,0.42,-0.26,-0.51,0.14,-0.01,1008.89
14.655,-0.05,0.91,-0.06,0.12,-0.29,0.45,-0.51,0.14,-0.01,1008.89
14.655,-0.05,0.91,-0.06,0.12,-0.29,0.45,-0.46,-0.32,0.08,1008.89
14.656,-0.05,0.91,-0.06,0.12,-0.29,0.45,-0.46,-0.32,0.08,1008.94
14.712,-0.05,0.95,-0.09,0.12,-0.29,0.45,-0.46,-0.32,0.08,1008.94
14.712,-0.10,0.97,-0.13,0.12,-0.29,0.45,-0.46,-0.32,0.08,1008.94
14.712,-0.11,1.01,-0.12,0.12,-0.29,0.45,-0.46,-0.32,0.08,1008.94
14.713,-0.11,1.01,-0.12,0.12,-0.29,0.45,-0.35,-0.19,0.04,1008.94
14.713,-0.11,1.01,-0.12,-0.43,-0.00,0.57,-0.35,-0.19,0.04,1008.94
14.734,-0.11,1.01,-0.12,-0.43,-0.00,0.57,-0.35,-0.19,0.04,1008.90
14.77,-0.05,1.03,-0.13,-0.43,-0.00,0.57,-0.35,-0.19,0.04,1008.90
14.771,0.04,1.01,-0.11,-0.43,-0.00,0.57,-0.35,-0.19,0.04,1008.90
14.771,0.08,0.97,-0.11,-0.43,-0.00,0.57,-0.35,-0.19,0.04,1008.90
14.772,0.08,0.97,-0.11,-0.43,-0.00,0.57,-0.19,-0.23,0.13,1008.90
14.772,0.08,0.97,-0.11,0.54,0.24,0.41,-0.19,-0.23,0.13,1008.90
14.823,0.08,0.97,-0.11,0.54,0.24,0.41,-0.19,-0.23,0.13,1008.89
14.828,0.12,1.00,-0.06,0.54,0.24,0.41,-0.19,-0.23,0.13,1008.89
14.829,0.16,1.02,-0.12,0.54,0.24,0.41,-0.19,-0.23,0.13,1008.89
14.829,0.04,0.99,-0.11,0.54,0.24,0.41,-0.19,-0.23,0.13,1008.89
14.829,0.04,0.99,-0.11,0.54,0.24,0.41,-0.01,-0.22,-0.20,1008.89
14.83,0.04,0.99,-0.11,1.47,0.22,0.60,-0.01,-0.22,-0.20,1008.89
14.854,0.04,0.99,-0.11,1.47,0.22,0.60,-0.01,-0.22,-0.20,1008.86
14.887,-0.11,0.97,-0.06,1.47,0.22,0.60,-0.01,-0.22,-0.20,1008.86
14.888,-0.16,0.95,-0.12,1.47,0.22,0.60,-0.01,-0.22,-0.20,1008.86
14.888,-0.18,0.96,-0.12,1.47,0.22,0.60,-0.01,-0.22,-0.20,1008.86
14.888,-0.18,0.96,-0.12,1.47,0.22,0.60,0.16,-0.24,-0.51,1008.86
14.889,-0.18,0.96,-0.12,-0.70,-0.16,0.64,0.16,-0.24,-0.51,1008.86
14.934,-0.18,0.96,-0.12,-0.70,-0.16,0.64,0.16,-0.24,-0.51,1008.86
14.945,-0.17,0.96,-0.08,-0.70,-0.16,0.64,0.16,-0.24,-0.51,1008.86
14.946,-0.15,0.97,-0.15,-0.70,-0.16,0.64,0.16,-0.24,-0.51,1008.86
14.946,-0.12,0.98,-0.16,-0.70,-0.16,0.64,0.16,-0.24,-0.51,1008.86
14.947,-0.12,0.98,-0.16,-0.70,-0.16,0.64,0.28,-0.38,-0.33,1008.86
14.947,-0.12,0.98,-0.16,-0.41,-0.02,0.48,0.28,-0.38,-0.33,1008.86
15.004,-0.08,0.99,-0.14,-0.41,-0.02,0.48,0.28,-0.38,-0.33,1008.86
15.006,-0.10,1.00,-0.14,-0.41,-0.02,0.48,0.28,-0.38,-0.33,1008.86
15.007,-0.13,1.00,-0.19,-0.41,-0.02,0.48,0.28,-0.38,-0.33,1008.86
15.008,-0.13,1.00,-0.19,-0.41,-0.02,0.48,0.46,-0.24,-0.32,1008.86
15.009,-0.13,1.00,-0.19,0.18,0.31,0.41,0.46,-0.24,-0.32,1008.86
15.014,-0.13,1.00,-0.19,0.18,0.31,0.41,0.46,-0.24,-0.32,1008.88
15.054,-0.13,1.00,-0.19,0.18,0.31,0.41,0.46,-0.24,-0.32,1008.91
15.062,-0.14,0.97,-0.16,0.18,0.31,0.41,0.46,-0.24,-0.32,1008.91
15.063,-0.20,1.00,-0.15,0.18,0.31,0.41,0.46,-0.24,-0.32,1008.91
15.064,-0.08,1.02,-0.15,0.18,0.31,0.41,0.46,-0.24,-0.32,1008.91
15.066,-0.08,1.02,-0.15,0.18,0.31,0.41,0.72,-0.50,-0.38,1008.91
15.066,-0.08,1.02,-0.15,0.09,0.39,0.81,0.72,-0.50,-0.38,1008.91
15.119,0.07,1.03,-0.16,0.09,0.39,0.81,0.72,-0.50,-0.38,1008.91
15.12,0.02,1.00,-0.26,0.09,0.39,0.81,0.72,-0.50,-0.38,1008.91
15.121,-0.14,1.00,-0.26,0.09,0.39,0.81,0.72,-0.50,-0.38,1008.91
15.121,-0.14,1.00,-0.26,0.09,0.39,0.81,1.14,-0.78,-0.67,1008.91
15.122,-0.14,1.00,-0.26,1.74,0.76,0.62,1.14,-0.78,-0.67,1008.91
15.134,-0.14,1.00,-0.26,1.74,0.76,0.62,1.14,-0.78,-0.67,1008.92
15.18,-0.18,1.04,-0.23,1.74,0.76,0.62,1.14,-0.78,-0.67,1008.92
15.181,0.01,1.17,-0.23,1.74,0.76,0.62,1.14,-0.78,-0.67,1008.92
15.181,0.16,1.32,-0.29,1.74,0.76,0.62,1.14,-0.78,-0.67,1008.92
15.182,0.16,1.32,-0.29,1.74,0.76,0.62,1.67,-0.71,-0.90,1008.92
15.182,0.16,1.32,-0.29,2.45,2.77,1.16,1.67,-0.71,-0.90,1008.92
15.214,0.16,1.32,-0.29,2.45,2.77,1.16,1.67,-0.71,-0.90,1008.91
15.237,0.25,1.42,-0.39,2.45,2.77,1.16,1.67,-0.71,-0.90,1008.91
15.237,0.35,1.57,-0.45,2.45,2.77,1.16,1.67,-0.71,-0.90,1008.91
15.238,0.45,1.53,-0.35,2.45,2.77,1.16,1.67,-0.71,-0.90,1008.91
15.238,0.45,1.53,-0.35,2.45,2.77,1.16,2.44,-0.49,-1.15,1008.91
15.238,0.45,1.53,-0.35,6.49,6.69,0.83,2.44,-0.49,-1.15,1008.91
15.254,0.45,1.53,-0.35,6.49,6.69,0.83,2.44,-0.49,-1.15,1008.90
15.294,0.03,1.14,-0.08,6.49,6.69,0.83,2.44,-0.49,-1.15,1008.90
15.295,-0.76,1.02,0.04,6.49,6.69,0.83,2.44,-0.49,-1.15,1008.90
15.295,-1.45,1.15,-0.04,6.49,6.69,0.83,2.44,-0.49,-1.15,1008.90
15.295,-1.45,1.15,-0.04,6.49,6.69,0.83,2.75,-1.41,-1.69,1008.90
15.296,-1.45,1.15,-0.04,-2.85,3.88,5.25,2.75,-1.41,-1.69,1008.90
15.334,-1.45,1.15,-0.04,-2.85,3.88,5.25,2.75,-1.41,-1.69,1008.88
15.353,-1.64,1.01,-0.12,-2.85,3.88,5.25,2.75,-1.41,-1.69,1008.88
15.354,-1.23,0.67,-0.16,-2.85,3.88,5.25,2.75,-1.41,-1.69,1008.88
15.355,-0.67,0.42,-0.39,-2.85,3.88,5.25,2.75,-1.41,-1.69,1008.88
15.355,-0.67,0.42,-0.39,-5.78,0.52,2.71,2.75,-1.41,-1.69,1008.88
15.356,-0.67,0.42,-0.39,-5.78,0.52,2.71,2.31,-4.93,0.30,1008.88
15.413,-0.35,0.76,-0.59,-5.78,0.52,2.71,2.31,-4.93,0.30,1008.88
15.415,0.29,0.53,0.06,-5.78,0.52,2.71,2.31,-4.93,0.30,1008.88
15.422,0.37,0.33,0.35,-5.78,0.52,2.71,2.31,-4.93,0.30,1008.88
15.423,0.37,0.33,0.35,7.04,-1.50,2.95,2.31,-4.93,0.30,1008.88
15.424,0.37,0.33,0.35,7.04,-1.50,2.95,1.50,-5.30,2.51,1008.88
15.439,0.37,0.33,0.35,7.04,-1.50,2.95,1.50,-5.30,2.51,1008.85
15.454,0.37,0.33,0.35,7.04,-1.50,2.95,1.50,-5.30,2.51,1008.82
15.471,-0.03,0.39,0.24,7.04,-1.50,2.95,1.50,-5.30,2.51,1008.82
15.472,-0.34,0.65,0.13,7.04,-1.50,2.95,1.50,-5.30,2.51,1008.82
15.472,-0.41,0.78,0.13,7.04,-1.50,2.95,1.50,-5.30,2.51,1008.82
15.472,-0.41,0.78,0.13,7.04,-1.50,2.95,1.86,-2.91,2.56,1008.82
15.473,-0.41,0.78,0.13,2.98,-1.33,4.88,1.86,-2.91,2.56,1008.82
15.529,-0.41,0.80,0.20,2.98,-1.33,4.88,1.86,-2.91,2.56,1008.82
15.531,-0.39,0.87,0.19,2.98,-1.33,4.88,1.86,-2.91,2.56,1008.82
15.533,-0.39,1.02,0.19,2.98,-1.33,4.88,1.86,-2.91,2.56,1008.82
15.534,-0.39,1.02,0.19,2.98,-1.33,4.88,1.40,-2.13,4.03,1008.82
15.535,-0.39,1.02,0.19,0.18,0.61,5.05,1.40,-2.13,4.03,1008.82
15.536,-0.39,1.02,0.19,0.18,0.61,5.05,1.40,-2.13,4.03,1008.89
15.586,-0.39,1.14,0.19,0.18,0.61,5.05,1.40,-2.13,4.03,1008.89
15.587,-0.38,1.15,0.18,0.18,0.61,5.05,1.40,-2.13,4.03,1008.89
15.588,-0.31,1.17,0.16,0.18,0.61,5.05,1.40,-2.13,4.03,1008.89
15.588,-0.31,1.17,0.16,0.18,0.61,5.05,0.29,-2.26,4.93,1008.89
15.589,-0.31,1.17,0.16,-1.51,2.23,4.59,0.29,-2.26,4.93,1008.89
15.62,-0.31,1.17,0.16,-1.51,2.23,4.59,0.29,-2.26,4.93,1008.85
15.647,-0.31,1.17,0.16,-1.64,3.14,3.81,0.29,-2.26,4.93,1008.85
15.648,-0.20,1.24,0.18,-1.64,3.14,3.81,0.29,-2.26,4.93,1008.85
15.649,-0.11,1.30,0.17,-1.64,3.14,3.81,0.29,-2.26,4.93,1008.85
15.649,-0.08,1.31,0.12,-1.64,3.14,3.81,0.29,-2.26,4.93,1008.85
15.65,-0.08,1.31,0.12,-1.64,3.14,3.81,-0.69,-2.26,5.09,1008.85
15.654,-0.08,1.31,0.12,-1.64,3.14,3.81,-0.69,-2.26,5.09,1008.83
15.704,-0.01,1.34,0.09,-1.64,3.14,3.81,-0.69,-2.26,5.09,1008.83
15.705,0.02,1.31,0.03,-1.64,3.14,3.81,-0.69,-2.26,5.09,1008.83
15.705,-0.15,1.36,-0.05,-1.64,3.14,3.81,-0.69,-2.26,5.09,1008.83
15.706,-0.15,1.36,-0.05,-1.64,3.14,3.81,-1.12,-0.19,4.67,1008.83
15.706,-0.15,1.36,-0.05,-3.31,3.86,1.86,-1.12,-0.19,4.67,1008.83
15.734,-0.15,1.36,-0.05,-3.31,3.86,1.86,-1.12,-0.19,4.67,1008.82
15.762,-0.32,1.44,-0.11,-3.31,3.86,1.86,-1.12,-0.19,4.67,1008.82
15.763,-0.30,1.20,-0.17,-3.31,3.86,1.86,-1.12,-0.19,4.67,1008.82
15.764,-0.36,0.90,-0.12,-3.31,3.86,1.86,-1.12,-0.19,4.67,1008.82
15.764,-0.36,0.90,-0.12,-3.31,3.86,1.86,-0.92,1.65,2.83,1008.82
15.775,-0.36,0.90,-0.12,-7.47,2.85,-0.50,-0.92,1.65,2.83,1008.82
15.814,-0.36,0.90,-0.12,-7.47,2.85,-0.50,-0.92,1.65,2.83,1008.83
15.823,-0.57,0.90,-0.16,-7.47,2.85,-0.50,-0.92,1.65,2.83,1008.83
15.824,-0.71,0.90,-0.28,-7.47,2.85,-0.50,-0.92,1.65,2.83,1008.83
15.824,-0.66,0.83,-0.23,-7.47,2.85,-0.50,-0.92,1.65,2.83,1008.83
15.825,-0.66,0.83,-0.23,-7.47,2.85,-0.50,-0.52,1.06,-0.05,1008.83
15.826,-0.66,0.83,-0.23,-10.45,-0.14,-1.90,-0.52,1.06,-0.05,1008.83
15.854,-0.66,0.83,-0.23,-10.45,-0.14,-1.90,-0.52,1.06,-0.05,1008.83
15.879,-0.66,0.83,-0.23,-3.91,2.79,-3.87,-0.52,1.06,-0.05,1008.83
15.881,-0.70,0.90,-0.38,-3.91,2.79,-3.87,-0.52,1.06,-0.05,1008.83
15.881,-0.56,1.35,-0.81,-3.91,2.79,-3.87,-0.52,1.06,-0.05,1008.83
15.881,1.08,1.40,-0.15,-3.91,2.79,-3.87,-0.52,1.06,-0.05,1008.83
15.882,1.08,1.40,-0.15,-3.91,2.79,-3.87,-0.30,-1.36,-1.40,1008.83
15.934,1.08,1.40,-0.15,-3.91,2.79,-3.87,-0.30,-1.36,-1.40,1008.81
15.937,2.13,1.28,0.22,-3.91,2.79,-3.87,-0.30,-1.36,-1.40,1008.81
15.938,0.00,1.50,-0.12,-3.91,2.79,-3.87,-0.30,-1.36,-1.40,1008.81
15.938,-0.75,1.15,-0.63,-3.91,2.79,-3.87,-0.30,-1.36,-1.40,1008.81
15.939,-0.75,1.15,-0.63,-3.91,2.79,-3.87,-0.52,-1.66,-1.49,1008.81
15.939,-0.75,1.15,-0.63,2.03,3.39,-1.22,-0.52,-1.66,-1.49,1008.81
15.995,-0.13,0.72,0.14,2.03,3.39,-1.22,-0.52,-1.66,-1.49,1008.81
15.996,0.23,0.84,0.42,2.03,3.39,-1.22,-0.52,-1.66,-1.49,1008.81
15.997,0.33,1.09,0.08,2.03,3.39,-1.22,-0.52,-1.66,-1.49,1008.81
15.997,0.33,1.09,0.08,2.03,3.39,-1.22,-0.36,-0.06,-1.38,1008.81
15.998,0.33,1.09,0.08,-0.30,-0.94,2.34,-0.36,-0.06,-1.38,1008.81
16.014,0.33,1.09,0.08,-0.30,-0.94,2.34,-0.36,-0.06,-1.38,1008.83
16.053,-0.07,1.10,-0.03,-0.30,-0.94,2.34,-0.36,-0.06,-1.38,1008.83
16.054,-0.21,0.99,-0.02,-0.30,-0.94,2.34,-0.36,-0.06,-1.38,1008.83
16.054,0.11,1.00,0.01,-0.30,-0.94,2.34,-0.36,-0.06,-1.38,1008.83
16.055,0.11,1.00,0.01,-0.30,-0.94,2.34,-0.15,-0.14,-1.08,1008.83
16.055,0.11,1.00,0.01,-0.30,-0.94,2.34,-0.15,-0.14,-1.08,1008.85
16.06,0.11,1.00,0.01,-1.62,0.42,0.10,-0.15,-0.14,-1.08,1008.85
16.114,0.39,1.01,0.09,-1.62,0.42,0.10,-0.15,-0.14,-1.08,1008.85
16.114,0.29,0.98,0.14,-1.62,0.42,0.10,-0.15,-0.14,-1.08,1008.85
16.115,0.10,0.96,0.08,-1.62,0.42,0.10,-0.15,-0.14,-1.08,1008.85
16.115,0.10,0.96,0.08,2.02,-0.13,1.15,-0.15,-0.14,-1.08,1008.85
16.116,0.10,0.96,0.08,2.02,-0.13,1.15,-0.06,-0.02,-1.04,1008.85
16.144,0.10,0.96,0.08,2.02,-0.13,1.15,-0.06,-0.02,-1.04,1008.84
16.17,0.02,0.98,0.08,2.02,-0.13,1.15,-0.06,-0.02,-1.04,1008.84
16.172,-0.04,1.00,0.04,2.02,-0.13,1.15,-0.06,-0.02,-1.04,1008.84
16.172,-0.02,1.00,0.01,2.02,-0.13,1.15,-0.06,-0.02,-1.04,1008.84
16.173,-0.02,1.00,0.01,2.02,-0.13,1.15,0.08,0.04,-1.34,1008.84
16.174,-0.02,1.00,0.01,0.11,0.01,0.60,0.08,0.04,-1.34,1008.84
16.221,-0.02,1.00,0.01,0.11,0.01,0.60,0.08,0.04,-1.34,1008.85
16.256,0.02,1.00,0.01,0.11,0.01,0.60,0.08,0.04,-1.34,1008.85
16.256,-0.04,1.01,0.03,0.11,0.01,0.60,0.08,0.04,-1.34,1008.85
16.256,-0.18,1.03,-0.02,0.11,0.01,0.60,0.08,0.04,-1.34,1008.85
16.257,-0.18,1.03,-0.02,0.11,0.01,0.60,0.14,0.01,-1.43,1008.85
16.257,-0.18,1.03,-0.02,0.39,0.26,0.34,0.14,0.01,-1.43,1008.85
16.257,-0.18,1.03,-0.02,0.39,0.26,0.34,0.14,0.01,-1.43,1008.86
16.288,-0.23,1.02,-0.07,0.39,0.26,0.34,0.14,0.01,-1.43,1008.86
16.289,-0.23,1.01,-0.08,0.39,0.26,0.34,0.14,0.01,-1.43,1008.86
16.289,-0.26,0.99,-0.04,0.39,0.26,0.34,0.14,0.01,-1.43,1008.86
16.289,-0.26,0.99,-0.04,-0.54,0.29,-0.23,0.14,0.01,-1.43,1008.86
16.289,-0.26,0.99,-0.04,-0.54,0.29,-0.23,0.14,0.18,-1.32,1008.86
16.335,-0.26,0.99,-0.04,-0.54,0.29,-0.23,0.14,0.18,-1.32,1008.88
16.347,-0.28,0.98,-0.03,-0.54,0.29,-0.23,0.14,0.18,-1.32,1008.88
16.348,-0.25,0.96,-0.03,-0.54,0.29,-0.23,0.14,0.18,-1.32,1008.88
16.349,-0.24,0.98,-0.04,-0.54,0.29,-0.23,0.14,0.18,-1.32,1008.88
16.349,-0.24,0.98,-0.04,-0.54,0.29,-0.23,0.04,0.20,-1.10,1008.88
16.35,-0.24,0.98,-0.04,-0.10,0.10,0.07,0.04,0.20,-1.10,1008.88
16.405,-0.24,1.00,-0.05,-0.10,0.10,0.07,0.04,0.20,-1.10,1008.88
16.406,-0.23,1.03,-0.04,-0.10,0.10,0.07,0.04,0.20,-1.10,1008.88
16.406,-0.10,1.04,-0.01,-0.10,0.10,0.07,0.04,0.20,-1.10,1008.88
16.407,-0.10,1.04,-0.01,-0.10,0.10,0.07,-0.01,0.06,-1.11,1008.88
16.407,-0.10,1.04,-0.01,1.14,0.76,0.10,-0.01,0.06,-1.11,1008.88
16.414,-0.10,1.04,-0.01,1.14,0.76,0.10,-0.01,0.06,-1.11,1008.90
16.455,-0.10,1.04,-0.01,1.14,0.76,0.10,-0.01,0.06,-1.11,1008.90
16.461,-0.05,1.11,0.05,1.14,0.76,0.10,-0.01,0.06,-1.11,1008.90
16.462,-0.13,1.14,0.11,1.14,0.76,0.10,-0.01,0.06,-1.11,1008.90
16.462,-0.20,1.14,0.08,1.14,0.76,0.10,-0.01,0.06,-1.11,1008.90
16.462,-0.20,1.14,0.08,2.50,2.05,1.27,-0.01,0.06,-1.11,1008.90
16.463,-0.20,1.14,0.08,2.50,2.05,1.27,0.09,0.17,-1.55,1008.90
16.52,-0.19,1.11,-0.01,2.50,2.05,1.27,0.09,0.17,-1.55,1008.90
16.521,-0.13,1.18,-0.09,2.50,2.05,1.27,0.09,0.17,-1.55,1008.90
16.522,-0.01,1.49,-0.03,2.50,2.05,1.27,0.09,0.17,-1.55,1008.90
16.522,-0.01,1.49,-0.03,2.50,2.05,1.27,0.27,0.70,-1.83,1008.90
16.557,-0.01,1.49,-0.03,3.54,3.75,0.39,0.27,0.70,-1.83,1008.90
16.558,-0.01,1.49,-0.03,3.54,3.75,0.39,0.27,0.70,-1.83,1008.90
16.578,0.43,1.72,0.05,3.54,3.75,0.39,0.27,0.70,-1.83,1008.90
16.579,0.92,1.65,-0.17,3.54,3.75,0.39,0.27,0.70,-1.83,1008.90
16.579,1.03,1.42,-0.18,3.54,3.75,0.39,0.27,0.70,-1.83,1008.90
16.58,1.03,1.42,-0.18,3.54,3.75,0.39,0.30,1.58,-2.16,1008.90
16.58,1.03,1.42,-0.18,13.14,7.58,0.44,0.30,1.58,-2.16,1008.90
16.614,1.03,1.42,-0.18,13.14,7.58,0.44,0.30,1.58,-2.16,1008.87
16.638,0.18,1.13,-0.09,13.14,7.58,0.44,0.30,1.58,-2.16,1008.87
16.639,-0.93,1.23,-0.21,13.14,7.58,0.44,0.30,1.58,-2.16,1008.87
16.639,-1.37,1.31,-0.34,13.14,7.58,0.44,0.30,1.58,-2.16,1008.87
16.639,-1.37,1.31,-0.34,13.14,7.58,0.44,0.40,3.45,-4.36,1008.87
16.64,-1.37,1.31,-0.34,-0.12,5.39,0.68,0.40,3.45,-4.36,1008.87
16.654,-1.37,1.31,-0.34,-0.12,5.39,0.68,0.40,3.45,-4.36,1008.87
16.696,-1.17,0.97,-0.39,-0.12,5.39,0.68,0.40,3.45,-4.36,1008.87
16.697,-0.96,0.59,-0.41,-0.12,5.39,0.68,0.40,3.45,-4.36,1008.87
16.697,-0.73,0.51,-0.40,-0.12,5.39,0.68,0.40,3.45,-4.36,1008.87
16.698,-0.73,0.51,-0.40,-2.01,0.83,-0.94,0.40,3.45,-4.36,1008.87
16.698,-0.73,0.51,-0.40,-2.01,0.83,-0.94,-0.61,0.97,-1.88,1008.87
16.741,-0.73,0.51,-0.40,-2.01,0.83,-0.94,-0.61,0.97,-1.88,1008.86
16.753,-0.41,0.27,-0.35,-2.01,0.83,-0.94,-0.61,0.97,-1.88,1008.86
16.754,-0.07,0.06,-0.22,-2.01,0.83,-0.94,-0.61,0.97,-1.88,1008.86
16.754,0.02,0.09,-0.36,-2.01,0.83,-0.94,-0.61,0.97,-1.88,1008.86
16.755,0.02,0.09,-0.36,-2.01,0.83,-0.94,-2.03,-0.75,1.66,1008.86
16.755,0.02,0.09,-0.36,5.23,-5.41,-1.07,-2.03,-0.75,1.66,1008.86
16.813,-0.03,0.25,-0.43,5.23,-5.41,-1.07,-2.03,-0.75,1.66,1008.86
16.813,-0.15,0.38,-0.47,5.23,-5.41,-1.07,-2.03,-0.75,1.66,1008.86
16.814,-0.28,0.43,-0.47,5.23,-5.41,-1.07,-2.03,-0.75,1.66,1008.86
16.818,-0.28,0.43,-0.47,3.81,-4.55,-3.30,-2.03,-0.75,1.66,1008.86
16.819,-0.28,0.43,-0.47,3.81,-4.55,-3.30,-1.92,0.07,3.14,1008.86
16.819,-0.28,0.43,-0.47,3.81,-4.55,-3.30,-1.92,0.07,3.14,1008.84
16.855,-0.28,0.43,-0.47,3.81,-4.55,-3.30,-1.92,0.07,3.14,1008.88
16.872,-0.28,0.43,-0.47,1.04,-3.23,-4.13,-1.92,0.07,3.14,1008.88
16.874,-0.22,0.47,-0.49,1.04,-3.23,-4.13,-1.92,0.07,3.14,1008.88
16.874,-0.16,0.59,-0.55,1.04,-3.23,-4.13,-1.92,0.07,3.14,1008.88
16.875,-0.17,0.75,-0.52,1.04,-3.23,-4.13,-1.92,0.07,3.14,1008.88
16.875,-0.17,0.75,-0.52,1.04,-3.23,-4.13,-1.54,1.94,4.58,1008.88
16.932,-0.25,0.95,-0.48,1.04,-3.23,-4.13,-1.54,1.94,4.58,1008.88
16.933,-0.31,1.17,-0.46,1.04,-3.23,-4.13,-1.54,1.94,4.58,1008.88
16.933,-0.38,1.44,-0.46,1.04,-3.23,-4.13,-1.54,1.94,4.58,1008.88
16.934,-0.38,1.44,-0.46,1.04,-3.23,-4.13,-1.51,2.65,5.21,1008.88
16.934,-0.38,1.44,-0.46,-3.16,1.99,-4.22,-1.51,2.65,5.21,1008.88
16.936,-0.38,1.44,-0.46,-3.16,1.99,-4.22,-1.51,2.65,5.21,1008.86
16.987,-0.42,1.67,-0.44,-3.16,1.99,-4.22,-1.51,2.65,5.21,1008.86
16.988,-0.46,1.73,-0.32,-3.16,1.99,-4.22,-1.51,2.65,5.21,1008.86
16.989,-0.34,1.55,-0.18,-3.16,1.99,-4.22,-1.51,2.65,5.21,1008.86
16.989,-0.34,1.55,-0.18,-3.16,1.99,-4.22,-1.47,2.98,5.24,1008.86
16.99,-0.34,1.55,-0.18,-6.85,6.90,-3.73,-1.47,2.98,5.24,1008.86
17.014,-0.34,1.55,-0.18,-6.85,6.90,-3.73,-1.47,2.98,5.24,1008.83
17.045,-0.22,1.23,-0.10,-6.85,6.90,-3.73,-1.47,2.98,5.24,1008.83
17.046,-0.63,1.01,-0.27,-6.85,6.90,-3.73,-1.47,2.98,5.24,1008.83
17.046,-0.98,0.81,-0.37,-6.85,6.90,-3.73,-1.47,2.98,5.24,1008.83
17.046,-0.98,0.81,-0.37,-6.85,6.90,-3.73,-0.55,2.21,1.83,1008.83
17.046,-0.98,0.81,-0.37,-9.49,1.06,-3.71,-0.55,2.21,1.83,1008.83
17.055,-0.98,0.81,-0.37,-9.49,1.06,-3.71,-0.55,2.21,1.83,1008.80
17.105,-1.03,0.68,-0.21,-9.49,1.06,-3.71,-0.55,2.21,1.83,1008.80
17.106,-0.83,1.03,-0.39,-9.49,1.06,-3.71,-0.55,2.21,1.83,1008.80
17.106,0.10,1.80,-0.08,-9.49,1.06,-3.71,-0.55,2.21,1.83,1008.80
17.107,0.10,1.80,-0.08,-9.49,1.06,-3.71,0.13,-1.02,-1.26,1008.80
17.107,0.10,1.80,-0.08,-8.51,2.26,-3.22,0.13,-1.02,-1.26,1008.80
17.135,0.10,1.80,-0.08,-8.51,2.26,-3.22,0.13,-1.02,-1.26,1008.81
17.162,2.31,1.30,1.21,-8.51,2.26,-3.22,0.13,-1.02,-1.26,1008.81
17.163,0.74,0.98,-0.21,-8.51,2.26,-3.22,0.13,-1.02,-1.26,1008.81
17.163,-0.52,1.41,-0.88,-8.51,2.26,-3.22,0.13,-1.02,-1.26,1008.81
17.164,-0.52,1.41,-0.88,-8.51,2.26,-3.22,-0.26,-2.17,-1.06,1008.81
17.164,-0.52,1.41,-0.88,5.86,2.69,-0.40,-0.26,-2.17,-1.06,1008.81
17.216,-0.52,1.41,-0.88,5.86,2.69,-0.40,-0.26,-2.17,-1.06,1008.84
17.221,0.08,0.98,0.22,5.86,2.69,-0.40,-0.26,-2.17,-1.06,1008.84
17.222,0.08,0.88,0.07,5.86,2.69,-0.40,-0.26,-2.17,-1.06,1008.84
17.222,-0.24,1.02,0.12,5.86,2.69,-0.40,-0.26,-2.17,-1.06,1008.84
17.223,-0.24,1.02,0.12,5.86,2.69,-0.40,-0.01,0.78,-1.88,1008.84
17.223,-0.24,1.02,0.12,-1.56,-0.19,0.43,-0.01,0.78,-1.88,1008.84
17.257,-0.24,1.02,0.12,-1.56,-0.19,0.43,-0.01,0.78,-1.88,1008.86
17.279,-0.50,1.11,0.17,-1.56,-0.19,0.43,-0.01,0.78,-1.88,1008.86
17.279,-0.15,1.06,0.09,-1.56,-0.19,0.43,-0.01,0.78,-1.88,1008.86
17.28,0.41,0.95,0.12,-1.56,-0.19,0.43,-0.01,0.78,-1.88,1008.86
17.28,0.41,0.95,0.12,-1.55,0.55,0.39,-0.01,0.78,-1.88,1008.86
17.281,0.41,0.95,0.12,-1.55,0.55,0.39,0.08,-0.30,-0.89,1008.86
17.334,0.41,0.95,0.12,-1.55,0.55,0.39,0.08,-0.30,-0.89,1008.89
17.338,0.51,0.97,0.08,-1.55,0.55,0.39,0.08,-0.30,-0.89,1008.89
17.338,-0.01,1.03,0.13,-1.55,0.55,0.39,0.08,-0.30,-0.89,1008.89
17.339,-0.36,1.04,0.07,-1.55,0.55,0.39,0.08,-0.30,-0.89,1008.89
17.339,-0.36,1.04,0.07,-1.55,0.55,0.39,0.16,0.36,-1.16,1008.89
17.339,-0.36,1.04,0.07,0.34,0.22,0.14,0.16,0.36,-1.16,1008.89
17.397,-0.28,0.99,0.09,0.34,0.22,0.14,0.16,0.36,-1.16,1008.89
17.398,-0.04,1.00,0.10,0.34,0.22,0.14,0.16,0.36,-1.16,1008.89
17.398,0.09,1.03,0.11,0.34,0.22,0.14,0.16,0.36,-1.16,1008.89
17.399,0.09,1.03,0.11,0.34,0.22,0.14,0.15,0.03,-0.69,1008.89
17.399,0.09,1.03,0.11,-0.51,0.16,0.28,0.15,0.03,-0.69,1008.89
17.415,0.09,1.03,0.11,-0.51,0.16,0.28,0.15,0.03,-0.69,1008.88
17.454,0.07,1.01,0.10,-0.51,0.16,0.28,0.15,0.03,-0.69,1008.88
17.456,-0.02,0.99,0.09,-0.51,0.16,0.28,0.15,0.03,-0.69,1008.88
17.457,-0.09,0.98,0.10,-0.51,0.16,0.28,0.15,0.03,-0.69,1008.88
17.458,-0.09,0.98,0.10,-0.51,0.16,0.28,0.17,0.28,-0.81,1008.88
17.459,-0.09,0.98,0.10,-0.51,0.16,0.28,0.17,0.28,-0.81,1008.86
17.461,-0.09,0.98,0.10,0.62,0.03,0.35,0.17,0.28,-0.81,1008.86
17.514,-0.11,0.98,0.09,0.62,0.03,0.35,0.17,0.28,-0.81,1008.86
17.515,-0.10,1.01,0.10,0.62,0.03,0.35,0.17,0.28,-0.81,1008.86
17.516,-0.07,1.00,0.07,0.62,0.03,0.35,0.17,0.28,-0.81,1008.86
17.516,-0.07,1.00,0.07,0.62,0.03,0.35,0.17,0.27,-0.87,1008.86
17.516,-0.07,1.00,0.07,0.35,0.11,0.38,0.17,0.27,-0.87,1008.86
17.534,-0.07,1.00,0.07,0.35,0.11,0.38,0.17,0.27,-0.87,1008.86
17.571,-0.08,1.00,0.03,0.35,0.11,0.38,0.17,0.27,-0.87,1008.86
17.573,-0.15,0.99,0.01,0.35,0.11,0.38,0.17,0.27,-0.87,1008.86
17.573,-0.24,1.00,-0.02,0.35,0.11,0.38,0.17,0.27,-0.87,1008.86
17.573,-0.24,1.00,-0.02,0.35,0.11,0.38,0.11,0.30,-1.02,1008.86
17.574,-0.24,1.00,-0.02,0.26,0.19,-0.31,0.11,0.30,-1.02,1008.86
17.615,-0.24,1.00,-0.02,0.26,0.19,-0.31,0.11,0.30,-1.02,1008.86
17.629,-0.25,1.01,0.03,0.26,0.19,-0.31,0.11,0.30,-1.02,1008.86
17.63,-0.23,1.02,0.06,0.26,0.19,-0.31,0.11,0.30,-1.02,1008.86
17.63,-0.11,1.03,0.08,0.26,0.19,-0.31,0.11,0.30,-1.02,1008.86
17.63,-0.11,1.03,0.08,0.43,0.53,0.19,0.11,0.30,-1.02,1008.86
17.631,-0.11,1.03,0.08,0.43,0.53,0.19,0.01,0.26,-0.98,1008.86
17.655,-0.11,1.03,0.08,0.43,0.53,0.19,0.01,0.26,-0.98,1008.85
17.696,-0.00,1.06,0.11,0.43,0.53,0.19,0.01,0.26,-0.98,1008.85
17.696,-0.03,1.09,0.09,0.43,0.53,0.19,0.01,0.26,-0.98,1008.85
17.697,-0.18,1.06,0.05,0.43,0.53,0.19,0.01,0.26,-0.98,1008.85
17.697,-0.18,1.06,0.05,0.43,0.53,0.19,0.06,0.27,-1.33,1008.85
17.698,-0.18,1.06,0.05,2.34,1.24,0.54,0.06,0.27,-1.33,1008.85
17.734,-0.18,1.06,0.05,2.34,1.24,0.54,0.06,0.27,-1.33,1008.85
17.759,-0.32,1.05,0.01,2.34,1.24,0.54,0.06,0.27,-1.33,1008.85
17.76,-0.34,1.11,0.03,2.34,1.24,0.54,0.06,0.27,-1.33,1008.85
17.76,-0.24,1.27,0.04,2.34,1.24,0.54,0.06,0.27,-1.33,1008.85
17.761,-0.24,1.27,0.04,2.34,1.24,0.54,0.10,0.80,-1.59,1008.85
17.762,-0.24,1.27,0.04,0.92,2.20,0.17,0.10,0.80,-1.59,1008.85
17.804,0.01,1.41,0.04,0.92,2.20,0.17,0.10,0.80,-1.59,1008.85
17.805,0.36,1.50,0.07,0.92,2.20,0.17,0.10,0.80,-1.59,1008.85
17.805,0.57,1.55,-0.04,0.92,2.20,0.17,0.10,0.80,-1.59,1008.85
17.806,0.57,1.55,-0.04,0.92,2.20,0.17,0.03,1.14,-1.75,1008.85
17.806,0.57,1.55,-0.04,7.69,5.93,0.44,0.03,1.14,-1.75,1008.85
17.814,0.57,1.55,-0.04,7.69,5.93,0.44,0.03,1.14,-1.75,1008.86
17.862,0.57,1.55,-0.04,7.69,5.93,0.44,0.03,1.14,-1.75,1008.87
17.863,0.55,1.53,-0.12,7.69,5.93,0.44,0.03,1.14,-1.75,1008.87
17.864,0.39,1.28,-0.16,7.69,5.93,0.44,0.03,1.14,-1.75,1008.87
17.864,-0.27,0.91,-0.29,7.69,5.93,0.44,0.03,1.14,-1.75,1008.87
17.865,-0.27,0.91,-0.29,7.69,5.93,0.44,-0.30,3.68,-2.89,1008.87
17.865,-0.27,0.91,-0.29,7.94,4.30,-0.61,-0.30,3.68,-2.89,1008.87
17.92,-0.87,0.85,-0.38,7.94,4.30,-0.61,-0.30,3.68,-2.89,1008.87
17.921,-1.03,0.82,-0.43,7.94,4.30,-0.61,-0.30,3.68,-2.89,1008.87
17.921,-0.94,0.66,-0.53,7.94,4.30,-0.61,-0.30,3.68,-2.89,1008.87
17.922,-0.94,0.66,-0.53,7.94,4.30,-0.61,-0.26,4.70,-3.43,1008.87
17.923,-0.94,0.66,-0.53,-2.60,0.98,-1.53,-0.26,4.70,-3.43,1008.87
17.948,-0.94,0.66,-0.53,-2.60,0.98,-1.53,-0.26,4.70,-3.43,1008.89
17.978,-0.80,0.47,-0.56,-2.60,0.98,-1.53,-0.26,4.70,-3.43,1008.89
17.979,-0.68,0.44,-0.49,-2.60,0.98,-1.53,-0.26,4.70,-3.43,1008.89
17.979,-0.46,0.27,-0.49,-2.60,0.98,-1.53,-0.26,4.70,-3.43,1008.89
17.979,-0.46,0.27,-0.49,-2.60,0.98,-1.53,-1.92,2.01,-1.25,1008.89
17.98,-0.46,0.27,-0.49,0.45,-2.60,-2.06,-1.92,2.01,-1.25,1008.89
18.015,-0.46,0.27,-0.49,0.45,-2.60,-2.06,-1.92,2.01,-1.25,1008.88
18.037,-0.15,0.19,-0.60,0.45,-2.60,-2.06,-1.92,2.01,-1.25,1008.88
18.037,0.06,0.12,-0.54,0.45,-2.60,-2.06,-1.92,2.01,-1.25,1008.88
18.037,-0.01,0.30,-0.58,0.45,-2.60,-2.06,-1.92,2.01,-1.25,1008.88
18.038,-0.01,0.30,-0.58,0.45,-2.60,-2.06,-2.67,0.60,1.36,1008.88
18.038,-0.01,0.30,-0.58,5.73,-5.31,-3.41,-2.67,0.60,1.36,1008.88
18.054,-0.01,0.30,-0.58,5.73,-5.31,-3.41,-2.67,0.60,1.36,1008.86
18.096,-0.01,0.30,-0.58,3.62,-2.54,-4.12,-2.67,0.60,1.36,1008.86
18.097,-0.12,0.51,-0.65,3.62,-2.54,-4.12,-2.67,0.60,1.36,1008.86
18.098,-0.12,0.63,-0.58,3.62,-2.54,-4.12,-2.67,0.60,1.36,1008.86
18.098,-0.05,0.65,-0.47,3.62,-2.54,-4.12,-2.67,0.60,1.36,1008.86
18.099,-0.05,0.65,-0.47,3.62,-2.54,-4.12,-2.61,1.27,2.77,1008.86
18.14,-0.05,0.65,-0.47,3.62,-2.54,-4.12,-2.61,1.27,2.77,1008.87
18.153,-0.01,0.65,-0.56,3.62,-2.54,-4.12,-2.61,1.27,2.77,1008.87
18.153,-0.03,0.80,-0.61,3.62,-2.54,-4.12,-2.61,1.27,2.77,1008.87
18.154,-0.06,1.05,-0.54,3.62,-2.54,-4.12,-2.61,1.27,2.77,1008.87
18.154,-0.06,1.05,-0.54,3.62,-2.54,-4.12,-1.61,2.87,3.91,1008.87
18.155,-0.06,1.05,-0.54,1.95,-1.08,-4.30,-1.61,2.87,3.91,1008.87
18.213,-0.14,1.24,-0.50,1.95,-1.08,-4.30,-1.61,2.87,3.91,1008.87
18.213,-0.29,1.38,-0.46,1.95,-1.08,-4.30,-1.61,2.87,3.91,1008.87
18.213,-0.38,1.46,-0.44,1.95,-1.08,-4.30,-1.61,2.87,3.91,1008.87
18.214,-0.38,1.46,-0.44,1.95,-1.08,-4.30,-1.47,2.54,4.46,1008.87
18.214,-0.38,1.46,-0.44,-2.91,3.66,-3.91,-1.47,2.54,4.46,1008.87
18.214,-0.38,1.46,-0.44,-2.91,3.66,-3.91,-1.47,2.54,4.46,1008.88
18.254,-0.38,1.46,-0.44,-2.91,3.66,-3.91,-1.47,2.54,4.46,1008.86
18.27,-0.33,1.44,-0.37,-2.91,3.66,-3.91,-1.47,2.54,4.46,1008.86
18.271,-0.21,1.35,-0.27,-2.91,3.66,-3.91,-1.47,2.54,4.46,1008.86
18.271,0.02,1.21,-0.15,-2.91,3.66,-3.91,-1.47,2.54,4.46,1008.86
18.271,0.02,1.21,-0.15,-4.50,3.72,-2.66,-1.47,2.54,4.46,1008.86
18.272,0.02,1.21,-0.15,-4.50,3.72,-2.66,-1.42,0.67,4.68,1008.86
18.328,0.14,1.06,-0.09,-4.50,3.72,-2.66,-1.42,0.67,4.68,1008.86
18.329,-0.08,0.98,-0.12,-4.50,3.72,-2.66,-1.42,0.67,4.68,1008.86
18.33,-0.28,0.82,-0.14,-4.50,3.72,-2.66,-1.42,0.67,4.68,1008.86
18.33,-0.28,0.82,-0.14,-4.50,3.72,-2.66,-0.40,-0.25,2.54,1008.86
18.33,-0.28,0.82,-0.14,-4.79,0.52,-1.37,-0.40,-0.25,2.54,1008.86
18.336,-0.28,0.82,-0.14,-4.79,0.52,-1.37,-0.40,-0.25,2.54,1008.83
18.387,-0.28,0.72,-0.17,-4.79,0.52,-1.37,-0.40,-0.25,2.54,1008.83
18.388,-0.35,0.91,-0.11,-4.79,0.52,-1.37,-0.40,-0.25,2.54,1008.83
18.388,-0.36,1.08,0.08,-4.79,0.52,-1.37,-0.40,-0.25,2.54,1008.83
18.389,-0.36,1.08,0.08,-4.79,0.52,-1.37,0.26,-0.91,-0.53,1008.83
18.389,-0.36,1.08,0.08,-6.91,-0.07,-0.53,0.26,-0.91,-0.53,1008.83
18.415,-0.36,1.08,0.08,-6.91,-0.07,-0.53,0.26,-0.91,-0.53,1008.86
18.445,-0.11,1.16,0.25,-6.91,-0.07,-0.53,0.26,-0.91,-0.53,1008.86
18.446,1.13,1.16,0.59,-6.91,-0.07,-0.53,0.26,-0.91,-0.53,1008.86
18.446,1.51,1.13,0.57,-6.91,-0.07,-0.53,0.26,-0.91,-0.53,1008.86
18.447,1.51,1.13,0.57,-6.91,-0.07,-0.53,-0.29,-0.04,-0.91,1008.86
18.447,1.51,1.13,0.57,4.98,2.12,4.50,-0.29,-0.04,-0.91,1008.86
18.457,1.51,1.13,0.57,4.98,2.12,4.50,-0.29,-0.04,-0.91,1008.86
18.504,0.02,1.34,0.15,4.98,2.12,4.50,-0.29,-0.04,-0.91,1008.86
18.504,-0.51,1.33,-0.72,4.98,2.12,4.50,-0.29,-0.04,-0.91,1008.86
18.505,-0.10,1.18,-0.84,4.98,2.12,4.50,-0.29,-0.04,-0.91,1008.86
18.505,-0.10,1.18,-0.84,4.98,2.12,4.50,0.29,0.85,-2.21,1008.86
18.506,-0.10,1.18,-0.84,-3.97,3.02,-4.57,0.29,0.85,-2.21,1008.86
18.534,-0.10,1.18,-0.84,-3.97,3.02,-4.57,0.29,0.85,-2.21,1008.87
18.561,0.03,1.00,-0.11,-3.97,3.02,-4.57,0.29,0.85,-2.21,1008.87
18.562,-0.15,0.92,0.39,-3.97,3.02,-4.57,0.29,0.85,-2.21,1008.87
18.562,-0.33,1.02,0.28,-3.97,3.02,-4.57,0.29,0.85,-2.21,1008.87
18.562,-0.33,1.02,0.28,-3.97,3.02,-4.57,-0.39,-0.46,-1.46,1008.87
18.563,-0.33,1.02,0.28,-2.65,-0.09,1.62,-0.39,-0.46,-1.46,1008.87
18.615,-0.33,1.02,0.28,-2.65,-0.09,1.62,-0.39,-0.46,-1.46,1008.82
18.62,-0.10,1.04,0.18,-2.65,-0.09,1.62,-0.39,-0.46,-1.46,1008.82
18.621,0.34,0.94,0.14,-2.65,-0.09,1.62,-0.39,-0.46,-1.46,1008.82
18.621,0.48,0.98,-0.03,-2.65,-0.09,1.62,-0.39,-0.46,-1.46,1008.82
18.622,0.48,0.98,-0.03,-2.65,-0.09,1.62,0.04,-0.17,-0.65,1008.82
18.622,0.48,0.98,-0.03,1.51,-0.04,0.77,0.04,-0.17,-0.65,1008.82
18.656,0.48,0.98,-0.03,1.51,-0.04,0.77,0.04,-0.17,-0.65,1008.83
18.679,0.16,1.07,-0.03,1.51,-0.04,0.77,0.04,-0.17,-0.65,1008.83
18.68,-0.17,1.07,0.02,1.51,-0.04,0.77,0.04,-0.17,-0.65,1008.83
18.68,-0.12,0.98,0.08,1.51,-0.04,0.77,0.04,-0.17,-0.65,1008.83
18.68,-0.12,0.98,0.08,1.51,-0.04,0.77,0.11,0.27,-1.14,1008.83
18.681,-0.12,0.98,0.08,-0.59,0.43,0.10,0.11,0.27,-1.14,1008.83
18.734,-0.12,0.98,0.08,-0.59,0.43,0.10,0.11,0.27,-1.14,1008.83
18.738,0.09,0.94,0.14,-0.59,0.43,0.10,0.11,0.27,-1.14,1008.83
18.738,0.11,0.98,0.07,-0.59,0.43,0.10,0.11,0.27,-1.14,1008.83
