time,gFx,gFy,gFz,ax,ay,az,wx,wy,wz,P
0.001,0.04,0.78,0.66,0.03,-0.02,0.02,0.01,0.02,-0.01,1008.81
0.009,0.04,0.78,0.68,0.03,-0.02,0.02,0.01,0.02,-0.01,1008.81
0.009,0.04,0.79,0.66,0.03,-0.02,0.02,0.01,0.02,-0.01,1008.81
0.009,0.04,0.77,0.67,0.03,-0.02,0.02,0.01,0.02,-0.01,1008.81
0.009,0.04,0.77,0.67,-0.01,-0.03,0.10,0.01,0.02,-0.01,1008.81
0.01,0.04,0.77,0.67,-0.01,-0.03,0.10,0.03,-0.03,0.01,1008.81
0.065,0.06,0.76,0.65,-0.01,-0.03,0.10,0.03,-0.03,0.01,1008.81
0.066,0.06,0.80,0.66,-0.01,-0.03,0.10,0.03,-0.03,0.01,1008.81
0.066,0.05,0.79,0.65,-0.01,-0.03,0.10,0.03,-0.03,0.01,1008.81
0.066,0.05,0.79,0.65,-0.01,-0.03,0.10,0.04,-0.03,0.03,1008.81
0.067,0.05,0.79,0.65,0.11,0.02,-0.03,0.04,-0.03,0.03,1008.81
0.081,0.05,0.79,0.65,0.11,0.02,-0.03,0.04,-0.03,0.03,1008.81
0.119,0.05,0.79,0.65,0.11,0.02,-0.03,0.04,-0.03,0.03,1008.80
0.124,0.05,0.79,0.65,0.32,-0.16,-0.12,0.04,-0.03,0.03,1008.80
0.124,0.05,0.78,0.64,0.32,-0.16,-0.12,0.04,-0.03,0.03,1008.80
0.125,0.08,0.77,0.64,0.32,-0.16,-0.12,0.04,-0.03,0.03,1008.80
0.125,0.11,0.76,0.65,0.32,-0.16,-0.12,0.04,-0.03,0.03,1008.80
0.125,0.11,0.76,0.65,0.32,-0.16,-0.12,0.05,0.01,0.05,1008.80
0.182,0.11,0.76,0.66,0.32,-0.16,-0.12,0.05,0.01,0.05,1008.80
0.183,0.11,0.76,0.65,0.32,-0.16,-0.12,0.05,0.01,0.05,1008.80
0.183,0.14,0.77,0.65,0.32,-0.16,-0.12,0.05,0.01,0.05,1008.80
0.183,0.14,0.77,0.65,0.32,-0.16,-0.12,0.04,0.15,0.11,1008.80
0.184,0.14,0.77,0.65,0.71,-0.22,0.04,0.04,0.15,0.11,1008.80
0.198,0.14,0.77,0.65,0.71,-0.22,0.04,0.04,0.15,0.11,1008.80
0.241,0.14,0.77,0.65,1.42,-0.33,0.05,0.04,0.15,0.11,1008.80
0.242,0.19,0.76,0.66,1.42,-0.33,0.05,0.04,0.15,0.11,1008.80
0.242,0.20,0.75,0.66,1.42,-0.33,0.05,0.04,0.15,0.11,1008.80
0.243,0.21,0.74,0.64,1.42,-0.33,0.05,0.04,0.15,0.11,1008.80
0.243,0.21,0.74,0.64,1.42,-0.33,0.05,0.03,0.30,0.38,1008.80
0.281,0.21,0.74,0.64,1.42,-0.33,0.05,0.03,0.30,0.38,1008.79
0.299,0.22,0.75,0.63,1.42,-0.33,0.05,0.03,0.30,0.38,1008.79
0.299,0.19,0.79,0.60,1.42,-0.33,0.05,0.03,0.30,0.38,1008.79
0.3,0.17,0.82,0.57,1.42,-0.33,0.05,0.03,0.30,0.38,1008.79
0.3,0.17,0.82,0.57,1.42,-0.33,0.05,0.13,0.55,0.73,1008.79
0.3,0.17,0.82,0.57,1.20,0.02,-0.44,0.13,0.55,0.73,1008.79
0.319,0.17,0.82,0.57,1.20,0.02,-0.44,0.13,0.55,0.73,1008.78
0.357,0.17,0.82,0.57,0.48,0.69,-0.92,0.13,0.55,0.73,1008.78
0.358,0.14,0.86,0.55,0.48,0.69,-0.92,0.13,0.55,0.73,1008.78
0.358,0.14,0.87,0.53,0.48,0.69,-0.92,0.13,0.55,0.73,1008.78
0.359,0.14,0.86,0.54,0.48,0.69,-0.92,0.13,0.55,0.73,1008.78
0.359,0.14,0.86,0.54,0.48,0.69,-0.92,0.26,0.62,0.88,1008.78
0.399,0.14,0.86,0.54,0.48,0.69,-0.92,0.26,0.62,0.88,1008.79
0.415,0.09,0.85,0.53,0.48,0.69,-0.92,0.26,0.62,0.88,1008.79
0.416,0.05,0.85,0.53,0.48,0.69,-0.92,0.26,0.62,0.88,1008.79
0.416,0.07,0.81,0.53,0.48,0.69,-0.92,0.26,0.62,0.88,1008.79
0.417,0.07,0.81,0.53,0.48,0.69,-0.92,0.23,0.66,0.80,1008.79
0.417,0.07,0.81,0.53,-0.28,0.39,-0.96,0.23,0.66,0.80,1008.79
0.474,0.07,0.81,0.53,-0.35,-0.54,-1.20,0.23,0.66,0.80,1008.79
0.475,0.07,0.75,0.52,-0.35,-0.54,-1.20,0.23,0.66,0.80,1008.79
0.475,0.07,0.75,0.48,-0.35,-0.54,-1.20,0.23,0.66,0.80,1008.79
0.475,0.11,0.75,0.47,-0.35,-0.54,-1.20,0.23,0.66,0.80,1008.79
0.476,0.11,0.75,0.47,-0.35,-0.54,-1.20,0.28,0.41,0.71,1008.79
0.478,0.11,0.75,0.47,-0.35,-0.54,-1.20,0.28,0.41,0.71,1008.79
0.52,0.11,0.75,0.47,-0.35,-0.54,-1.20,0.28,0.41,0.71,1008.80
0.533,0.15,0.73,0.47,-0.35,-0.54,-1.20,0.28,0.41,0.71,1008.80
0.535,0.14,0.72,0.43,-0.35,-0.54,-1.20,0.28,0.41,0.71,1008.80
0.536,0.14,0.71,0.41,-0.35,-0.54,-1.20,0.28,0.41,0.71,1008.80
0.538,0.14,0.71,0.41,-0.35,-0.54,-1.20,0.40,0.26,0.59,1008.80
0.539,0.14,0.71,0.41,0.06,-0.91,-1.53,0.40,0.26,0.59,1008.80
0.595,0.13,0.69,0.34,0.06,-0.91,-1.53,0.40,0.26,0.59,1008.80
0.598,0.04,0.67,0.24,0.06,-0.91,-1.53,0.40,0.26,0.59,1008.80
0.599,-0.09,0.68,0.12,0.06,-0.91,-1.53,0.40,0.26,0.59,1008.80
0.6,-0.09,0.68,0.12,-1.32,-1.32,-3.29,0.40,0.26,0.59,1008.80
0.602,-0.09,0.68,0.12,-1.32,-1.32,-3.29,0.35,-0.05,0.47,1008.80
0.603,-0.09,0.68,0.12,-1.32,-1.32,-3.29,0.35,-0.05,0.47,1008.80
0.65,-0.19,0.71,0.13,-1.32,-1.32,-3.29,0.35,-0.05,0.47,1008.80
0.652,-0.32,0.78,0.14,-1.32,-1.32,-3.29,0.35,-0.05,0.47,1008.80
0.653,-0.29,0.90,0.18,-1.32,-1.32,-3.29,0.35,-0.05,0.47,1008.80
0.654,-0.29,0.90,0.18,-1.32,-1.32,-3.29,-0.57,-2.80,0.73,1008.80
0.655,-0.29,0.90,0.18,-5.33,0.10,-3.96,-0.57,-2.80,0.73,1008.80
0.679,-0.29,0.90,0.18,-5.33,0.10,-3.96,-0.57,-2.80,0.73,1008.81
0.707,-0.12,0.89,0.50,-5.33,0.10,-3.96,-0.57,-2.80,0.73,1008.81
0.71,0.51,0.69,0.52,-5.33,0.10,-3.96,-0.57,-2.80,0.73,1008.81
0.71,1.40,0.58,0.49,-5.33,0.10,-3.96,-0.57,-2.80,0.73,1008.81
0.711,1.40,0.58,0.49,-5.33,0.10,-3.96,-0.75,-7.66,0.90,1008.81
0.713,1.40,0.58,0.49,0.58,-0.25,0.97,-0.75,-7.66,0.90,1008.81
0.72,1.40,0.58,0.49,0.58,-0.25,0.97,-0.75,-7.66,0.90,1008.87
0.767,1.69,0.57,0.52,0.58,-0.25,0.97,-0.75,-7.66,0.90,1008.87
0.769,0.96,0.70,0.39,0.58,-0.25,0.97,-0.75,-7.66,0.90,1008.87
0.77,0.54,0.76,0.44,0.58,-0.25,0.97,-0.75,-7.66,0.90,1008.87
0.771,0.54,0.76,0.44,0.58,-0.25,0.97,0.92,-1.40,-0.75,1008.87
0.772,0.54,0.76,0.44,5.09,-1.10,1.28,0.92,-1.40,-0.75,1008.87
0.799,0.54,0.76,0.44,5.09,-1.10,1.28,0.92,-1.40,-0.75,1008.90
0.824,0.47,0.74,0.54,5.09,-1.10,1.28,0.92,-1.40,-0.75,1008.90
0.826,0.51,0.77,0.58,5.09,-1.10,1.28,0.92,-1.40,-0.75,1008.90
0.828,0.46,0.77,0.54,5.09,-1.10,1.28,0.92,-1.40,-0.75,1008.90
0.828,0.46,0.77,0.54,5.09,-1.10,1.28,0.82,1.86,-0.69,1008.90
0.829,0.46,0.77,0.54,0.03,-0.59,2.10,0.82,1.86,-0.69,1008.90
0.88,0.46,0.77,0.54,0.03,-0.59,2.10,0.82,1.86,-0.69,1008.93
0.889,0.37,0.74,0.52,0.03,-0.59,2.10,0.82,1.86,-0.69,1008.93
0.89,0.31,0.74,0.53,0.03,-0.59,2.10,0.82,1.86,-0.69,1008.93
0.89,0.29,0.83,0.50,0.03,-0.59,2.10,0.82,1.86,-0.69,1008.93
0.891,0.29,0.83,0.50,0.03,-0.59,2.10,0.94,2.16,-0.74,1008.93
0.891,0.29,0.83,0.50,-0.73,-0.86,1.62,0.94,2.16,-0.74,1008.93
0.919,0.29,0.83,0.50,-0.73,-0.86,1.62,0.94,2.16,-0.74,1008.88
0.942,0.26,0.93,0.43,-0.73,-0.86,1.62,0.94,2.16,-0.74,1008.88
0.945,0.23,0.95,0.39,-0.73,-0.86,1.62,0.94,2.16,-0.74,1008.88
0.946,0.23,0.90,0.40,-0.73,-0.86,1.62,0.94,2.16,-0.74,1008.88
0.947,0.23,0.90,0.40,-0.73,-0.86,1.62,0.77,-0.21,-0.62,1008.88
0.948,0.23,0.90,0.40,-1.26,0.41,0.92,0.77,-0.21,-0.62,1008.88
1.001,0.26,0.87,0.41,-1.26,0.41,0.92,0.77,-0.21,-0.62,1008.88
1.003,0.35,0.89,0.40,-1.26,0.41,0.92,0.77,-0.21,-0.62,1008.88
1.004,0.47,0.93,0.39,-1.26,0.41,0.92,0.77,-0.21,-0.62,1008.88
1.005,0.47,0.93,0.39,-1.26,0.41,0.92,0.63,-1.63,-0.32,1008.88
1.006,0.47,0.93,0.39,-0.16,-0.09,1.50,0.63,-1.63,-0.32,1008.88
1.007,0.47,0.93,0.39,-0.16,-0.09,1.50,0.63,-1.63,-0.32,1008.85
1.059,0.51,0.96,0.35,-0.16,-0.09,1.50,0.63,-1.63,-0.32,1008.85
1.061,0.45,1.00,0.28,-0.16,-0.09,1.50,0.63,-1.63,-0.32,1008.85
1.063,0.38,1.00,0.22,-0.16,-0.09,1.50,0.63,-1.63,-0.32,1008.85
1.064,0.38,1.00,0.22,-0.16,-0.09,1.50,1.05,-0.59,-0.33,1008.85
1.065,0.38,1.00,0.22,0.79,0.57,1.06,1.05,-0.59,-0.33,1008.85
1.079,0.38,1.00,0.22,0.79,0.57,1.06,1.05,-0.59,-0.33,1008.85
1.116,0.35,0.98,0.26,0.79,0.57,1.06,1.05,-0.59,-0.33,1008.85
1.118,0.22,1.15,0.44,0.79,0.57,1.06,1.05,-0.59,-0.33,1008.85
1.119,0.74,1.84,0.27,0.79,0.57,1.06,1.05,-0.59,-0.33,1008.85
1.119,0.74,1.84,0.27,0.79,0.57,1.06,0.87,-0.58,-0.54,1008.85
1.12,0.74,1.84,0.27,0.92,3.67,1.97,0.87,-0.58,-0.54,1008.85
1.121,0.74,1.84,0.27,0.92,3.67,1.97,0.87,-0.58,-0.54,1008.85
1.175,0.74,1.84,0.27,7.31,0.33,0.48,0.87,-0.58,-0.54,1008.85
1.178,1.66,1.70,0.35,7.31,0.33,0.48,0.87,-0.58,-0.54,1008.85
1.179,1.26,0.80,0.28,7.31,0.33,0.48,0.87,-0.58,-0.54,1008.85
1.18,0.37,0.47,-0.18,7.31,0.33,0.48,0.87,-0.58,-0.54,1008.85
1.181,0.37,0.47,-0.18,7.31,0.33,0.48,0.68,0.70,-0.06,1008.85
1.199,0.37,0.47,-0.18,7.31,0.33,0.48,0.68,0.70,-0.06,1008.84
1.233,0.04,0.67,-0.44,7.31,0.33,0.48,0.68,0.70,-0.06,1008.84
1.235,-0.07,0.88,-0.24,7.31,0.33,0.48,0.68,0.70,-0.06,1008.84
1.235,0.01,0.98,0.05,7.31,0.33,0.48,0.68,0.70,-0.06,1008.84
1.236,0.01,0.98,0.05,-2.70,-1.35,-2.64,0.68,0.70,-0.06,1008.84
1.237,0.01,0.98,0.05,-2.70,-1.35,-2.64,0.92,1.03,-1.25,1008.84
1.282,0.01,0.98,0.05,-2.70,-1.35,-2.64,0.92,1.03,-1.25,1008.82
1.298,0.07,1.02,0.05,-2.70,-1.35,-2.64,0.92,1.03,-1.25,1008.82
1.3,0.24,1.08,-0.01,-2.70,-1.35,-2.64,0.92,1.03,-1.25,1008.82
1.301,0.28,1.13,0.02,-2.70,-1.35,-2.64,0.92,1.03,-1.25,1008.82
1.302,0.28,1.13,0.02,-0.28,0.83,-0.34,0.92,1.03,-1.25,1008.82
1.303,0.28,1.13,0.02,-0.28,0.83,-0.34,0.03,-0.22,-0.73,1008.82
1.322,0.28,1.13,0.02,-0.28,0.83,-0.34,0.03,-0.22,-0.73,1008.82
1.35,0.28,1.13,0.02,-1.46,0.07,0.42,0.03,-0.22,-0.73,1008.82
1.351,0.15,1.07,0.05,-1.46,0.07,0.42,0.03,-0.22,-0.73,1008.82
1.352,0.01,0.99,0.07,-1.46,0.07,0.42,0.03,-0.22,-0.73,1008.82
1.352,-0.05,0.96,0.10,-1.46,0.07,0.42,0.03,-0.22,-0.73,1008.82
1.352,-0.05,0.96,0.10,-1.46,0.07,0.42,0.26,-0.90,-0.64,1008.82
1.399,-0.05,0.96,0.10,-1.46,0.07,0.42,0.26,-0.90,-0.64,1008.82
1.407,0.01,0.95,0.06,-1.46,0.07,0.42,0.26,-0.90,-0.64,1008.82
1.408,0.19,0.97,-0.04,-1.46,0.07,0.42,0.26,-0.90,-0.64,1008.82
1.408,0.35,1.03,-0.04,-1.46,0.07,0.42,0.26,-0.90,-0.64,1008.82
1.408,0.35,1.03,-0.04,-1.46,0.07,0.42,0.53,-0.25,-0.22,1008.82
1.409,0.35,1.03,-0.04,0.08,-0.20,-0.06,0.53,-0.25,-0.22,1008.82
1.465,0.26,1.07,-0.03,0.08,-0.20,-0.06,0.53,-0.25,-0.22,1008.82
1.466,0.07,1.03,-0.03,0.08,-0.20,-0.06,0.53,-0.25,-0.22,1008.82
1.467,-0.06,0.99,-0.04,0.08,-0.20,-0.06,0.53,-0.25,-0.22,1008.82
1.467,-0.06,0.99,-0.04,0.08,-0.20,-0.06,0.67,0.31,-0.31,1008.82
1.467,-0.06,0.99,-0.04,-0.67,0.23,0.08,0.67,0.31,-0.31,1008.82
1.479,-0.06,0.99,-0.04,-0.67,0.23,0.08,0.67,0.31,-0.31,1008.84
1.519,-0.06,0.99,-0.04,-0.67,0.23,0.08,0.67,0.31,-0.31,1008.83
1.523,-0.07,0.98,-0.05,-0.67,0.23,0.08,0.67,0.31,-0.31,1008.83
1.523,0.03,0.98,-0.07,-0.67,0.23,0.08,0.67,0.31,-0.31,1008.83
1.524,0.20,1.00,-0.10,-0.67,0.23,0.08,0.67,0.31,-0.31,1008.83
1.524,0.20,1.00,-0.10,-1.01,-0.18,0.02,0.67,0.31,-0.31,1008.83
1.524,0.20,1.00,-0.10,-1.01,-0.18,0.02,0.45,-0.91,0.08,1008.83
1.582,0.35,1.01,-0.04,-1.01,-0.18,0.02,0.45,-0.91,0.08,1008.83
1.583,0.41,0.99,0.06,-1.01,-0.18,0.02,0.45,-0.91,0.08,1008.83
1.583,0.32,1.01,0.09,-1.01,-0.18,0.02,0.45,-0.91,0.08,1008.83
1.583,0.32,1.01,0.09,-1.01,-0.18,0.02,0.53,-0.69,0.03,1008.83
1.583,0.32,1.01,0.09,1.99,-0.01,1.45,0.53,-0.69,0.03,1008.83
1.6,0.32,1.01,0.09,1.99,-0.01,1.45,0.53,-0.69,0.03,1008.83
1.641,0.32,1.05,0.06,1.99,-0.01,1.45,0.53,-0.69,0.03,1008.83
1.642,0.27,1.13,0.04,1.99,-0.01,1.45,0.53,-0.69,0.03,1008.83
1.642,0.03,1.18,0.03,1.99,-0.01,1.45,0.53,-0.69,0.03,1008.83
1.643,0.03,1.18,0.03,1.99,-0.01,1.45,0.90,-0.30,-0.16,1008.83
1.643,0.03,1.18,0.03,0.55,1.21,2.00,0.90,-0.30,-0.16,1008.83
1.679,0.03,1.18,0.03,0.55,1.21,2.00,0.90,-0.30,-0.16,1008.84
1.698,-0.12,1.17,-0.12,0.55,1.21,2.00,0.90,-0.30,-0.16,1008.84
1.699,0.15,1.21,-0.17,0.55,1.21,2.00,0.90,-0.30,-0.16,1008.84
1.7,0.34,1.22,-0.11,0.55,1.21,2.00,0.90,-0.30,-0.16,1008.84
1.7,0.34,1.22,-0.11,-0.04,2.09,0.92,0.90,-0.30,-0.16,1008.84
1.701,0.34,1.22,-0.11,-0.04,2.09,0.92,1.01,-1.21,-0.07,1008.84
1.719,0.34,1.22,-0.11,-0.04,2.09,0.92,1.01,-1.21,-0.07,1008.85
1.757,0.27,1.24,-0.03,-0.04,2.09,0.92,1.01,-1.21,-0.07,1008.85
1.758,0.25,1.19,0.01,-0.04,2.09,0.92,1.01,-1.21,-0.07,1008.85
1.758,0.31,1.17,-0.13,-0.04,2.09,0.92,1.01,-1.21,-0.07,1008.85
1.759,0.31,1.17,-0.13,-0.04,2.09,0.92,0.81,-3.22,-0.54,1008.85
1.759,0.31,1.17,-0.13,2.18,2.14,2.31,0.81,-3.22,-0.54,1008.85
1.8,0.31,1.17,-0.13,2.18,2.14,2.31,0.81,-3.22,-0.54,1008.85
1.815,0.40,1.00,-0.21,2.18,2.14,2.31,0.81,-3.22,-0.54,1008.85
1.816,0.58,0.75,0.04,2.18,2.14,2.31,0.81,-3.22,-0.54,1008.85
1.816,0.77,0.55,0.21,2.18,2.14,2.31,0.81,-3.22,-0.54,1008.85
1.817,0.77,0.55,0.21,5.72,-2.11,2.90,0.81,-3.22,-0.54,1008.85
1.819,0.77,0.55,0.21,5.72,-2.11,2.90,-0.04,-3.49,-0.10,1008.85
1.874,0.83,0.53,0.14,5.72,-2.11,2.90,-0.04,-3.49,-0.10,1008.85
1.874,0.64,0.66,0.11,5.72,-2.11,2.90,-0.04,-3.49,-0.10,1008.85
1.875,0.44,0.81,0.11,5.72,-2.11,2.90,-0.04,-3.49,-0.10,1008.85
1.875,0.44,0.81,0.11,5.72,-2.11,2.90,-0.68,-1.82,1.58,1008.85
1.875,0.44,0.81,0.11,5.53,-3.11,3.53,-0.68,-1.82,1.58,1008.85
1.879,0.44,0.81,0.11,5.53,-3.11,3.53,-0.68,-1.82,1.58,1008.85
1.92,0.44,0.81,0.11,5.53,-3.11,3.53,-0.68,-1.82,1.58,1008.85
1.933,0.36,0.92,-0.06,5.53,-3.11,3.53,-0.68,-1.82,1.58,1008.85
1.933,0.32,1.01,-0.17,5.53,-3.11,3.53,-0.68,-1.82,1.58,1008.85
1.933,0.22,1.09,-0.21,5.53,-3.11,3.53,-0.68,-1.82,1.58,1008.85
1.934,0.22,1.09,-0.21,5.53,-3.11,3.53,-0.81,-0.11,2.70,1008.85
1.934,0.22,1.09,-0.21,0.75,0.34,0.45,-0.81,-0.11,2.70,1008.85
1.99,0.03,1.13,-0.20,0.75,0.34,0.45,-0.81,-0.11,2.70,1008.85
1.991,-0.11,1.11,-0.16,0.75,0.34,0.45,-0.81,-0.11,2.70,1008.85
1.991,-0.12,1.11,-0.15,0.75,0.34,0.45,-0.81,-0.11,2.70,1008.85
1.991,-0.12,1.11,-0.15,0.75,0.34,0.45,-1.26,-0.26,2.66,1008.85
1.992,-0.12,1.11,-0.15,-4.19,1.73,-0.45,-1.26,-0.26,2.66,1008.85
1.999,-0.12,1.11,-0.15,-4.19,1.73,-0.45,-1.26,-0.26,2.66,1008.84
2.049,0.03,1.02,-0.11,-4.19,1.73,-0.45,-1.26,-0.26,2.66,1008.84
2.049,0.11,0.98,-0.09,-4.19,1.73,-0.45,-1.26,-0.26,2.66,1008.84
2.05,-0.01,1.03,-0.11,-4.19,1.73,-0.45,-1.26,-0.26,2.66,1008.84
2.05,-0.01,1.03,-0.11,-4.19,1.73,-0.45,-1.30,-1.16,1.96,1008.84
2.051,-0.01,1.03,-0.11,-4.01,1.05,-0.18,-1.30,-1.16,1.96,1008.84
2.079,-0.01,1.03,-0.11,-4.01,1.05,-0.18,-1.30,-1.16,1.96,1008.83
2.107,-0.06,0.98,-0.13,-4.01,1.05,-0.18,-1.30,-1.16,1.96,1008.83
2.108,-0.09,0.89,-0.10,-4.01,1.05,-0.18,-1.30,-1.16,1.96,1008.83
2.108,-0.12,0.90,-0.04,-4.01,1.05,-0.18,-1.30,-1.16,1.96,1008.83
2.108,-0.12,0.90,-0.04,-4.01,1.05,-0.18,-0.80,-1.46,0.48,1008.83
2.109,-0.12,0.90,-0.04,-5.42,0.25,-0.04,-0.80,-1.46,0.48,1008.83
2.119,-0.12,0.90,-0.04,-5.42,0.25,-0.04,-0.80,-1.46,0.48,1008.84
2.165,-0.19,0.83,-0.13,-5.42,0.25,-0.04,-0.80,-1.46,0.48,1008.84
2.166,-0.40,0.69,-0.34,-5.42,0.25,-0.04,-0.80,-1.46,0.48,1008.84
2.167,-0.50,0.90,-0.85,-5.42,0.25,-0.04,-0.80,-1.46,0.48,1008.84
2.167,-0.50,0.90,-0.85,-5.42,0.25,-0.04,-0.20,-1.87,-1.70,1008.84
2.167,-0.50,0.90,-0.85,-6.98,-1.26,-3.08,-0.20,-1.87,-1.70,1008.84
2.199,-0.50,0.90,-0.85,-6.98,-1.26,-3.08,-0.20,-1.87,-1.70,1008.83
2.223,0.44,1.56,-0.85,-6.98,-1.26,-3.08,-0.20,-1.87,-1.70,1008.83
2.224,1.94,1.85,0.33,-6.98,-1.26,-3.08,-0.20,-1.87,-1.70,1008.83
2.224,0.51,1.69,-0.58,-6.98,-1.26,-3.08,-0.20,-1.87,-1.70,1008.83
2.225,0.51,1.69,-0.58,-6.98,-1.26,-3.08,-0.60,-1.98,-1.29,1008.83
2.225,0.51,1.69,-0.58,6.76,7.07,-2.31,-0.60,-1.98,-1.29,1008.83
2.279,0.51,1.69,-0.58,6.76,7.07,-2.31,-0.60,-1.98,-1.29,1008.80
2.282,-0.63,0.70,-0.43,6.76,7.07,-2.31,-0.60,-1.98,-1.29,1008.80
2.283,-0.57,0.36,0.61,6.76,7.07,-2.31,-0.60,-1.98,-1.29,1008.80
2.283,0.01,0.90,-0.03,6.76,7.07,-2.31,-0.60,-1.98,-1.29,1008.80
2.284,0.01,0.90,-0.03,-4.74,-3.37,1.79,-0.60,-1.98,-1.29,1008.80
2.284,0.01,0.90,-0.03,-4.74,-3.37,1.79,-0.02,-0.64,-2.93,1008.80
2.319,0.01,0.90,-0.03,-4.74,-3.37,1.79,-0.02,-0.64,-2.93,1008.78
2.34,0.05,1.34,-0.02,-4.74,-3.37,1.79,-0.02,-0.64,-2.93,1008.78
2.341,-0.10,1.05,-0.09,-4.74,-3.37,1.79,-0.02,-0.64,-2.93,1008.78
2.342,-0.27,0.83,-0.24,-4.74,-3.37,1.79,-0.02,-0.64,-2.93,1008.78
2.342,-0.27,0.83,-0.24,-4.74,-3.37,1.79,0.23,-0.36,-1.91,1008.78
2.342,-0.27,0.83,-0.24,-0.79,0.66,0.28,0.23,-0.36,-1.91,1008.78
2.399,-0.43,0.96,-0.28,-0.79,0.66,0.28,0.23,-0.36,-1.91,1008.78
2.399,-0.37,1.04,-0.22,-0.79,0.66,0.28,0.23,-0.36,-1.91,1008.78
2.4,-0.18,1.01,-0.22,-0.79,0.66,0.28,0.23,-0.36,-1.91,1008.78
2.401,-0.18,1.01,-0.22,-2.09,0.05,-0.82,0.23,-0.36,-1.91,1008.78
2.401,-0.18,1.01,-0.22,-2.09,0.05,-0.82,0.18,-0.45,-1.31,1008.78
2.401,-0.18,1.01,-0.22,-2.09,0.05,-0.82,0.18,-0.45,-1.31,1008.84
2.457,-0.13,1.03,-0.21,-2.09,0.05,-0.82,0.18,-0.45,-1.31,1008.84
2.458,-0.19,1.05,-0.19,-2.09,0.05,-0.82,0.18,-0.45,-1.31,1008.84
2.459,-0.25,1.05,-0.23,-2.09,0.05,-0.82,0.18,-0.45,-1.31,1008.84
2.459,-0.25,1.05,-0.23,-0.22,0.53,-0.39,0.18,-0.45,-1.31,1008.84
2.459,-0.25,1.05,-0.23,-0.22,0.53,-0.39,0.21,-0.12,-0.94,1008.84
2.479,-0.25,1.05,-0.23,-0.22,0.53,-0.39,0.21,-0.12,-0.94,1008.86
2.515,-0.28,1.03,-0.25,-0.22,0.53,-0.39,0.21,-0.12,-0.94,1008.86
2.516,-0.27,1.00,-0.23,-0.22,0.53,-0.39,0.21,-0.12,-0.94,1008.86
2.516,-0.29,0.99,-0.21,-0.22,0.53,-0.39,0.21,-0.12,-0.94,1008.86
2.516,-0.29,0.99,-0.21,-0.22,0.53,-0.39,0.21,-0.08,-0.76,1008.86
2.517,-0.29,0.99,-0.21,-0.67,0.30,-0.47,0.21,-0.08,-0.76,1008.86
2.519,-0.29,0.99,-0.21,-0.67,0.30,-0.47,0.21,-0.08,-0.76,1008.87
2.573,-0.27,0.99,-0.18,-0.67,0.30,-0.47,0.21,-0.08,-0.76,1008.87
2.574,-0.22,0.97,-0.14,-0.67,0.30,-0.47,0.21,-0.08,-0.76,1008.87
2.575,-0.19,0.95,-0.13,-0.67,0.30,-0.47,0.21,-0.08,-0.76,1008.87
2.575,-0.19,0.95,-0.13,-0.67,0.30,-0.47,0.18,-0.04,-0.54,1008.87
2.575,-0.19,0.95,-0.13,0.14,-0.00,0.40,0.18,-0.04,-0.54,1008.87
2.599,-0.19,0.95,-0.13,0.14,-0.00,0.40,0.18,-0.04,-0.54,1008.86
2.632,-0.17,0.95,-0.14,0.14,-0.00,0.40,0.18,-0.04,-0.54,1008.86
2.633,-0.18,0.92,-0.15,0.14,-0.00,0.40,0.18,-0.04,-0.54,1008.86
2.633,-0.19,0.91,-0.18,0.14,-0.00,0.40,0.18,-0.04,-0.54,1008.86
2.633,-0.19,0.91,-0.18,0.14,-0.00,0.40,0.18,0.31,-0.67,1008.86
2.634,-0.19,0.91,-0.18,0.91,-0.29,0.49,0.18,0.31,-0.67,1008.86
2.679,-0.19,0.91,-0.18,0.91,-0.29,0.49,0.18,0.31,-0.67,1008.85
2.691,-0.21,0.95,-0.18,0.91,-0.29,0.49,0.18,0.31,-0.67,1008.85
2.692,-0.16,0.99,-0.17,0.91,-0.29,0.49,0.18,0.31,-0.67,1008.85
2.692,-0.02,1.07,-0.17,0.91,-0.29,0.49,0.18,0.31,-0.67,1008.85
2.692,-0.02,1.07,-0.17,0.91,-0.29,0.49,0.33,0.12,-0.90,1008.85
2.692,-0.02,1.07,-0.17,1.87,0.63,0.48,0.33,0.12,-0.90,1008.85
2.72,-0.02,1.07,-0.17,1.87,0.63,0.48,0.33,0.12,-0.90,1008.83
2.75,0.03,1.19,-0.12,1.87,0.63,0.48,0.33,0.12,-0.90,1008.83
2.75,0.08,1.24,-0.07,1.87,0.63,0.48,0.33,0.12,-0.90,1008.83
2.751,0.22,1.28,-0.07,1.87,0.63,0.48,0.33,0.12,-0.90,1008.83
2.751,0.22,1.28,-0.07,1.87,0.63,0.48,0.71,-0.33,-1.45,1008.83
2.752,0.22,1.28,-0.07,4.95,3.27,1.64,0.71,-0.33,-1.45,1008.83
2.8,0.22,1.28,-0.07,4.95,3.27,1.64,0.71,-0.33,-1.45,1008.82
2.808,0.41,1.51,-0.11,4.95,3.27,1.64,0.71,-0.33,-1.45,1008.82
2.809,0.83,1.72,-0.14,4.95,3.27,1.64,0.71,-0.33,-1.45,1008.82
2.809,1.09,1.41,-0.27,4.95,3.27,1.64,0.71,-0.33,-1.45,1008.82
2.81,1.09,1.41,-0.27,12.10,6.86,1.45,0.71,-0.33,-1.45,1008.82
2.81,1.09,1.41,-0.27,12.10,6.86,1.45,1.16,0.53,-1.91,1008.82
2.866,0.35,1.16,-0.00,12.10,6.86,1.45,1.16,0.53,-1.91,1008.82
2.867,-0.54,1.13,-0.24,12.10,6.86,1.45,1.16,0.53,-1.91,1008.82
2.867,-1.10,1.41,-0.36,12.10,6.86,1.45,1.16,0.53,-1.91,1008.82
2.868,-1.10,1.41,-0.36,12.10,6.86,1.45,1.51,1.76,-3.62,1008.82
2.868,-1.10,1.41,-0.36,1.48,5.10,2.36,1.51,1.76,-3.62,1008.82
2.879,-1.10,1.41,-0.36,1.48,5.10,2.36,1.51,1.76,-3.62,1008.83
2.919,-1.10,1.41,-0.36,1.48,5.10,2.36,1.51,1.76,-3.62,1008.83
2.923,-1.13,1.20,-0.30,1.48,5.10,2.36,1.51,1.76,-3.62,1008.83
2.924,-0.93,0.74,-0.36,1.48,5.10,2.36,1.51,1.76,-3.62,1008.83
2.924,-0.77,0.61,-0.39,1.48,5.10,2.36,1.51,1.76,-3.62,1008.83
2.924,-0.77,0.61,-0.39,1.48,5.10,2.36,1.53,-0.07,-1.51,1008.83
2.926,-0.77,0.61,-0.39,-2.92,2.30,1.46,1.53,-0.07,-1.51,1008.83
2.982,-0.63,0.49,-0.30,-2.92,2.30,1.46,1.53,-0.07,-1.51,1008.83
2.982,-0.38,0.35,0.12,-2.92,2.30,1.46,1.53,-0.07,-1.51,1008.83
2.983,-0.22,0.22,0.29,-2.92,2.30,1.46,1.53,-0.07,-1.51,1008.83
2.983,-0.22,0.22,0.29,-2.92,2.30,1.46,-0.15,-2.13,2.32,1008.83
2.983,-0.22,0.22,0.29,1.98,-3.41,4.30,-0.15,-2.13,2.32,1008.83
2.999,-0.22,0.22,0.29,1.98,-3.41,4.30,-0.15,-2.13,2.32,1008.80
3.042,-0.15,0.21,0.21,1.98,-3.41,4.30,-0.15,-2.13,2.32,1008.80
3.043,-0.12,0.36,-0.05,1.98,-3.41,4.30,-0.15,-2.13,2.32,1008.80
3.044,-0.20,0.66,-0.06,1.98,-3.41,4.30,-0.15,-2.13,2.32,1008.80
3.044,-0.20,0.66,-0.06,1.98,-3.41,4.30,0.37,-1.61,4.27,1008.80
3.045,-0.20,0.66,-0.06,2.88,-4.03,3.87,0.37,-1.61,4.27,1008.80
3.08,-0.20,0.66,-0.06,2.88,-4.03,3.87,0.37,-1.61,4.27,1008.80
3.099,-0.46,0.93,-0.06,2.88,-4.03,3.87,0.37,-1.61,4.27,1008.80
3.1,-0.68,0.97,0.03,2.88,-4.03,3.87,0.37,-1.61,4.27,1008.80
3.101,-0.75,0.97,0.17,2.88,-4.03,3.87,0.37,-1.61,4.27,1008.80
3.102,-0.75,0.97,0.17,2.88,-4.03,3.87,0.19,-0.93,5.28,1008.80
3.104,-0.75,0.97,0.17,-4.12,0.37,3.87,0.19,-0.93,5.28,1008.80
3.12,-0.75,0.97,0.17,-4.12,0.37,3.87,0.19,-0.93,5.28,1008.84
3.159,-0.75,0.97,0.17,-10.46,3.55,2.60,0.19,-0.93,5.28,1008.84
3.162,-0.91,1.19,0.07,-10.46,3.55,2.60,0.19,-0.93,5.28,1008.84
3.163,-1.08,1.36,-0.03,-10.46,3.55,2.60,0.19,-0.93,5.28,1008.84
3.164,-1.03,1.42,-0.14,-10.46,3.55,2.60,0.19,-0.93,5.28,1008.84
3.165,-1.03,1.42,-0.14,-10.46,3.55,2.60,-0.68,-1.96,5.93,1008.84
3.204,-1.03,1.42,-0.14,-10.46,3.55,2.60,-0.68,-1.96,5.93,1008.81
3.216,-0.68,1.33,-0.15,-10.46,3.55,2.60,-0.68,-1.96,5.93,1008.81
3.217,-0.31,1.22,-0.05,-10.46,3.55,2.60,-0.68,-1.96,5.93,1008.81
3.218,-0.07,1.20,0.07,-10.46,3.55,2.60,-0.68,-1.96,5.93,1008.81
3.218,-0.07,1.20,0.07,-10.46,3.55,2.60,-1.44,-3.84,5.73,1008.81
3.218,-0.07,1.20,0.07,-6.47,3.21,2.12,-1.44,-3.84,5.73,1008.81
3.275,-0.23,1.26,0.03,-6.47,3.21,2.12,-1.44,-3.84,5.73,1008.81
3.279,-0.55,1.24,0.05,-6.47,3.21,2.12,-1.44,-3.84,5.73,1008.81
3.28,-0.61,1.10,0.07,-6.47,3.21,2.12,-1.44,-3.84,5.73,1008.81
3.282,-0.61,1.10,0.07,-6.47,3.21,2.12,-1.39,-2.82,2.88,1008.81
3.284,-0.61,1.10,0.07,-8.47,3.04,2.88,-1.39,-2.82,2.88,1008.81
3.285,-0.61,1.10,0.07,-8.47,3.04,2.88,-1.39,-2.82,2.88,1008.78
3.32,-0.61,1.10,0.07,-8.47,3.04,2.88,-1.39,-2.82,2.88,1008.81
3.333,-0.56,0.94,-0.04,-8.47,3.04,2.88,-1.39,-2.82,2.88,1008.81
3.334,-0.49,0.90,-0.07,-8.47,3.04,2.88,-1.39,-2.82,2.88,1008.81
3.334,-0.48,0.89,-0.12,-8.47,3.04,2.88,-1.39,-2.82,2.88,1008.81
3.335,-0.48,0.89,-0.12,-8.47,3.04,2.88,-1.07,-2.44,0.30,1008.81
3.336,-0.48,0.89,-0.12,-8.59,0.11,1.59,-1.07,-2.44,0.30,1008.81
3.396,-0.48,0.89,-0.12,-3.42,1.20,-5.08,-1.07,-2.44,0.30,1008.81
3.398,-0.54,0.82,-0.42,-3.42,1.20,-5.08,-1.07,-2.44,0.30,1008.81
3.4,-0.37,0.96,-1.09,-3.42,1.20,-5.08,-1.07,-2.44,0.30,1008.81
3.401,0.63,1.38,-0.84,-3.42,1.20,-5.08,-1.07,-2.44,0.30,1008.81
3.402,0.63,1.38,-0.84,-3.42,1.20,-5.08,-0.54,-2.26,-1.44,1008.81
3.403,0.63,1.38,-0.84,-3.42,1.20,-5.08,-0.54,-2.26,-1.44,1008.83
3.45,1.48,2.00,-0.56,-3.42,1.20,-5.08,-0.54,-2.26,-1.44,1008.83
3.453,0.29,1.63,-0.31,-3.42,1.20,-5.08,-0.54,-2.26,-1.44,1008.83
3.454,-0.26,0.61,-0.34,-3.42,1.20,-5.08,-0.54,-2.26,-1.44,1008.83
3.455,-0.26,0.61,-0.34,-3.42,1.20,-5.08,-0.80,-1.32,-1.75,1008.83
3.456,-0.26,0.61,-0.34,3.56,4.30,-1.62,-0.80,-1.32,-1.75,1008.83
3.48,-0.26,0.61,-0.34,3.56,4.30,-1.62,-0.80,-1.32,-1.75,1008.82
3.513,-0.18,0.34,0.27,3.56,4.30,-1.62,-0.80,-1.32,-1.75,1008.82
3.515,-0.19,0.89,0.12,3.56,4.30,-1.62,-0.80,-1.32,-1.75,1008.82
3.516,-0.28,1.31,-0.05,3.56,4.30,-1.62,-0.80,-1.32,-1.75,1008.82
3.517,-0.28,1.31,-0.05,3.56,4.30,-1.62,-0.46,-0.09,-1.84,1008.82
3.518,-0.28,1.31,-0.05,-2.45,-1.36,3.16,-0.46,-0.09,-1.84,1008.82
3.538,-0.28,1.31,-0.05,-2.45,-1.36,3.16,-0.46,-0.09,-1.84,1008.75
3.566,-0.29,1.14,-0.17,-2.45,-1.36,3.16,-0.46,-0.09,-1.84,1008.75
3.568,-0.29,0.89,-0.19,-2.45,-1.36,3.16,-0.46,-0.09,-1.84,1008.75
3.568,-0.28,0.96,-0.25,-2.45,-1.36,3.16,-0.46,-0.09,-1.84,1008.75
3.569,-0.28,0.96,-0.25,-2.45,-1.36,3.16,0.01,-0.11,-1.15,1008.75
3.569,-0.28,0.96,-0.25,-2.38,0.12,0.05,0.01,-0.11,-1.15,1008.75
3.6,-0.28,0.96,-0.25,-2.38,0.12,0.05,0.01,-0.11,-1.15,1008.84
3.628,-0.14,1.04,-0.20,-2.38,0.12,0.05,0.01,-0.11,-1.15,1008.84
3.63,-0.06,1.03,-0.12,-2.38,0.12,0.05,0.01,-0.11,-1.15,1008.84
3.63,-0.06,1.01,-0.20,-2.38,0.12,0.05,0.01,-0.11,-1.15,1008.84
3.631,-0.06,1.01,-0.20,-2.38,0.12,0.05,0.08,-0.47,-0.61,1008.84
3.631,-0.06,1.01,-0.20,-0.05,0.41,0.35,0.08,-0.47,-0.61,1008.84
3.682,-0.06,1.01,-0.20,-0.05,0.41,0.35,0.08,-0.47,-0.61,1008.84
3.684,-0.06,1.02,-0.25,-0.05,0.41,0.35,0.08,-0.47,-0.61,1008.84
3.686,-0.06,1.01,-0.25,-0.05,0.41,0.35,0.08,-0.47,-0.61,1008.84
3.687,-0.09,0.97,-0.23,-0.05,0.41,0.35,0.08,-0.47,-0.61,1008.84
3.688,-0.09,0.97,-0.23,-0.05,0.41,0.35,0.19,-0.08,-0.68,1008.84
3.689,-0.09,0.97,-0.23,0.49,0.21,-0.23,0.19,-0.08,-0.68,1008.84
3.721,-0.09,0.97,-0.23,0.49,0.21,-0.23,0.19,-0.08,-0.68,1008.86
3.742,-0.17,0.97,-0.23,0.49,0.21,-0.23,0.19,-0.08,-0.68,1008.86
3.743,-0.17,0.97,-0.22,0.49,0.21,-0.23,0.19,-0.08,-0.68,1008.86
3.744,-0.18,0.97,-0.15,0.49,0.21,-0.23,0.19,-0.08,-0.68,1008.86
3.744,-0.18,0.97,-0.15,0.49,0.21,-0.23,0.24,-0.14,-0.76,1008.86
3.744,-0.18,0.97,-0.15,-0.04,0.07,0.31,0.24,-0.14,-0.76,1008.86
3.801,-0.16,0.93,-0.13,-0.04,0.07,0.31,0.24,-0.14,-0.76,1008.86
3.804,-0.17,0.91,-0.12,-0.04,0.07,0.31,0.24,-0.14,-0.76,1008.86
3.805,-0.22,0.90,-0.14,-0.04,0.07,0.31,0.24,-0.14,-0.76,1008.86
3.806,-0.22,0.90,-0.14,-0.04,0.07,0.31,0.37,-0.40,-0.79,1008.86
3.807,-0.22,0.90,-0.14,-0.04,0.07,0.31,0.37,-0.40,-0.79,1008.84
3.808,-0.22,0.90,-0.14,0.32,-0.36,1.12,0.37,-0.40,-0.79,1008.84
3.858,-0.22,0.90,-0.14,0.65,-0.16,0.91,0.37,-0.40,-0.79,1008.84
3.861,-0.22,0.89,-0.16,0.65,-0.16,0.91,0.37,-0.40,-0.79,1008.84
3.861,-0.18,0.93,-0.17,0.65,-0.16,0.91,0.37,-0.40,-0.79,1008.84
3.862,-0.20,0.92,-0.19,0.65,-0.16,0.91,0.37,-0.40,-0.79,1008.84
3.863,-0.20,0.92,-0.19,0.65,-0.16,0.91,0.44,-0.22,-0.94,1008.84
3.88,-0.20,0.92,-0.19,0.65,-0.16,0.91,0.44,-0.22,-0.94,1008.84
3.916,-0.29,0.97,-0.22,0.65,-0.16,0.91,0.44,-0.22,-0.94,1008.84
3.917,-0.27,1.02,-0.24,0.65,-0.16,0.91,0.44,-0.22,-0.94,1008.84
3.918,-0.19,1.04,-0.25,0.65,-0.16,0.91,0.44,-0.22,-0.94,1008.84
3.918,-0.19,1.04,-0.25,0.65,-0.16,0.91,0.56,-0.10,-1.08,1008.84
3.919,-0.19,1.04,-0.25,0.74,1.03,0.53,0.56,-0.10,-1.08,1008.84
3.921,-0.19,1.04,-0.25,0.74,1.03,0.53,0.56,-0.10,-1.08,1008.84
3.976,-0.11,1.07,-0.25,0.74,1.03,0.53,0.56,-0.10,-1.08,1008.84
3.983,-0.07,1.13,-0.24,0.74,1.03,0.53,0.56,-0.10,-1.08,1008.84
3.984,-0.02,1.15,-0.30,0.74,1.03,0.53,0.56,-0.10,-1.08,1008.84
3.985,-0.02,1.15,-0.30,0.74,1.03,0.53,0.90,-0.38,-1.27,1008.84
3.986,-0.02,1.15,-0.30,3.23,2.45,0.65,0.90,-0.38,-1.27,1008.84
4.0,-0.02,1.15,-0.30,3.23,2.45,0.65,0.90,-0.38,-1.27,1008.85
4.032,0.06,1.17,-0.35,3.23,2.45,0.65,0.90,-0.38,-1.27,1008.85
4.033,0.19,1.40,-0.31,3.23,2.45,0.65,0.90,-0.38,-1.27,1008.85
4.034,0.52,1.74,-0.22,3.23,2.45,0.65,0.90,-0.38,-1.27,1008.85
4.034,0.52,1.74,-0.22,3.23,2.45,0.65,1.32,-0.26,-1.48,1008.85
4.034,0.52,1.74,-0.22,7.03,6.10,0.95,1.32,-0.26,-1.48,1008.85
4.08,0.52,1.74,-0.22,7.03,6.10,0.95,1.32,-0.26,-1.48,1008.83
4.091,0.88,1.80,0.17,7.03,6.10,0.95,1.32,-0.26,-1.48,1008.83
4.092,0.30,1.30,0.34,7.03,6.10,0.95,1.32,-0.26,-1.48,1008.83
4.093,-0.68,1.31,0.01,7.03,6.10,0.95,1.32,-0.26,-1.48,1008.83
4.094,-0.68,1.31,0.01,7.03,6.10,0.95,1.69,0.07,-2.13,1008.83
4.095,-0.68,1.31,0.01,6.90,7.36,6.15,1.69,0.07,-2.13,1008.83
4.122,-0.68,1.31,0.01,6.90,7.36,6.15,1.69,0.07,-2.13,1008.85
4.15,-1.32,1.64,-0.11,6.90,7.36,6.15,1.69,0.07,-2.13,1008.85
4.151,-1.54,1.20,-0.24,6.90,7.36,6.15,1.69,0.07,-2.13,1008.85
4.151,-1.16,0.76,-0.46,6.90,7.36,6.15,1.69,0.07,-2.13,1008.85
4.152,-1.16,0.76,-0.46,6.90,7.36,6.15,2.01,-1.40,-2.16,1008.85
4.152,-1.16,0.76,-0.46,-6.56,5.90,2.04,2.01,-1.40,-2.16,1008.85
4.2,-1.16,0.76,-0.46,-6.56,5.90,2.04,2.01,-1.40,-2.16,1008.82
4.216,-0.72,0.66,-0.37,-6.56,5.90,2.04,2.01,-1.40,-2.16,1008.82
4.218,-0.44,0.54,-0.20,-6.56,5.90,2.04,2.01,-1.40,-2.16,1008.82
4.219,-0.06,0.24,0.27,-6.56,5.90,2.04,2.01,-1.40,-2.16,1008.82
4.228,-0.06,0.24,0.27,2.88,-1.68,2.35,2.01,-1.40,-2.16,1008.82
4.229,-0.06,0.24,0.27,2.88,-1.68,2.35,0.00,-3.38,1.31,1008.82
4.265,0.03,0.05,0.24,2.88,-1.68,2.35,0.00,-3.38,1.31,1008.82
4.266,-0.07,0.27,-0.15,2.88,-1.68,2.35,0.00,-3.38,1.31,1008.82
4.267,-0.27,0.56,-0.26,2.88,-1.68,2.35,0.00,-3.38,1.31,1008.82
4.267,-0.27,0.56,-0.26,2.88,-1.68,2.35,0.11,-1.23,3.13,1008.82
4.267,-0.27,0.56,-0.26,4.72,-4.57,2.26,0.11,-1.23,3.13,1008.82
4.292,-0.27,0.56,-0.26,4.72,-4.57,2.26,0.11,-1.23,3.13,1008.81
4.319,-0.27,0.56,-0.26,4.72,-4.57,2.26,0.11,-1.23,3.13,1008.86
4.329,-0.46,0.63,-0.19,4.72,-4.57,2.26,0.11,-1.23,3.13,1008.86
4.33,-0.50,0.56,-0.14,4.72,-4.57,2.26,0.11,-1.23,3.13,1008.86
4.33,-0.43,0.61,-0.26,4.72,-4.57,2.26,0.11,-1.23,3.13,1008.86
4.331,-0.43,0.61,-0.26,4.72,-4.57,2.26,-0.58,0.36,4.27,1008.86
4.331,-0.43,0.61,-0.26,-0.85,-2.76,0.68,-0.58,0.36,4.27,1008.86
4.382,-0.39,0.77,-0.30,-0.85,-2.76,0.68,-0.58,0.36,4.27,1008.86
4.383,-0.48,0.90,-0.38,-0.85,-2.76,0.68,-0.58,0.36,4.27,1008.86
4.383,-0.70,1.00,-0.38,-0.85,-2.76,0.68,-0.58,0.36,4.27,1008.86
4.383,-0.70,1.00,-0.38,-0.85,-2.76,0.68,-1.09,0.64,5.09,1008.86
4.384,-0.70,1.00,-0.38,-4.18,-0.78,-1.35,-1.09,0.64,5.09,1008.86
4.399,-0.70,1.00,-0.38,-4.18,-0.78,-1.35,-1.09,0.64,5.09,1008.83
4.44,-0.70,1.10,-0.39,-4.18,-0.78,-1.35,-1.09,0.64,5.09,1008.83
4.441,-0.44,1.15,-0.42,-4.18,-0.78,-1.35,-1.09,0.64,5.09,1008.83
4.441,-0.25,1.24,-0.34,-4.18,-0.78,-1.35,-1.09,0.64,5.09,1008.83
4.442,-0.25,1.24,-0.34,-4.18,-0.78,-1.35,-1.15,0.04,5.62,1008.83
4.442,-0.25,1.24,-0.34,-6.60,1.99,-2.20,-1.15,0.04,5.62,1008.83
4.479,-0.25,1.24,-0.34,-6.60,1.99,-2.20,-1.15,0.04,5.62,1008.78
4.499,-0.14,1.39,-0.28,-6.60,1.99,-2.20,-1.15,0.04,5.62,1008.78
4.499,-0.20,1.42,-0.26,-6.60,1.99,-2.20,-1.15,0.04,5.62,1008.78
4.5,-0.24,1.25,-0.19,-6.60,1.99,-2.20,-1.15,0.04,5.62,1008.78
4.501,-0.24,1.25,-0.19,-6.60,1.99,-2.20,-0.99,0.50,4.52,1008.78
4.501,-0.24,1.25,-0.19,-6.32,4.54,-1.43,-0.99,0.50,4.52,1008.78
4.519,-0.24,1.25,-0.19,-6.32,4.54,-1.43,-0.99,0.50,4.52,1008.78
4.558,-0.32,1.05,-0.13,-6.32,4.54,-1.43,-0.99,0.50,4.52,1008.78
4.559,-0.44,0.96,-0.13,-6.32,4.54,-1.43,-0.99,0.50,4.52,1008.78
4.559,-0.51,0.89,-0.11,-6.32,4.54,-1.43,-0.99,0.50,4.52,1008.78
4.56,-0.51,0.89,-0.11,-6.32,4.54,-1.43,-0.57,0.89,1.41,1008.78
4.56,-0.51,0.89,-0.11,-9.12,1.09,-0.80,-0.57,0.89,1.41,1008.78
4.599,-0.51,0.89,-0.11,-9.12,1.09,-0.80,-0.57,0.89,1.41,1008.81
4.616,-0.51,0.89,-0.11,-8.92,1.47,-1.12,-0.57,0.89,1.41,1008.81
4.617,-0.54,0.89,-0.08,-8.92,1.47,-1.12,-0.57,0.89,1.41,1008.81
4.617,-0.65,1.02,-0.16,-8.92,1.47,-1.12,-0.57,0.89,1.41,1008.81
4.618,-0.35,1.25,-0.30,-8.92,1.47,-1.12,-0.57,0.89,1.41,1008.81
4.618,-0.35,1.25,-0.30,-8.92,1.47,-1.12,0.05,-0.70,-1.78,1008.81
4.674,1.17,1.25,0.16,-8.92,1.47,-1.12,0.05,-0.70,-1.78,1008.81
4.675,2.54,1.06,-0.05,-8.92,1.47,-1.12,0.05,-0.70,-1.78,1008.81
4.675,0.92,1.73,-0.48,-8.92,1.47,-1.12,0.05,-0.70,-1.78,1008.81
4.676,0.92,1.73,-0.48,-8.92,1.47,-1.12,-0.60,-1.22,0.10,1008.81
4.676,0.92,1.73,-0.48,11.02,4.26,-0.58,-0.60,-1.22,0.10,1008.81
4.68,0.92,1.73,-0.48,11.02,4.26,-0.58,-0.60,-1.22,0.10,1008.84
4.719,0.92,1.73,-0.48,11.02,4.26,-0.58,-0.60,-1.22,0.10,1008.82
4.732,-0.65,1.65,-0.51,11.02,4.26,-0.58,-0.60,-1.22,0.10,1008.82
4.733,-0.80,0.73,-0.54,11.02,4.26,-0.58,-0.60,-1.22,0.10,1008.82
4.733,-0.58,0.62,0.70,11.02,4.26,-0.58,-0.60,-1.22,0.10,1008.82
4.733,-0.58,0.62,0.70,11.02,4.26,-0.58,-0.31,0.25,-2.92,1008.82
4.734,-0.58,0.62,0.70,-8.99,0.26,-0.72,-0.31,0.25,-2.92,1008.82
4.79,0.14,0.86,0.30,-8.99,0.26,-0.72,-0.31,0.25,-2.92,1008.82
4.791,0.41,1.20,0.02,-8.99,0.26,-0.72,-0.31,0.25,-2.92,1008.82
4.791,0.31,1.10,-0.01,-8.99,0.26,-0.72,-0.31,0.25,-2.92,1008.82
4.792,0.31,1.10,-0.01,0.98,0.70,1.33,-0.31,0.25,-2.92,1008.82
4.792,0.31,1.10,-0.01,0.98,0.70,1.33,-0.23,-0.74,-0.92,1008.82
4.799,0.31,1.10,-0.01,0.98,0.70,1.33,-0.23,-0.74,-0.92,1008.80
4.849,0.19,0.91,-0.04,0.98,0.70,1.33,-0.23,-0.74,-0.92,1008.80
4.849,0.06,0.98,0.04,0.98,0.70,1.33,-0.23,-0.74,-0.92,1008.80
4.85,-0.08,1.04,0.01,0.98,0.70,1.33,-0.23,-0.74,-0.92,1008.80
4.85,-0.08,1.04,0.01,-0.60,-0.17,0.36,-0.23,-0.74,-0.92,1008.80
4.85,-0.08,1.04,0.01,-0.60,-0.17,0.36,-0.01,0.23,-1.21,1008.80
4.879,-0.08,1.04,0.01,-0.60,-0.17,0.36,-0.01,0.23,-1.21,1008.80
4.913,-0.08,1.02,-0.00,-0.60,-0.17,0.36,-0.01,0.23,-1.21,1008.80
4.914,0.07,1.00,-0.03,-0.60,-0.17,0.36,-0.01,0.23,-1.21,1008.80
4.914,0.11,1.00,-0.00,-0.60,-0.17,0.36,-0.01,0.23,-1.21,1008.80
4.914,0.11,1.00,-0.00,-0.33,0.06,0.22,-0.01,0.23,-1.21,1008.80
4.915,0.11,1.00,-0.00,-0.33,0.06,0.22,0.06,-0.19,-0.87,1008.80
4.919,0.11,1.00,-0.00,-0.33,0.06,0.22,0.06,-0.19,-0.87,1008.80
4.966,0.09,1.00,-0.01,-0.33,0.06,0.22,0.06,-0.19,-0.87,1008.80
4.967,0.05,1.00,0.05,-0.33,0.06,0.22,0.06,-0.19,-0.87,1008.80
4.968,0.03,0.98,0.05,-0.33,0.06,0.22,0.06,-0.19,-0.87,1008.80
4.968,0.03,0.98,0.05,-0.33,0.06,0.22,0.15,0.23,-0.92,1008.80
4.968,0.03,0.98,0.05,0.40,-0.07,0.75,0.15,0.23,-0.92,1008.80
4.999,0.03,0.98,0.05,0.40,-0.07,0.75,0.15,0.23,-0.92,1008.83
5.025,-0.01,0.98,0.02,0.40,-0.07,0.75,0.15,0.23,-0.92,1008.83
5.027,-0.01,0.99,-0.03,0.40,-0.07,0.75,0.15,0.23,-0.92,1008.83
5.027,-0.01,0.99,-0.06,0.40,-0.07,0.75,0.15,0.23,-0.92,1008.83
5.028,-0.01,0.99,-0.06,0.40,-0.07,0.75,0.26,0.19,-1.00,1008.83
5.028,-0.01,0.99,-0.06,0.29,-0.12,0.35,0.26,0.19,-1.00,1008.83
5.08,-0.01,0.99,-0.06,0.29,-0.12,0.35,0.26,0.19,-1.00,1008.84
5.082,-0.05,1.00,-0.06,0.29,-0.12,0.35,0.26,0.19,-1.00,1008.84
5.082,-0.04,1.00,-0.03,0.29,-0.12,0.35,0.26,0.19,-1.00,1008.84
5.083,-0.02,0.97,-0.02,0.29,-0.12,0.35,0.26,0.19,-1.00,1008.84
5.083,-0.02,0.97,-0.02,0.29,-0.12,0.35,0.30,0.28,-1.11,1008.84
5.083,-0.02,0.97,-0.02,0.63,-0.01,0.37,0.30,0.28,-1.11,1008.84
5.122,-0.02,0.97,-0.02,0.63,-0.01,0.37,0.30,0.28,-1.11,1008.84
5.142,-0.02,0.97,-0.02,0.47,0.16,0.17,0.30,0.28,-1.11,1008.84
5.143,-0.05,0.97,-0.05,0.47,0.16,0.17,0.30,0.28,-1.11,1008.84
5.143,-0.14,0.99,-0.09,0.47,0.16,0.17,0.30,0.28,-1.11,1008.84
5.143,-0.20,1.03,-0.11,0.47,0.16,0.17,0.30,0.28,-1.11,1008.84
5.144,-0.20,1.03,-0.11,0.47,0.16,0.17,0.37,0.25,-1.33,1008.84
5.199,-0.15,1.04,-0.10,0.47,0.16,0.17,0.37,0.25,-1.33,1008.84
5.2,-0.09,1.03,-0.12,0.47,0.16,0.17,0.37,0.25,-1.33,1008.84
5.2,-0.15,1.04,-0.14,0.47,0.16,0.17,0.37,0.25,-1.33,1008.84
5.2,-0.15,1.04,-0.14,0.47,0.16,0.17,0.43,0.09,-1.43,1008.84
5.201,-0.15,1.04,-0.14,1.27,0.71,0.06,0.43,0.09,-1.43,1008.84
5.201,-0.15,1.04,-0.14,1.27,0.71,0.06,0.43,0.09,-1.43,1008.86
5.257,-0.23,1.03,-0.16,1.27,0.71,0.06,0.43,0.09,-1.43,1008.86
5.258,-0.27,1.01,-0.16,1.27,0.71,0.06,0.43,0.09,-1.43,1008.86
5.258,-0.24,1.05,-0.15,1.27,0.71,0.06,0.43,0.09,-1.43,1008.86
5.259,-0.24,1.05,-0.15,1.27,0.71,0.06,0.50,0.28,-1.62,1008.86
5.26,-0.24,1.05,-0.15,0.92,0.98,-0.01,0.50,0.28,-1.62,1008.86
5.28,-0.24,1.05,-0.15,0.92,0.98,-0.01,0.50,0.28,-1.62,1008.87
5.316,-0.24,1.05,-0.15,5.26,4.39,-0.19,0.50,0.28,-1.62,1008.87
5.318,-0.15,1.17,-0.14,5.26,4.39,-0.19,0.50,0.28,-1.62,1008.87
5.318,0.10,1.39,-0.15,5.26,4.39,-0.19,0.50,0.28,-1.62,1008.87
5.318,0.41,1.47,-0.39,5.26,4.39,-0.19,0.50,0.28,-1.62,1008.87
5.319,0.41,1.47,-0.39,5.26,4.39,-0.19,0.68,0.57,-1.67,1008.87
5.322,0.41,1.47,-0.39,5.26,4.39,-0.19,0.68,0.57,-1.67,1008.88
5.374,0.52,1.50,-0.57,5.26,4.39,-0.19,0.68,0.57,-1.67,1008.88
5.375,0.65,1.61,-0.53,5.26,4.39,-0.19,0.68,0.57,-1.67,1008.88
5.376,0.47,1.23,-0.16,5.26,4.39,-0.19,0.68,0.57,-1.67,1008.88
5.376,0.47,1.23,-0.16,5.26,4.39,-0.19,0.87,1.17,-2.21,1008.88
5.377,0.47,1.23,-0.16,10.19,6.02,-1.33,0.87,1.17,-2.21,1008.88
5.4,0.47,1.23,-0.16,10.19,6.02,-1.33,0.87,1.17,-2.21,1008.87
5.432,-0.40,0.68,0.06,10.19,6.02,-1.33,0.87,1.17,-2.21,1008.87
5.433,-1.39,0.92,-0.16,10.19,6.02,-1.33,0.87,1.17,-2.21,1008.87
5.433,-1.89,1.31,-0.32,10.19,6.02,-1.33,0.87,1.17,-2.21,1008.87
5.434,-1.89,1.31,-0.32,10.19,6.02,-1.33,1.87,0.28,-3.30,1008.87
5.434,-1.89,1.31,-0.32,-5.71,2.73,2.28,1.87,0.28,-3.30,1008.87
5.481,-1.89,1.31,-0.32,-5.71,2.73,2.28,1.87,0.28,-3.30,1008.86
5.491,-1.48,0.82,-0.15,-5.71,2.73,2.28,1.87,0.28,-3.30,1008.86
5.492,-0.97,0.61,0.00,-5.71,2.73,2.28,1.87,0.28,-3.30,1008.86
5.492,-0.42,0.46,0.00,-5.71,2.73,2.28,1.87,0.28,-3.30,1008.86
5.493,-0.42,0.46,0.00,-5.71,2.73,2.28,1.21,-3.05,0.37,1008.86
5.493,-0.42,0.46,0.00,-2.56,-0.50,2.42,1.21,-3.05,0.37,1008.86
5.52,-0.42,0.46,0.00,-2.56,-0.50,2.42,1.21,-3.05,0.37,1008.82
5.55,0.14,0.22,0.34,-2.56,-0.50,2.42,1.21,-3.05,0.37,1008.82
5.551,0.54,-0.06,0.55,-2.56,-0.50,2.42,1.21,-3.05,0.37,1008.82
5.551,0.29,-0.01,0.31,-2.56,-0.50,2.42,1.21,-3.05,0.37,1008.82
5.552,0.29,-0.01,0.31,-2.56,-0.50,2.42,1.33,-2.69,2.75,1008.82
5.552,0.29,-0.01,0.31,9.06,-6.91,6.21,1.33,-2.69,2.75,1008.82
5.601,0.29,-0.01,0.31,9.06,-6.91,6.21,1.33,-2.69,2.75,1008.85
5.608,-0.16,0.38,0.13,9.06,-6.91,6.21,1.33,-2.69,2.75,1008.85
5.609,-0.40,0.71,-0.08,9.06,-6.91,6.21,1.33,-2.69,2.75,1008.85
5.609,-0.52,0.82,0.02,9.06,-6.91,6.21,1.33,-2.69,2.75,1008.85
5.61,-0.52,0.82,0.02,9.06,-6.91,6.21,2.60,0.30,3.08,1008.85
5.61,-0.52,0.82,0.02,0.93,-1.64,3.70,2.60,0.30,3.08,1008.85
5.665,-0.73,0.82,0.05,0.93,-1.64,3.70,2.60,0.30,3.08,1008.85
5.666,-1.12,1.05,-0.01,0.93,-1.64,3.70,2.60,0.30,3.08,1008.85
5.667,-1.45,1.27,0.05,0.93,-1.64,3.70,2.60,0.30,3.08,1008.85
5.667,-1.45,1.27,0.05,0.93,-1.64,3.70,1.63,-1.08,4.72,1008.85
5.667,-1.45,1.27,0.05,-8.20,1.76,4.25,1.63,-1.08,4.72,1008.85
5.68,-1.45,1.27,0.05,-8.20,1.76,4.25,1.63,-1.08,4.72,1008.90
5.72,-1.45,1.27,0.05,-8.20,1.76,4.25,1.63,-1.08,4.72,1008.84
5.723,-1.22,1.20,-0.03,-8.20,1.76,4.25,1.63,-1.08,4.72,1008.84
5.724,-0.67,1.16,-0.06,-8.20,1.76,4.25,1.63,-1.08,4.72,1008.84
5.724,-0.17,1.23,0.05,-8.20,1.76,4.25,1.63,-1.08,4.72,1008.84
5.725,-0.17,1.23,0.05,-8.20,1.76,4.25,0.62,-6.13,5.92,1008.84
5.725,-0.17,1.23,0.05,-5.68,2.73,3.50,0.62,-6.13,5.92,1008.84
5.783,0.35,1.19,0.23,-5.68,2.73,3.50,0.62,-6.13,5.92,1008.84
5.784,0.42,1.22,0.27,-5.68,2.73,3.50,0.62,-6.13,5.92,1008.84
5.784,0.04,1.35,0.29,-5.68,2.73,3.50,0.62,-6.13,5.92,1008.84
5.785,0.04,1.35,0.29,-5.68,2.73,3.50,0.31,-5.24,4.51,1008.84
5.785,0.04,1.35,0.29,2.36,3.21,6.20,0.31,-5.24,4.51,1008.84
5.8,0.04,1.35,0.29,2.36,3.21,6.20,0.31,-5.24,4.51,1008.79
5.841,-0.30,1.36,0.27,2.36,3.21,6.20,0.31,-5.24,4.51,1008.79
5.842,-0.50,1.26,0.19,2.36,3.21,6.20,0.31,-5.24,4.51,1008.79
5.843,-0.45,1.17,0.11,2.36,3.21,6.20,0.31,-5.24,4.51,1008.79
5.844,-0.45,1.17,0.11,2.36,3.21,6.20,-0.50,-3.40,3.17,1008.79
5.845,-0.45,1.17,0.11,-5.24,3.30,5.25,-0.50,-3.40,3.17,1008.79
5.882,-0.45,1.17,0.11,-5.24,3.30,5.25,-0.50,-3.40,3.17,1008.80
5.901,-0.31,1.07,0.02,-5.24,3.30,5.25,-0.50,-3.40,3.17,1008.80
5.903,-0.18,1.05,-0.01,-5.24,3.30,5.25,-0.50,-3.40,3.17,1008.80
5.904,-0.12,1.07,-0.02,-5.24,3.30,5.25,-0.50,-3.40,3.17,1008.80
5.905,-0.12,1.07,-0.02,-5.24,3.30,5.25,-1.17,-4.93,3.03,1008.80
5.906,-0.12,1.07,-0.02,-3.72,1.35,3.12,-1.17,-4.93,3.03,1008.80
5.921,-0.12,1.07,-0.02,-3.72,1.35,3.12,-1.17,-4.93,3.03,1008.79
5.96,-0.15,1.06,0.07,-3.72,1.35,3.12,-1.17,-4.93,3.03,1008.79
5.961,-0.25,1.02,0.13,-3.72,1.35,3.12,-1.17,-4.93,3.03,1008.79
5.961,-0.39,0.94,0.05,-3.72,1.35,3.12,-1.17,-4.93,3.03,1008.79
5.962,-0.39,0.94,0.05,-3.72,1.35,3.12,-1.30,-4.34,1.95,1008.79
5.963,-0.39,0.94,0.05,-4.50,0.73,3.69,-1.30,-4.34,1.95,1008.79
6.001,-0.39,0.94,0.05,-4.50,0.73,3.69,-1.30,-4.34,1.95,1008.79
6.017,-0.54,0.76,-0.15,-4.50,0.73,3.69,-1.30,-4.34,1.95,1008.79
6.017,-0.97,0.71,-0.64,-4.50,0.73,3.69,-1.30,-4.34,1.95,1008.79
6.018,-1.31,1.18,-1.28,-4.50,0.73,3.69,-1.30,-4.34,1.95,1008.79
6.019,-1.31,1.18,-1.28,-4.50,0.73,3.69,-0.73,-2.67,-0.71,1008.79
6.019,-1.31,1.18,-1.28,-10.17,-0.61,-3.97,-0.73,-2.67,-0.71,1008.79
6.075,0.10,1.41,-0.28,-10.17,-0.61,-3.97,-0.73,-2.67,-0.71,1008.79
6.077,1.55,1.52,-0.05,-10.17,-0.61,-3.97,-0.73,-2.67,-0.71,1008.79
6.078,0.81,1.24,-0.38,-10.17,-0.61,-3.97,-0.73,-2.67,-0.71,1008.79
6.078,0.81,1.24,-0.38,-10.17,-0.61,-3.97,-0.96,-1.70,0.11,1008.79
6.079,0.81,1.24,-0.38,7.18,4.11,0.01,-0.96,-1.70,0.11,1008.79
6.08,0.81,1.24,-0.38,7.18,4.11,0.01,-0.96,-1.70,0.11,1008.83
6.128,0.81,1.24,-0.38,7.18,4.11,0.01,-0.96,-1.70,0.11,1008.77
6.133,-0.16,0.80,-0.15,7.18,4.11,0.01,-0.96,-1.70,0.11,1008.77
6.133,-0.39,0.86,-0.08,7.18,4.11,0.01,-0.96,-1.70,0.11,1008.77
6.134,-0.11,1.02,0.07,7.18,4.11,0.01,-0.96,-1.70,0.11,1008.77
6.134,-0.11,1.02,0.07,7.18,4.11,0.01,-0.50,0.29,-1.30,1008.77
6.135,-0.11,1.02,0.07,-2.30,-0.82,1.53,-0.50,0.29,-1.30,1008.77
6.191,-0.05,1.10,-0.02,-2.30,-0.82,1.53,-0.50,0.29,-1.30,1008.77
6.193,-0.19,1.02,-0.06,-2.30,-0.82,1.53,-0.50,0.29,-1.30,1008.77
6.194,-0.29,0.94,-0.15,-2.30,-0.82,1.53,-0.50,0.29,-1.30,1008.77
6.195,-0.29,0.94,-0.15,-2.30,-0.82,1.53,-0.19,-0.22,-0.64,1008.77
6.196,-0.29,0.94,-0.15,-1.44,0.36,1.20,-0.19,-0.22,-0.64,1008.77
6.2,-0.29,0.94,-0.15,-1.44,0.36,1.20,-0.19,-0.22,-0.64,1008.82
6.25,-0.29,0.94,-0.15,-0.40,0.07,-0.33,-0.19,-0.22,-0.64,1008.82
6.252,-0.25,0.97,-0.19,-0.40,0.07,-0.33,-0.19,-0.22,-0.64,1008.82
6.252,-0.07,0.99,-0.24,-0.40,0.07,-0.33,-0.19,-0.22,-0.64,1008.82
6.253,0.07,1.01,-0.24,-0.40,0.07,-0.33,-0.19,-0.22,-0.64,1008.82
6.254,0.07,1.01,-0.24,-0.40,0.07,-0.33,-0.14,-0.65,-0.07,1008.82
6.281,0.07,1.01,-0.24,-0.40,0.07,-0.33,-0.14,-0.65,-0.07,1008.87
6.31,0.09,1.02,-0.17,-0.40,0.07,-0.33,-0.14,-0.65,-0.07,1008.87
6.312,-0.03,0.97,-0.08,-0.40,0.07,-0.33,-0.14,-0.65,-0.07,1008.87
6.313,-0.09,0.98,-0.14,-0.40,0.07,-0.33,-0.14,-0.65,-0.07,1008.87
6.314,-0.09,0.98,-0.14,-0.40,0.07,-0.33,-0.08,-0.39,-0.15,1008.87
6.317,-0.09,0.98,-0.14,0.41,0.07,0.52,-0.08,-0.39,-0.15,1008.87
6.337,-0.09,0.98,-0.14,0.41,0.07,0.52,-0.08,-0.39,-0.15,1008.88
6.367,-0.02,0.95,-0.17,0.41,0.07,0.52,-0.08,-0.39,-0.15,1008.88
6.368,-0.02,0.96,-0.19,0.41,0.07,0.52,-0.08,-0.39,-0.15,1008.88
6.369,-0.01,1.01,-0.13,0.41,0.07,0.52,-0.08,-0.39,-0.15,1008.88
6.369,-0.01,1.01,-0.13,0.41,0.07,0.52,-0.00,-0.26,-0.22,1008.88
6.37,-0.01,1.01,-0.13,0.51,-0.06,0.15,-0.00,-0.26,-0.22,1008.88
6.4,-0.01,1.01,-0.13,0.51,-0.06,0.15,-0.00,-0.26,-0.22,1008.87
6.426,-0.04,0.98,-0.15,0.51,-0.06,0.15,-0.00,-0.26,-0.22,1008.87
6.427,-0.12,0.98,-0.11,0.51,-0.06,0.15,-0.00,-0.26,-0.22,1008.87
6.429,-0.12,0.97,-0.14,0.51,-0.06,0.15,-0.00,-0.26,-0.22,1008.87
6.43,-0.12,0.97,-0.14,0.51,-0.06,0.15,0.06,-0.44,-0.34,1008.87
6.431,-0.12,0.97,-0.14,-0.03,-0.04,0.46,0.06,-0.44,-0.34,1008.87
6.48,-0.12,0.97,-0.14,-0.03,-0.04,0.46,0.06,-0.44,-0.34,1008.86
6.483,-0.09,0.98,-0.16,-0.03,-0.04,0.46,0.06,-0.44,-0.34,1008.86
6.484,-0.03,1.02,-0.15,-0.03,-0.04,0.46,0.06,-0.44,-0.34,1008.86
6.484,-0.00,1.01,-0.23,-0.03,-0.04,0.46,0.06,-0.44,-0.34,1008.86
6.485,-0.00,1.01,-0.23,-0.03,-0.04,0.46,0.16,-0.39,-0.28,1008.86
6.485,-0.00,1.01,-0.23,0.66,0.27,0.07,0.16,-0.39,-0.28,1008.86
6.522,-0.00,1.01,-0.23,0.66,0.27,0.07,0.16,-0.39,-0.28,1008.87
6.541,-0.13,0.98,-0.21,0.66,0.27,0.07,0.16,-0.39,-0.28,1008.87
6.542,-0.21,1.00,-0.17,0.66,0.27,0.07,0.16,-0.39,-0.28,1008.87
6.542,-0.17,0.99,-0.18,0.66,0.27,0.07,0.16,-0.39,-0.28,1008.87
6.543,-0.17,0.99,-0.18,0.66,0.27,0.07,0.26,-0.06,-0.40,1008.87
6.543,-0.17,0.99,-0.18,-0.34,0.20,0.15,0.26,-0.06,-0.40,1008.87
6.601,-0.14,0.98,-0.19,-0.34,0.20,0.15,0.26,-0.06,-0.40,1008.87
6.602,-0.16,0.99,-0.19,-0.34,0.20,0.15,0.26,-0.06,-0.40,1008.87
6.602,-0.13,0.99,-0.19,-0.34,0.20,0.15,0.26,-0.06,-0.40,1008.87
6.603,-0.13,0.99,-0.19,-0.34,0.20,0.15,0.37,0.04,-0.26,1008.87
6.603,-0.13,0.99,-0.19,0.04,0.22,0.31,0.37,0.04,-0.26,1008.87
6.603,-0.13,0.99,-0.19,0.04,0.22,0.31,0.37,0.04,-0.26,1008.87
6.658,-0.09,0.99,-0.17,0.04,0.22,0.31,0.37,0.04,-0.26,1008.87
6.659,-0.07,0.97,-0.16,0.04,0.22,0.31,0.37,0.04,-0.26,1008.87
6.659,-0.07,0.98,-0.16,0.04,0.22,0.31,0.37,0.04,-0.26,1008.87
6.66,-0.07,0.98,-0.16,0.04,0.22,0.31,0.61,-0.12,-0.32,1008.87
6.66,-0.07,0.98,-0.16,0.88,0.26,0.87,0.61,-0.12,-0.32,1008.87
6.681,-0.07,0.98,-0.16,0.88,0.26,0.87,0.61,-0.12,-0.32,1008.87
6.726,-0.05,1.04,-0.13,0.88,0.26,0.87,0.61,-0.12,-0.32,1008.87
6.728,-0.04,1.07,-0.18,0.88,0.26,0.87,0.61,-0.12,-0.32,1008.87
6.728,-0.06,1.07,-0.20,0.88,0.26,0.87,0.61,-0.12,-0.32,1008.87
6.729,-0.06,1.07,-0.20,1.53,1.27,1.30,0.61,-0.12,-0.32,1008.87
6.729,-0.06,1.07,-0.20,1.53,1.27,1.30,0.99,-0.40,-0.60,1008.87
6.73,-0.06,1.07,-0.20,1.53,1.27,1.30,0.99,-0.40,-0.60,1008.86
6.775,-0.05,1.13,-0.22,1.53,1.27,1.30,0.99,-0.40,-0.60,1008.86
6.776,-0.01,1.26,-0.25,1.53,1.27,1.30,0.99,-0.40,-0.60,1008.86
6.777,0.06,1.30,-0.29,1.53,1.27,1.30,0.99,-0.40,-0.60,1008.86
6.777,0.06,1.30,-0.29,1.53,1.27,1.30,1.44,-0.35,-0.82,1008.86
6.778,0.06,1.30,-0.29,2.45,3.22,1.16,1.44,-0.35,-0.82,1008.86
6.801,0.06,1.30,-0.29,2.45,3.22,1.16,1.44,-0.35,-0.82,1008.86
6.836,0.17,1.25,-0.30,2.45,3.22,1.16,1.44,-0.35,-0.82,1008.86
6.837,0.27,1.26,-0.22,2.45,3.22,1.16,1.44,-0.35,-0.82,1008.86
6.838,0.30,1.32,-0.10,2.45,3.22,1.16,1.44,-0.35,-0.82,1008.86
6.838,0.30,1.32,-0.10,5.47,4.24,2.36,1.44,-0.35,-0.82,1008.86
6.839,0.30,1.32,-0.10,5.47,4.24,2.36,1.80,-0.72,-1.07,1008.86
6.881,0.30,1.32,-0.10,5.47,4.24,2.36,1.80,-0.72,-1.07,1008.84
6.891,0.21,1.36,0.02,5.47,4.24,2.36,1.80,-0.72,-1.07,1008.84
6.893,-0.03,1.26,0.20,5.47,4.24,2.36,1.80,-0.72,-1.07,1008.84
6.894,-0.49,1.19,0.14,5.47,4.24,2.36,1.80,-0.72,-1.07,1008.84
6.895,-0.49,1.19,0.14,5.47,4.24,2.36,1.79,-0.86,-1.74,1008.84
6.896,-0.49,1.19,0.14,3.03,4.95,6.12,1.79,-0.86,-1.74,1008.84
6.92,-0.49,1.19,0.14,3.03,4.95,6.12,1.79,-0.86,-1.74,1008.83
6.95,-0.87,1.30,-0.07,3.03,4.95,6.12,1.79,-0.86,-1.74,1008.83
6.951,-0.99,1.19,-0.20,3.03,4.95,6.12,1.79,-0.86,-1.74,1008.83
6.951,-0.77,0.84,-0.30,3.03,4.95,6.12,1.79,-0.86,-1.74,1008.83
6.952,-0.77,0.84,-0.30,3.03,4.95,6.12,1.61,-2.16,-1.95,1008.83
6.952,-0.77,0.84,-0.30,-3.06,4.31,3.02,1.61,-2.16,-1.95,1008.83
7.0,-0.77,0.84,-0.30,-3.06,4.31,3.02,1.61,-2.16,-1.95,1008.82
7.008,-0.57,0.82,-0.46,-3.06,4.31,3.02,1.61,-2.16,-1.95,1008.82
7.008,-0.24,0.81,-0.45,-3.06,4.31,3.02,1.61,-2.16,-1.95,1008.82
7.009,0.11,0.54,0.02,-3.06,4.31,3.02,1.61,-2.16,-1.95,1008.82
7.009,0.11,0.54,0.02,-3.06,4.31,3.02,0.59,-2.87,0.70,1008.82
7.009,0.11,0.54,0.02,3.69,0.45,1.23,0.59,-2.87,0.70,1008.82
7.067,0.11,0.54,0.02,3.61,-2.08,3.36,0.59,-2.87,0.70,1008.82
7.068,0.05,0.45,0.09,3.61,-2.08,3.36,0.59,-2.87,0.70,1008.82
7.068,-0.23,0.55,-0.00,3.61,-2.08,3.36,0.59,-2.87,0.70,1008.82
7.068,-0.39,0.63,-0.05,3.61,-2.08,3.36,0.59,-2.87,0.70,1008.82
7.069,-0.39,0.63,-0.05,3.61,-2.08,3.36,-0.31,-2.13,2.20,1008.82
7.082,-0.39,0.63,-0.05,3.61,-2.08,3.36,-0.31,-2.13,2.20,1008.80
7.121,-0.39,0.63,-0.05,3.61,-2.08,3.36,-0.31,-2.13,2.20,1008.83
7.124,-0.40,0.61,-0.14,3.61,-2.08,3.36,-0.31,-2.13,2.20,1008.83
7.124,-0.36,0.64,-0.19,3.61,-2.08,3.36,-0.31,-2.13,2.20,1008.83
7.125,-0.24,0.70,-0.20,3.61,-2.08,3.36,-0.31,-2.13,2.20,1008.83
7.125,-0.24,0.70,-0.20,3.61,-2.08,3.36,-0.73,-0.67,3.97,1008.83
7.126,-0.24,0.70,-0.20,0.46,-2.24,0.95,-0.73,-0.67,3.97,1008.83
7.183,-0.11,0.82,-0.20,0.46,-2.24,0.95,-0.73,-0.67,3.97,1008.83
7.184,-0.16,0.99,-0.26,0.46,-2.24,0.95,-0.73,-0.67,3.97,1008.83
7.185,-0.36,1.16,-0.27,0.46,-2.24,0.95,-0.73,-0.67,3.97,1008.83
7.185,-0.36,1.16,-0.27,0.46,-2.24,0.95,-1.35,0.64,4.91,1008.83
7.186,-0.36,1.16,-0.27,-1.03,0.23,-0.35,-1.35,0.64,4.91,1008.83
7.201,-0.36,1.16,-0.27,-1.03,0.23,-0.35,-1.35,0.64,4.91,1008.83
7.242,-0.36,1.16,-0.27,-6.75,3.47,-2.12,-1.35,0.64,4.91,1008.83
7.244,-0.54,1.32,-0.30,-6.75,3.47,-2.12,-1.35,0.64,4.91,1008.83
7.245,-0.55,1.41,-0.33,-6.75,3.47,-2.12,-1.35,0.64,4.91,1008.83
7.246,-0.42,1.25,-0.32,-6.75,3.47,-2.12,-1.35,0.64,4.91,1008.83
7.247,-0.42,1.25,-0.32,-6.75,3.47,-2.12,-1.98,0.12,5.27,1008.83
7.28,-0.42,1.25,-0.32,-6.75,3.47,-2.12,-1.98,0.12,5.27,1008.81
7.299,-0.46,1.26,-0.22,-6.75,3.47,-2.12,-1.98,0.12,5.27,1008.81
7.3,-0.45,1.41,-0.16,-6.75,3.47,-2.12,-1.98,0.12,5.27,1008.81
7.3,-0.38,1.21,-0.25,-6.75,3.47,-2.12,-1.98,0.12,5.27,1008.81
7.3,-0.38,1.21,-0.25,-6.75,3.47,-2.12,-1.64,-0.23,4.46,1008.81
7.301,-0.38,1.21,-0.25,-8.26,3.75,-1.87,-1.64,-0.23,4.46,1008.81
7.32,-0.38,1.21,-0.25,-8.26,3.75,-1.87,-1.64,-0.23,4.46,1008.79
7.357,-0.50,0.98,-0.25,-8.26,3.75,-1.87,-1.64,-0.23,4.46,1008.79
7.358,-0.67,0.85,-0.23,-8.26,3.75,-1.87,-1.64,-0.23,4.46,1008.79
7.359,-0.85,0.80,-0.30,-8.26,3.75,-1.87,-1.64,-0.23,4.46,1008.79
7.359,-0.85,0.80,-0.30,-8.26,3.75,-1.87,-0.79,-0.00,1.04,1008.79
7.36,-0.85,0.80,-0.30,-10.99,-0.02,-2.75,-0.79,-0.00,1.04,1008.79
7.4,-0.85,0.80,-0.30,-10.99,-0.02,-2.75,-0.79,-0.00,1.04,1008.80
7.416,-0.70,0.87,-0.22,-10.99,-0.02,-2.75,-0.79,-0.00,1.04,1008.80
7.418,-0.43,1.11,-0.47,-10.99,-0.02,-2.75,-0.79,-0.00,1.04,1008.80
7.419,0.59,1.45,-0.22,-10.99,-0.02,-2.75,-0.79,-0.00,1.04,1008.80
7.419,0.59,1.45,-0.22,-10.99,-0.02,-2.75,-0.16,-1.51,-1.68,1008.80
7.42,0.59,1.45,-0.22,-5.22,2.16,-2.84,-0.16,-1.51,-1.68,1008.80
7.474,2.59,1.10,0.31,-5.22,2.16,-2.84,-0.16,-1.51,-1.68,1008.80
7.476,1.48,1.42,-0.03,-5.22,2.16,-2.84,-0.16,-1.51,-1.68,1008.80
7.476,-0.68,1.65,-0.60,-5.22,2.16,-2.84,-0.16,-1.51,-1.68,1008.80
7.477,-0.68,1.65,-0.60,-5.22,2.16,-2.84,-0.43,-0.93,-0.99,1008.80
7.477,-0.68,1.65,-0.60,8.00,4.32,-0.97,-0.43,-0.93,-0.99,1008.80
7.481,-0.68,1.65,-0.60,8.00,4.32,-0.97,-0.43,-0.93,-0.99,1008.81
7.521,-0.68,1.65,-0.60,8.00,4.32,-0.97,-0.43,-0.93,-0.99,1008.82
7.544,-0.67,0.88,-0.55,8.00,4.32,-0.97,-0.43,-0.93,-0.99,1008.82
7.553,-0.10,0.52,0.47,8.00,4.32,-0.97,-0.43,-0.93,-0.99,1008.82
7.554,0.12,0.84,0.54,8.00,4.32,-0.97,-0.43,-0.93,-0.99,1008.82
7.554,0.12,0.84,0.54,8.00,4.32,-0.97,-0.20,-0.08,-2.28,1008.82
7.555,0.12,0.84,0.54,-3.86,-2.26,1.49,-0.20,-0.08,-2.28,1008.82
7.592,0.20,1.12,0.15,-3.86,-2.26,1.49,-0.20,-0.08,-2.28,1008.82
7.593,-0.07,1.09,-0.05,-3.86,-2.26,1.49,-0.20,-0.08,-2.28,1008.82
7.593,-0.26,0.96,-0.13,-3.86,-2.26,1.49,-0.20,-0.08,-2.28,1008.82
7.594,-0.26,0.96,-0.13,-3.86,-2.26,1.49,0.12,-0.21,-1.56,1008.82
7.594,-0.26,0.96,-0.13,-1.27,0.62,-0.04,0.12,-0.21,-1.56,1008.82
7.6,-0.26,0.96,-0.13,-1.27,0.62,-0.04,0.12,-0.21,-1.56,1008.81
7.65,-0.16,0.99,-0.07,-1.27,0.62,-0.04,0.12,-0.21,-1.56,1008.81
7.652,0.03,1.06,-0.03,-1.27,0.62,-0.04,0.12,-0.21,-1.56,1008.81
7.653,-0.01,1.07,-0.04,-1.27,0.62,-0.04,0.12,-0.21,-1.56,1008.81
7.653,-0.01,1.07,-0.04,-1.27,0.62,-0.04,0.06,-0.14,-0.97,1008.81
7.653,-0.01,1.07,-0.04,-0.72,0.42,-0.35,0.06,-0.14,-0.97,1008.81
7.68,-0.01,1.07,-0.04,-0.72,0.42,-0.35,0.06,-0.14,-0.97,1008.83
7.709,-0.11,1.04,-0.06,-0.72,0.42,-0.35,0.06,-0.14,-0.97,1008.83
7.711,-0.05,0.99,-0.05,-0.72,0.42,-0.35,0.06,-0.14,-0.97,1008.83
7.712,0.05,0.98,-0.01,-0.72,0.42,-0.35,0.06,-0.14,-0.97,1008.83
7.713,0.05,0.98,-0.01,-0.22,0.07,-0.25,0.06,-0.14,-0.97,1008.83
7.714,0.05,0.98,-0.01,-0.22,0.07,-0.25,0.04,-0.14,-0.74,1008.83
7.724,0.05,0.98,-0.01,-0.22,0.07,-0.25,0.04,-0.14,-0.74,1008.85
7.768,0.05,1.01,0.03,-0.22,0.07,-0.25,0.04,-0.14,-0.74,1008.85
7.769,0.01,1.00,0.02,-0.22,0.07,-0.25,0.04,-0.14,-0.74,1008.85
7.77,-0.05,0.99,0.01,-0.22,0.07,-0.25,0.04,-0.14,-0.74,1008.85
7.77,-0.05,0.99,0.01,-0.22,0.07,-0.25,0.06,0.15,-0.81,1008.85
7.771,-0.05,0.99,0.01,0.59,0.04,0.39,0.06,0.15,-0.81,1008.85
7.801,-0.05,0.99,0.01,0.59,0.04,0.39,0.06,0.15,-0.81,1008.86
7.825,-0.09,1.00,-0.00,0.59,0.04,0.39,0.06,0.15,-0.81,1008.86
7.826,-0.04,1.00,-0.00,0.59,0.04,0.39,0.06,0.15,-0.81,1008.86
7.827,0.02,0.99,-0.01,0.59,0.04,0.39,0.06,0.15,-0.81,1008.86
7.827,0.02,0.99,-0.01,0.59,0.04,0.39,0.11,0.09,-0.92,1008.86
7.828,0.02,0.99,-0.01,0.74,0.04,0.16,0.11,0.09,-0.92,1008.86
7.883,0.02,0.99,-0.01,0.74,0.04,0.16,0.11,0.09,-0.92,1008.85
7.886,-0.05,1.00,-0.02,0.74,0.04,0.16,0.11,0.09,-0.92,1008.85
7.887,-0.12,1.00,-0.05,0.74,0.04,0.16,0.11,0.09,-0.92,1008.85
7.888,-0.18,1.00,-0.06,0.74,0.04,0.16,0.11,0.09,-0.92,1008.85
7.889,-0.18,1.00,-0.06,0.74,0.04,0.16,0.14,0.32,-1.19,1008.85
7.89,-0.18,1.00,-0.06,0.65,0.20,-0.09,0.14,0.32,-1.19,1008.85
7.922,-0.18,1.00,-0.06,0.65,0.20,-0.09,0.14,0.32,-1.19,1008.86
7.941,-0.23,1.00,-0.08,0.65,0.20,-0.09,0.14,0.32,-1.19,1008.86
7.942,-0.24,1.01,-0.07,0.65,0.20,-0.09,0.14,0.32,-1.19,1008.86
7.943,-0.17,1.01,-0.06,0.65,0.20,-0.09,0.14,0.32,-1.19,1008.86
7.943,-0.17,1.01,-0.06,0.35,0.43,-0.21,0.14,0.32,-1.19,1008.86
7.944,-0.17,1.01,-0.06,0.35,0.43,-0.21,0.14,0.25,-1.24,1008.86
8.0,-0.14,1.03,-0.04,0.35,0.43,-0.21,0.14,0.25,-1.24,1008.86
8.001,-0.19,1.09,-0.01,0.35,0.43,-0.21,0.14,0.25,-1.24,1008.86
8.001,-0.22,1.11,0.02,0.35,0.43,-0.21,0.14,0.25,-1.24,1008.86
8.002,-0.22,1.11,0.02,1.39,1.31,0.49,0.14,0.25,-1.24,1008.86
8.002,-0.22,1.11,0.02,1.39,1.31,0.49,0.23,0.01,-1.41,1008.86
8.003,-0.22,1.11,0.02,1.39,1.31,0.49,0.23,0.01,-1.41,1008.87
8.058,-0.20,1.12,0.03,1.39,1.31,0.49,0.23,0.01,-1.41,1008.87
8.059,-0.15,1.17,0.01,1.39,1.31,0.49,0.23,0.01,-1.41,1008.87
8.06,-0.07,1.32,-0.03,1.39,1.31,0.49,0.23,0.01,-1.41,1008.87
8.06,-0.07,1.32,-0.03,2.60,2.85,0.86,0.23,0.01,-1.41,1008.87
8.061,-0.07,1.32,-0.03,2.60,2.85,0.86,0.39,0.28,-1.64,1008.87
8.081,-0.07,1.32,-0.03,2.60,2.85,0.86,0.39,0.28,-1.64,1008.87
8.116,0.12,1.55,0.01,2.60,2.85,0.86,0.39,0.28,-1.64,1008.87
8.119,0.45,1.69,-0.09,2.60,2.85,0.86,0.39,0.28,-1.64,1008.87
8.12,0.76,1.72,-0.23,2.60,2.85,0.86,0.39,0.28,-1.64,1008.87
8.12,0.76,1.72,-0.23,2.60,2.85,0.86,0.48,0.84,-2.01,1008.87
8.121,0.76,1.72,-0.23,9.17,7.66,0.26,0.48,0.84,-2.01,1008.87
8.122,0.76,1.72,-0.23,9.17,7.66,0.26,0.48,0.84,-2.01,1008.87
8.175,1.04,1.66,-0.23,9.17,7.66,0.26,0.48,0.84,-2.01,1008.87
8.176,0.66,1.05,-0.22,9.17,7.66,0.26,0.48,0.84,-2.01,1008.87
8.176,-0.46,0.74,-0.41,9.17,7.66,0.26,0.48,0.84,-2.01,1008.87
8.177,-0.46,0.74,-0.41,9.17,7.66,0.26,0.50,3.14,-3.27,1008.87
8.177,-0.46,0.74,-0.41,9.86,3.81,-0.29,0.50,3.14,-3.27,1008.87
8.202,-0.46,0.74,-0.41,9.86,3.81,-0.29,0.50,3.14,-3.27,1008.85
8.243,-1.21,0.92,-0.52,9.86,3.81,-0.29,0.50,3.14,-3.27,1008.85
8.244,-1.22,0.98,-0.48,9.86,3.81,-0.29,0.50,3.14,-3.27,1008.85
8.245,-1.05,0.58,-0.48,9.86,3.81,-0.29,0.50,3.14,-3.27,1008.85
8.257,-1.05,0.58,-0.48,9.86,3.81,-0.29,0.70,3.04,-3.65,1008.85
8.259,-1.05,0.58,-0.48,-4.62,2.04,-0.88,0.70,3.04,-3.65,1008.85
8.28,-1.05,0.58,-0.48,-4.62,2.04,-0.88,0.70,3.04,-3.65,1008.83
8.291,-0.85,0.36,-0.66,-4.62,2.04,-0.88,0.70,3.04,-3.65,1008.83
8.292,-0.64,0.27,-0.54,-4.62,2.04,-0.88,0.70,3.04,-3.65,1008.83
8.292,-0.25,0.20,-0.34,-4.62,2.04,-0.88,0.70,3.04,-3.65,1008.83
8.293,-0.25,0.20,-0.34,-4.62,2.04,-0.88,-1.90,0.60,0.09,1008.83
8.293,-0.25,0.20,-0.34,0.86,-3.74,-1.54,-1.90,0.60,0.09,1008.83
8.32,-0.25,0.20,-0.34,0.86,-3.74,-1.54,-1.90,0.60,0.09,1008.78
8.354,0.12,0.02,-0.20,0.86,-3.74,-1.54,-1.90,0.60,0.09,1008.78
8.355,0.27,0.10,-0.35,0.86,-3.74,-1.54,-1.90,0.60,0.09,1008.78
8.355,0.11,0.36,-0.49,0.86,-3.74,-1.54,-1.90,0.60,0.09,1008.78
8.356,0.11,0.36,-0.49,0.86,-3.74,-1.54,-2.79,-0.19,2.84,1008.78
8.356,0.11,0.36,-0.49,6.95,-6.20,-1.10,-2.79,-0.19,2.84,1008.78
8.401,0.11,0.36,-0.49,6.95,-6.20,-1.10,-2.79,-0.19,2.84,1008.78
8.409,-0.08,0.62,-0.49,6.95,-6.20,-1.10,-2.79,-0.19,2.84,1008.78
8.41,-0.12,0.79,-0.49,6.95,-6.20,-1.10,-2.79,-0.19,2.84,1008.78
8.411,-0.06,0.70,-0.47,6.95,-6.20,-1.10,-2.79,-0.19,2.84,1008.78
8.411,-0.06,0.70,-0.47,6.95,-6.20,-1.10,-2.65,1.40,3.73,1008.78
8.411,-0.06,0.70,-0.47,2.44,-2.08,-3.36,-2.65,1.40,3.73,1008.78
8.466,0.08,0.70,-0.42,2.44,-2.08,-3.36,-2.65,1.40,3.73,1008.78
8.469,0.14,1.06,-0.47,2.44,-2.08,-3.36,-2.65,1.40,3.73,1008.78
8.469,0.03,1.53,-0.62,2.44,-2.08,-3.36,-2.65,1.40,3.73,1008.78
8.47,0.03,1.53,-0.62,1.24,1.09,-4.26,-2.65,1.40,3.73,1008.78
8.471,0.03,1.53,-0.62,1.24,1.09,-4.26,-2.13,3.54,4.74,1008.78
8.482,0.03,1.53,-0.62,1.24,1.09,-4.26,-2.13,3.54,4.74,1008.83
8.52,0.03,1.53,-0.62,1.24,1.09,-4.26,-2.13,3.54,4.74,1008.84
8.524,-0.30,1.81,-0.72,1.24,1.09,-4.26,-2.13,3.54,4.74,1008.84
8.524,-0.61,1.73,-0.68,1.24,1.09,-4.26,-2.13,3.54,4.74,1008.84
8.524,-0.66,1.43,-0.51,1.24,1.09,-4.26,-2.13,3.54,4.74,1008.84
8.525,-0.66,1.43,-0.51,1.24,1.09,-4.26,-2.34,3.59,4.54,1008.84
8.525,-0.66,1.43,-0.51,-7.08,6.69,-6.93,-2.34,3.59,4.54,1008.84
8.583,-0.40,1.18,-0.32,-7.08,6.69,-6.93,-2.34,3.59,4.54,1008.84
8.584,-0.32,1.10,-0.45,-7.08,6.69,-6.93,-2.34,3.59,4.54,1008.84
8.585,-0.47,0.97,-0.35,-7.08,6.69,-6.93,-2.34,3.59,4.54,1008.84
8.586,-0.47,0.97,-0.35,-7.08,6.69,-6.93,-1.27,1.97,3.01,1008.84
8.586,-0.47,0.97,-0.35,-7.24,1.61,-5.29,-1.27,1.97,3.01,1008.84
8.601,-0.47,0.97,-0.35,-7.24,1.61,-5.29,-1.27,1.97,3.01,1008.77
8.643,-0.60,0.80,-0.34,-7.24,1.61,-5.29,-1.27,1.97,3.01,1008.77
8.644,-0.68,0.66,-0.27,-7.24,1.61,-5.29,-1.27,1.97,3.01,1008.77
8.644,-0.62,0.97,-0.51,-7.24,1.61,-5.29,-1.27,1.97,3.01,1008.77
8.645,-0.62,0.97,-0.51,-7.24,1.61,-5.29,0.41,0.76,-0.73,1008.77
8.645,-0.62,0.97,-0.51,-8.93,-1.19,-5.13,0.41,0.76,-0.73,1008.77
8.68,-0.62,0.97,-0.51,-8.93,-1.19,-5.13,0.41,0.76,-0.73,1008.78
8.703,0.34,1.59,0.24,-8.93,-1.19,-5.13,0.41,0.76,-0.73,1008.78
8.704,2.28,1.21,1.13,-8.93,-1.19,-5.13,0.41,0.76,-0.73,1008.78
8.705,0.71,1.21,0.10,-8.93,-1.19,-5.13,0.41,0.76,-0.73,1008.78
8.707,0.71,1.21,0.10,-8.93,-1.19,-5.13,-0.44,-2.07,-0.33,1008.78
8.708,0.71,1.21,0.10,7.99,3.89,3.38,-0.44,-2.07,-0.33,1008.78
8.721,0.71,1.21,0.10,7.99,3.89,3.38,-0.44,-2.07,-0.33,1008.81
8.758,-0.81,1.39,-0.59,7.99,3.89,3.38,-0.44,-2.07,-0.33,1008.81
8.759,0.04,0.89,-0.06,7.99,3.89,3.38,-0.44,-2.07,-0.33,1008.81
8.76,0.37,0.94,0.12,7.99,3.89,3.38,-0.44,-2.07,-0.33,1008.81
8.761,0.37,0.94,0.12,7.99,3.89,3.38,0.30,0.51,-2.10,1008.81
8.761,0.37,0.94,0.12,-2.95,0.97,-3.00,0.30,0.51,-2.10,1008.81
8.801,0.37,0.94,0.12,-2.95,0.97,-3.00,0.30,0.51,-2.10,1008.84
8.816,-0.06,1.08,0.06,-2.95,0.97,-3.00,0.30,0.51,-2.10,1008.84
8.818,-0.55,1.08,0.11,-2.95,0.97,-3.00,0.30,0.51,-2.10,1008.84
8.818,-0.39,1.03,0.14,-2.95,0.97,-3.00,0.30,0.51,-2.10,1008.84
8.819,-0.39,1.03,0.14,-2.95,0.97,-3.00,0.08,-0.20,-1.38,1008.84
8.82,-0.39,1.03,0.14,-4.05,0.78,-0.19,0.08,-0.20,-1.38,1008.84
8.874,0.32,0.97,0.22,-4.05,0.78,-0.19,0.08,-0.20,-1.38,1008.84
8.876,0.65,0.99,0.15,-4.05,0.78,-0.19,0.08,-0.20,-1.38,1008.84
8.876,0.21,0.99,0.14,-4.05,0.78,-0.19,0.08,-0.20,-1.38,1008.84
8.877,0.21,0.99,0.14,-4.05,0.78,-0.19,0.15,-0.09,-0.62,1008.84
8.877,0.21,0.99,0.14,3.36,-0.03,0.58,0.15,-0.09,-0.62,1008.84
8.888,0.21,0.99,0.14,3.36,-0.03,0.58,0.15,-0.09,-0.62,1008.85
8.92,0.21,0.99,0.14,3.36,-0.03,0.58,0.15,-0.09,-0.62,1008.85
8.932,-0.17,1.01,0.15,3.36,-0.03,0.58,0.15,-0.09,-0.62,1008.85
8.933,-0.17,0.99,0.12,3.36,-0.03,0.58,0.15,-0.09,-0.62,1008.85
8.933,-0.05,0.99,0.14,3.36,-0.03,0.58,0.15,-0.09,-0.62,1008.85
8.934,-0.05,0.99,0.14,3.36,-0.03,0.58,0.25,0.22,-1.05,1008.85
8.934,-0.05,0.99,0.14,-1.14,0.06,0.34,0.25,0.22,-1.05,1008.85
8.991,0.02,0.97,0.12,-1.14,0.06,0.34,0.25,0.22,-1.05,1008.85
8.992,-0.03,1.00,0.10,-1.14,0.06,0.34,0.25,0.22,-1.05,1008.85
8.992,-0.04,1.02,0.08,-1.14,0.06,0.34,0.25,0.22,-1.05,1008.85
8.992,-0.04,1.02,0.08,-1.14,0.06,0.34,0.21,0.13,-0.80,1008.85
8.993,-0.04,1.02,0.08,0.41,0.06,0.15,0.21,0.13,-0.80,1008.85
9.001,-0.04,1.02,0.08,0.41,0.06,0.15,0.21,0.13,-0.80,1008.84
9.049,0.01,1.01,0.09,0.41,0.06,0.15,0.21,0.13,-0.80,1008.84
9.051,0.03,1.00,0.12,0.41,0.06,0.15,0.21,0.13,-0.80,1008.84
9.051,-0.05,1.00,0.07,0.41,0.06,0.15,0.21,0.13,-0.80,1008.84
9.052,-0.05,1.00,0.07,0.41,0.06,0.15,0.23,0.27,-0.90,1008.84
9.053,-0.05,1.00,0.07,1.05,0.19,0.20,0.23,0.27,-0.90,1008.84
9.081,-0.05,1.00,0.07,1.05,0.19,0.20,0.23,0.27,-0.90,1008.83
9.107,-0.12,1.01,0.05,1.05,0.19,0.20,0.23,0.27,-0.90,1008.83
9.108,-0.06,1.00,0.08,1.05,0.19,0.20,0.23,0.27,-0.90,1008.83
9.108,-0.08,1.01,0.04,1.05,0.19,0.20,0.23,0.27,-0.90,1008.83
9.109,-0.08,1.01,0.04,1.05,0.19,0.20,0.25,0.40,-1.05,1008.83
9.109,-0.08,1.01,0.04,0.79,0.23,0.02,0.25,0.40,-1.05,1008.83
9.12,-0.08,1.01,0.04,0.79,0.23,0.02,0.25,0.40,-1.05,1008.82
9.167,-0.20,1.02,-0.02,0.79,0.23,0.02,0.25,0.40,-1.05,1008.82
9.168,-0.29,1.02,-0.06,0.79,0.23,0.02,0.25,0.40,-1.05,1008.82
9.169,-0.26,0.99,-0.01,0.79,0.23,0.02,0.25,0.40,-1.05,1008.82
9.169,-0.26,0.99,-0.01,0.79,0.23,0.02,0.15,0.51,-1.11,1008.82
9.169,-0.26,0.99,-0.01,-0.15,0.42,-0.65,0.15,0.51,-1.11,1008.82
9.2,-0.26,0.99,-0.01,-0.15,0.42,-0.65,0.15,0.51,-1.11,1008.84
9.224,-0.21,0.99,0.06,-0.15,0.42,-0.65,0.15,0.51,-1.11,1008.84
9.225,-0.19,1.05,0.06,-0.15,0.42,-0.65,0.15,0.51,-1.11,1008.84
9.225,-0.02,1.09,0.05,-0.15,0.42,-0.65,0.15,0.51,-1.11,1008.84
9.225,-0.02,1.09,0.05,-0.15,0.42,-0.65,0.06,0.29,-0.99,1008.84
9.226,-0.02,1.09,0.05,1.43,0.87,0.23,0.06,0.29,-0.99,1008.84
9.28,-0.02,1.09,0.05,1.43,0.87,0.23,0.06,0.29,-0.99,1008.85
9.282,0.02,1.10,0.04,1.43,0.87,0.23,0.06,0.29,-0.99,1008.85
9.282,-0.08,1.06,0.03,1.43,0.87,0.23,0.06,0.29,-0.99,1008.85
9.283,-0.15,1.05,0.03,1.43,0.87,0.23,0.06,0.29,-0.99,1008.85
9.283,-0.15,1.05,0.03,1.43,0.87,0.23,0.09,0.62,-1.50,1008.85
9.283,-0.15,1.05,0.03,2.91,1.38,0.19,0.09,0.62,-1.50,1008.85
9.32,-0.15,1.05,0.03,2.91,1.38,0.19,0.09,0.62,-1.50,1008.86
9.34,-0.12,1.14,0.05,2.91,1.38,0.19,0.09,0.62,-1.50,1008.86
9.341,-0.00,1.28,0.03,2.91,1.38,0.19,0.09,0.62,-1.50,1008.86
9.341,0.02,1.45,-0.03,2.91,1.38,0.19,0.09,0.62,-1.50,1008.86
9.344,0.02,1.45,-0.03,2.91,1.38,0.19,0.06,1.20,-1.95,1008.86
9.345,0.02,1.45,-0.03,4.21,3.93,0.33,0.06,1.20,-1.95,1008.86
9.4,0.26,1.57,-0.11,4.21,3.93,0.33,0.06,1.20,-1.95,1008.86
9.401,0.65,1.64,-0.19,4.21,3.93,0.33,0.06,1.20,-1.95,1008.86
9.402,0.88,1.41,-0.32,4.21,3.93,0.33,0.06,1.20,-1.95,1008.86
9.402,0.88,1.41,-0.32,11.15,6.89,-1.15,0.06,1.20,-1.95,1008.86
9.403,0.88,1.41,-0.32,11.15,6.89,-1.15,-0.20,2.78,-2.18,1008.86
9.403,0.88,1.41,-0.32,11.15,6.89,-1.15,-0.20,2.78,-2.18,1008.86
9.457,0.23,0.87,-0.43,11.15,6.89,-1.15,-0.20,2.78,-2.18,1008.86
9.458,-0.76,0.81,-0.50,11.15,6.89,-1.15,-0.20,2.78,-2.18,1008.86
9.458,-1.17,0.92,-0.46,11.15,6.89,-1.15,-0.20,2.78,-2.18,1008.86
9.458,-1.17,0.92,-0.46,11.15,6.89,-1.15,0.21,5.15,-4.11,1008.86
9.459,-1.17,0.92,-0.46,1.00,1.75,-1.71,0.21,5.15,-4.11,1008.86
9.48,-1.17,0.92,-0.46,1.00,1.75,-1.71,0.21,5.15,-4.11,1008.86
9.516,-1.06,0.80,-0.51,1.00,1.75,-1.71,0.21,5.15,-4.11,1008.86
9.517,-0.88,0.49,-0.60,1.00,1.75,-1.71,0.21,5.15,-4.11,1008.86
9.518,-0.89,0.42,-0.76,1.00,1.75,-1.71,0.21,5.15,-4.11,1008.86
9.518,-0.89,0.42,-0.76,1.00,1.75,-1.71,-0.28,3.22,-2.26,1008.86
9.518,-0.89,0.42,-0.76,-2.46,-0.35,-2.09,-0.28,3.22,-2.26,1008.86
9.52,-0.89,0.42,-0.76,-2.46,-0.35,-2.09,-0.28,3.22,-2.26,1008.83
9.574,-0.79,0.37,-0.66,-2.46,-0.35,-2.09,-0.28,3.22,-2.26,1008.83
9.575,-0.37,0.31,-0.35,-2.46,-0.35,-2.09,-0.28,3.22,-2.26,1008.83
9.575,0.12,0.13,-0.19,-2.46,-0.35,-2.09,-0.28,3.22,-2.26,1008.83
9.576,0.12,0.13,-0.19,-2.46,-0.35,-2.09,-2.84,0.52,0.86,1008.83
9.576,0.12,0.13,-0.19,2.86,-4.12,-0.72,-2.84,0.52,0.86,1008.83
9.601,0.12,0.13,-0.19,2.86,-4.12,-0.72,-2.84,0.52,0.86,1008.79
9.633,0.30,0.19,-0.30,2.86,-4.12,-0.72,-2.84,0.52,0.86,1008.79
9.634,0.29,0.41,-0.53,2.86,-4.12,-0.72,-2.84,0.52,0.86,1008.79
9.634,0.09,0.64,-0.60,2.86,-4.12,-0.72,-2.84,0.52,0.86,1008.79
9.635,0.09,0.64,-0.60,2.86,-4.12,-0.72,-2.44,0.38,2.82,1008.79
9.635,0.09,0.64,-0.60,7.09,-3.99,-2.34,-2.44,0.38,2.82,1008.79
9.681,0.09,0.64,-0.60,7.09,-3.99,-2.34,-2.44,0.38,2.82,1008.82
9.69,-0.15,0.74,-0.57,7.09,-3.99,-2.34,-2.44,0.38,2.82,1008.82
9.691,-0.27,0.62,-0.55,7.09,-3.99,-2.34,-2.44,0.38,2.82,1008.82
9.692,-0.22,0.64,-0.49,7.09,-3.99,-2.34,-2.44,0.38,2.82,1008.82
9.692,-0.22,0.64,-0.49,0.68,-2.52,-3.37,-2.44,0.38,2.82,1008.82
9.692,-0.22,0.64,-0.49,0.68,-2.52,-3.37,-1.77,1.79,3.77,1008.82
9.721,-0.22,0.64,-0.49,0.68,-2.52,-3.37,-1.77,1.79,3.77,1008.87
9.749,-0.14,0.86,-0.44,0.68,-2.52,-3.37,-1.77,1.79,3.77,1008.87
9.749,-0.09,1.10,-0.43,0.68,-2.52,-3.37,-1.77,1.79,3.77,1008.87
9.75,-0.28,1.34,-0.56,0.68,-2.52,-3.37,-1.77,1.79,3.77,1008.87
9.75,-0.28,1.34,-0.56,0.68,-2.52,-3.37,-1.39,1.68,5.03,1008.87
9.75,-0.28,1.34,-0.56,-1.84,1.21,-3.34,-1.39,1.68,5.03,1008.87
9.801,-0.28,1.34,-0.56,-1.84,1.21,-3.34,-1.39,1.68,5.03,1008.84
9.808,-0.66,1.61,-0.67,-1.84,1.21,-3.34,-1.39,1.68,5.03,1008.84
9.809,-0.79,1.60,-0.44,-1.84,1.21,-3.34,-1.39,1.68,5.03,1008.84
9.809,-0.52,1.34,-0.19,-1.84,1.21,-3.34,-1.39,1.68,5.03,1008.84
9.81,-0.52,1.34,-0.19,-1.84,1.21,-3.34,-1.25,-0.14,5.34,1008.84
9.81,-0.52,1.34,-0.19,-9.32,5.61,-3.53,-1.25,-0.14,5.34,1008.84
9.866,0.04,1.10,0.17,-9.32,5.61,-3.53,-1.25,-0.14,5.34,1008.84
9.867,0.12,1.05,0.10,-9.32,5.61,-3.53,-1.25,-0.14,5.34,1008.84
9.867,-0.35,0.95,-0.14,-9.32,5.61,-3.53,-1.25,-0.14,5.34,1008.84
9.867,-0.35,0.95,-0.14,-9.32,5.61,-3.53,-0.65,-0.51,2.46,1008.84
9.868,-0.35,0.95,-0.14,-4.73,1.33,0.91,-0.65,-0.51,2.46,1008.84
9.881,-0.35,0.95,-0.14,-4.73,1.33,0.91,-0.65,-0.51,2.46,1008.78
9.921,-0.35,0.95,-0.14,-4.73,1.33,0.91,-0.65,-0.51,2.46,1008.84
9.924,-0.76,0.79,-0.17,-4.73,1.33,0.91,-0.65,-0.51,2.46,1008.84
9.924,-0.79,0.98,-0.15,-4.73,1.33,0.91,-0.65,-0.51,2.46,1008.84
9.924,0.25,1.30,-0.01,-4.73,1.33,0.91,-0.65,-0.51,2.46,1008.84
9.925,0.25,1.30,-0.01,-4.73,1.33,0.91,-0.05,-0.50,-1.36,1008.84
9.925,0.25,1.30,-0.01,-7.51,0.95,-0.51,-0.05,-0.50,-1.36,1008.84
9.983,2.22,1.17,0.29,-7.51,0.95,-0.51,-0.05,-0.50,-1.36,1008.84
9.984,1.57,1.34,0.16,-7.51,0.95,-0.51,-0.05,-0.50,-1.36,1008.84
9.985,-0.53,1.44,-0.55,-7.51,0.95,-0.51,-0.05,-0.50,-1.36,1008.84
9.985,-0.53,1.44,-0.55,-7.51,0.95,-0.51,-0.27,-0.16,-1.07,1008.84
9.985,-0.53,1.44,-0.55,7.86,3.55,0.13,-0.27,-0.16,-1.07,1008.84
10.001,-0.53,1.44,-0.55,7.86,3.55,0.13,-0.27,-0.16,-1.07,1008.84
10.043,-0.53,1.44,-0.55,-5.20,-0.69,-0.96,-0.27,-0.16,-1.07,1008.84
10.044,-0.74,0.96,-0.98,-5.20,-0.69,-0.96,-0.27,-0.16,-1.07,1008.84
10.044,-0.32,0.80,0.09,-5.20,-0.69,-0.96,-0.27,-0.16,-1.07,1008.84
10.045,-0.02,0.97,0.47,-5.20,-0.69,-0.96,-0.27,-0.16,-1.07,1008.84
10.045,-0.02,0.97,0.47,-5.20,-0.69,-0.96,-0.09,0.38,-1.89,1008.84
10.081,-0.02,0.97,0.47,-5.20,-0.69,-0.96,-0.09,0.38,-1.89,1008.83
10.1,0.28,1.02,0.13,-5.20,-0.69,-0.96,-0.09,0.38,-1.89,1008.83
10.1,0.11,1.05,0.15,-5.20,-0.69,-0.96,-0.09,0.38,-1.89,1008.83
10.101,0.05,0.93,0.03,-5.20,-0.69,-0.96,-0.09,0.38,-1.89,1008.83
10.101,0.05,0.93,0.03,-5.20,-0.69,-0.96,-0.01,-0.68,-0.98,1008.83
10.102,0.05,0.93,0.03,0.31,0.13,1.39,-0.01,-0.68,-0.98,1008.83
10.12,0.05,0.93,0.03,0.31,0.13,1.39,-0.01,-0.68,-0.98,1008.81
10.158,0.12,0.96,-0.03,0.31,0.13,1.39,-0.01,-0.68,-0.98,1008.81
10.159,0.04,1.08,-0.07,0.31,0.13,1.39,-0.01,-0.68,-0.98,1008.81
10.159,-0.06,1.07,-0.04,0.31,0.13,1.39,-0.01,-0.68,-0.98,1008.81
10.159,-0.06,1.07,-0.04,-0.32,0.42,0.01,-0.01,-0.68,-0.98,1008.81
10.16,-0.06,1.07,-0.04,-0.32,0.42,0.01,0.08,0.19,-0.86,1008.81
10.201,-0.06,1.07,-0.04,-0.32,0.42,0.01,0.08,0.19,-0.86,1008.82
10.216,-0.04,0.99,-0.02,-0.32,0.42,0.01,0.08,0.19,-0.86,1008.82
10.217,0.07,0.98,0.02,-0.32,0.42,0.01,0.08,0.19,-0.86,1008.82
10.218,0.22,1.02,0.02,-0.32,0.42,0.01,0.08,0.19,-0.86,1008.82
10.218,0.22,1.02,0.02,-0.32,0.42,0.01,0.10,-0.33,-0.62,1008.82
10.218,0.22,1.02,0.02,0.53,0.01,0.56,0.10,-0.33,-0.62,1008.82
10.274,0.30,0.98,0.04,0.53,0.01,0.56,0.10,-0.33,-0.62,1008.82
10.274,0.26,0.97,0.06,0.53,0.01,0.56,0.10,-0.33,-0.62,1008.82
10.275,0.07,0.99,0.03,0.53,0.01,0.56,0.10,-0.33,-0.62,1008.82
10.275,0.07,0.99,0.03,0.53,0.01,0.56,0.27,0.18,-1.03,1008.82
10.275,0.07,0.99,0.03,2.32,-0.13,1.07,0.27,0.18,-1.03,1008.82
10.28,0.07,0.99,0.03,2.32,-0.13,1.07,0.27,0.18,-1.03,1008.81
10.321,0.07,0.99,0.03,2.32,-0.13,1.07,0.27,0.18,-1.03,1008.81
10.332,-0.16,1.00,0.00,2.32,-0.13,1.07,0.27,0.18,-1.03,1008.81
10.333,-0.21,0.97,-0.06,2.32,-0.13,1.07,0.27,0.18,-1.03,1008.81
10.333,-0.11,0.97,-0.06,2.32,-0.13,1.07,0.27,0.18,-1.03,1008.81
10.334,-0.11,0.97,-0.06,2.32,-0.13,1.07,0.34,-0.01,-1.25,1008.81
10.334,-0.11,0.97,-0.06,-0.60,-0.04,0.43,0.34,-0.01,-1.25,1008.81
10.392,-0.04,0.99,-0.06,-0.60,-0.04,0.43,0.34,-0.01,-1.25,1008.81
10.393,-0.07,1.01,-0.08,-0.60,-0.04,0.43,0.34,-0.01,-1.25,1008.81
10.393,-0.12,1.00,-0.11,-0.60,-0.04,0.43,0.34,-0.01,-1.25,1008.81
10.394,-0.12,1.00,-0.11,-0.60,-0.04,0.43,0.32,0.08,-1.14,1008.81
10.394,-0.12,1.00,-0.11,0.82,0.23,0.17,0.32,0.08,-1.14,1008.81
10.401,-0.12,1.00,-0.11,0.82,0.23,0.17,0.32,0.08,-1.14,1008.84
10.452,-0.12,1.00,-0.12,0.82,0.23,0.17,0.32,0.08,-1.14,1008.84
10.452,-0.11,1.02,-0.14,0.82,0.23,0.17,0.32,0.08,-1.14,1008.84
10.453,-0.09,1.02,-0.13,0.82,0.23,0.17,0.32,0.08,-1.14,1008.84
10.453,-0.09,1.02,-0.13,0.82,0.23,0.17,0.35,0.20,-1.29,1008.84
10.454,-0.09,1.02,-0.13,1.23,0.51,-0.06,0.35,0.20,-1.29,1008.84
10.482,-0.09,1.02,-0.13,1.23,0.51,-0.06,0.35,0.20,-1.29,1008.87
10.509,-0.05,1.07,-0.06,1.23,0.51,-0.06,0.35,0.20,-1.29,1008.87
10.51,-0.00,1.14,-0.06,1.23,0.51,-0.06,0.35,0.20,-1.29,1008.87
10.511,0.01,1.19,-0.10,1.23,0.51,-0.06,0.35,0.20,-1.29,1008.87
10.511,0.01,1.19,-0.10,2.95,1.97,0.77,0.35,0.20,-1.29,1008.87
10.512,0.01,1.19,-0.10,2.95,1.97,0.77,0.49,0.03,-1.66,1008.87
10.523,0.01,1.19,-0.10,2.95,1.97,0.77,0.49,0.03,-1.66,1008.89
10.566,-0.14,1.33,-0.12,2.95,1.97,0.77,0.49,0.03,-1.66,1008.89
10.567,-0.15,1.46,-0.16,2.95,1.97,0.77,0.49,0.03,-1.66,1008.89
10.571,0.18,1.57,-0.18,2.95,1.97,0.77,0.49,0.03,-1.66,1008.89
10.572,0.18,1.57,-0.18,2.95,1.97,0.77,0.79,0.49,-2.00,1008.89
10.572,0.18,1.57,-0.18,3.70,5.50,0.47,0.79,0.49,-2.00,1008.89
10.603,0.18,1.57,-0.18,3.70,5.50,0.47,0.79,0.49,-2.00,1008.91
10.624,0.64,1.57,-0.30,3.70,5.50,0.47,0.79,0.49,-2.00,1008.91
10.625,0.70,1.33,-0.36,3.70,5.50,0.47,0.79,0.49,-2.00,1008.91
10.625,0.15,0.89,-0.20,3.70,5.50,0.47,0.79,0.49,-2.00,1008.91
10.625,0.15,0.89,-0.20,3.70,5.50,0.47,0.91,1.28,-2.28,1008.91
10.626,0.15,0.89,-0.20,9.68,4.29,-0.04,0.91,1.28,-2.28,1008.91
10.681,0.15,0.89,-0.20,9.68,4.29,-0.04,0.91,1.28,-2.28,1008.91
10.682,-0.69,0.59,-0.20,9.68,4.29,-0.04,0.91,1.28,-2.28,1008.91
10.683,-1.30,0.69,-0.35,9.68,4.29,-0.04,0.91,1.28,-2.28,1008.91
10.683,-1.43,0.74,-0.39,9.68,4.29,-0.04,0.91,1.28,-2.28,1008.91
10.684,-1.43,0.74,-0.39,9.68,4.29,-0.04,1.62,1.68,-3.07,1008.91
10.684,-1.43,0.74,-0.39,-5.27,-0.21,0.90,1.62,1.68,-3.07,1008.91
10.721,-1.43,0.74,-0.39,-5.27,-0.21,0.90,1.62,1.68,-3.07,1008.88
10.741,-1.19,0.53,-0.34,-5.27,-0.21,0.90,1.62,1.68,-3.07,1008.88
10.743,-0.94,0.41,-0.27,-5.27,-0.21,0.90,1.62,1.68,-3.07,1008.88
10.744,-0.68,0.43,-0.21,-5.27,-0.21,0.90,1.62,1.68,-3.07,1008.88
10.745,-0.68,0.43,-0.21,-5.27,-0.21,0.90,0.74,-1.14,-0.23,1008.88
10.746,-0.68,0.43,-0.21,-2.86,-2.03,1.17,0.74,-1.14,-0.23,1008.88
10.799,-0.36,0.31,-0.18,-2.86,-2.03,1.17,0.74,-1.14,-0.23,1008.88
10.8,0.01,0.16,0.14,-2.86,-2.03,1.17,0.74,-1.14,-0.23,1008.88
10.8,0.22,0.04,0.21,-2.86,-2.03,1.17,0.74,-1.14,-0.23,1008.88
10.801,0.22,0.04,0.21,-2.86,-2.03,1.17,-0.18,-2.56,2.17,1008.88
10.801,0.22,0.04,0.21,5.45,-5.54,3.35,-0.18,-2.56,2.17,1008.88
10.802,0.22,0.04,0.21,5.45,-5.54,3.35,-0.18,-2.56,2.17,1008.84
10.859,0.07,0.20,-0.10,5.45,-5.54,3.35,-0.18,-2.56,2.17,1008.84
10.86,-0.22,0.46,-0.31,5.45,-5.54,3.35,-0.18,-2.56,2.17,1008.84
10.86,-0.42,0.68,-0.27,5.45,-5.54,3.35,-0.18,-2.56,2.17,1008.84
10.861,-0.42,0.68,-0.27,5.45,-5.54,3.35,0.94,-0.77,2.87,1008.84
10.861,-0.42,0.68,-0.27,2.78,-3.52,0.72,0.94,-0.77,2.87,1008.84
10.888,-0.42,0.68,-0.27,2.78,-3.52,0.72,0.94,-0.77,2.87,1008.84
10.917,-0.70,0.76,-0.14,2.78,-3.52,0.72,0.94,-0.77,2.87,1008.84
10.919,-0.87,0.86,-0.06,2.78,-3.52,0.72,0.94,-0.77,2.87,1008.84
10.92,-0.79,0.95,-0.04,2.78,-3.52,0.72,0.94,-0.77,2.87,1008.84
10.921,-0.79,0.95,-0.04,2.78,-3.52,0.72,0.88,-2.12,4.18,1008.84
10.922,-0.79,0.95,-0.04,-4.65,-0.31,2.07,0.88,-2.12,4.18,1008.84
10.923,-0.79,0.95,-0.04,-4.65,-0.31,2.07,0.88,-2.12,4.18,1008.89
10.988,-0.79,0.95,-0.04,-3.23,2.22,-1.04,0.88,-2.12,4.18,1008.89
10.99,-0.63,1.02,-0.24,-3.23,2.22,-1.04,0.88,-2.12,4.18,1008.89
10.991,-0.42,1.16,-0.47,-3.23,2.22,-1.04,0.88,-2.12,4.18,1008.89
10.991,-0.26,1.33,-0.46,-3.23,2.22,-1.04,0.88,-2.12,4.18,1008.89
10.991,-0.26,1.33,-0.46,-3.23,2.22,-1.04,0.78,-4.74,5.40,1008.89
11.001,-0.26,1.33,-0.46,-3.23,2.22,-1.04,0.78,-4.74,5.40,1008.82
11.033,-0.22,1.35,-0.28,-3.23,2.22,-1.04,0.78,-4.74,5.40,1008.82
11.034,-0.25,1.21,-0.11,-3.23,2.22,-1.04,0.78,-4.74,5.40,1008.82
11.034,-0.27,1.15,-0.14,-3.23,2.22,-1.04,0.78,-4.74,5.40,1008.82
11.034,-0.27,1.15,-0.14,-3.23,2.22,-1.04,0.59,-7.47,4.31,1008.82
11.035,-0.27,1.15,-0.14,-2.44,2.81,1.16,0.59,-7.47,4.31,1008.82
11.081,-0.27,1.15,-0.14,-2.44,2.81,1.16,0.59,-7.47,4.31,1008.76
11.091,-0.21,1.13,-0.19,-2.44,2.81,1.16,0.59,-7.47,4.31,1008.76
11.092,-0.05,1.06,-0.07,-2.44,2.81,1.16,0.59,-7.47,4.31,1008.76
11.092,0.12,1.00,-0.04,-2.44,2.81,1.16,0.59,-7.47,4.31,1008.76
11.093,0.12,1.00,-0.04,-2.44,2.81,1.16,0.09,-7.85,2.80,1008.76
11.093,0.12,1.00,-0.04,-0.59,1.15,1.99,0.09,-7.85,2.80,1008.76
11.121,0.12,1.00,-0.04,-0.59,1.15,1.99,0.09,-7.85,2.80,1008.76
11.151,0.21,1.01,0.05,-0.59,1.15,1.99,0.09,-7.85,2.80,1008.76
11.152,0.15,0.94,0.14,-0.59,1.15,1.99,0.09,-7.85,2.80,1008.76
11.152,0.06,0.90,0.12,-0.59,1.15,1.99,0.09,-7.85,2.80,1008.76
11.152,0.06,0.90,0.12,-0.59,1.15,1.99,-0.16,-4.49,1.14,1008.76
11.153,0.06,0.90,0.12,1.35,0.01,3.85,-0.16,-4.49,1.14,1008.76
11.202,0.06,0.90,0.12,1.35,0.01,3.85,-0.16,-4.49,1.14,1008.79
11.207,-0.18,0.98,0.30,1.35,0.01,3.85,-0.16,-4.49,1.14,1008.79
11.208,-0.84,1.30,0.13,1.35,0.01,3.85,-0.16,-4.49,1.14,1008.79
11.209,-0.28,0.95,0.18,1.35,0.01,3.85,-0.16,-4.49,1.14,1008.79
11.209,-0.28,0.95,0.18,1.35,0.01,3.85,-0.46,-0.46,-0.32,1008.79
11.209,-0.28,0.95,0.18,-3.96,1.18,4.55,-0.46,-0.46,-0.32,1008.79
11.267,0.49,0.76,-0.37,-3.96,1.18,4.55,-0.46,-0.46,-0.32,1008.79
11.268,0.35,1.11,-0.80,-3.96,1.18,4.55,-0.46,-0.46,-0.32,1008.79
11.268,-0.20,1.27,-0.50,-3.96,1.18,4.55,-0.46,-0.46,-0.32,1008.79
11.268,-0.20,1.27,-0.50,-3.96,1.18,4.55,-0.28,0.64,-0.09,1008.79
11.269,-0.20,1.27,-0.50,2.32,0.83,-3.00,-0.28,0.64,-0.09,1008.79
11.301,-0.20,1.27,-0.50,2.32,0.83,-3.00,-0.28,0.64,-0.09,1008.84
11.323,-0.20,1.27,-0.50,2.32,0.83,-3.00,-0.28,0.64,-0.09,1008.86
11.324,-0.68,1.17,-0.26,2.32,0.83,-3.00,-0.28,0.64,-0.09,1008.86
11.324,-0.48,1.03,-0.11,2.32,0.83,-3.00,-0.28,0.64,-0.09,1008.86
11.325,0.09,0.93,-0.05,2.32,0.83,-3.00,-0.28,0.64,-0.09,1008.86
11.325,0.09,0.93,-0.05,2.32,0.83,-3.00,-0.47,-1.40,0.14,1008.86
11.326,0.09,0.93,-0.05,-3.11,0.75,0.80,-0.47,-1.40,0.14,1008.86
11.383,0.43,1.00,-0.11,-3.11,0.75,0.80,-0.47,-1.40,0.14,1008.86
11.384,0.45,1.03,-0.16,-3.11,0.75,0.80,-0.47,-1.40,0.14,1008.86
11.385,0.11,1.01,-0.20,-3.11,0.75,0.80,-0.47,-1.40,0.14,1008.86
11.386,0.11,1.01,-0.20,-3.11,0.75,0.80,-0.21,-0.65,0.26,1008.86
11.387,0.11,1.01,-0.20,3.49,0.39,0.49,-0.21,-0.65,0.26,1008.86
11.401,0.11,1.01,-0.20,3.49,0.39,0.49,-0.21,-0.65,0.26,1008.84
11.442,-0.21,1.01,-0.23,3.49,0.39,0.49,-0.21,-0.65,0.26,1008.84
11.443,-0.29,1.03,-0.17,3.49,0.39,0.49,-0.21,-0.65,0.26,1008.84
11.444,-0.14,0.97,-0.14,3.49,0.39,0.49,-0.21,-0.65,0.26,1008.84
11.445,-0.14,0.97,-0.14,3.49,0.39,0.49,-0.04,-0.02,-0.17,1008.84
11.446,-0.14,0.97,-0.14,-1.71,0.28,0.18,-0.04,-0.02,-0.17,1008.84
11.485,-0.14,0.97,-0.14,-1.71,0.28,0.18,-0.04,-0.02,-0.17,1008.88
11.514,-0.07,0.92,-0.20,-1.71,0.28,0.18,-0.04,-0.02,-0.17,1008.88
11.515,-0.05,0.96,-0.20,-1.71,0.28,0.18,-0.04,-0.02,-0.17,1008.88
11.516,0.03,0.96,-0.21,-1.71,0.28,0.18,-0.04,-0.02,-0.17,1008.88
11.516,0.03,0.96,-0.21,0.08,-0.26,-0.04,-0.04,-0.02,-0.17,1008.88
11.517,0.03,0.96,-0.21,0.08,-0.26,-0.04,-0.02,-0.61,0.17,1008.88
11.522,0.03,0.96,-0.21,0.08,-0.26,-0.04,-0.02,-0.61,0.17,1008.85
11.56,0.11,0.99,-0.19,0.08,-0.26,-0.04,-0.02,-0.61,0.17,1008.85
11.562,0.08,0.99,-0.14,0.08,-0.26,-0.04,-0.02,-0.61,0.17,1008.85
11.563,-0.05,0.96,-0.17,0.08,-0.26,-0.04,-0.02,-0.61,0.17,1008.85
11.564,-0.05,0.96,-0.17,0.08,-0.26,-0.04,0.08,-0.18,-0.02,1008.85
11.565,-0.05,0.96,-0.17,0.79,0.07,0.37,0.08,-0.18,-0.02,1008.85
11.603,-0.05,0.96,-0.17,0.79,0.07,0.37,0.08,-0.18,-0.02,1008.85
11.616,-0.09,0.97,-0.17,0.79,0.07,0.37,0.08,-0.18,-0.02,1008.85
11.617,0.01,0.98,-0.14,0.79,0.07,0.37,0.08,-0.18,-0.02,1008.85
11.618,0.09,0.99,-0.11,0.79,0.07,0.37,0.08,-0.18,-0.02,1008.85
11.618,0.09,0.99,-0.11,0.79,0.07,0.37,0.22,-0.36,-0.15,1008.85
11.619,0.09,0.99,-0.11,0.51,0.09,0.69,0.22,-0.36,-0.15,1008.85
11.68,0.11,0.97,-0.14,0.51,0.09,0.69,0.22,-0.36,-0.15,1008.85
11.682,0.05,0.96,-0.14,0.51,0.09,0.69,0.22,-0.36,-0.15,1008.85
11.683,-0.09,0.97,-0.13,0.51,0.09,0.69,0.22,-0.36,-0.15,1008.85
11.684,-0.09,0.97,-0.13,0.51,0.09,0.69,0.57,-0.05,-0.44,1008.85
11.685,-0.09,0.97,-0.13,0.94,0.07,1.05,0.57,-0.05,-0.44,1008.85
11.686,-0.09,0.97,-0.13,0.94,0.07,1.05,0.57,-0.05,-0.44,1008.85
11.721,-0.09,0.97,-0.13,0.94,0.07,1.05,0.57,-0.05,-0.44,1008.86
11.733,-0.24,0.96,-0.23,0.94,0.07,1.05,0.57,-0.05,-0.44,1008.86
11.734,-0.29,0.96,-0.27,0.94,0.07,1.05,0.57,-0.05,-0.44,1008.86
11.735,-0.19,0.98,-0.25,0.94,0.07,1.05,0.57,-0.05,-0.44,1008.86
11.736,-0.19,0.98,-0.25,0.94,0.07,1.05,0.85,0.11,-0.40,1008.86
11.737,-0.19,0.98,-0.25,-1.44,0.19,0.38,0.85,0.11,-0.40,1008.86
11.793,0.01,1.00,-0.26,-1.44,0.19,0.38,0.85,0.11,-0.40,1008.86
11.795,0.12,1.04,-0.32,-1.44,0.19,0.38,0.85,0.11,-0.40,1008.86
11.796,0.01,1.20,-0.46,-1.44,0.19,0.38,0.85,0.11,-0.40,1008.86
11.797,0.01,1.20,-0.46,-1.44,0.19,0.38,1.21,-0.02,-0.18,1008.86
11.798,0.01,1.20,-0.46,1.49,1.53,0.08,1.21,-0.02,-0.18,1008.86
11.802,0.01,1.20,-0.46,1.49,1.53,0.08,1.21,-0.02,-0.18,1008.87
11.85,-0.09,1.32,-0.38,1.49,1.53,0.08,1.21,-0.02,-0.18,1008.87
11.851,0.09,1.34,-0.35,1.49,1.53,0.08,1.21,-0.02,-0.18,1008.87
11.851,0.37,1.37,-0.18,1.49,1.53,0.08,1.21,-0.02,-0.18,1008.87
11.851,0.37,1.37,-0.18,1.49,1.53,0.08,1.73,-0.92,-0.28,1008.87
11.852,0.37,1.37,-0.18,2.56,4.48,1.33,1.73,-0.92,-0.28,1008.87
11.887,0.37,1.37,-0.18,2.56,4.48,1.33,1.73,-0.92,-0.28,1008.84
11.908,0.51,1.38,-0.12,2.56,4.48,1.33,1.73,-0.92,-0.28,1008.84
11.91,0.36,1.34,-0.08,2.56,4.48,1.33,1.73,-0.92,-0.28,1008.84
11.91,0.06,1.40,0.17,2.56,4.48,1.33,1.73,-0.92,-0.28,1008.84
11.91,0.06,1.40,0.17,5.00,5.27,4.97,1.73,-0.92,-0.28,1008.84
11.911,0.06,1.40,0.17,5.00,5.27,4.97,1.98,-1.23,-0.73,1008.84
11.921,0.06,1.40,0.17,5.00,5.27,4.97,1.98,-1.23,-0.73,1008.83
11.967,-0.25,1.32,0.38,5.00,5.27,4.97,1.98,-1.23,-0.73,1008.83
11.967,-0.68,1.10,0.17,5.00,5.27,4.97,1.98,-1.23,-0.73,1008.83
11.968,-1.08,1.06,-0.17,5.00,5.27,4.97,1.98,-1.23,-0.73,1008.83
11.968,-1.08,1.06,-0.17,5.00,5.27,4.97,1.95,-1.99,-1.47,1008.83
11.969,-1.08,1.06,-0.17,-3.25,3.98,6.77,1.95,-1.99,-1.47,1008.83
12.005,-1.08,1.06,-0.17,-3.25,3.98,6.77,1.95,-1.99,-1.47,1008.83
12.028,-0.98,0.97,-0.37,-3.25,3.98,6.77,1.95,-1.99,-1.47,1008.83
12.029,-0.66,1.15,-0.59,-3.25,3.98,6.77,1.95,-1.99,-1.47,1008.83
12.03,-0.11,1.09,-0.29,-3.25,3.98,6.77,1.95,-1.99,-1.47,1008.83
12.03,-0.11,1.09,-0.29,-3.25,3.98,6.77,1.26,-3.51,-0.44,1008.83
12.031,-0.11,1.09,-0.29,-1.11,3.51,1.17,1.26,-3.51,-0.44,1008.83
12.084,-0.11,1.09,-0.29,-1.11,3.51,1.17,1.26,-3.51,-0.44,1008.84
12.085,0.21,0.80,0.01,-1.11,3.51,1.17,1.26,-3.51,-0.44,1008.84
12.086,0.04,0.67,0.06,-1.11,3.51,1.17,1.26,-3.51,-0.44,1008.84
12.086,-0.16,0.64,-0.02,-1.11,3.51,1.17,1.26,-3.51,-0.44,1008.84
12.087,-0.16,0.64,-0.02,-1.11,3.51,1.17,-0.05,-4.36,0.71,1008.84
12.088,-0.16,0.64,-0.02,5.72,-0.30,3.99,-0.05,-4.36,0.71,1008.84
12.122,-0.16,0.64,-0.02,5.72,-0.30,3.99,-0.05,-4.36,0.71,1008.83
12.141,-0.23,0.61,-0.06,5.72,-0.30,3.99,-0.05,-4.36,0.71,1008.83
12.141,-0.20,0.60,-0.07,5.72,-0.30,3.99,-0.05,-4.36,0.71,1008.83
12.142,-0.12,0.60,-0.08,5.72,-0.30,3.99,-0.05,-4.36,0.71,1008.83
12.142,-0.12,0.60,-0.08,5.72,-0.30,3.99,-0.41,-2.03,2.37,1008.83
12.142,-0.12,0.60,-0.08,2.95,-2.03,2.31,-0.41,-2.03,2.37,1008.83
12.2,-0.04,0.64,-0.15,2.95,-2.03,2.31,-0.41,-2.03,2.37,1008.83
12.201,-0.07,0.75,-0.22,2.95,-2.03,2.31,-0.41,-2.03,2.37,1008.83
12.201,-0.16,0.88,-0.28,2.95,-2.03,2.31,-0.41,-2.03,2.37,1008.83
12.202,-0.16,0.88,-0.28,2.95,-2.03,2.31,-0.59,0.28,3.85,1008.83
12.202,-0.16,0.88,-0.28,1.83,-1.48,0.63,-0.59,0.28,3.85,1008.83
12.202,-0.16,0.88,-0.28,1.83,-1.48,0.63,-0.59,0.28,3.85,1008.86
12.258,-0.30,0.97,-0.37,1.83,-1.48,0.63,-0.59,0.28,3.85,1008.86
12.259,-0.49,1.08,-0.39,1.83,-1.48,0.63,-0.59,0.28,3.85,1008.86
12.26,-0.65,1.19,-0.43,1.83,-1.48,0.63,-0.59,0.28,3.85,1008.86
12.26,-0.65,1.19,-0.43,1.83,-1.48,0.63,-1.36,0.30,4.64,1008.86
12.26,-0.65,1.19,-0.43,-4.43,1.09,-1.83,-1.36,0.30,4.64,1008.86
12.282,-0.65,1.19,-0.43,-4.43,1.09,-1.83,-1.36,0.30,4.64,1008.85
12.316,-0.63,1.20,-0.45,-4.43,1.09,-1.83,-1.36,0.30,4.64,1008.85
12.316,-0.44,1.18,-0.42,-4.43,1.09,-1.83,-1.36,0.30,4.64,1008.85
12.316,-0.40,1.27,-0.30,-4.43,1.09,-1.83,-1.36,0.30,4.64,1008.85
12.317,-0.40,1.27,-0.30,-4.43,1.09,-1.83,-1.76,-1.92,5.74,1008.85
12.317,-0.40,1.27,-0.30,-7.38,2.63,-2.55,-1.76,-1.92,5.74,1008.85
12.321,-0.40,1.27,-0.30,-7.38,2.63,-2.55,-1.76,-1.92,5.74,1008.78
12.375,-0.47,1.39,-0.17,-7.38,2.63,-2.55,-1.76,-1.92,5.74,1008.78
12.376,-0.67,1.23,-0.09,-7.38,2.63,-2.55,-1.76,-1.92,5.74,1008.78
12.376,-0.87,1.08,-0.09,-7.38,2.63,-2.55,-1.76,-1.92,5.74,1008.78
12.376,-0.87,1.08,-0.09,-7.38,2.63,-2.55,-1.18,-2.15,3.92,1008.78
12.377,-0.87,1.08,-0.09,-10.86,3.48,0.01,-1.18,-2.15,3.92,1008.78
12.401,-0.87,1.08,-0.09,-10.86,3.48,0.01,-1.18,-2.15,3.92,1008.76
12.433,-0.90,1.01,-0.06,-10.86,3.48,0.01,-1.18,-2.15,3.92,1008.76
12.434,-0.83,0.92,-0.13,-10.86,3.48,0.01,-1.18,-2.15,3.92,1008.76
12.434,-0.72,1.03,-0.36,-10.86,3.48,0.01,-1.18,-2.15,3.92,1008.76
12.435,-0.72,1.03,-0.36,-10.86,3.48,0.01,-0.66,-1.32,0.06,1008.76
12.435,-0.72,1.03,-0.36,-12.05,0.98,-0.63,-0.66,-1.32,0.06,1008.76
12.482,-0.72,1.03,-0.36,-12.05,0.98,-0.63,-0.66,-1.32,0.06,1008.80
12.491,-0.24,1.60,-0.83,-12.05,0.98,-0.63,-0.66,-1.32,0.06,1008.80
12.491,1.86,1.49,0.29,-12.05,0.98,-0.63,-0.66,-1.32,0.06,1008.80
12.492,2.03,1.29,0.05,-12.05,0.98,-0.63,-0.66,-1.32,0.06,1008.80
12.492,2.03,1.29,0.05,-12.05,0.98,-0.63,-0.83,-1.26,-0.31,1008.80
12.492,2.03,1.29,0.05,7.96,5.41,-0.57,-0.83,-1.26,-0.31,1008.80
12.522,2.03,1.29,0.05,7.96,5.41,-0.57,-0.83,-1.26,-0.31,1008.82
12.549,-0.08,1.25,-0.83,7.96,5.41,-0.57,-0.83,-1.26,-0.31,1008.82
12.55,-0.48,0.76,-0.90,7.96,5.41,-0.57,-0.83,-1.26,-0.31,1008.82
12.551,-0.75,0.70,0.14,7.96,5.41,-0.57,-0.83,-1.26,-0.31,1008.82
12.551,-0.75,0.70,0.14,7.96,5.41,-0.57,-0.07,0.10,-3.07,1008.82
12.551,-0.75,0.70,0.14,-6.50,-0.58,-4.12,-0.07,0.10,-3.07,1008.82
12.601,-0.75,0.70,0.14,-6.50,-0.58,-4.12,-0.07,0.10,-3.07,1008.81
12.607,-0.43,0.90,0.45,-6.50,-0.58,-4.12,-0.07,0.10,-3.07,1008.81
12.608,0.30,1.07,0.35,-6.50,-0.58,-4.12,-0.07,0.10,-3.07,1008.81
12.609,0.71,1.08,-0.04,-6.50,-0.58,-4.12,-0.07,0.10,-3.07,1008.81
12.61,0.71,1.08,-0.04,-6.50,-0.58,-4.12,-0.50,-0.88,-0.81,1008.81
12.611,0.71,1.08,-0.04,0.21,0.39,3.30,-0.50,-0.88,-0.81,1008.81
12.667,0.28,0.99,-0.08,0.21,0.39,3.30,-0.50,-0.88,-0.81,1008.81
12.667,-0.16,1.00,-0.11,0.21,0.39,3.30,-0.50,-0.88,-0.81,1008.81
12.668,-0.17,1.02,-0.13,0.21,0.39,3.30,-0.50,-0.88,-0.81,1008.81
12.668,-0.17,1.02,-0.13,0.21,0.39,3.30,0.00,0.17,-1.25,1008.81
12.669,-0.17,1.02,-0.13,-1.15,0.16,-0.23,0.00,0.17,-1.25,1008.81
12.681,-0.17,1.02,-0.13,-1.15,0.16,-0.23,0.00,0.17,-1.25,1008.84
12.722,-0.17,1.02,-0.13,-1.15,0.16,-0.23,0.00,0.17,-1.25,1008.84
12.725,-0.07,1.03,-0.08,-1.15,0.16,-0.23,0.00,0.17,-1.25,1008.84
12.726,-0.03,1.03,-0.06,-1.15,0.16,-0.23,0.00,0.17,-1.25,1008.84
12.726,0.09,1.00,-0.05,-1.15,0.16,-0.23,0.00,0.17,-1.25,1008.84
12.727,0.09,1.00,-0.05,-1.15,0.16,-0.23,-0.06,-0.27,-0.67,1008.84
12.727,0.09,1.00,-0.05,-0.58,0.26,0.21,-0.06,-0.27,-0.67,1008.84
12.787,0.17,0.98,-0.04,-0.58,0.26,0.21,-0.06,-0.27,-0.67,1008.84
12.787,0.10,1.00,-0.05,-0.58,0.26,0.21,-0.06,-0.27,-0.67,1008.84
12.787,0.01,1.01,-0.05,-0.58,0.26,0.21,-0.06,-0.27,-0.67,1008.84
12.788,0.01,1.01,-0.05,0.74,0.04,0.31,-0.06,-0.27,-0.67,1008.84
12.788,0.01,1.01,-0.05,0.74,0.04,0.31,0.00,-0.04,-0.73,1008.84
12.801,0.01,1.01,-0.05,0.74,0.04,0.31,0.00,-0.04,-0.73,1008.83
12.842,-0.01,0.99,-0.04,0.74,0.04,0.31,0.00,-0.04,-0.73,1008.83
12.843,-0.03,0.98,-0.01,0.74,0.04,0.31,0.00,-0.04,-0.73,1008.83
12.843,-0.01,0.97,0.01,0.74,0.04,0.31,0.00,-0.04,-0.73,1008.83
12.844,-0.01,0.97,0.01,0.74,0.04,0.31,0.09,0.10,-0.86,1008.83
12.844,-0.01,0.97,0.01,0.15,-0.10,0.70,0.09,0.10,-0.86,1008.83
12.881,-0.01,0.97,0.01,0.15,-0.10,0.70,0.09,0.10,-0.86,1008.84
12.899,-0.01,0.97,-0.03,0.15,-0.10,0.70,0.09,0.10,-0.86,1008.84
12.901,-0.05,0.98,-0.06,0.15,-0.10,0.70,0.09,0.10,-0.86,1008.84
12.901,-0.08,0.99,-0.07,0.15,-0.10,0.70,0.09,0.10,-0.86,1008.84
12.902,-0.08,0.99,-0.07,0.42,-0.07,0.43,0.09,0.10,-0.86,1008.84
12.902,-0.08,0.99,-0.07,0.42,-0.07,0.43,0.18,0.06,-0.97,1008.84
12.922,-0.08,0.99,-0.07,0.42,-0.07,0.43,0.18,0.06,-0.97,1008.85
12.958,-0.11,0.99,-0.07,0.42,-0.07,0.43,0.18,0.06,-0.97,1008.85
12.959,-0.14,1.00,-0.09,0.42,-0.07,0.43,0.18,0.06,-0.97,1008.85
12.959,-0.11,1.03,-0.10,0.42,-0.07,0.43,0.18,0.06,-0.97,1008.85
12.96,-0.11,1.03,-0.10,0.42,-0.07,0.43,0.23,0.19,-1.05,1008.85
12.96,-0.11,1.03,-0.10,0.22,0.26,0.21,0.23,0.19,-1.05,1008.85
13.006,-0.11,1.03,-0.10,0.22,0.26,0.21,0.23,0.19,-1.05,1008.87
13.016,-0.11,1.03,-0.10,1.48,0.99,0.42,0.23,0.19,-1.05,1008.87
13.018,-0.07,1.05,-0.11,1.48,0.99,0.42,0.23,0.19,-1.05,1008.87
13.018,-0.05,1.04,-0.10,1.48,0.99,0.42,0.23,0.19,-1.05,1008.87
13.019,-0.05,1.10,-0.05,1.48,0.99,0.42,0.23,0.19,-1.05,1008.87
13.019,-0.05,1.10,-0.05,1.48,0.99,0.42,0.37,-0.10,-1.20,1008.87
13.075,-0.07,1.13,-0.05,1.48,0.99,0.42,0.37,-0.10,-1.20,1008.87
13.075,-0.08,1.14,-0.08,1.48,0.99,0.42,0.37,-0.10,-1.20,1008.87
13.075,-0.07,1.19,-0.13,1.48,0.99,0.42,0.37,-0.10,-1.20,1008.87
13.076,-0.07,1.19,-0.13,2.15,2.12,0.77,0.37,-0.10,-1.20,1008.87
13.076,-0.07,1.19,-0.13,2.15,2.12,0.77,0.68,0.00,-1.58,1008.87
13.082,-0.07,1.19,-0.13,2.15,2.12,0.77,0.68,0.00,-1.58,1008.88
13.122,-0.07,1.19,-0.13,2.15,2.12,0.77,0.68,0.00,-1.58,1008.90
13.132,-0.05,1.37,-0.09,2.15,2.12,0.77,0.68,0.00,-1.58,1008.90
13.133,0.14,1.58,-0.04,2.15,2.12,0.77,0.68,0.00,-1.58,1008.90
13.134,0.49,1.64,-0.07,2.15,2.12,0.77,0.68,0.00,-1.58,1008.90
13.134,0.49,1.64,-0.07,5.67,6.17,1.48,0.68,0.00,-1.58,1008.90
13.135,0.49,1.64,-0.07,5.67,6.17,1.48,1.12,-0.04,-1.83,1008.90
13.191,0.75,1.53,-0.30,5.67,6.17,1.48,1.12,-0.04,-1.83,1008.90
13.192,0.86,1.48,-0.29,5.67,6.17,1.48,1.12,-0.04,-1.83,1008.90
13.192,0.63,1.29,0.04,5.67,6.17,1.48,1.12,-0.04,-1.83,1008.90
13.192,0.63,1.29,0.04,5.67,6.17,1.48,1.05,0.03,-2.51,1008.90
13.193,0.63,1.29,0.04,12.08,5.92,0.90,1.05,0.03,-2.51,1008.90
13.201,0.63,1.29,0.04,12.08,5.92,0.90,1.05,0.03,-2.51,1008.89
13.25,-0.29,1.11,0.02,12.08,5.92,0.90,1.05,0.03,-2.51,1008.89
13.251,-1.08,1.22,-0.04,12.08,5.92,0.90,1.05,0.03,-2.51,1008.89
13.251,-1.14,1.15,-0.09,12.08,5.92,0.90,1.05,0.03,-2.51,1008.89
13.252,-1.14,1.15,-0.09,12.08,5.92,0.90,1.35,1.02,-3.78,1008.89
13.252,-1.14,1.15,-0.09,-1.93,4.62,3.20,1.35,1.02,-3.78,1008.89
13.283,-1.14,1.15,-0.09,-1.93,4.62,3.20,1.35,1.02,-3.78,1008.87
13.31,-0.99,0.80,-0.30,-1.93,4.62,3.20,1.35,1.02,-3.78,1008.87
13.31,-0.80,0.59,-0.28,-1.93,4.62,3.20,1.35,1.02,-3.78,1008.87
13.311,-0.45,0.46,-0.27,-1.93,4.62,3.20,1.35,1.02,-3.78,1008.87
13.311,-0.45,0.46,-0.27,-1.93,4.62,3.20,0.56,-1.53,-0.54,1008.87
13.311,-0.45,0.46,-0.27,-0.54,-0.38,0.37,0.56,-1.53,-0.54,1008.87
13.322,-0.45,0.46,-0.27,-0.54,-0.38,0.37,0.56,-1.53,-0.54,1008.86
13.366,-0.09,0.27,0.04,-0.54,-0.38,0.37,0.56,-1.53,-0.54,1008.86
13.367,0.09,0.04,0.30,-0.54,-0.38,0.37,0.56,-1.53,-0.54,1008.86
13.367,0.09,0.10,0.09,-0.54,-0.38,0.37,0.56,-1.53,-0.54,1008.86
13.368,0.09,0.10,0.09,5.98,-6.16,3.69,0.56,-1.53,-0.54,1008.86
13.368,0.09,0.10,0.09,5.98,-6.16,3.69,-0.55,-1.55,3.03,1008.86
13.401,0.09,0.10,0.09,5.98,-6.16,3.69,-0.55,-1.55,3.03,1008.84
13.424,-0.02,0.37,-0.07,5.98,-6.16,3.69,-0.55,-1.55,3.03,1008.84
13.425,-0.04,0.59,-0.15,5.98,-6.16,3.69,-0.55,-1.55,3.03,1008.84
13.425,-0.11,0.74,-0.23,5.98,-6.16,3.69,-0.55,-1.55,3.03,1008.84
13.426,-0.11,0.74,-0.23,5.98,-6.16,3.69,-0.15,0.44,4.24,1008.84
13.426,-0.11,0.74,-0.23,3.04,-3.09,0.83,-0.15,0.44,4.24,1008.84
13.481,-0.11,0.74,-0.23,3.04,-3.09,0.83,-0.15,0.44,4.24,1008.87
13.482,-0.32,0.82,-0.18,3.04,-3.09,0.83,-0.15,0.44,4.24,1008.87
13.483,-0.38,0.95,-0.19,3.04,-3.09,0.83,-0.15,0.44,4.24,1008.87
13.483,-0.33,1.18,-0.22,3.04,-3.09,0.83,-0.15,0.44,4.24,1008.87
13.484,-0.33,1.18,-0.22,3.04,-3.09,0.83,-0.94,1.27,5.49,1008.87
13.484,-0.33,1.18,-0.22,-2.84,0.20,-0.00,-0.94,1.27,5.49,1008.87
13.522,-0.33,1.18,-0.22,-2.84,0.20,-0.00,-0.94,1.27,5.49,1008.85
13.541,-0.37,1.47,-0.28,-2.84,0.20,-0.00,-0.94,1.27,5.49,1008.85
13.542,-0.72,1.80,-0.51,-2.84,0.20,-0.00,-0.94,1.27,5.49,1008.85
13.542,-0.83,1.79,-0.58,-2.84,0.20,-0.00,-0.94,1.27,5.49,1008.85
13.542,-0.83,1.79,-0.58,-2.84,0.20,-0.00,-1.67,0.24,6.07,1008.85
13.544,-0.83,1.79,-0.58,-8.93,7.25,-3.39,-1.67,0.24,6.07,1008.85
13.599,-0.62,1.40,-0.17,-8.93,7.25,-3.39,-1.67,0.24,6.07,1008.85
13.6,-0.49,1.28,0.12,-8.93,7.25,-3.39,-1.67,0.24,6.07,1008.85
13.601,-0.53,1.23,-0.03,-8.93,7.25,-3.39,-1.67,0.24,6.07,1008.85
13.601,-0.53,1.23,-0.03,-8.93,7.25,-3.39,-1.54,-0.99,4.31,1008.85
13.601,-0.53,1.23,-0.03,-10.07,4.27,0.26,-1.54,-0.99,4.31,1008.85
13.603,-0.53,1.23,-0.03,-10.07,4.27,0.26,-1.54,-0.99,4.31,1008.78
13.658,-0.71,0.95,-0.18,-10.07,4.27,0.26,-1.54,-0.99,4.31,1008.78
13.659,-0.95,0.81,-0.20,-10.07,4.27,0.26,-1.54,-0.99,4.31,1008.78
13.659,-0.85,0.92,-0.19,-10.07,4.27,0.26,-1.54,-0.99,4.31,1008.78
13.66,-0.85,0.92,-0.19,-10.07,4.27,0.26,-0.40,-0.62,-0.71,1008.78
13.66,-0.85,0.92,-0.19,-12.32,0.07,-1.32,-0.40,-0.62,-0.71,1008.78
13.681,-0.85,0.92,-0.19,-12.32,0.07,-1.32,-0.40,-0.62,-0.71,1008.74
13.716,-0.36,1.29,-0.52,-12.32,0.07,-1.32,-0.40,-0.62,-0.71,1008.74
13.717,1.22,1.31,-0.06,-12.32,0.07,-1.32,-0.40,-0.62,-0.71,1008.74
13.718,2.67,1.01,-0.30,-12.32,0.07,-1.32,-0.40,-0.62,-0.71,1008.74
13.718,2.67,1.01,-0.30,-12.32,0.07,-1.32,-0.52,-1.72,-0.51,1008.74
13.718,2.67,1.01,-0.30,7.59,2.93,-2.16,-0.52,-1.72,-0.51,1008.74
13.722,2.67,1.01,-0.30,7.59,2.93,-2.16,-0.52,-1.72,-0.51,1008.81
13.775,0.77,1.55,-0.25,7.59,2.93,-2.16,-0.52,-1.72,-0.51,1008.81
13.776,-0.89,1.65,-0.70,7.59,2.93,-2.16,-0.52,-1.72,-0.51,1008.81
13.776,-0.78,0.80,-0.35,7.59,2.93,-2.16,-0.52,-1.72,-0.51,1008.81
13.776,-0.78,0.80,-0.35,7.59,2.93,-2.16,-0.29,-0.24,-2.94,1008.81
13.776,-0.78,0.80,-0.35,-5.19,3.58,-3.58,-0.29,-0.24,-2.94,1008.81
13.801,-0.78,0.80,-0.35,-5.19,3.58,-3.58,-0.29,-0.24,-2.94,1008.80
13.833,-0.16,0.52,0.65,-5.19,3.58,-3.58,-0.29,-0.24,-2.94,1008.80
13.834,0.26,0.86,0.36,-5.19,3.58,-3.58,-0.29,-0.24,-2.94,1008.80
13.834,0.38,1.23,0.01,-5.19,3.58,-3.58,-0.29,-0.24,-2.94,1008.80
13.834,0.38,1.23,0.01,-5.19,3.58,-3.58,-0.39,-0.52,-1.24,1008.80
13.835,0.38,1.23,0.01,0.04,-1.06,3.75,-0.39,-0.52,-1.24,1008.80
13.881,0.38,1.23,0.01,0.04,-1.06,3.75,-0.39,-0.52,-1.24,1008.82
13.891,0.03,1.16,-0.04,0.04,-1.06,3.75,-0.39,-0.52,-1.24,1008.82
13.892,-0.18,0.94,-0.11,0.04,-1.06,3.75,-0.39,-0.52,-1.24,1008.82
13.892,-0.12,0.99,-0.09,0.04,-1.06,3.75,-0.39,-0.52,-1.24,1008.82
13.892,-0.12,0.99,-0.09,0.04,-1.06,3.75,0.02,0.05,-1.31,1008.82
13.893,-0.12,0.99,-0.09,-1.67,0.39,-0.32,0.02,0.05,-1.31,1008.82
13.923,-0.12,0.99,-0.09,-1.67,0.39,-0.32,0.02,0.05,-1.31,1008.85
13.95,-0.00,1.04,-0.05,-1.67,0.39,-0.32,0.02,0.05,-1.31,1008.85
13.951,0.02,1.02,-0.03,-1.67,0.39,-0.32,0.02,0.05,-1.31,1008.85
13.951,0.07,1.01,-0.02,-1.67,0.39,-0.32,0.02,0.05,-1.31,1008.85
13.952,0.07,1.01,-0.02,-1.67,0.39,-0.32,-0.07,-0.32,-0.80,1008.85
13.952,0.07,1.01,-0.02,-0.02,0.32,0.07,-0.07,-0.32,-0.80,1008.85
14.007,0.07,1.01,-0.02,-0.02,0.32,0.07,-0.07,-0.32,-0.80,1008.84
14.009,0.07,1.01,-0.02,1.20,-0.01,0.42,-0.07,-0.32,-0.80,1008.84
14.01,0.17,0.99,-0.01,1.20,-0.01,0.42,-0.07,-0.32,-0.80,1008.84
14.01,0.13,0.99,0.00,1.20,-0.01,0.42,-0.07,-0.32,-0.80,1008.84
14.01,0.01,1.00,0.01,1.20,-0.01,0.42,-0.07,-0.32,-0.80,1008.84
14.011,0.01,1.00,0.01,1.20,-0.01,0.42,0.02,0.12,-0.94,1008.84
14.067,-0.07,0.98,0.01,1.20,-0.01,0.42,0.02,0.12,-0.94,1008.84
14.068,-0.11,0.99,-0.02,1.20,-0.01,0.42,0.02,0.12,-0.94,1008.84
14.069,-0.07,1.00,-0.03,1.20,-0.01,0.42,0.02,0.12,-0.94,1008.84
14.069,-0.07,1.00,-0.03,1.20,-0.01,0.42,0.10,0.13,-1.10,1008.84
14.069,-0.07,1.00,-0.03,0.01,-0.02,0.34,0.10,0.13,-1.10,1008.84
14.082,-0.07,1.00,-0.03,0.01,-0.02,0.34,0.10,0.13,-1.10,1008.84
14.122,-0.07,1.00,-0.03,0.01,-0.02,0.34,0.10,0.13,-1.10,1008.84
14.125,-0.03,0.99,-0.05,0.01,-0.02,0.34,0.10,0.13,-1.10,1008.84
14.126,-0.07,0.96,-0.05,0.01,-0.02,0.34,0.10,0.13,-1.10,1008.84
14.126,-0.13,0.94,-0.04,0.01,-0.02,0.34,0.10,0.13,-1.10,1008.84
14.126,-0.13,0.94,-0.04,0.01,-0.02,0.34,0.14,0.12,-1.18,1008.84
14.126,-0.13,0.94,-0.04,0.73,-0.15,0.09,0.14,0.12,-1.18,1008.84
14.184,-0.16,0.96,-0.02,0.73,-0.15,0.09,0.14,0.12,-1.18,1008.84
14.185,-0.20,1.00,-0.04,0.73,-0.15,0.09,0.14,0.12,-1.18,1008.84
14.186,-0.25,1.05,-0.10,0.73,-0.15,0.09,0.14,0.12,-1.18,1008.84
14.186,-0.25,1.05,-0.10,0.73,-0.15,0.09,0.16,0.10,-1.33,1008.84
14.186,-0.25,1.05,-0.10,0.19,0.36,0.09,0.16,0.10,-1.33,1008.84
14.202,-0.25,1.05,-0.10,0.19,0.36,0.09,0.16,0.10,-1.33,1008.84
14.241,-0.20,1.05,-0.09,0.19,0.36,0.09,0.16,0.10,-1.33,1008.84
14.242,-0.15,1.05,-0.05,0.19,0.36,0.09,0.16,0.10,-1.33,1008.84
14.243,-0.19,1.06,-0.03,0.19,0.36,0.09,0.16,0.10,-1.33,1008.84
14.243,-0.19,1.06,-0.03,0.19,0.36,0.09,0.23,-0.20,-1.37,1008.84
14.244,-0.19,1.06,-0.03,1.15,1.04,0.17,0.23,-0.20,-1.37,1008.84
14.282,-0.19,1.06,-0.03,1.15,1.04,0.17,0.23,-0.20,-1.37,1008.88
14.3,-0.30,1.07,-0.03,1.15,1.04,0.17,0.23,-0.20,-1.37,1008.88
14.301,-0.31,1.08,-0.04,1.15,1.04,0.17,0.23,-0.20,-1.37,1008.88
14.301,-0.26,1.13,-0.03,1.15,1.04,0.17,0.23,-0.20,-1.37,1008.88
14.301,-0.26,1.13,-0.03,1.15,1.04,0.17,0.38,0.11,-1.49,1008.88
14.303,-0.26,1.13,-0.03,0.86,1.71,0.61,0.38,0.11,-1.49,1008.88
14.321,-0.26,1.13,-0.03,0.86,1.71,0.61,0.38,0.11,-1.49,1008.91
14.358,-0.20,1.21,-0.08,0.86,1.71,0.61,0.38,0.11,-1.49,1008.91
14.359,-0.12,1.35,-0.08,0.86,1.71,0.61,0.38,0.11,-1.49,1008.91
14.359,0.13,1.54,-0.02,0.86,1.71,0.61,0.38,0.11,-1.49,1008.91
14.359,0.13,1.54,-0.02,0.86,1.71,0.61,0.59,0.36,-1.49,1008.91
14.359,0.13,1.54,-0.02,3.80,4.72,0.76,0.59,0.36,-1.49,1008.91
14.401,0.13,1.54,-0.02,3.80,4.72,0.76,0.59,0.36,-1.49,1008.89
14.418,0.58,1.60,-0.05,3.80,4.72,0.76,0.59,0.36,-1.49,1008.89
14.419,0.89,1.53,-0.24,3.80,4.72,0.76,0.59,0.36,-1.49,1008.89
14.42,0.94,1.36,-0.22,3.80,4.72,0.76,0.59,0.36,-1.49,1008.89
14.42,0.94,1.36,-0.22,3.80,4.72,0.76,0.64,1.00,-1.99,1008.89
14.421,0.94,1.36,-0.22,12.92,6.48,0.27,0.64,1.00,-1.99,1008.89
14.475,0.33,1.03,-0.11,12.92,6.48,0.27,0.64,1.00,-1.99,1008.89
14.476,-0.65,1.07,-0.24,12.92,6.48,0.27,0.64,1.00,-1.99,1008.89
14.476,-1.04,1.23,-0.26,12.92,6.48,0.27,0.64,1.00,-1.99,1008.89
14.477,-1.04,1.23,-0.26,12.92,6.48,0.27,0.78,2.90,-3.95,1008.89
14.477,-1.04,1.23,-0.26,1.82,4.09,1.22,0.78,2.90,-3.95,1008.89
14.481,-1.04,1.23,-0.26,1.82,4.09,1.22,0.78,2.90,-3.95,1008.87
14.522,-1.04,1.23,-0.26,1.82,4.09,1.22,0.78,2.90,-3.95,1008.85
14.534,-0.94,1.00,-0.28,1.82,4.09,1.22,0.78,2.90,-3.95,1008.85
14.534,-0.81,0.64,-0.35,1.82,4.09,1.22,0.78,2.90,-3.95,1008.85
14.535,-0.76,0.54,-0.43,1.82,4.09,1.22,0.78,2.90,-3.95,1008.85
14.535,-0.76,0.54,-0.43,-1.39,1.18,0.40,0.78,2.90,-3.95,1008.85
14.535,-0.76,0.54,-0.43,-1.39,1.18,0.40,0.55,1.19,-1.95,1008.85
14.591,-0.57,0.44,-0.40,-1.39,1.18,0.40,0.55,1.19,-1.95,1008.85
14.592,-0.34,0.34,-0.22,-1.39,1.18,0.40,0.55,1.19,-1.95,1008.85
14.592,-0.22,0.19,-0.15,-1.39,1.18,0.40,0.55,1.19,-1.95,1008.85
14.593,-0.22,0.19,-0.15,-1.39,1.18,0.40,-1.34,-0.68,1.36,1008.85
14.593,-0.22,0.19,-0.15,2.68,-3.53,0.58,-1.34,-0.68,1.36,1008.85
14.602,-0.22,0.19,-0.15,2.68,-3.53,0.58,-1.34,-0.68,1.36,1008.82
14.651,-0.20,0.26,-0.21,2.68,-3.53,0.58,-1.34,-0.68,1.36,1008.82
14.652,-0.07,0.36,-0.21,2.68,-3.53,0.58,-1.34,-0.68,1.36,1008.82
14.652,0.01,0.45,-0.22,2.68,-3.53,0.58,-1.34,-0.68,1.36,1008.82
14.653,0.01,0.45,-0.22,2.68,-3.53,0.58,-1.55,-0.59,3.62,1008.82
14.653,0.01,0.45,-0.22,4.01,-4.57,0.16,-1.55,-0.59,3.62,1008.82
14.683,0.01,0.45,-0.22,4.01,-4.57,0.16,-1.55,-0.59,3.62,1008.83
14.709,-0.07,0.59,-0.24,4.01,-4.57,0.16,-1.55,-0.59,3.62,1008.83
14.71,-0.23,0.73,-0.25,4.01,-4.57,0.16,-1.55,-0.59,3.62,1008.83
14.711,-0.17,0.79,-0.28,4.01,-4.57,0.16,-1.55,-0.59,3.62,1008.83
14.712,-0.17,0.79,-0.28,4.01,-4.57,0.16,-1.44,0.76,4.84,1008.83
14.713,-0.17,0.79,-0.28,0.77,-2.29,-0.85,-1.44,0.76,4.84,1008.83
14.729,-0.17,0.79,-0.28,0.77,-2.29,-0.85,-1.44,0.76,4.84,1008.84
14.769,-0.17,0.79,-0.28,-2.77,3.13,-3.36,-1.44,0.76,4.84,1008.84
14.77,-0.07,0.96,-0.41,-2.77,3.13,-3.36,-1.44,0.76,4.84,1008.84
14.77,-0.10,1.28,-0.43,-2.77,3.13,-3.36,-1.44,0.76,4.84,1008.84
14.771,-0.39,1.65,-0.48,-2.77,3.13,-3.36,-1.44,0.76,4.84,1008.84
14.771,-0.39,1.65,-0.48,-2.77,3.13,-3.36,-1.48,1.59,5.68,1008.84
14.802,-0.39,1.65,-0.48,-2.77,3.13,-3.36,-1.48,1.59,5.68,1008.83
14.827,-0.74,1.85,-0.47,-2.77,3.13,-3.36,-1.48,1.59,5.68,1008.83
14.827,-0.82,1.67,-0.42,-2.77,3.13,-3.36,-1.48,1.59,5.68,1008.83
14.828,-0.60,1.24,-0.13,-2.77,3.13,-3.36,-1.48,1.59,5.68,1008.83
14.828,-0.60,1.24,-0.13,-2.77,3.13,-3.36,-1.78,-0.21,5.37,1008.83
14.828,-0.60,1.24,-0.13,-10.70,6.55,-3.26,-1.78,-0.21,5.37,1008.83
14.882,-0.60,1.24,-0.13,-10.70,6.55,-3.26,-1.78,-0.21,5.37,1008.77
14.883,-0.29,1.00,-0.03,-10.70,6.55,-3.26,-1.78,-0.21,5.37,1008.77
14.883,-0.31,1.06,-0.23,-10.70,6.55,-3.26,-1.78,-0.21,5.37,1008.77
14.883,-0.74,1.05,-0.24,-10.70,6.55,-3.26,-1.78,-0.21,5.37,1008.77
14.884,-0.74,1.05,-0.24,-10.70,6.55,-3.26,-0.81,-0.78,2.02,1008.77
14.884,-0.74,1.05,-0.24,-8.91,1.63,-1.76,-0.81,-0.78,2.02,1008.77
14.927,-0.74,1.05,-0.24,-8.91,1.63,-1.76,-0.81,-0.78,2.02,1008.81
14.941,-1.02,0.85,-0.19,-8.91,1.63,-1.76,-0.81,-0.78,2.02,1008.81
14.942,-0.92,1.09,-0.38,-8.91,1.63,-1.76,-0.81,-0.78,2.02,1008.81
14.942,0.38,1.49,-0.15,-8.91,1.63,-1.76,-0.81,-0.78,2.02,1008.81
14.943,0.38,1.49,-0.15,-8.91,1.63,-1.76,-0.24,-1.59,-1.70,1008.81
14.943,0.38,1.49,-0.15,-8.64,2.25,-2.13,-0.24,-1.59,-1.70,1008.81
15.002,2.76,1.14,0.26,-8.64,2.25,-2.13,-0.24,-1.59,-1.70,1008.81
15.003,1.78,1.24,0.07,-8.64,2.25,-2.13,-0.24,-1.59,-1.70,1008.81
15.003,-0.67,1.48,-0.60,-8.64,2.25,-2.13,-0.24,-1.59,-1.70,1008.81
15.004,-0.67,1.48,-0.60,-8.64,2.25,-2.13,-0.35,-0.70,-1.18,1008.81
15.004,-0.67,1.48,-0.60,9.55,3.35,-0.73,-0.35,-0.70,-1.18,1008.81
15.005,-0.67,1.48,-0.60,9.55,3.35,-0.73,-0.35,-0.70,-1.18,1008.81
15.06,-0.94,0.97,-0.86,9.55,3.35,-0.73,-0.35,-0.70,-1.18,1008.81
15.06,-0.46,0.66,0.44,9.55,3.35,-0.73,-0.35,-0.70,-1.18,1008.81
15.06,0.08,0.87,0.28,9.55,3.35,-0.73,-0.35,-0.70,-1.18,1008.81
15.061,0.08,0.87,0.28,9.55,3.35,-0.73,-0.13,0.08,-2.11,1008.81
15.061,0.08,0.87,0.28,-6.14,-1.39,-0.35,-0.13,0.08,-2.11,1008.81
15.082,0.08,0.87,0.28,-6.14,-1.39,-0.35,-0.13,0.08,-2.11,1008.86
15.129,0.37,1.14,0.09,-6.14,-1.39,-0.35,-0.13,0.08,-2.11,1008.86
15.13,0.31,1.13,0.08,-6.14,-1.39,-0.35,-0.13,0.08,-2.11,1008.86
15.131,0.13,0.91,-0.01,-6.14,-1.39,-0.35,-0.13,0.08,-2.11,1008.86
15.132,0.13,0.91,-0.01,-6.14,-1.39,-0.35,-0.02,-0.66,-1.15,1008.86
15.132,0.13,0.91,-0.01,1.45,0.76,0.66,-0.02,-0.66,-1.15,1008.86
15.133,0.13,0.91,-0.01,1.45,0.76,0.66,-0.02,-0.66,-1.15,1008.85
15.174,0.03,0.93,-0.00,1.45,0.76,0.66,-0.02,-0.66,-1.15,1008.85
15.175,0.00,1.04,-0.01,1.45,0.76,0.66,-0.02,-0.66,-1.15,1008.85
15.175,-0.04,1.03,-0.01,1.45,0.76,0.66,-0.02,-0.66,-1.15,1008.85
15.176,-0.04,1.03,-0.01,1.45,0.76,0.66,0.14,0.13,-1.24,1008.85
15.176,-0.04,1.03,-0.01,-0.51,0.09,0.14,0.14,0.13,-1.24,1008.85
15.202,-0.04,1.03,-0.01,-0.51,0.09,0.14,0.14,0.13,-1.24,1008.83
15.234,-0.06,1.02,-0.04,-0.51,0.09,0.14,0.14,0.13,-1.24,1008.83
15.234,0.00,1.03,-0.06,-0.51,0.09,0.14,0.14,0.13,-1.24,1008.83
15.234,0.09,1.01,-0.01,-0.51,0.09,0.14,0.14,0.13,-1.24,1008.83
15.234,0.09,1.01,-0.01,-0.51,0.09,0.14,0.15,-0.26,-0.98,1008.83
15.235,0.09,1.01,-0.01,0.17,0.27,-0.07,0.15,-0.26,-0.98,1008.83
15.282,0.09,1.01,-0.01,0.17,0.27,-0.07,0.15,-0.26,-0.98,1008.82
15.292,0.11,0.99,0.00,0.17,0.27,-0.07,0.15,-0.26,-0.98,1008.82
15.292,0.02,0.99,0.00,0.17,0.27,-0.07,0.15,-0.26,-0.98,1008.82
15.292,-0.14,0.99,-0.04,0.17,0.27,-0.07,0.15,-0.26,-0.98,1008.82
15.293,-0.14,0.99,-0.04,0.69,0.01,0.31,0.15,-0.26,-0.98,1008.82
15.293,-0.14,0.99,-0.04,0.69,0.01,0.31,0.22,0.13,-1.12,1008.82
15.323,-0.14,0.99,-0.04,0.69,0.01,0.31,0.22,0.13,-1.12,1008.83
15.35,-0.14,0.99,-0.04,-0.91,-0.09,-0.15,0.22,0.13,-1.12,1008.83
15.351,-0.25,0.98,-0.09,-0.91,-0.09,-0.15,0.22,0.13,-1.12,1008.83
15.352,-0.24,0.97,-0.07,-0.91,-0.09,-0.15,0.22,0.13,-1.12,1008.83
15.352,-0.18,0.97,-0.06,-0.91,-0.09,-0.15,0.22,0.13,-1.12,1008.83
15.353,-0.18,0.97,-0.06,-0.91,-0.09,-0.15,0.21,0.13,-0.98,1008.83
15.402,-0.18,0.97,-0.06,-0.91,-0.09,-0.15,0.21,0.13,-0.98,1008.85
15.408,-0.09,0.96,-0.05,-0.91,-0.09,-0.15,0.21,0.13,-0.98,1008.85
15.409,-0.09,0.97,-0.04,-0.91,-0.09,-0.15,0.21,0.13,-0.98,1008.85
15.409,-0.11,0.97,-0.04,-0.91,-0.09,-0.15,0.21,0.13,-0.98,1008.85
15.41,-0.11,0.97,-0.04,-0.91,-0.09,-0.15,0.16,0.09,-0.87,1008.85
15.41,-0.11,0.97,-0.04,0.81,-0.06,0.19,0.16,0.09,-0.87,1008.85
15.467,-0.16,1.01,-0.06,0.81,-0.06,0.19,0.16,0.09,-0.87,1008.85
15.468,-0.20,1.02,-0.07,0.81,-0.06,0.19,0.16,0.09,-0.87,1008.85
15.468,-0.20,1.01,-0.07,0.81,-0.06,0.19,0.16,0.09,-0.87,1008.85
15.468,-0.20,1.01,-0.07,0.81,-0.06,0.19,0.20,0.09,-1.06,1008.85
15.469,-0.20,1.01,-0.07,0.50,0.52,0.11,0.20,0.09,-1.06,1008.85
15.482,-0.20,1.01,-0.07,0.50,0.52,0.11,0.20,0.09,-1.06,1008.86
15.526,-0.20,1.01,-0.07,0.50,0.52,0.11,0.20,0.09,-1.06,1008.85
15.527,-0.15,1.02,-0.06,0.50,0.52,0.11,0.20,0.09,-1.06,1008.85
15.527,-0.13,1.04,-0.04,0.50,0.52,0.11,0.20,0.09,-1.06,1008.85
15.528,-0.15,1.05,-0.04,0.50,0.52,0.11,0.20,0.09,-1.06,1008.85
15.529,-0.15,1.05,-0.04,0.50,0.52,0.11,0.31,0.03,-1.20,1008.85
15.53,-0.15,1.05,-0.04,1.55,0.90,0.49,0.31,0.03,-1.20,1008.85
15.583,-0.20,1.06,-0.05,1.55,0.90,0.49,0.31,0.03,-1.20,1008.85
15.584,-0.25,1.07,-0.08,1.55,0.90,0.49,0.31,0.03,-1.20,1008.85
15.585,-0.30,1.22,-0.09,1.55,0.90,0.49,0.31,0.03,-1.20,1008.85
15.585,-0.30,1.22,-0.09,1.55,0.90,0.49,0.53,0.41,-1.47,1008.85
15.585,-0.30,1.22,-0.09,1.21,1.98,0.56,0.53,0.41,-1.47,1008.85
15.601,-0.30,1.22,-0.09,1.21,1.98,0.56,0.53,0.41,-1.47,1008.86
15.641,-0.22,1.38,-0.10,1.21,1.98,0.56,0.53,0.41,-1.47,1008.86
15.642,-0.01,1.42,-0.12,1.21,1.98,0.56,0.53,0.41,-1.47,1008.86
15.642,0.33,1.47,-0.21,1.21,1.98,0.56,0.53,0.41,-1.47,1008.86
15.642,0.33,1.47,-0.21,1.21,1.98,0.56,0.91,0.44,-1.41,1008.86
15.643,0.33,1.47,-0.21,4.59,5.35,0.44,0.91,0.44,-1.41,1008.86
15.682,0.33,1.47,-0.21,4.59,5.35,0.44,0.91,0.44,-1.41,1008.87
15.699,0.67,1.41,-0.34,4.59,5.35,0.44,0.91,0.44,-1.41,1008.87
15.7,0.67,1.31,-0.33,4.59,5.35,0.44,0.91,0.44,-1.41,1008.87
15.7,0.27,1.18,-0.15,4.59,5.35,0.44,0.91,0.44,-1.41,1008.87
15.701,0.27,1.18,-0.15,4.59,5.35,0.44,0.83,1.14,-2.15,1008.87
15.701,0.27,1.18,-0.15,10.23,4.73,-0.13,0.83,1.14,-2.15,1008.87
15.721,0.27,1.18,-0.15,10.23,4.73,-0.13,0.83,1.14,-2.15,1008.86
15.758,-0.44,0.97,-0.14,10.23,4.73,-0.13,0.83,1.14,-2.15,1008.86
15.759,-1.10,1.03,-0.29,10.23,4.73,-0.13,0.83,1.14,-2.15,1008.86
15.76,-1.16,0.98,-0.38,10.23,4.73,-0.13,0.83,1.14,-2.15,1008.86
15.76,-1.16,0.98,-0.38,10.23,4.73,-0.13,1.28,1.58,-3.38,1008.86
15.76,-1.16,0.98,-0.38,-2.61,3.00,0.96,1.28,1.58,-3.38,1008.86
15.802,-1.16,0.98,-0.38,-2.61,3.00,0.96,1.28,1.58,-3.38,1008.86
15.821,-1.16,0.98,-0.38,0.10,-0.64,1.79,1.28,1.58,-3.38,1008.86
15.822,-0.81,0.70,-0.22,0.10,-0.64,1.79,1.28,1.58,-3.38,1008.86
15.822,-0.61,0.51,-0.18,0.10,-0.64,1.79,1.28,1.58,-3.38,1008.86
15.823,-0.56,0.52,-0.17,0.10,-0.64,1.79,1.28,1.58,-3.38,1008.86
15.829,-0.56,0.52,-0.17,0.10,-0.64,1.79,0.28,-0.03,-1.04,1008.86
15.875,-0.41,0.39,-0.13,0.10,-0.64,1.79,0.28,-0.03,-1.04,1008.86
15.876,-0.16,0.21,0.06,0.10,-0.64,1.79,0.28,-0.03,-1.04,1008.86
15.877,-0.11,0.08,0.03,0.10,-0.64,1.79,0.28,-0.03,-1.04,1008.86
15.877,-0.11,0.08,0.03,0.10,-0.64,1.79,-0.50,-1.10,1.47,1008.86
15.878,-0.11,0.08,0.03,3.97,-4.62,2.85,-0.50,-1.10,1.47,1008.86
15.882,-0.11,0.08,0.03,3.97,-4.62,2.85,-0.50,-1.10,1.47,1008.84
15.922,-0.11,0.08,0.03,3.97,-4.62,2.85,-0.50,-1.10,1.47,1008.83
15.933,-0.23,0.24,-0.20,3.97,-4.62,2.85,-0.50,-1.10,1.47,1008.83
15.933,-0.31,0.43,-0.24,3.97,-4.62,2.85,-0.50,-1.10,1.47,1008.83
15.934,-0.43,0.56,-0.21,3.97,-4.62,2.85,-0.50,-1.10,1.47,1008.83
15.934,-0.43,0.56,-0.21,3.97,-4.62,2.85,0.06,-0.75,2.96,1008.83
15.934,-0.43,0.56,-0.21,1.85,-3.71,0.65,0.06,-0.75,2.96,1008.83
15.991,-0.62,0.59,-0.20,1.85,-3.71,0.65,0.06,-0.75,2.96,1008.83
15.992,-0.72,0.67,-0.17,1.85,-3.71,0.65,0.06,-0.75,2.96,1008.83
15.992,-0.73,0.84,-0.23,1.85,-3.71,0.65,0.06,-0.75,2.96,1008.83
15.992,-0.73,0.84,-0.23,1.85,-3.71,0.65,0.10,-1.14,4.30,1008.83
15.993,-0.73,0.84,-0.23,-3.58,-1.86,0.58,0.10,-1.14,4.30,1008.83
16.003,-0.73,0.84,-0.23,-3.58,-1.86,0.58,0.10,-1.14,4.30,1008.84
16.05,-0.70,0.98,-0.32,-3.58,-1.86,0.58,0.10,-1.14,4.30,1008.84
16.051,-0.65,1.09,-0.37,-3.58,-1.86,0.58,0.10,-1.14,4.30,1008.84
16.051,-0.55,1.17,-0.33,-3.58,-1.86,0.58,0.10,-1.14,4.30,1008.84
16.052,-0.55,1.17,-0.33,-3.58,-1.86,0.58,0.26,-3.67,5.25,1008.84
16.052,-0.55,1.17,-0.33,-5.24,1.23,-1.05,0.26,-3.67,5.25,1008.84
16.083,-0.55,1.17,-0.33,-5.24,1.23,-1.05,0.26,-3.67,5.25,1008.79
16.108,-0.44,1.25,-0.32,-5.24,1.23,-1.05,0.26,-3.67,5.25,1008.79
16.108,-0.30,1.24,-0.27,-5.24,1.23,-1.05,0.26,-3.67,5.25,1008.79
16.109,-0.22,1.20,-0.19,-5.24,1.23,-1.05,0.26,-3.67,5.25,1008.79
16.109,-0.22,1.20,-0.19,-5.24,1.23,-1.05,0.48,-6.99,4.98,1008.79
16.109,-0.22,1.20,-0.19,-3.86,2.72,-0.02,0.48,-6.99,4.98,1008.79
16.122,-0.22,1.20,-0.19,-3.86,2.72,-0.02,0.48,-6.99,4.98,1008.74
16.167,-0.22,1.23,-0.21,-3.86,2.72,-0.02,0.48,-6.99,4.98,1008.74
16.169,-0.17,1.17,-0.07,-3.86,2.72,-0.02,0.48,-6.99,4.98,1008.74
16.169,-0.02,1.04,0.05,-3.86,2.72,-0.02,0.48,-6.99,4.98,1008.74
16.17,-0.02,1.04,0.05,-2.38,2.04,2.19,0.48,-6.99,4.98,1008.74
16.17,-0.02,1.04,0.05,-2.38,2.04,2.19,-0.15,-8.52,3.28,1008.74
16.202,-0.02,1.04,0.05,-2.38,2.04,2.19,-0.15,-8.52,3.28,1008.73
16.226,0.17,0.98,0.05,-2.38,2.04,2.19,-0.15,-8.52,3.28,1008.73
16.227,0.31,0.95,0.08,-2.38,2.04,2.19,-0.15,-8.52,3.28,1008.73
16.229,0.29,0.93,0.15,-2.38,2.04,2.19,-0.15,-8.52,3.28,1008.73
16.229,0.29,0.93,0.15,1.77,0.22,3.95,-0.15,-8.52,3.28,1008.73
16.23,0.29,0.93,0.15,1.77,0.22,3.95,-0.32,-6.43,1.56,1008.73
16.282,0.29,0.93,0.15,1.77,0.22,3.95,-0.32,-6.43,1.56,1008.77
16.283,0.13,0.89,0.20,1.77,0.22,3.95,-0.32,-6.43,1.56,1008.77
16.284,-0.08,0.80,0.36,1.77,0.22,3.95,-0.32,-6.43,1.56,1008.77
16.284,-1.07,1.28,-0.13,1.77,0.22,3.95,-0.32,-6.43,1.56,1008.77
16.284,-1.07,1.28,-0.13,1.77,0.22,3.95,-0.39,-1.73,-0.05,1008.77
16.284,-1.07,1.28,-0.13,-3.73,0.46,4.28,-0.39,-1.73,-0.05,1008.77
16.326,-1.07,1.28,-0.13,-3.73,0.46,4.28,-0.39,-1.73,-0.05,1008.82
16.346,-1.06,1.37,0.40,-3.73,0.46,4.28,-0.39,-1.73,-0.05,1008.82
16.346,0.25,0.82,0.32,-3.73,0.46,4.28,-0.39,-1.73,-0.05,1008.82
16.347,0.87,1.25,-0.74,-3.73,0.46,4.28,-0.39,-1.73,-0.05,1008.82
16.347,0.87,1.25,-0.74,-3.73,0.46,4.28,-0.85,-0.68,0.13,1008.82
16.347,0.87,1.25,-0.74,-0.13,1.84,2.30,-0.85,-0.68,0.13,1008.82
16.4,0.87,1.25,-0.74,-1.08,1.63,-1.45,-0.85,-0.68,0.13,1008.82
16.4,0.58,1.61,-0.66,-1.08,1.63,-1.45,-0.85,-0.68,0.13,1008.82
16.401,-0.39,1.02,-0.29,-1.08,1.63,-1.45,-0.85,-0.68,0.13,1008.82
16.401,-0.54,0.78,-0.11,-1.08,1.63,-1.45,-0.85,-0.68,0.13,1008.82
16.401,-0.54,0.78,-0.11,-1.08,1.63,-1.45,-0.66,-1.13,-0.45,1008.82
16.404,-0.54,0.78,-0.11,-1.08,1.63,-1.45,-0.66,-1.13,-0.45,1008.80
16.457,-0.17,0.93,0.05,-1.08,1.63,-1.45,-0.66,-1.13,-0.45,1008.80
16.458,0.17,1.05,-0.06,-1.08,1.63,-1.45,-0.66,-1.13,-0.45,1008.80
16.458,0.33,1.10,-0.24,-1.08,1.63,-1.45,-0.66,-1.13,-0.45,1008.80
16.46,0.33,1.10,-0.24,1.00,0.45,0.95,-0.66,-1.13,-0.45,1008.80
16.46,0.33,1.10,-0.24,1.00,0.45,0.95,-0.49,-0.94,0.45,1008.80
16.483,0.33,1.10,-0.24,1.00,0.45,0.95,-0.49,-0.94,0.45,1008.78
16.517,0.12,1.00,-0.24,1.00,0.45,0.95,-0.49,-0.94,0.45,1008.78
16.518,-0.19,0.97,-0.16,1.00,0.45,0.95,-0.49,-0.94,0.45,1008.78
16.518,-0.26,1.00,-0.12,1.00,0.45,0.95,-0.49,-0.94,0.45,1008.78
16.518,-0.26,1.00,-0.12,1.00,0.45,0.95,-0.22,0.37,0.09,1008.78
16.519,-0.26,1.00,-0.12,-1.21,0.10,-0.09,-0.22,0.37,0.09,1008.78
16.524,-0.26,1.00,-0.12,-1.21,0.10,-0.09,-0.22,0.37,0.09,1008.83
16.574,-0.07,0.98,-0.11,-1.21,0.10,-0.09,-0.22,0.37,0.09,1008.83
16.575,0.18,0.96,-0.09,-1.21,0.10,-0.09,-0.22,0.37,0.09,1008.83
16.576,0.33,0.95,-0.07,-1.21,0.10,-0.09,-0.22,0.37,0.09,1008.83
16.576,0.33,0.95,-0.07,1.10,-0.19,0.66,-0.22,0.37,0.09,1008.83
16.577,0.33,0.95,-0.07,1.10,-0.19,0.66,-0.19,-0.52,0.35,1008.83
16.602,0.33,0.95,-0.07,1.10,-0.19,0.66,-0.19,-0.52,0.35,1008.83
16.633,0.22,0.96,-0.09,1.10,-0.19,0.66,-0.19,-0.52,0.35,1008.83
16.633,-0.02,0.97,-0.10,1.10,-0.19,0.66,-0.19,-0.52,0.35,1008.83
16.634,-0.14,1.00,-0.13,1.10,-0.19,0.66,-0.19,-0.52,0.35,1008.83
16.634,-0.14,1.00,-0.13,1.10,-0.19,0.66,-0.07,-0.24,-0.28,1008.83
16.634,-0.14,1.00,-0.13,0.06,-0.04,0.41,-0.07,-0.24,-0.28,1008.83
16.683,-0.14,1.00,-0.13,0.06,-0.04,0.41,-0.07,-0.24,-0.28,1008.83
16.692,-0.14,0.98,-0.14,0.06,-0.04,0.41,-0.07,-0.24,-0.28,1008.83
16.692,-0.14,1.00,-0.16,0.06,-0.04,0.41,-0.07,-0.24,-0.28,1008.83
16.693,-0.09,1.03,-0.13,0.06,-0.04,0.41,-0.07,-0.24,-0.28,1008.83
16.693,-0.09,1.03,-0.13,0.06,-0.04,0.41,-0.06,-0.43,-0.09,1008.83
16.694,-0.09,1.03,-0.13,-1.24,0.24,0.03,-0.06,-0.43,-0.09,1008.83
16.727,-0.09,1.03,-0.13,-1.24,0.24,0.03,-0.06,-0.43,-0.09,1008.83
16.75,0.05,0.99,-0.10,-1.24,0.24,0.03,-0.06,-0.43,-0.09,1008.83
16.751,0.13,0.97,-0.08,-1.24,0.24,0.03,-0.06,-0.43,-0.09,1008.83
16.751,0.12,0.98,-0.07,-1.24,0.24,0.03,-0.06,-0.43,-0.09,1008.83
16.751,0.12,0.98,-0.07,-1.24,0.24,0.03,0.07,-0.44,0.03,1008.83
16.752,0.12,0.98,-0.07,0.95,0.01,0.64,0.07,-0.44,0.03,1008.83
16.803,0.12,0.98,-0.07,0.95,0.01,0.64,0.07,-0.44,0.03,1008.84
16.809,0.10,0.99,-0.08,0.95,0.01,0.64,0.07,-0.44,0.03,1008.84
16.809,0.03,1.01,-0.03,0.95,0.01,0.64,0.07,-0.44,0.03,1008.84
16.81,-0.02,0.99,-0.07,0.95,0.01,0.64,0.07,-0.44,0.03,1008.84
16.81,-0.02,0.99,-0.07,0.95,0.01,0.64,0.31,-0.28,-0.36,1008.84
16.81,-0.02,0.99,-0.07,0.53,0.18,1.00,0.31,-0.28,-0.36,1008.84
16.867,-0.04,1.00,-0.12,0.53,0.18,1.00,0.31,-0.28,-0.36,1008.84
16.868,0.01,0.99,-0.12,0.53,0.18,1.00,0.31,-0.28,-0.36,1008.84
16.869,-0.01,0.96,-0.13,0.53,0.18,1.00,0.31,-0.28,-0.36,1008.84
16.869,-0.01,0.96,-0.13,0.53,0.18,1.00,0.63,-0.13,-0.48,1008.84
16.87,-0.01,0.96,-0.13,0.30,0.11,0.75,0.63,-0.13,-0.48,1008.84
16.883,-0.01,0.96,-0.13,0.30,0.11,0.75,0.63,-0.13,-0.48,1008.85
16.923,-0.01,0.96,-0.13,0.30,0.11,0.75,0.63,-0.13,-0.48,1008.85
16.929,-0.01,0.96,-0.13,-1.07,0.26,0.62,0.63,-0.13,-0.48,1008.85
16.929,-0.17,0.98,-0.15,-1.07,0.26,0.62,0.63,-0.13,-0.48,1008.85
16.929,-0.26,1.00,-0.21,-1.07,0.26,0.62,0.63,-0.13,-0.48,1008.85
16.93,-0.13,0.98,-0.19,-1.07,0.26,0.62,0.63,-0.13,-0.48,1008.85
16.93,-0.13,0.98,-0.19,-1.07,0.26,0.62,0.90,-0.13,-0.50,1008.85
16.982,0.02,1.02,-0.20,-1.07,0.26,0.62,0.90,-0.13,-0.50,1008.85
16.983,0.09,1.09,-0.24,-1.07,0.26,0.62,0.90,-0.13,-0.50,1008.85
16.984,0.03,1.03,-0.37,-1.07,0.26,0.62,0.90,-0.13,-0.50,1008.85
16.984,0.03,1.03,-0.37,-1.07,0.26,0.62,1.18,0.10,-0.35,1008.85
16.984,0.03,1.03,-0.37,1.36,1.06,0.44,1.18,0.10,-0.35,1008.85
17.004,0.03,1.03,-0.37,1.36,1.06,0.44,1.18,0.10,-0.35,1008.87
17.053,-0.12,1.02,-0.44,1.36,1.06,0.44,1.18,0.10,-0.35,1008.87
17.055,-0.18,1.26,-0.33,1.36,1.06,0.44,1.18,0.10,-0.35,1008.87
17.055,-0.03,1.34,-0.20,1.36,1.06,0.44,1.18,0.10,-0.35,1008.87
17.056,-0.03,1.34,-0.20,1.36,1.06,0.44,1.51,-0.10,-0.40,1008.87
17.056,-0.03,1.34,-0.20,0.06,2.90,0.65,1.51,-0.10,-0.40,1008.87
17.085,-0.03,1.34,-0.20,0.06,2.90,0.65,1.51,-0.10,-0.40,1008.87
17.1,0.28,1.26,-0.17,0.06,2.90,0.65,1.51,-0.10,-0.40,1008.87
17.101,0.60,1.21,-0.14,0.06,2.90,0.65,1.51,-0.10,-0.40,1008.87
17.101,0.50,1.24,-0.11,0.06,2.90,0.65,1.51,-0.10,-0.40,1008.87
17.102,0.50,1.24,-0.11,0.06,2.90,0.65,1.87,-1.49,-0.43,1008.87
17.102,0.50,1.24,-0.11,6.16,3.61,3.22,1.87,-1.49,-0.43,1008.87
17.127,0.50,1.24,-0.11,6.16,3.61,3.22,1.87,-1.49,-0.43,1008.82
17.157,0.04,1.34,0.09,6.16,3.61,3.22,1.87,-1.49,-0.43,1008.82
17.158,-0.26,1.34,0.37,6.16,3.61,3.22,1.87,-1.49,-0.43,1008.82
17.159,-0.70,1.26,0.19,6.16,3.61,3.22,1.87,-1.49,-0.43,1008.82
17.159,-0.70,1.26,0.19,-0.22,5.01,7.30,1.87,-1.49,-0.43,1008.82
17.159,-0.70,1.26,0.19,-0.22,5.01,7.30,1.85,-1.61,-1.45,1008.82
17.203,-0.70,1.26,0.19,-0.22,5.01,7.30,1.85,-1.61,-1.45,1008.84
17.218,-0.95,1.25,-0.09,-0.22,5.01,7.30,1.85,-1.61,-1.45,1008.84
17.219,-0.69,1.00,-0.26,-0.22,5.01,7.30,1.85,-1.61,-1.45,1008.84
17.22,-0.54,1.16,-0.59,-0.22,5.01,7.30,1.85,-1.61,-1.45,1008.84
17.22,-0.54,1.16,-0.59,-2.73,3.94,2.03,1.85,-1.61,-1.45,1008.84
17.221,-0.54,1.16,-0.59,-2.73,3.94,2.03,1.47,-3.21,-1.27,1008.84
17.275,-0.16,1.17,-0.39,-2.73,3.94,2.03,1.47,-3.21,-1.27,1008.84
17.276,0.14,0.91,-0.09,-2.73,3.94,2.03,1.47,-3.21,-1.27,1008.84
17.276,0.18,0.71,0.07,-2.73,3.94,2.03,1.47,-3.21,-1.27,1008.84
17.277,0.18,0.71,0.07,5.96,1.81,2.26,1.47,-3.21,-1.27,1008.84
17.277,0.18,0.71,0.07,5.96,1.81,2.26,0.10,-5.06,0.39,1008.84
17.282,0.18,0.71,0.07,5.96,1.81,2.26,0.10,-5.06,0.39,1008.87
17.324,0.18,0.71,0.07,5.96,1.81,2.26,0.10,-5.06,0.39,1008.85
17.334,0.00,0.65,0.02,5.96,1.81,2.26,0.10,-5.06,0.39,1008.85
17.334,-0.19,0.63,-0.02,5.96,1.81,2.26,0.10,-5.06,0.39,1008.85
17.335,-0.24,0.59,-0.05,5.96,1.81,2.26,0.10,-5.06,0.39,1008.85
17.335,-0.24,0.59,-0.05,5.96,1.81,2.26,-0.32,-2.74,1.41,1008.85
17.336,-0.24,0.59,-0.05,3.84,-1.68,2.41,-0.32,-2.74,1.41,1008.85
17.392,-0.20,0.58,-0.07,3.84,-1.68,2.41,-0.32,-2.74,1.41,1008.85
17.393,-0.14,0.64,-0.11,3.84,-1.68,2.41,-0.32,-2.74,1.41,1008.85
17.394,-0.17,0.77,-0.13,3.84,-1.68,2.41,-0.32,-2.74,1.41,1008.85
17.394,-0.17,0.77,-0.13,3.84,-1.68,2.41,-0.30,-0.34,3.24,1008.85
17.395,-0.17,0.77,-0.13,2.03,-2.17,1.27,-0.30,-0.34,3.24,1008.85
17.403,-0.17,0.77,-0.13,2.03,-2.17,1.27,-0.30,-0.34,3.24,1008.88
17.45,-0.26,0.88,-0.15,2.03,-2.17,1.27,-0.30,-0.34,3.24,1008.88
17.451,-0.38,0.98,-0.19,2.03,-2.17,1.27,-0.30,-0.34,3.24,1008.88
17.452,-0.44,1.08,-0.26,2.03,-2.17,1.27,-0.30,-0.34,3.24,1008.88
17.452,-0.44,1.08,-0.26,2.03,-2.17,1.27,-0.72,0.75,4.29,1008.88
17.452,-0.44,1.08,-0.26,-2.14,0.23,0.07,-0.72,0.75,4.29,1008.88
17.483,-0.44,1.08,-0.26,-2.14,0.23,0.07,-0.72,0.75,4.29,1008.87
17.509,-0.40,1.15,-0.27,-2.14,0.23,0.07,-0.72,0.75,4.29,1008.87
17.51,-0.32,1.22,-0.21,-2.14,0.23,0.07,-0.72,0.75,4.29,1008.87
17.511,-0.32,1.39,-0.24,-2.14,0.23,0.07,-0.72,0.75,4.29,1008.87
17.511,-0.32,1.39,-0.24,-2.14,0.23,0.07,-1.51,0.04,5.25,1008.87
17.512,-0.32,1.39,-0.24,-4.86,2.75,-1.12,-1.51,0.04,5.25,1008.87
17.523,-0.32,1.39,-0.24,-4.86,2.75,-1.12,-1.51,0.04,5.25,1008.82
17.577,-0.43,1.47,-0.23,-4.86,2.75,-1.12,-1.51,0.04,5.25,1008.82
17.578,-0.59,1.39,-0.13,-4.86,2.75,-1.12,-1.51,0.04,5.25,1008.82
17.579,-0.73,1.25,-0.14,-4.86,2.75,-1.12,-1.51,0.04,5.25,1008.82
17.579,-0.73,1.25,-0.14,-4.86,2.75,-1.12,-1.32,-0.19,4.43,1008.82
17.58,-0.73,1.25,-0.14,-9.41,4.42,-1.08,-1.32,-0.19,4.43,1008.82
17.603,-0.73,1.25,-0.14,-9.41,4.42,-1.08,-1.32,-0.19,4.43,1008.78
17.624,-0.83,1.09,-0.27,-9.41,4.42,-1.08,-1.32,-0.19,4.43,1008.78
17.625,-0.95,0.91,-0.34,-9.41,4.42,-1.08,-1.32,-0.19,4.43,1008.78
17.625,-1.04,0.79,-0.40,-9.41,4.42,-1.08,-1.32,-0.19,4.43,1008.78
17.625,-1.04,0.79,-0.40,-9.41,4.42,-1.08,-0.80,-0.04,1.23,1008.78
17.626,-1.04,0.79,-0.40,-13.30,0.38,-3.11,-0.80,-0.04,1.23,1008.78
17.682,-1.04,0.79,-0.40,-13.30,0.38,-3.11,-0.80,-0.04,1.23,1008.78
17.683,-1.12,0.92,-0.48,-13.30,0.38,-3.11,-0.80,-0.04,1.23,1008.78
17.683,-0.62,1.51,-0.94,-13.30,0.38,-3.11,-0.80,-0.04,1.23,1008.78
17.684,1.86,1.58,0.40,-13.30,0.38,-3.11,-0.80,-0.04,1.23,1008.78
17.684,1.86,1.58,0.40,-13.30,0.38,-3.11,-0.59,-1.76,-0.79,1008.78
17.684,1.86,1.58,0.40,-3.21,4.12,-2.97,-0.59,-1.76,-0.79,1008.78
17.723,1.86,1.58,0.40,-3.21,4.12,-2.97,-0.59,-1.76,-0.79,1008.78
17.755,2.42,1.44,0.16,-3.21,4.12,-2.97,-0.59,-1.76,-0.79,1008.78
17.758,-0.11,1.50,-0.72,-3.21,4.12,-2.97,-0.59,-1.76,-0.79,1008.78
17.759,-0.40,0.82,-0.88,-3.21,4.12,-2.97,-0.59,-1.76,-0.79,1008.78
17.76,-0.40,0.82,-0.88,-3.21,4.12,-2.97,0.10,-0.62,-2.15,1008.78
17.761,-0.40,0.82,-0.88,3.70,2.88,-4.12,0.10,-0.62,-2.15,1008.78
17.804,-0.61,0.51,0.73,3.70,2.88,-4.12,0.10,-0.62,-2.15,1008.78
17.805,-0.40,0.79,0.32,3.70,2.88,-4.12,0.10,-0.62,-2.15,1008.78
17.806,0.04,1.12,0.14,3.70,2.88,-4.12,0.10,-0.62,-2.15,1008.78
17.806,0.04,1.12,0.14,-4.70,-1.71,4.27,0.10,-0.62,-2.15,1008.78
17.807,0.04,1.12,0.14,-4.70,-1.71,4.27,-0.27,-0.15,-1.68,1008.78
17.807,0.04,1.12,0.14,-4.70,-1.71,4.27,-0.27,-0.15,-1.68,1008.77
17.86,0.18,1.18,-0.13,-4.70,-1.71,4.27,-0.27,-0.15,-1.68,1008.77
17.861,0.06,1.04,-0.08,-4.70,-1.71,4.27,-0.27,-0.15,-1.68,1008.77
17.861,-0.00,0.99,-0.08,-4.70,-1.71,4.27,-0.27,-0.15,-1.68,1008.77
17.861,-0.00,0.99,-0.08,-4.70,-1.71,4.27,-0.03,-0.27,-0.93,1008.77
17.862,-0.00,0.99,-0.08,-0.22,0.84,-0.57,-0.03,-0.27,-0.93,1008.77
17.882,-0.00,0.99,-0.08,-0.22,0.84,-0.57,-0.03,-0.27,-0.93,1008.81
17.917,0.10,1.02,-0.03,-0.22,0.84,-0.57,-0.03,-0.27,-0.93,1008.81
17.918,0.06,1.05,0.05,-0.22,0.84,-0.57,-0.03,-0.27,-0.93,1008.81
17.918,0.01,1.00,0.03,-0.22,0.84,-0.57,-0.03,-0.27,-0.93,1008.81
17.918,0.01,1.00,0.03,0.05,0.33,0.53,-0.03,-0.27,-0.93,1008.81
17.919,0.01,1.00,0.03,0.05,0.33,0.53,-0.02,-0.14,-0.83,1008.81
17.922,0.01,1.00,0.03,0.05,0.33,0.53,-0.02,-0.14,-0.83,1008.82
17.976,0.08,0.98,0.02,0.05,0.33,0.53,-0.02,-0.14,-0.83,1008.82
17.978,0.11,1.01,0.02,0.05,0.33,0.53,-0.02,-0.14,-0.83,1008.82
17.979,0.09,1.01,0.02,0.05,0.33,0.53,-0.02,-0.14,-0.83,1008.82
17.98,0.09,1.01,0.02,0.86,0.10,0.64,-0.02,-0.14,-0.83,1008.82
17.981,0.09,1.01,0.02,0.86,0.10,0.64,0.12,-0.03,-0.88,1008.82
18.006,0.09,1.01,0.02,0.86,0.10,0.64,0.12,-0.03,-0.88,1008.81
18.033,0.06,0.99,0.01,0.86,0.10,0.64,0.12,-0.03,-0.88,1008.81
18.034,-0.00,1.00,-0.00,0.86,0.10,0.64,0.12,-0.03,-0.88,1008.81
18.035,-0.04,1.00,-0.00,0.86,0.10,0.64,0.12,-0.03,-0.88,1008.81
18.035,-0.04,1.00,-0.00,0.86,0.10,0.64,0.26,0.17,-1.15,1008.81
18.035,-0.04,1.00,-0.00,0.64,0.09,0.61,0.26,0.17,-1.15,1008.81
18.083,-0.04,1.00,-0.00,0.64,0.09,0.61,0.26,0.17,-1.15,1008.80
18.091,-0.12,1.01,-0.04,0.64,0.09,0.61,0.26,0.17,-1.15,1008.80
18.092,-0.19,1.02,-0.07,0.64,0.09,0.61,0.26,0.17,-1.15,1008.80
18.092,-0.22,1.01,-0.10,0.64,0.09,0.61,0.26,0.17,-1.15,1008.80
18.093,-0.22,1.01,-0.10,0.64,0.09,0.61,0.29,0.21,-1.20,1008.80
18.093,-0.22,1.01,-0.10,-0.45,0.30,0.10,0.29,0.21,-1.20,1008.80
18.123,-0.22,1.01,-0.10,-0.45,0.30,0.10,0.29,0.21,-1.20,1008.82
18.151,-0.20,0.97,-0.08,-0.45,0.30,0.10,0.29,0.21,-1.20,1008.82
18.151,-0.26,0.93,-0.09,-0.45,0.30,0.10,0.29,0.21,-1.20,1008.82
18.152,-0.32,0.94,-0.10,-0.45,0.30,0.10,0.29,0.21,-1.20,1008.82
18.152,-0.32,0.94,-0.10,-0.45,0.30,0.10,0.22,0.40,-1.02,1008.82
18.153,-0.32,0.94,-0.10,-0.70,-0.26,0.05,0.22,0.40,-1.02,1008.82
18.205,-0.32,0.94,-0.10,-0.70,-0.26,0.05,0.22,0.40,-1.02,1008.84
18.209,-0.25,1.02,-0.12,-0.70,-0.26,0.05,0.22,0.40,-1.02,1008.84
18.21,-0.06,1.07,-0.09,-0.70,-0.26,0.05,0.22,0.40,-1.02,1008.84
18.211,0.02,1.08,-0.02,-0.70,-0.26,0.05,0.22,0.40,-1.02,1008.84
18.211,0.02,1.08,-0.02,-0.70,-0.26,0.05,0.21,0.14,-0.84,1008.84
18.211,0.02,1.08,-0.02,1.33,0.96,0.30,0.21,0.14,-0.84,1008.84
18.267,-0.01,1.15,0.04,1.33,0.96,0.30,0.21,0.14,-0.84,1008.84
18.268,-0.00,1.18,0.02,1.33,0.96,0.30,0.21,0.14,-0.84,1008.84
18.269,-0.00,1.20,-0.01,1.33,0.96,0.30,0.21,0.14,-0.84,1008.84
18.269,-0.00,1.20,-0.01,1.33,0.96,0.30,0.51,-0.08,-1.39,1008.84
18.27,-0.00,1.20,-0.01,2.95,2.35,1.44,0.51,-0.08,-1.39,1008.84
18.282,-0.00,1.20,-0.01,2.95,2.35,1.44,0.51,-0.08,-1.39,1008.85
18.323,-0.00,1.20,-0.01,2.95,2.35,1.44,0.51,-0.08,-1.39,1008.85
18.326,0.00,1.37,-0.04,2.95,2.35,1.44,0.51,-0.08,-1.39,1008.85
18.326,0.17,1.56,-0.03,2.95,2.35,1.44,0.51,-0.08,-1.39,1008.85
18.327,0.61,1.55,-0.11,2.95,2.35,1.44,0.51,-0.08,-1.39,1008.85
18.327,0.61,1.55,-0.11,2.95,2.35,1.44,0.96,0.24,-1.68,1008.85
18.327,0.61,1.55,-0.11,6.31,5.78,1.22,0.96,0.24,-1.68,1008.85
18.383,0.89,1.44,-0.26,6.31,5.78,1.22,0.96,0.24,-1.68,1008.85
18.384,0.83,1.30,-0.15,6.31,5.78,1.22,0.96,0.24,-1.68,1008.85
18.384,0.34,1.15,0.13,6.31,5.78,1.22,0.96,0.24,-1.68,1008.85
18.384,0.34,1.15,0.13,6.31,5.78,1.22,0.77,0.87,-2.50,1008.85
18.385,0.34,1.15,0.13,11.42,4.48,1.48,0.77,0.87,-2.50,1008.85
18.404,0.34,1.15,0.13,11.42,4.48,1.48,0.77,0.87,-2.50,1008.85
18.445,-0.54,1.24,-0.11,11.42,4.48,1.48,0.77,0.87,-2.50,1008.85
18.445,-0.95,1.37,-0.18,11.42,4.48,1.48,0.77,0.87,-2.50,1008.85
18.446,-0.81,1.09,-0.15,11.42,4.48,1.48,0.77,0.87,-2.50,1008.85
18.446,-0.81,1.09,-0.15,11.42,4.48,1.48,1.22,2.09,-3.72,1008.85
18.447,-0.81,1.09,-0.15,-1.52,5.15,2.16,1.22,2.09,-3.72,1008.85
18.482,-0.81,1.09,-0.15,-1.52,5.15,2.16,1.22,2.09,-3.72,1008.88
18.501,-0.73,0.73,-0.19,-1.52,5.15,2.16,1.22,2.09,-3.72,1008.88
18.501,-0.68,0.61,-0.24,-1.52,5.15,2.16,1.22,2.09,-3.72,1008.88
18.502,-0.49,0.49,-0.23,-1.52,5.15,2.16,1.22,2.09,-3.72,1008.88
18.502,-0.49,0.49,-0.23,-1.52,5.15,2.16,0.33,-0.03,-0.97,1008.88
18.503,-0.49,0.49,-0.23,0.17,-0.54,1.49,0.33,-0.03,-0.97,1008.88
18.522,-0.49,0.49,-0.23,0.17,-0.54,1.49,0.33,-0.03,-0.97,1008.90
18.563,-0.27,0.35,-0.08,0.17,-0.54,1.49,0.33,-0.03,-0.97,1008.90
18.563,-0.13,0.19,0.07,0.17,-0.54,1.49,0.33,-0.03,-0.97,1008.90
18.564,-0.20,0.20,0.04,0.17,-0.54,1.49,0.33,-0.03,-0.97,1008.90
18.564,-0.20,0.20,0.04,0.17,-0.54,1.49,-0.80,-0.60,1.92,1008.90
18.565,-0.20,0.20,0.04,3.68,-4.85,3.15,-0.80,-0.60,1.92,1008.90
18.604,-0.20,0.20,0.04,3.68,-4.85,3.15,-0.80,-0.60,1.92,1008.88
18.618,-0.29,0.32,-0.06,3.68,-4.85,3.15,-0.80,-0.60,1.92,1008.88
18.618,-0.31,0.48,-0.11,3.68,-4.85,3.15,-0.80,-0.60,1.92,1008.88
18.619,-0.25,0.61,-0.21,3.68,-4.85,3.15,-0.80,-0.60,1.92,1008.88
18.619,-0.25,0.61,-0.21,3.68,-4.85,3.15,-0.88,-0.49,3.76,1008.88
18.619,-0.25,0.61,-0.21,1.19,-3.79,1.28,-0.88,-0.49,3.76,1008.88
18.675,-0.28,0.70,-0.02,1.19,-3.79,1.28,-0.88,-0.49,3.76,1008.88
18.676,-0.23,0.80,0.09,1.19,-3.79,1.28,-0.88,-0.49,3.76,1008.88
18.676,-0.14,0.96,-0.12,1.19,-3.79,1.28,-0.88,-0.49,3.76,1008.88
18.677,-0.14,0.96,-0.12,1.19,-3.79,1.28,-1.39,-0.23,5.42,1008.88
18.677,-0.14,0.96,-0.12,-0.93,-1.32,1.53,-1.39,-0.23,5.42,1008.88
18.684,-0.14,0.96,-0.12,-0.93,-1.32,1.53,-1.39,-0.23,5.42,1008.88
18.724,-0.14,0.96,-0.12,-0.93,-1.32,1.53,-1.39,-0.23,5.42,1008.85
18.735,-0.16,1.32,-0.25,-0.93,-1.32,1.53,-1.39,-0.23,5.42,1008.85
18.735,-0.27,1.72,-0.24,-0.93,-1.32,1.53,-1.39,-0.23,5.42,1008.85
