
time,gFx,gFy,gFz,ax,ay,az,wx,wy,wz,
0.031520,0.0820,1.0013,0.0584,0.0000,0.0000,0.0000,0.0000,0.0000,0.0000,
0.060488,0.0798,1.0030,0.0584,0.0000,0.0000,0.0000,0.0000,0.0000,0.0000,
0.060995,0.0798,1.0030,0.0584,0.0000,0.0000,0.0000,-0.0238,-0.0372,-0.0004,
0.061450,0.0798,1.0030,0.0584,0.0000,0.0000,-0.0000,-0.0238,-0.0372,-0.0004,
0.119150,0.0798,1.0030,0.0584,-0.0456,0.0031,0.0057,-0.0238,-0.0372,-0.0004,
0.120068,0.0670,1.0002,0.0699,-0.0456,0.0031,0.0057,-0.0238,-0.0372,-0.0004,
0.120746,0.0670,1.0002,0.0699,-0.0456,0.0031,0.0057,-0.0025,-0.0014,-0.0038,
0.177781,0.0670,1.0002,0.0699,-0.0406,-0.0145,0.0643,-0.0025,-0.0014,-0.0038,
0.178536,0.0798,1.0012,0.0687,-0.0406,-0.0145,0.0643,-0.0025,-0.0014,-0.0038,
0.179031,0.0798,1.0012,0.0687,-0.0406,-0.0145,0.0643,0.0038,-0.0004,-0.0024,
0.236020,0.0708,0.9990,0.0675,-0.0406,-0.0145,0.0643,0.0038,-0.0004,-0.0024,
0.236816,0.0708,0.9990,0.0675,0.0043,0.0027,0.0615,0.0038,-0.0004,-0.0024,
0.237204,0.0708,0.9990,0.0675,0.0043,0.0027,0.0615,0.0167,0.0155,-0.0089,
0.293820,0.0708,0.9990,0.0675,-0.0408,-0.0187,0.0237,0.0167,0.0155,-0.0089,
0.294566,0.0688,1.0042,0.0650,-0.0408,-0.0187,0.0237,0.0167,0.0155,-0.0089,
0.294870,0.0688,1.0042,0.0650,-0.0408,-0.0187,0.0237,0.0214,0.0043,0.0049,
0.354383,0.0719,1.0016,0.0660,-0.0408,-0.0187,0.0237,0.0214,0.0043,0.0049,
0.355345,0.0719,1.0016,0.0660,-0.0408,-0.0187,0.0237,0.0173,-0.0030,0.0145,
0.355774,0.0719,1.0016,0.0660,-0.0756,0.0655,-0.0065,0.0173,-0.0030,0.0145,
0.410792,0.0719,1.0016,0.0660,-0.0300,-0.0561,0.0754,0.0173,-0.0030,0.0145,
0.411690,0.0707,0.9928,0.0849,-0.0300,-0.0561,0.0754,0.0173,-0.0030,0.0145,
0.412270,0.0707,0.9928,0.0849,-0.0300,-0.0561,0.0754,0.0069,0.0300,0.0202,
0.470430,0.0778,1.0042,0.0762,-0.0300,-0.0561,0.0754,0.0069,0.0300,0.0202,
0.471538,0.0778,1.0042,0.0762,-0.0387,-0.0225,0.2249,0.0069,0.0300,0.0202,
0.472318,0.0778,1.0042,0.0762,-0.0387,-0.0225,0.2249,0.0140,0.0255,0.0153,
0.528420,0.0811,1.0023,0.0389,-0.0387,-0.0225,0.2249,0.0140,0.0255,0.0153,
0.531003,0.0811,1.0023,0.0389,-0.0387,-0.0225,0.2249,0.0191,0.0017,-0.0240,
0.532528,0.0811,1.0023,0.0389,0.0970,-0.0201,-0.0429,0.0191,0.0017,-0.0240,
0.587034,0.0702,1.0086,0.0405,0.0970,-0.0201,-0.0429,0.0191,0.0017,-0.0240,
0.590085,0.0702,1.0086,0.0405,0.0970,-0.0201,-0.0429,-0.0137,0.0094,-0.0299,
0.593114,0.0702,1.0086,0.0405,-0.0176,0.0724,-0.2635,-0.0137,0.0094,-0.0299,
0.645771,0.0869,1.0018,0.0653,-0.0176,0.0724,-0.2635,-0.0137,0.0094,-0.0299,
0.648259,0.0869,1.0018,0.0653,-0.0176,0.0724,-0.2635,-0.0379,-0.0157,-0.0450,
0.649946,0.0869,1.0018,0.0653,0.0279,0.0124,-0.1485,-0.0379,-0.0157,-0.0450,
0.707013,0.0869,1.0018,0.0653,0.2164,-0.0242,0.0663,-0.0379,-0.0157,-0.0450,
0.710752,0.0847,0.9875,0.0844,0.2164,-0.0242,0.0663,-0.0379,-0.0157,-0.0450,
0.714010,0.0847,0.9875,0.0844,0.2164,-0.0242,0.0663,-0.0181,-0.0161,-0.0914,
0.762564,0.0847,0.9875,0.0844,0.2123,-0.1496,0.1672,-0.0181,-0.0161,-0.0914,
0.767922,0.0738,0.9944,0.0684,0.2123,-0.1496,0.1672,-0.0181,-0.0161,-0.0914,
0.771624,0.0738,0.9944,0.0684,0.2123,-0.1496,0.1672,0.0189,-0.0087,-0.1315,
0.819434,0.0349,1.0128,0.0579,0.2123,-0.1496,0.1672,0.0189,-0.0087,-0.1315,
0.821303,0.0349,1.0128,0.0579,0.2123,-0.1496,0.1672,0.0379,0.0106,-0.1307,
0.822568,0.0349,1.0128,0.0579,0.0573,-0.0058,0.0166,0.0379,0.0106,-0.1307,
0.878096,0.0646,0.9960,0.0433,0.0573,-0.0058,0.0166,0.0379,0.0106,-0.1307,
0.880823,0.0646,0.9960,0.0433,0.0573,-0.0058,0.0166,0.0081,0.0214,-0.0896,
0.882897,0.0646,0.9960,0.0433,-0.1272,0.0834,-0.0627,0.0081,0.0214,-0.0896,
0.936992,0.0541,1.0156,0.0407,-0.1272,0.0834,-0.0627,0.0081,0.0214,-0.0896,
0.939851,0.0541,1.0156,0.0407,-0.1272,0.0834,-0.0627,-0.0613,0.0147,-0.1515,
0.944165,0.0541,1.0156,0.0407,0.2453,-0.0138,-0.2671,-0.0613,0.0147,-0.1515,
0.995534,0.0558,0.9882,0.0802,0.2453,-0.0138,-0.2671,-0.0613,0.0147,-0.1515,
0.997467,0.0558,0.9882,0.0802,0.2453,-0.0138,-0.2671,-0.0613,0.0458,-0.1871,
0.998413,0.0558,0.9882,0.0802,0.1848,0.0592,-0.1727,-0.0613,0.0458,-0.1871,
1.051726,0.0138,1.0102,0.0932,0.1848,0.0592,-0.1727,-0.0613,0.0458,-0.1871,
1.053806,0.0138,1.0102,0.0932,0.1848,0.0592,-0.1727,-0.0320,0.0629,-0.2643,
1.055411,0.0138,1.0102,0.0932,0.4367,-0.1798,0.2135,-0.0320,0.0629,-0.2643,
1.112810,-0.0426,0.9876,0.1024,0.4367,-0.1798,0.2135,-0.0320,0.0629,-0.2643,
1.115829,-0.0426,0.9876,0.1024,0.4367,-0.1798,0.2135,0.0045,-0.0993,-0.1983,
1.117780,-0.0426,0.9876,0.1024,-0.2849,0.1274,0.2370,0.0045,-0.0993,-0.1983,
1.169781,-0.0806,1.0274,0.0942,-0.2849,0.1274,0.2370,0.0045,-0.0993,-0.1983,
1.171917,-0.0806,1.0274,0.0942,-0.2849,0.1274,0.2370,0.0256,-0.0497,-0.0195,
1.173719,-0.0806,1.0274,0.0942,-0.4854,-0.0801,0.2718,0.0256,-0.0497,-0.0195,
1.228873,-0.0816,0.9905,0.1070,-0.4854,-0.0801,0.2718,0.0256,-0.0497,-0.0195,
1.231975,-0.0816,0.9905,0.1070,-0.4854,-0.0801,0.2718,0.1067,-0.1450,0.2299,
1.237044,-0.0816,0.9905,0.1070,-0.9169,0.1982,0.3475,0.1067,-0.1450,0.2299,
1.287324,0.0160,1.0165,0.0145,-0.9169,0.1982,0.3475,0.1067,-0.1450,0.2299,
1.290119,0.0160,1.0165,0.0145,-0.9169,0.1982,0.3475,0.1016,-0.5149,0.4973,
1.293373,0.0160,1.0165,0.0145,-1.0837,-0.2920,0.2892,0.1016,-0.5149,0.4973,
1.344845,0.0998,1.0281,0.0347,-1.0837,-0.2920,0.2892,0.1016,-0.5149,0.4973,
1.347063,0.0998,1.0281,0.0347,-1.0837,-0.2920,0.2892,0.1114,-0.2521,0.4022,
1.348838,0.0998,1.0281,0.0347,0.1282,0.4757,-0.5462,0.1114,-0.2521,0.4022,
1.403709,0.0786,1.0164,0.0656,0.1282,0.4757,-0.5462,0.1114,-0.2521,0.4022,
1.406001,0.0786,1.0164,0.0656,0.1282,0.4757,-0.5462,0.2048,-0.1093,0.3639,
1.408706,0.0786,1.0164,0.0656,-0.1380,0.0366,0.2714,0.2048,-0.1093,0.3639,
1.462902,0.1179,1.0754,0.0569,-0.1380,0.0366,0.2714,0.2048,-0.1093,0.3639,
1.465793,0.1179,1.0754,0.0569,-0.1380,0.0366,0.2714,0.2378,-0.1818,0.2181,
1.468384,0.1179,1.0754,0.0569,0.0483,0.3616,0.1515,0.2378,-0.1818,0.2181,
1.520659,-0.0059,1.1468,0.0099,0.0483,0.3616,0.1515,0.2378,-0.1818,0.2181,
1.525122,-0.0059,1.1468,0.0099,0.0483,0.3616,0.1515,0.2873,-0.0146,0.0530,
1.529190,-0.0059,1.1468,0.0099,0.0898,0.6914,0.4676,0.2873,-0.0146,0.0530,
1.579053,-0.1891,1.1629,-0.0187,0.0898,0.6914,0.4676,0.2873,-0.0146,0.0530,
1.582248,-0.1891,1.1629,-0.0187,0.0898,0.6914,0.4676,0.1521,-0.2284,0.2837,
1.585125,-0.1891,1.1629,-0.0187,-1.7578,1.7874,-0.0156,0.1521,-0.2284,0.2837,
1.635848,-0.1237,1.0340,-0.0115,-1.7578,1.7874,-0.0156,0.1521,-0.2284,0.2837,
1.637798,-0.1237,1.0340,-0.0115,-1.7578,1.7874,-0.0156,-0.0723,-0.3895,0.1385,
1.640516,-0.1237,1.0340,-0.0115,-2.8690,0.8055,-0.3622,-0.0723,-0.3895,0.1385,
1.694765,-0.3394,0.8449,-0.0765,-2.8690,0.8055,-0.3622,-0.0723,-0.3895,0.1385,
1.697271,-0.3394,0.8449,-0.0765,-2.8690,0.8055,-0.3622,-0.0529,-0.5449,-0.7100,
1.701483,-0.3394,0.8449,-0.0765,-2.8149,-0.5374,-0.0014,-0.0529,-0.5449,-0.7100,
1.754461,-0.3394,0.8449,-0.0765,-2.9054,-1.4952,-1.4651,-0.0529,-0.5449,-0.7100,
1.759219,-0.1966,0.8861,-0.3028,-2.9054,-1.4952,-1.4651,-0.0529,-0.5449,-0.7100,
1.763602,-0.1966,0.8861,-0.3028,-2.9054,-1.4952,-1.4651,0.1285,-1.5009,-0.9317,
1.811619,-0.1859,0.7949,-0.1739,-2.9054,-1.4952,-1.4651,0.1285,-1.5009,-0.9317,
1.815062,-0.1859,0.7949,-0.1739,-2.9054,-1.4952,-1.4651,0.0672,-0.9861,-0.9751,
1.816645,-0.1859,0.7949,-0.1739,-0.3220,-1.0881,-2.7316,0.0672,-0.9861,-0.9751,
1.870038,-0.3354,0.8834,-0.0810,-0.3220,-1.0881,-2.7316,0.0672,-0.9861,-0.9751,
1.873735,-0.3354,0.8834,-0.0810,-0.3220,-1.0881,-2.7316,-0.1020,-2.1419,-1.0694,
1.876878,-0.3354,0.8834,-0.0810,-1.6825,-2.3376,-0.8515,-0.1020,-2.1419,-1.0694,
1.928610,-0.0173,0.9760,-0.0855,-1.6825,-2.3376,-0.8515,-0.1020,-2.1419,-1.0694,
1.932760,-0.0173,0.9760,-0.0855,-1.6825,-2.3376,-0.8515,-0.3802,-2.7990,-0.9161,
1.936845,-0.0173,0.9760,-0.0855,-0.4773,-0.0740,-1.3089,-0.3802,-2.7990,-0.9161,
1.986488,0.2043,1.0441,0.1169,-0.4773,-0.0740,-1.3089,-0.3802,-2.7990,-0.9161,
1.989343,0.2043,1.0441,0.1169,-0.4773,-0.0740,-1.3089,-0.5669,-2.3728,-0.5923,
1.991689,0.2043,1.0441,0.1169,3.0916,-0.0586,-1.3631,-0.5669,-2.3728,-0.5923,
2.046150,0.5188,0.8534,-0.1606,3.0916,-0.0586,-1.3631,-0.5669,-2.3728,-0.5923,
2.049701,0.5188,0.8534,-0.1606,3.0916,-0.0586,-1.3631,-0.2360,-2.1388,0.3753,
2.052927,0.5188,0.8534,-0.1606,3.9553,0.5901,-0.1363,-0.2360,-2.1388,0.3753,
2.103503,-0.1881,1.4778,0.1646,3.9553,0.5901,-0.1363,-0.2360,-2.1388,0.3753,
2.107441,-0.1881,1.4778,0.1646,3.9553,0.5901,-0.1363,-0.0132,1.7325,0.7005,
2.110646,-0.1881,1.4778,0.1646,8.1180,-1.7196,-4.5642,-0.0132,1.7325,0.7005,
2.160911,-0.1435,0.9723,-0.0146,8.1180,-1.7196,-4.5642,-0.0132,1.7325,0.7005,
2.166719,-0.1435,0.9723,-0.0146,8.1180,-1.7196,-4.5642,0.3663,0.2167,2.0073,
2.168962,-0.1435,0.9723,-0.0146,-6.5898,7.2165,1.7611,0.3663,0.2167,2.0073,
2.219672,0.4362,1.0633,-0.0652,-6.5898,7.2165,1.7611,0.3663,0.2167,2.0073,
2.223664,0.4362,1.0633,-0.0652,-6.5898,7.2165,1.7611,0.3453,-0.3370,1.7115,
2.226119,0.4362,1.0633,-0.0652,1.3688,-1.6895,0.1207,0.3453,-0.3370,1.7115,
2.278424,0.1858,1.0196,-0.0618,1.3688,-1.6895,0.1207,0.3453,-0.3370,1.7115,
2.282544,0.1858,1.0196,-0.0618,1.3688,-1.6895,0.1207,0.1513,-0.0358,1.2159,
2.284512,0.1858,1.0196,-0.0618,1.0372,0.1606,-1.3519,0.1513,-0.0358,1.2159,
2.336546,0.3117,0.9811,0.0020,1.0372,0.1606,-1.3519,0.1513,-0.0358,1.2159,
2.339791,0.3117,0.9811,0.0020,1.0372,0.1606,-1.3519,-0.0417,-0.4241,0.8683,
2.343413,0.3117,0.9811,0.0020,0.5000,0.2428,-0.9331,-0.0417,-0.4241,0.8683,
2.394859,0.2522,0.9820,0.0699,0.5000,0.2428,-0.9331,-0.0417,-0.4241,0.8683,
2.397345,0.2522,0.9820,0.0699,0.5000,0.2428,-0.9331,-0.1073,-0.5233,0.6422,
2.399483,0.2522,0.9820,0.0699,0.3726,-0.0094,-0.1889,-0.1073,-0.5233,0.6422,
2.452629,0.2938,0.9493,0.0791,0.3726,-0.0094,-0.1889,-0.1073,-0.5233,0.6422,
2.455977,0.2938,0.9493,0.0791,0.3726,-0.0094,-0.1889,-0.0920,-0.6951,0.5734,
2.460725,0.2938,0.9493,0.0791,-0.3056,0.2565,0.3247,-0.0920,-0.6951,0.5734,
2.510785,0.2722,0.9225,0.0676,-0.3056,0.2565,0.3247,-0.0920,-0.6951,0.5734,
2.513248,0.2722,0.9225,0.0676,-0.3056,0.2565,0.3247,-0.0656,-0.7216,0.6101,
2.515256,0.2722,0.9225,0.0676,-0.3485,-0.2994,0.5181,-0.0656,-0.7216,0.6101,
2.570168,0.3076,0.9373,0.0219,-0.3485,-0.2994,0.5181,-0.0656,-0.7216,0.6101,
2.573736,0.3076,0.9373,0.0219,-0.3485,-0.2994,0.5181,-0.0356,-0.7149,0.7367,
2.577821,0.3076,0.9373,0.0219,-0.9127,0.0209,0.1965,-0.0356,-0.7149,0.7367,
2.630508,0.3014,1.0066,-0.0111,-0.9127,0.0209,0.1965,-0.0356,-0.7149,0.7367,
2.635539,0.3014,1.0066,-0.0111,-0.9127,0.0209,0.1965,-0.0509,-0.8281,0.8952,
2.643657,0.3014,1.0066,-0.0111,-0.9034,0.2847,0.1662,-0.0509,-0.8281,0.8952,
2.685738,0.3338,1.0637,-0.0138,-0.9034,0.2847,0.1662,-0.0509,-0.8281,0.8952,
2.687752,0.3338,1.0637,-0.0138,-0.9034,0.2847,0.1662,0.0148,-1.0081,1.1187,
2.688978,0.3338,1.0637,-0.0138,-1.5363,1.2905,-0.0706,0.0148,-1.0081,1.1187,
2.744508,-0.0693,1.4375,0.0824,-1.5363,1.2905,-0.0706,0.0148,-1.0081,1.1187,
2.746893,-0.0693,1.4375,0.0824,-1.5363,1.2905,-0.0706,0.1800,-1.1724,1.6168,
2.748449,-0.0693,1.4375,0.0824,-2.5435,2.6342,0.9795,0.1800,-1.1724,1.6168,
2.803407,-0.5533,1.5474,-0.2808,-2.5435,2.6342,0.9795,0.1800,-1.1724,1.6168,
2.806765,-0.5533,1.5474,-0.2808,-2.5435,2.6342,0.9795,0.2083,-2.6536,2.8037,
2.810297,-0.5533,1.5474,-0.2808,-9.2396,8.4480,1.5723,0.2083,-2.6536,2.8037,
2.863567,0.9588,1.1559,-0.5492,-9.2396,8.4480,1.5723,0.2083,-2.6536,2.8037,
2.868808,0.9588,1.1559,-0.5492,-9.2396,8.4480,1.5723,-0.0057,-3.4736,3.0475,
2.871928,0.9588,1.1559,-0.5492,-8.7000,5.9364,-1.3180,-0.0057,-3.4736,3.0475,
2.918815,0.2365,0.5390,-0.3203,-8.7000,5.9364,-1.3180,-0.0057,-3.4736,3.0475,
2.920822,0.2365,0.5390,-0.3203,-8.7000,5.9364,-1.3180,-1.4783,-2.5137,1.7420,
2.923116,0.2365,0.5390,-0.3203,3.0759,5.0243,-0.7352,-1.4783,-2.5137,1.7420,
2.979721,-0.1970,0.2353,-0.6439,3.0759,5.0243,-0.7352,-1.4783,-2.5137,1.7420,
2.985989,-0.1970,0.2353,-0.6439,3.0759,5.0243,-0.7352,-2.6854,-2.9210,-0.0991,
2.989310,-0.1970,0.2353,-0.6439,-8.2742,-4.0334,0.3457,-2.6854,-2.9210,-0.0991,
3.039889,0.1596,0.6137,-0.7784,-8.2742,-4.0334,0.3457,-2.6854,-2.9210,-0.0991,
3.048169,0.1596,0.6137,-0.7784,-8.2742,-4.0334,0.3457,-4.0389,-1.3268,-2.3370,
3.053331,0.1596,0.6137,-0.7784,-3.4799,-3.8112,-5.9051,-4.0389,-1.3268,-2.3370,
3.095743,0.1596,0.6137,-0.7784,-3.6049,-3.2742,-4.9609,-4.0389,-1.3268,-2.3370,
3.099480,-0.2634,0.8254,-0.9018,-3.6049,-3.2742,-4.9609,-4.0389,-1.3268,-2.3370,
3.101921,-0.2634,0.8254,-0.9018,-3.6049,-3.2742,-4.9609,-3.1806,-2.2614,-3.8307,
3.153252,0.5675,1.1588,-0.7837,-3.6049,-3.2742,-4.9609,-3.1806,-2.2614,-3.8307,
3.156786,0.5675,1.1588,-0.7837,-3.6049,-3.2742,-4.9609,-2.4050,-2.1050,-4.4528,
3.159804,0.5675,1.1588,-0.7837,0.3786,0.1920,-9.3469,-2.4050,-2.1050,-4.4528,
3.211884,0.4491,1.1158,-0.5101,0.3786,0.1920,-9.3469,-2.4050,-2.1050,-4.4528,
3.215392,0.4491,1.1158,-0.5101,0.3786,0.1920,-9.3469,-1.4366,-0.4420,-3.8224,
3.218060,0.4491,1.1158,-0.5101,7.1904,1.8112,-7.4689,-1.4366,-0.4420,-3.8224,
3.269859,0.7170,0.9841,-0.1352,7.1904,1.8112,-7.4689,-1.4366,-0.4420,-3.8224,
3.273797,0.7170,0.9841,-0.1352,7.1904,1.8112,-7.4689,-0.5441,-0.2060,-1.3335,
3.277506,0.7170,0.9841,-0.1352,8.1774,0.9682,-4.1158,-0.5441,-0.2060,-1.3335,
3.327912,0.2797,1.1852,-0.2525,8.1774,0.9682,-4.1158,-0.5441,-0.2060,-1.3335,
3.330165,0.2797,1.1852,-0.2525,8.1774,0.9682,-4.1158,-0.1957,-0.1973,1.0585,
3.331704,0.2797,1.1852,-0.2525,8.0087,0.1274,-1.8232,-0.1957,-0.1973,1.0585,
3.387731,-0.3212,1.4300,-0.0515,8.0087,0.1274,-1.8232,-0.1957,-0.1973,1.0585,
3.391722,-0.3212,1.4300,-0.0515,8.0087,0.1274,-1.8232,0.2401,1.2370,1.5353,
3.395026,-0.3212,1.4300,-0.0515,-2.4462,5.4574,-0.3441,0.2401,1.2370,1.5353,
3.443995,0.0776,0.9416,0.2565,-2.4462,5.4574,-0.3441,0.2401,1.2370,1.5353,
3.446007,0.0776,0.9416,0.2565,-2.4462,5.4574,-0.3441,-0.0456,0.0931,1.3152,
3.448514,0.0776,0.9416,0.2565,1.9420,-0.1710,-2.4167,-0.0456,0.0931,1.3152,
3.503524,0.1082,0.9904,-0.1041,1.9420,-0.1710,-2.4167,-0.0456,0.0931,1.3152,
3.506884,0.1082,0.9904,-0.1041,1.9420,-0.1710,-2.4167,0.1211,-0.3278,0.9173,
3.509280,0.1082,0.9904,-0.1041,0.5030,0.7135,1.4232,0.1211,-0.3278,0.9173,
3.561414,0.0851,0.9953,0.0973,0.5030,0.7135,1.4232,0.1211,-0.3278,0.9173,
3.564537,0.0851,0.9953,0.0973,0.5030,0.7135,1.4232,0.0653,0.2981,0.6168,
3.566976,0.0851,0.9953,0.0973,0.2352,0.2491,-0.8402,0.0653,0.2981,0.6168,
3.620012,0.0237,0.9922,0.0233,0.2352,0.2491,-0.8402,0.0653,0.2981,0.6168,
3.624741,0.0237,0.9922,0.0233,0.2352,0.2491,-0.8402,0.1083,0.2615,0.5178,
3.627016,0.0237,0.9922,0.0233,-0.1833,-0.3821,0.8832,0.1083,0.2615,0.5178,
3.677921,0.0576,1.0234,0.0496,-0.1833,-0.3821,0.8832,0.1083,0.2615,0.5178,
3.681346,0.0576,1.0234,0.0496,-0.1833,-0.3821,0.8832,0.1435,0.2281,0.6198,
3.684010,0.0576,1.0234,0.0496,-0.9825,0.3507,-0.2046,0.1435,0.2281,0.6198,
3.736306,-0.0069,1.0101,0.0066,-0.9825,0.3507,-0.2046,0.1435,0.2281,0.6198,
3.739535,-0.0069,1.0101,0.0066,-0.9825,0.3507,-0.2046,0.2022,-0.0148,0.7459,
3.741198,-0.0069,1.0101,0.0066,-1.1056,0.0872,0.5458,0.2022,-0.0148,0.7459,
3.795484,-0.0069,1.0101,0.0066,-2.6973,0.8460,0.2347,0.2022,-0.0148,0.7459,
3.799923,0.0364,0.9936,0.0085,-2.6973,0.8460,0.2347,0.2022,-0.0148,0.7459,
3.802375,0.0364,0.9936,0.0085,-2.6973,0.8460,0.2347,0.3231,-0.5954,1.2065,
3.853933,0.2434,1.0087,-0.0662,-2.6973,0.8460,0.2347,0.3231,-0.5954,1.2065,
3.858563,0.2434,1.0087,-0.0662,-2.6973,0.8460,0.2347,0.3663,-0.5320,1.2710,
3.861542,0.2434,1.0087,-0.0662,-1.1188,0.2432,0.2053,0.3663,-0.5320,1.2710,
3.911552,0.1626,1.0865,0.0761,-1.1188,0.2432,0.2053,0.3663,-0.5320,1.2710,
3.915648,0.1626,1.0865,0.0761,-1.1188,0.2432,0.2053,0.4926,-0.9218,1.4696,
3.918088,0.1626,1.0865,0.0761,-2.0885,1.0139,0.5184,0.4926,-0.9218,1.4696,
3.969946,-0.2189,1.5938,0.0324,-2.0885,1.0139,0.5184,0.4926,-0.9218,1.4696,
3.974005,-0.2189,1.5938,0.0324,-2.0885,1.0139,0.5184,0.9012,-1.3054,2.1792,
3.976426,-0.2189,1.5938,0.0324,-3.1842,3.3912,2.9891,0.9012,-1.3054,2.1792,
4.029127,-0.2189,1.5938,0.0324,-9.5413,8.8887,0.9141,0.9012,-1.3054,2.1792,
4.034073,-0.4253,1.4456,-0.4733,-9.5413,8.8887,0.9141,0.9012,-1.3054,2.1792,
4.036176,-0.4253,1.4456,-0.4733,-9.5413,8.8887,0.9141,1.0906,-2.1810,3.2505,
4.089588,-0.4253,1.4456,-0.4733,-7.3272,6.3739,-0.3720,1.0906,-2.1810,3.2505,
4.094264,0.8263,1.1524,-0.3513,-7.3272,6.3739,-0.3720,1.0906,-2.1810,3.2505,
4.096528,0.8263,1.1524,-0.3513,-7.3272,6.3739,-0.3720,0.7744,-1.8533,3.1908,
4.144994,0.8263,1.1524,-0.3513,1.8232,3.6756,1.0900,0.7744,-1.8533,3.1908,
4.148425,0.1713,0.5048,-0.0757,1.8232,3.6756,1.0900,0.7744,-1.8533,3.1908,
4.150536,0.1713,0.5048,-0.0757,1.8232,3.6756,1.0900,-0.7322,-0.6579,1.0654,
4.204424,-0.1276,0.2888,-0.2718,1.8232,3.6756,1.0900,-0.7322,-0.6579,1.0654,
4.207116,-0.1276,0.2888,-0.2718,1.8232,3.6756,1.0900,-1.5563,-1.0670,-1.0993,
4.209108,-0.1276,0.2888,-0.2718,-7.8180,-3.5739,2.6632,-1.5563,-1.0670,-1.0993,
4.261253,0.3337,0.5621,-0.3096,-7.8180,-3.5739,2.6632,-1.5563,-1.0670,-1.0993,
4.265621,0.3337,0.5621,-0.3096,-7.8180,-3.5739,2.6632,-2.3120,-0.5744,-3.1415,
4.269255,0.3337,0.5621,-0.3096,-2.8274,-3.9106,-1.0076,-2.3120,-0.5744,-3.1415,
4.320116,0.3337,0.5621,-0.3096,0.3896,-3.4362,-0.3375,-2.3120,-0.5744,-3.1415,
4.324594,-0.0094,0.8897,-0.3072,0.3896,-3.4362,-0.3375,-2.3120,-0.5744,-3.1415,
4.327371,-0.0094,0.8897,-0.3072,0.3896,-3.4362,-0.3375,-2.4419,-1.3229,-4.6357,
4.376406,0.5687,1.5033,-0.5192,0.3896,-3.4362,-0.3375,-2.4419,-1.3229,-4.6357,
4.378024,0.5687,1.5033,-0.5192,0.3896,-3.4362,-0.3375,-3.0134,-1.3783,-4.7240,
4.379094,0.5687,1.5033,-0.5192,2.2676,1.4271,-4.4854,-3.0134,-1.3783,-4.7240,
4.435824,0.5757,1.2465,-0.3601,2.2676,1.4271,-4.4854,-3.0134,-1.3783,-4.7240,
4.439015,0.5757,1.2465,-0.3601,2.2676,1.4271,-4.4854,-2.1818,0.1193,-3.3991,
4.441654,0.5757,1.2465,-0.3601,8.0088,5.6581,-5.3091,-2.1818,0.1193,-3.3991,
4.493527,0.6855,0.9430,-0.3834,8.0088,5.6581,-5.3091,-2.1818,0.1193,-3.3991,
4.495536,0.6855,0.9430,-0.3834,8.0088,5.6581,-5.3091,-0.4256,0.2472,-0.1327,
4.496592,0.6855,0.9430,-0.3834,8.3530,1.8501,-4.3308,-0.4256,0.2472,-0.1327,
4.552475,-0.2162,1.4810,-0.3261,8.3530,1.8501,-4.3308,-0.4256,0.2472,-0.1327,
4.555714,-0.2162,1.4810,-0.3261,8.3530,1.8501,-4.3308,0.4205,2.8426,1.5669,
4.557563,-0.2162,1.4810,-0.3261,8.8798,0.0294,-6.7345,0.4205,2.8426,1.5669,
4.611112,-0.0802,0.9974,-0.2617,8.8798,0.0294,-6.7345,0.4205,2.8426,1.5669,
4.619403,-0.0802,0.9974,-0.2617,8.8798,0.0294,-6.7345,0.8955,1.9672,1.7595,
4.622336,-0.0802,0.9974,-0.2617,-4.7464,5.4455,-0.3808,0.8955,1.9672,1.7595,
4.669048,0.3411,1.0458,-0.1485,-4.7464,5.4455,-0.3808,0.8955,1.9672,1.7595,
4.671921,0.3411,1.0458,-0.1485,-4.7464,5.4455,-0.3808,0.0210,-0.6514,1.1875,
4.674926,0.3411,1.0458,-0.1485,0.4081,-1.1676,-1.4457,0.0210,-0.6514,1.1875,
4.727679,-0.0392,1.0086,-0.0251,0.4081,-1.1676,-1.4457,0.0210,-0.6514,1.1875,
4.730669,-0.0392,1.0086,-0.0251,0.4081,-1.1676,-1.4457,-0.1452,0.7791,0.5779,
4.734342,-0.0392,1.0086,-0.0251,3.3059,0.7890,-1.4158,-0.1452,0.7791,0.5779,
4.785439,0.0670,0.9871,0.0542,3.3059,0.7890,-1.4158,-0.1452,0.7791,0.5779,
4.788049,0.0670,0.9871,0.0542,3.3059,0.7890,-1.4158,-0.1102,-0.2578,0.5470,
4.789913,0.0670,0.9871,0.0542,-1.9570,0.4777,0.5522,-0.1102,-0.2578,0.5470,
4.844687,-0.0171,0.9910,0.0567,-1.9570,0.4777,0.5522,-0.1102,-0.2578,0.5470,
4.848653,-0.0171,0.9910,0.0567,-1.9570,0.4777,0.5522,0.0936,0.2077,0.5537,
4.851142,-0.0171,0.9910,0.0567,0.2712,-0.0987,0.6245,0.0936,0.2077,0.5537,
4.902808,0.0775,0.9642,0.0311,0.2712,-0.0987,0.6245,0.0936,0.2077,0.5537,
4.904993,0.0775,0.9642,0.0311,0.2712,-0.0987,0.6245,0.3138,-0.1659,0.7882,
4.906606,0.0775,0.9642,0.0311,-2.0324,0.2224,1.0571,0.3138,-0.1659,0.7882,
4.960981,0.1423,0.9689,-0.0566,-2.0324,0.2224,1.0571,0.3138,-0.1659,0.7882,
4.965030,0.1423,0.9689,-0.0566,-2.0324,0.2224,1.0571,0.3681,-0.0629,0.7155,
4.966861,0.1423,0.9689,-0.0566,-0.0331,-0.1984,0.4852,0.3681,-0.0629,0.7155,
5.018541,0.1358,0.9750,-0.0846,-0.0331,-0.1984,0.4852,0.3681,-0.0629,0.7155,
5.020750,0.1358,0.9750,-0.0846,-0.0331,-0.1984,0.4852,0.3160,-0.4496,0.8117,
5.021674,0.1358,0.9750,-0.0846,-1.2076,0.3221,0.0726,0.3160,-0.4496,0.8117,
5.076759,0.1001,1.0125,0.0164,-1.2076,0.3221,0.0726,0.3160,-0.4496,0.8117,
5.078352,0.1001,1.0125,0.0164,-1.2076,0.3221,0.0726,0.4207,-0.6220,1.0155,
5.079065,0.1001,1.0125,0.0164,-1.1086,0.2256,0.4767,0.4207,-0.6220,1.0155,
5.136516,-0.0073,1.3621,0.0202,-1.1086,0.2256,0.4767,0.4207,-0.6220,1.0155,
5.138567,-0.0073,1.3621,0.0202,-1.1086,0.2256,0.4767,0.6198,-1.3846,1.6366,
5.139479,-0.0073,1.3621,0.0202,-2.9883,1.5271,2.0277,0.6198,-1.3846,1.6366,
5.193244,-0.0748,1.5502,-0.1616,-2.9883,1.5271,2.0277,0.6198,-1.3846,1.6366,
5.194650,-0.0748,1.5502,-0.1616,-2.9883,1.5271,2.0277,0.1830,-3.2180,2.5867,
5.195388,-0.0748,1.5502,-0.1616,-4.6610,7.3057,3.0031,0.1830,-3.2180,2.5867,
5.251262,0.5578,0.9019,-0.2368,-4.6610,7.3057,3.0031,0.1830,-3.2180,2.5867,
5.252980,0.5578,0.9019,-0.2368,-4.6610,7.3057,3.0031,-1.1240,-4.3836,2.9110,
5.254299,0.5578,0.9019,-0.2368,-3.6463,4.5257,0.1670,-1.1240,-4.3836,2.9110,
5.309689,0.1524,0.5209,-0.4854,-3.6463,4.5257,0.1670,-1.1240,-4.3836,2.9110,
5.311356,0.1524,0.5209,-0.4854,-3.6463,4.5257,0.1670,-2.4423,-4.0260,1.9964,
5.312632,0.1524,0.5209,-0.4854,0.3747,-0.0343,0.2876,-2.4423,-4.0260,1.9964,
5.369356,0.0356,0.4473,-0.9120,0.3747,-0.0343,0.2876,-2.4423,-4.0260,1.9964,
5.373137,0.0356,0.4473,-0.9120,0.3747,-0.0343,0.2876,-2.6671,-4.1193,1.4840,
5.375873,0.0356,0.4473,-0.9120,-4.8355,-3.7559,-3.0001,-2.6671,-4.1193,1.4840,
5.427914,0.0416,0.5905,-0.6234,-4.8355,-3.7559,-3.0001,-2.6671,-4.1193,1.4840,
5.432746,0.0416,0.5905,-0.6234,-4.8355,-3.7559,-3.0001,-3.0542,-2.5709,0.3360,
5.435684,0.0416,0.5905,-0.6234,-3.5864,-3.0778,-6.2027,-3.0542,-2.5709,0.3360,
5.486786,-0.3419,0.7507,-0.7208,-3.5864,-3.0778,-6.2027,-3.0542,-2.5709,0.3360,
5.492882,-0.3419,0.7507,-0.7208,-3.5864,-3.0778,-6.2027,-2.5830,-3.8358,-0.8281,
5.495913,-0.3419,0.7507,-0.7208,-4.5511,-2.0552,-3.6194,-2.5830,-3.8358,-0.8281,
5.543663,0.0596,1.0592,-0.7369,-4.5511,-2.0552,-3.6194,-2.5830,-3.8358,-0.8281,
5.545889,0.0596,1.0592,-0.7369,-4.5511,-2.0552,-3.6194,-2.0943,-5.0132,-1.3349,
5.547473,0.0596,1.0592,-0.7369,-4.5818,-1.1384,-5.4107,-2.0943,-5.0132,-1.3349,
5.603093,0.0738,1.0717,-0.5723,-4.5818,-1.1384,-5.4107,-2.0943,-5.0132,-1.3349,
5.607434,0.0738,1.0717,-0.5723,-4.5818,-1.1384,-5.4107,-1.9656,-3.1307,-1.9128,
5.610602,0.0738,1.0717,-0.5723,0.5044,1.2307,-5.5175,-1.9656,-3.1307,-1.9128,
5.660259,-0.0096,1.0624,-0.3607,0.5044,1.2307,-5.5175,-1.9656,-3.1307,-1.9128,
5.662946,-0.0096,1.0624,-0.3607,0.5044,1.2307,-5.5175,-1.1381,-2.9411,-1.9260,
5.665337,-0.0096,1.0624,-0.3607,0.3877,1.0720,-4.0404,-1.1381,-2.9411,-1.9260,
5.719023,0.2628,1.0043,-0.2625,0.3877,1.0720,-4.0404,-1.1381,-2.9411,-1.9260,
5.722808,0.2628,1.0043,-0.2625,0.3877,1.0720,-4.0404,-0.3590,-3.3932,-1.1812,
5.725664,0.2628,1.0043,-0.2625,2.1836,0.8188,-2.4885,-0.3590,-3.3932,-1.1812,
5.777658,0.6238,0.9120,-0.1662,2.1836,0.8188,-2.4885,-0.3590,-3.3932,-1.1812,
5.782747,0.6238,0.9120,-0.1662,2.1836,0.8188,-2.4885,0.1961,-2.4243,0.0629,
5.785329,0.6238,0.9120,-0.1662,4.7790,-0.1951,-1.9108,0.1961,-2.4243,0.0629,
5.837600,0.3440,1.0762,0.3492,4.7790,-0.1951,-1.9108,0.1961,-2.4243,0.0629,
5.839768,0.3440,1.0762,0.3492,4.7790,-0.1951,-1.9108,-0.3022,0.1470,0.4500,
5.842009,0.3440,1.0762,0.3492,7.5025,-1.0155,-0.5721,-0.3022,0.1470,0.4500,
5.893754,-0.4546,1.2258,-0.2325,7.5025,-1.0155,-0.5721,-0.3022,0.1470,0.4500,
5.896441,-0.4546,1.2258,-0.2325,7.5025,-1.0155,-0.5721,0.0106,0.7618,0.6754,
5.897858,-0.4546,1.2258,-0.2325,-1.2317,3.3200,3.2777,0.0106,0.7618,0.6754,
5.951873,0.1223,1.0093,0.0284,-1.2317,3.3200,3.2777,0.0106,0.7618,0.6754,
5.956044,0.1223,1.0093,0.0284,-1.2317,3.3200,3.2777,-0.3077,0.0782,0.7111,
5.957885,0.1223,1.0093,0.0284,-1.4472,0.3649,-2.1368,-0.3077,0.0782,0.7111,
6.010391,-0.0271,0.9864,0.0876,-1.4472,0.3649,-2.1368,-0.3077,0.0782,0.7111,
6.013622,-0.0271,0.9864,0.0876,-1.4472,0.3649,-2.1368,-0.2993,-0.3199,0.5867,
6.016459,-0.0271,0.9864,0.0876,0.0789,0.3590,1.1794,-0.2993,-0.3199,0.5867,
6.069764,-0.0271,0.9864,0.0876,0.3419,0.4730,-0.0578,-0.2993,-0.3199,0.5867,
6.073635,0.0769,1.0418,0.0046,0.3419,0.4730,-0.0578,-0.2993,-0.3199,0.5867,
6.076518,0.0769,1.0418,0.0046,0.3419,0.4730,-0.0578,-0.3040,-0.3132,0.3484,
6.127692,-0.0100,1.0154,0.1485,0.3419,0.4730,-0.0578,-0.3040,-0.3132,0.3484,
6.131632,-0.0100,1.0154,0.1485,0.3419,0.4730,-0.0578,-0.1825,-0.0649,0.3114,
6.136250,-0.0100,1.0154,0.1485,-0.5348,0.1874,0.2898,-0.1825,-0.0649,0.3114,
6.186090,0.0440,1.0028,0.1033,-0.5348,0.1874,0.2898,-0.1825,-0.0649,0.3114,
6.189670,0.0440,1.0028,0.1033,-0.5348,0.1874,0.2898,-0.0430,-0.3726,0.3517,
6.193061,0.0440,1.0028,0.1033,-0.7327,0.3848,0.8903,-0.0430,-0.3726,0.3517,
6.244732,0.0256,0.9878,0.1343,-0.7327,0.3848,0.8903,-0.0430,-0.3726,0.3517,
6.250182,0.0256,0.9878,0.1343,-0.7327,0.3848,0.8903,0.0947,-0.3180,0.4307,
6.253577,0.0256,0.9878,0.1343,-0.6054,0.0966,1.0293,0.0947,-0.3180,0.4307,
6.301825,0.0582,1.0116,0.0701,-0.6054,0.0966,1.0293,0.0947,-0.3180,0.4307,
6.303055,0.0582,1.0116,0.0701,-0.6054,0.0966,1.0293,0.1765,-0.4860,0.5915,
6.303912,0.0582,1.0116,0.0701,-1.1769,0.2250,0.8503,0.1765,-0.4860,0.5915,
6.360991,0.0767,0.9943,0.0896,-1.1769,0.2250,0.8503,0.1765,-0.4860,0.5915,
6.361872,0.0767,0.9943,0.0896,-1.1769,0.2250,0.8503,0.2885,-0.4034,0.8009,
6.362312,0.0767,0.9943,0.0896,-1.3344,0.3265,0.7984,0.2885,-0.4034,0.8009,
6.420272,0.0311,1.0388,0.0671,-1.3344,0.3265,0.7984,0.2885,-0.4034,0.8009,
6.421471,0.0311,1.0388,0.0671,-1.3344,0.3265,0.7984,0.3710,-0.6072,1.0540,
6.421869,0.0311,1.0388,0.0671,-1.5539,0.5272,1.1447,0.3710,-0.6072,1.0540,
6.477855,0.0949,1.0912,-0.0128,-1.5539,0.5272,1.1447,0.3710,-0.6072,1.0540,
6.481228,0.0949,1.0912,-0.0128,-1.5539,0.5272,1.1447,0.4801,-0.9332,1.5160,
6.483799,0.0949,1.0912,-0.0128,-2.9042,1.2307,1.0494,0.4801,-0.9332,1.5160,
6.537755,0.1187,1.2436,-0.0893,-2.9042,1.2307,1.0494,0.4801,-0.9332,1.5160,
6.541801,0.1187,1.2436,-0.0893,-2.9042,1.2307,1.0494,0.5046,-1.3681,1.9658,
6.544254,0.1187,1.2436,-0.0893,-2.7933,2.0062,0.6838,0.5046,-1.3681,1.9658,
6.595126,-0.5545,1.6395,-0.2631,-2.7933,2.0062,0.6838,0.5046,-1.3681,1.9658,
6.598393,-0.5545,1.6395,-0.2631,-2.7933,2.0062,0.6838,0.7395,-1.7939,2.5856,
6.600296,-0.5545,1.6395,-0.2631,-4.8730,6.0797,1.1734,0.7395,-1.7939,2.5856,
6.651561,0.1152,1.1694,-0.4980,-4.8730,6.0797,1.1734,0.7395,-1.7939,2.5856,
6.653584,0.1152,1.1694,-0.4980,-4.8730,6.0797,1.1734,0.4989,-3.3976,3.1411,
6.654562,0.1152,1.1694,-0.4980,-12.8429,8.1787,-0.3199,0.4989,-3.3976,3.1411,
6.711427,0.9833,0.9126,-0.2820,-12.8429,8.1787,-0.3199,0.4989,-3.3976,3.1411,
6.715440,0.9833,0.9126,-0.2820,-12.8429,8.1787,-0.3199,0.3081,-1.4636,1.8825,
6.718660,0.9833,0.9126,-0.2820,1.4935,4.3427,-0.8042,0.3081,-1.4636,1.8825,
6.768596,0.0576,0.2202,-0.0316,1.4935,4.3427,-0.8042,0.3081,-1.4636,1.8825,
6.772754,0.0576,0.2202,-0.0316,1.4935,4.3427,-0.8042,-1.0515,0.6767,-0.4728,
6.775978,0.0576,0.2202,-0.0316,0.4752,-1.0610,1.2582,-1.0515,0.6767,-0.4728,
6.828104,0.0511,0.3962,-0.1918,0.4752,-1.0610,1.2582,-1.0515,0.6767,-0.4728,
6.834081,0.0511,0.3962,-0.1918,0.4752,-1.0610,1.2582,-1.1012,-0.6373,-2.3970,
6.837263,0.0511,0.3962,-0.1918,-5.8243,-5.8821,2.9731,-1.1012,-0.6373,-2.3970,
6.886572,0.0511,0.3962,-0.1918,-1.0247,-3.6030,0.4137,-1.1012,-0.6373,-2.3970,
6.890773,0.2019,0.6655,-0.1340,-1.0247,-3.6030,0.4137,-1.1012,-0.6373,-2.3970,
6.894200,0.2019,0.6655,-0.1340,-1.0247,-3.6030,0.4137,-1.6143,-1.6729,-4.0136,
6.944825,0.3453,1.0979,-0.4511,-1.0247,-3.6030,0.4137,-1.6143,-1.6729,-4.0136,
6.949973,0.3453,1.0979,-0.4511,-1.0247,-3.6030,0.4137,-2.0519,-1.6444,-4.7399,
6.955044,0.3453,1.0979,-0.4511,2.1135,-1.7843,0.0809,-2.0519,-1.6444,-4.7399,
7.003051,0.6313,1.3737,-0.4948,2.1135,-1.7843,0.0809,-2.0519,-1.6444,-4.7399,
7.007405,0.6313,1.3737,-0.4948,2.1135,-1.7843,0.0809,-2.4541,1.4557,-4.9044,
7.010518,0.6313,1.3737,-0.4948,7.7252,3.1806,-5.1522,-2.4541,1.4557,-4.9044,
7.060629,0.3263,1.1502,-0.0768,7.7252,3.1806,-5.1522,-2.4541,1.4557,-4.9044,
7.063715,0.3263,1.1502,-0.0768,7.7252,3.1806,-5.1522,-1.4305,3.2696,-2.9721,
7.065353,0.3263,1.1502,-0.0768,9.0761,3.8235,-2.8837,-1.4305,3.2696,-2.9721,
7.119906,0.4506,1.0032,-0.1518,9.0761,3.8235,-2.8837,-1.4305,3.2696,-2.9721,
7.124022,0.4506,1.0032,-0.1518,9.0761,3.8235,-2.8837,-0.4869,1.8387,0.1082,
7.127671,0.4506,1.0032,-0.1518,6.5981,1.9771,0.3304,-0.4869,1.8387,0.1082,
7.177996,-0.7729,1.3376,-0.4042,6.5981,1.9771,0.3304,-0.4869,1.8387,0.1082,
7.182692,-0.7729,1.3376,-0.4042,6.5981,1.9771,0.3304,-0.2120,2.3201,1.9021,
7.186052,-0.7729,1.3376,-0.4042,7.2493,0.8612,-2.6207,-0.2120,2.3201,1.9021,
7.236032,0.2840,1.1426,-0.1131,7.2493,0.8612,-2.6207,-0.2120,2.3201,1.9021,
7.240253,0.2840,1.1426,-0.1131,7.2493,0.8612,-2.6207,0.2643,0.9008,2.0755,
7.243570,0.2840,1.1426,-0.1131,-8.1147,6.2848,-0.5394,0.2643,0.9008,2.0755,
7.294687,-0.0776,1.0040,0.0969,-8.1147,6.2848,-0.5394,0.2643,0.9008,2.0755,
7.298263,-0.0776,1.0040,0.0969,-8.1147,6.2848,-0.5394,0.1912,0.2863,1.4301,
7.300247,-0.0776,1.0040,0.0969,4.5353,-2.3086,1.8642,0.1912,0.2863,1.4301,
7.353272,0.1694,0.9707,-0.2645,4.5353,-2.3086,1.8642,0.1912,0.2863,1.4301,
7.357449,0.1694,0.9707,-0.2645,4.5353,-2.3086,1.8642,0.3280,0.3995,0.9642,
7.359042,0.1694,0.9707,-0.2645,0.0840,1.4769,-0.0844,0.3280,0.3995,0.9642,
7.413441,-0.0374,0.9854,-0.0686,0.0840,1.4769,-0.0844,0.3280,0.3995,0.9642,
7.417017,-0.0374,0.9854,-0.0686,0.0840,1.4769,-0.0844,0.3032,0.4048,0.8595,
7.419975,-0.0374,0.9854,-0.0686,-0.8836,0.3179,0.1350,0.3032,0.4048,0.8595,
7.469331,0.1529,0.9857,-0.1788,-0.8836,0.3179,0.1350,0.3032,0.4048,0.8595,
7.472774,0.1529,0.9857,-0.1788,-0.8836,0.3179,0.1350,0.2979,-0.0847,0.8939,
7.475071,0.1529,0.9857,-0.1788,-0.7099,0.1284,0.7156,0.2979,-0.0847,0.8939,
7.527677,0.1041,0.9752,-0.1201,-0.7099,0.1284,0.7156,0.2979,-0.0847,0.8939,
7.531182,0.1041,0.9752,-0.1201,-0.7099,0.1284,0.7156,0.3743,-0.0161,0.7646,
7.533497,0.1041,0.9752,-0.1201,0.2342,0.6538,0.5056,0.3743,-0.0161,0.7646,
7.586645,0.1801,0.9998,-0.1611,0.2342,0.6538,0.5056,0.3743,-0.0161,0.7646,
7.591594,0.1801,0.9998,-0.1611,0.2342,0.6538,0.5056,0.4592,-0.0376,0.6606,
7.594163,0.1801,0.9998,-0.1611,-0.1735,0.1189,0.9469,0.4592,-0.0376,0.6606,
7.644064,0.1077,1.0484,-0.1825,-0.1735,0.1189,0.9469,0.4592,-0.0376,0.6606,
7.646928,0.1077,1.0484,-0.1825,-0.1735,0.1189,0.9469,0.6554,-0.1482,0.7752,
7.649105,0.1077,1.0484,-0.1825,-1.0652,1.0591,1.0483,0.6554,-0.1482,0.7752,
7.703209,0.0003,1.0906,-0.2152,-1.0652,1.0591,1.0483,0.6554,-0.1482,0.7752,
7.705189,0.0003,1.0906,-0.2152,-1.0652,1.0591,1.0483,1.1234,0.1847,1.1185,
7.706007,0.0003,1.0906,-0.2152,-1.8967,1.6102,1.2876,1.1234,0.1847,1.1185,
7.760252,-0.2442,1.5268,-0.1959,-1.8967,1.6102,1.2876,1.1234,0.1847,1.1185,
7.762716,-0.2442,1.5268,-0.1959,-1.8967,1.6102,1.2876,1.8122,0.2399,1.5921,
7.763908,-0.2442,1.5268,-0.1959,-3.5859,3.2407,1.8716,1.8122,0.2399,1.5921,
7.820378,-0.6075,1.5939,-0.0652,-3.5859,3.2407,1.8716,1.8122,0.2399,1.5921,
7.823601,-0.6075,1.5939,-0.0652,-3.5859,3.2407,1.8716,2.0828,-0.3244,2.1635,
7.825898,-0.6075,1.5939,-0.0652,-9.5261,9.5921,3.1350,2.0828,-0.3244,2.1635,
7.877336,1.1927,1.2129,-0.2641,-9.5261,9.5921,3.1350,2.0828,-0.3244,2.1635,
7.880770,1.1927,1.2129,-0.2641,-9.5261,9.5921,3.1350,1.9971,-0.0244,1.6427,
7.883440,1.1927,1.2129,-0.2641,-4.3120,7.4211,4.9189,1.9971,-0.0244,1.6427,
7.936060,0.2630,0.3951,-0.0352,-4.3120,7.4211,4.9189,1.9971,-0.0244,1.6427,
7.939363,0.2630,0.3951,-0.0352,-4.3120,7.4211,4.9189,1.0287,2.4368,-0.4339,
7.941799,0.2630,0.3951,-0.0352,4.7728,3.7242,2.7690,1.0287,2.4368,-0.4339,
7.994877,0.2792,0.3422,0.1870,4.7728,3.7242,2.7690,1.0287,2.4368,-0.4339,
7.998408,0.2792,0.3422,0.1870,4.7728,3.7242,2.7690,0.2590,1.2081,-2.2579,
8.000684,0.2792,0.3422,0.1870,-4.1218,-3.6450,5.8513,0.2590,1.2081,-2.2579,
8.053271,0.5529,0.5389,0.0963,-4.1218,-3.6450,5.8513,0.2590,1.2081,-2.2579,
8.057879,0.5529,0.5389,0.0963,-4.1218,-3.6450,5.8513,-0.5074,0.9194,-4.0028,
8.061367,0.5529,0.5389,0.0963,0.7702,-3.8370,5.4920,-0.5074,0.9194,-4.0028,
8.110301,0.5110,0.9750,0.0227,0.7702,-3.8370,5.4920,-0.5074,0.9194,-4.0028,
8.113427,0.5110,0.9750,0.0227,0.7702,-3.8370,5.4920,-1.5836,0.6866,-5.1907,
8.115412,0.5110,0.9750,0.0227,4.1949,-2.4196,4.4520,-1.5836,0.6866,-5.1907,
8.167733,0.6561,1.4380,-0.2071,4.1949,-2.4196,4.4520,-1.5836,0.6866,-5.1907,
8.169576,0.6561,1.4380,-0.2071,4.1949,-2.4196,4.4520,-2.7744,0.8343,-5.1197,
8.170855,0.6561,1.4380,-0.2071,6.8331,2.2276,1.1155,-2.7744,0.8343,-5.1197,
8.227945,0.6561,1.4380,-0.2071,10.2357,5.4498,-1.6713,-2.7744,0.8343,-5.1197,
8.232252,0.7706,1.3069,-0.3020,10.2357,5.4498,-1.6713,-2.7744,0.8343,-5.1197,
8.233844,0.7706,1.3069,-0.3020,10.2357,5.4498,-1.6713,-3.1124,2.5357,-3.8707,
8.286104,0.3547,1.0629,-0.2180,10.2357,5.4498,-1.6713,-3.1124,2.5357,-3.8707,
8.290592,0.3547,1.0629,-0.2180,10.2357,5.4498,-1.6713,-2.1207,2.9088,-2.2103,
8.294460,0.3547,1.0629,-0.2180,9.3168,2.6472,-2.7622,-2.1207,2.9088,-2.2103,
8.344589,0.5848,0.9194,-0.5219,9.3168,2.6472,-2.7622,-2.1207,2.9088,-2.2103,
8.348295,0.5848,0.9194,-0.5219,9.3168,2.6472,-2.7622,-0.7396,2.5602,0.5628,
8.351934,0.5848,0.9194,-0.5219,8.2355,1.3654,-2.3083,-0.7396,2.5602,0.5628,
8.403841,-1.0398,1.4292,-0.4514,8.2355,1.3654,-2.3083,-0.7396,2.5602,0.5628,
8.408018,-1.0398,1.4292,-0.4514,8.2355,1.3654,-2.3083,-0.2729,3.5891,1.9503,
8.411088,-1.0398,1.4292,-0.4514,5.4293,0.7390,-5.6383,-0.2729,3.5891,1.9503,
8.460838,0.2986,1.0825,-0.1760,5.4293,0.7390,-5.6383,-0.2729,3.5891,1.9503,
8.465251,0.2986,1.0825,-0.1760,5.4293,0.7390,-5.6383,0.1110,1.0672,1.6547,
8.468196,0.2986,1.0825,-0.1760,-8.2276,6.1283,-1.1849,0.1110,1.0672,1.6547,
8.518970,-0.0226,1.0171,0.0919,-8.2276,6.1283,-1.1849,0.1110,1.0672,1.6547,
8.521959,-0.0226,1.0171,0.0919,-8.2276,6.1283,-1.1849,-0.1348,-0.0340,1.1000,
8.525033,-0.0226,1.0171,0.0919,3.7441,-1.7448,1.6210,-0.1348,-0.0340,1.1000,
8.576602,-0.0226,1.0171,0.0919,0.2535,1.3768,-0.2421,-0.1348,-0.0340,1.1000,
8.579544,-0.0042,0.9900,-0.1186,0.2535,1.3768,-0.2421,-0.1348,-0.0340,1.1000,
8.580986,-0.0042,0.9900,-0.1186,0.2535,1.3768,-0.2421,-0.0680,0.2442,0.7494,
8.635631,-0.1240,0.9942,0.0835,0.2535,1.3768,-0.2421,-0.0680,0.2442,0.7494,
8.639369,-0.1240,0.9942,0.0835,0.2535,1.3768,-0.2421,0.1112,0.4174,0.8410,
8.641927,-0.1240,0.9942,0.0835,-1.3484,0.0867,1.1305,0.1112,0.4174,0.8410,
8.693597,0.0172,0.9984,-0.0556,-1.3484,0.0867,1.1305,0.1112,0.4174,0.8410,
8.696339,0.0172,0.9984,-0.0556,-1.3484,0.0867,1.1305,0.2745,-0.0721,1.0352,
8.697511,0.0172,0.9984,-0.0556,-1.3142,0.2892,1.3063,0.2745,-0.0721,1.0352,
8.751688,0.1600,0.9586,-0.0770,-1.3142,0.2892,1.3063,0.2745,-0.0721,1.0352,
8.755000,0.1600,0.9586,-0.0770,-1.3142,0.2892,1.3063,0.3427,0.0798,0.9733,
8.758305,0.1600,0.9586,-0.0770,-0.4349,0.3714,0.9105,0.3427,0.0798,0.9733,
8.810976,0.2236,0.9800,-0.1464,-0.4349,0.3714,0.9105,0.3427,0.0798,0.9733,
8.814731,0.2236,0.9800,-0.1464,-0.4349,0.3714,0.9105,0.3213,-0.0910,0.7846,
8.816812,0.2236,0.9800,-0.1464,-0.1700,0.1073,0.4837,0.3213,-0.0910,0.7846,
8.869000,0.0965,1.0120,-0.0840,-0.1700,0.1073,0.4837,0.3213,-0.0910,0.7846,
8.873153,0.0965,1.0120,-0.0840,-0.1700,0.1073,0.4837,0.4205,-0.1329,0.7603,
8.875549,0.0965,1.0120,-0.0840,-0.3151,0.6828,0.6304,0.4205,-0.1329,0.7603,
8.926388,0.1093,1.0221,-0.1018,-0.3151,0.6828,0.6304,0.4205,-0.1329,0.7603,
8.928441,0.1093,1.0221,-0.1018,-0.3151,0.6828,0.6304,0.6964,-0.2022,1.0316,
8.929468,0.1093,1.0221,-0.1018,-1.5171,0.8841,1.1934,0.6964,-0.2022,1.0316,
8.986471,0.1035,1.1050,-0.1038,-1.5171,0.8841,1.1934,0.6964,-0.2022,1.0316,
8.991096,0.1035,1.1050,-0.1038,-1.5171,0.8841,1.1934,1.1460,-0.0979,1.4480,
8.994706,0.1035,1.1050,-0.1038,-2.0809,1.5858,1.8456,1.1460,-0.0979,1.4480,
9.043012,-0.1066,1.5783,-0.1456,-2.0809,1.5858,1.8456,1.1460,-0.0979,1.4480,
9.044463,-0.1066,1.5783,-0.1456,-2.0809,1.5858,1.8456,1.5901,-0.2934,1.8111,
9.045217,-0.1066,1.5783,-0.1456,-3.0468,4.0573,2.2116,1.5901,-0.2934,1.8111,
9.102630,-0.1036,1.3476,-0.1391,-3.0468,4.0573,2.2116,1.5901,-0.2934,1.8111,
9.106540,-0.1036,1.3476,-0.1391,-3.0468,4.0573,2.2116,1.7247,-1.2191,2.2924,
9.109300,-0.1036,1.3476,-0.1391,-7.5954,8.9937,3.4532,1.7247,-1.2191,2.2924,
9.160001,1.0073,0.8691,-0.4226,-7.5954,8.9937,3.4532,1.7247,-1.2191,2.2924,
9.162321,1.0073,0.8691,-0.4226,-7.5954,8.9937,3.4532,1.3907,-0.7198,1.7491,
9.163411,1.0073,0.8691,-0.4226,-1.1880,4.5716,2.8567,1.3907,-0.7198,1.7491,
9.218081,0.3326,0.3384,-0.2287,-1.1880,4.5716,2.8567,1.3907,-0.7198,1.7491,
9.219827,0.3326,0.3384,-0.2287,-1.1880,4.5716,2.8567,0.1057,1.4309,0.1916,
9.220810,0.3326,0.3384,-0.2287,2.8270,0.8588,1.0782,0.1057,1.4309,0.1916,
9.277305,0.0943,0.2390,-0.1439,2.8270,0.8588,1.0782,0.1057,1.4309,0.1916,
9.280344,0.0943,0.2390,-0.1439,2.8270,0.8588,1.0782,-0.8446,1.3329,-1.4661,
9.283911,0.0943,0.2390,-0.1439,-4.0271,-4.2124,2.5477,-0.8446,1.3329,-1.4661,
9.336294,0.2906,0.3893,-0.2079,-4.0271,-4.2124,2.5477,-0.8446,1.3329,-1.4661,
9.341165,0.2906,0.3893,-0.2079,-4.0271,-4.2124,2.5477,-1.6744,1.2122,-3.3596,
9.344910,0.2906,0.3893,-0.2079,-1.9443,-5.1698,0.6267,-1.6744,1.2122,-3.3596,
9.394390,0.1961,0.9192,-0.1599,-1.9443,-5.1698,0.6267,-1.6744,1.2122,-3.3596,
9.398049,0.1961,0.9192,-0.1599,-1.9443,-5.1698,0.6267,-2.1611,0.7842,-4.8057,
9.401079,0.1961,0.9192,-0.1599,1.0020,-4.6786,0.2054,-2.1611,0.7842,-4.8057,
9.451134,0.8807,1.4598,-0.4437,1.0020,-4.6786,0.2054,-2.1611,0.7842,-4.8057,
9.453396,0.8807,1.4598,-0.4437,1.0020,-4.6786,0.2054,-2.3798,-1.6298,-4.3742,
9.454508,0.8807,1.4598,-0.4437,3.8170,2.5257,-1.5688,-2.3798,-1.6298,-4.3742,
9.509486,1.0326,0.9890,-1.0923,3.8170,2.5257,-1.5688,-2.3798,-1.6298,-4.3742,
9.512078,1.0326,0.9890,-1.0923,3.8170,2.5257,-1.5688,-1.2181,-2.6542,-1.6742,
9.513503,1.0326,0.9890,-1.0923,10.8682,4.5649,-5.6822,-1.2181,-2.6542,-1.6742,
9.569165,-0.0543,1.3109,-0.0459,10.8682,4.5649,-5.6822,-1.2181,-2.6542,-1.6742,
9.572913,-0.0543,1.3109,-0.0459,10.8682,4.5649,-5.6822,0.0615,1.8298,0.6893,
9.576149,-0.0543,1.3109,-0.0459,10.0551,1.2044,-8.8106,0.0615,1.8298,0.6893,
9.629755,-0.3339,1.0204,0.0486,10.0551,1.2044,-8.8106,0.0615,1.8298,0.6893,
9.635257,-0.3339,1.0204,0.0486,10.0551,1.2044,-8.8106,0.0091,0.3486,0.7683,
9.637228,-0.3339,1.0204,0.0486,-4.4472,2.7883,-0.6292,0.0091,0.3486,0.7683,
9.685513,0.1799,1.1067,-0.0498,-4.4472,2.7883,-0.6292,0.0091,0.3486,0.7683,
9.689201,0.1799,1.1067,-0.0498,-4.4472,2.7883,-0.6292,-0.0823,-0.3765,0.2605,
9.692619,0.1799,1.1067,-0.0498,0.0758,0.0980,0.3685,-0.0823,-0.3765,0.2605,
9.743640,-0.1687,1.0283,0.0780,0.0758,0.0980,0.3685,-0.0823,-0.3765,0.2605,
9.755224,-0.1687,1.0283,0.0780,0.0758,0.0980,0.3685,-0.0257,0.0133,0.0986,
9.756955,-0.1687,1.0283,0.0780,0.5464,0.5017,0.0740,-0.0257,0.0133,0.0986,
9.802292,-0.0235,0.9962,0.0697,0.5464,0.5017,0.0740,-0.0257,0.0133,0.0986,
9.806208,-0.0235,0.9962,0.0697,0.5464,0.5017,0.0740,0.1063,-0.5298,0.1741,
9.808662,-0.0235,0.9962,0.0697,-0.7228,0.3349,0.6660,0.1063,-0.5298,0.1741,
9.860527,-0.0484,0.9752,0.0623,-0.7228,0.3349,0.6660,0.1063,-0.5298,0.1741,
9.863286,-0.0484,0.9752,0.0623,-0.7228,0.3349,0.6660,0.2305,-0.5683,0.2786,
9.865532,-0.0484,0.9752,0.0623,-0.4711,0.1323,1.0365,0.2305,-0.5683,0.2786,
9.918915,0.0192,1.0093,0.0111,-0.4711,0.1323,1.0365,0.2305,-0.5683,0.2786,
9.921658,0.0192,1.0093,0.0111,-0.4711,0.1323,1.0365,0.2572,-0.4852,0.2503,
9.924576,0.0192,1.0093,0.0111,-0.0365,0.0751,0.4191,0.2572,-0.4852,0.2503,
9.978109,0.0136,1.0099,-0.0044,-0.0365,0.0751,0.4191,0.2572,-0.4852,0.2503,
9.984741,0.0136,1.0099,-0.0044,-0.0365,0.0751,0.4191,0.3268,-0.5284,0.2835,
9.987164,0.0136,1.0099,-0.0044,-0.4416,0.4578,0.6794,0.3268,-0.5284,0.2835,
10.035694,0.1251,1.0211,-0.0133,-0.4416,0.4578,0.6794,0.3268,-0.5284,0.2835,
10.039273,0.1251,1.0211,-0.0133,-0.4416,0.4578,0.6794,0.2936,-0.5235,0.0935,
10.041530,0.1251,1.0211,-0.0133,0.4423,0.3392,0.2438,0.2936,-0.5235,0.0935,
10.094415,-0.2378,1.1066,0.0999,0.4423,0.3392,0.2438,0.2936,-0.5235,0.0935,
10.098327,-0.2378,1.1066,0.0999,0.4423,0.3392,0.2438,0.5058,-0.5793,0.1305,
10.100537,-0.2378,1.1066,0.0999,0.2836,0.7909,1.2070,0.5058,-0.5793,0.1305,
10.150989,-0.1732,1.2394,-0.0457,0.2836,0.7909,1.2070,0.5058,-0.5793,0.1305,
10.152665,-0.1732,1.2394,-0.0457,0.2836,0.7909,1.2070,0.6308,-1.5546,1.0635,
10.153804,-0.1732,1.2394,-0.0457,-4.0993,1.8812,2.0580,0.6308,-1.5546,1.0635,
10.210638,0.1397,1.0859,-0.0523,-4.0993,1.8812,2.0580,0.6308,-1.5546,1.0635,
10.213502,0.1397,1.0859,-0.0523,-4.0993,1.8812,2.0580,-0.1926,-3.1588,1.6170,
10.214900,0.1397,1.0859,-0.0523,-1.1079,2.7474,0.8432,-0.1926,-3.1588,1.6170,
10.268440,-0.0984,0.6450,-0.7036,-1.1079,2.7474,0.8432,-0.1926,-3.1588,1.6170,
10.271363,-0.0984,0.6450,-0.7036,-1.1079,2.7474,0.8432,-0.6848,-6.9199,2.0023,
10.274958,-0.0984,0.6450,-0.7036,-1.0790,-0.2610,-0.5942,-0.6848,-6.9199,2.0023,
10.327335,-0.1047,0.6044,-0.8933,-1.0790,-0.2610,-0.5942,-0.6848,-6.9199,2.0023,
10.330566,-0.1047,0.6044,-0.8933,-1.0790,-0.2610,-0.5942,-0.5769,-7.1810,1.2706,
10.333047,-0.1047,0.6044,-0.8933,-3.3214,-3.5403,-6.2526,-0.5769,-7.1810,1.2706,
10.383962,-0.1986,0.8382,-0.6828,-3.3214,-3.5403,-6.2526,-0.5769,-7.1810,1.2706,
10.385512,-0.1986,0.8382,-0.6828,-3.3214,-3.5403,-6.2526,-0.8218,-5.5326,-0.0759,
10.386482,-0.1986,0.8382,-0.6828,-2.2469,-2.6297,-5.7645,-0.8218,-5.5326,-0.0759,
10.444497,-0.1388,1.0240,-0.4205,-2.2469,-2.6297,-5.7645,-0.8218,-5.5326,-0.0759,
10.448522,-0.1388,1.0240,-0.4205,-2.2469,-2.6297,-5.7645,-1.1425,-5.0796,-1.1926,
10.451909,-0.1388,1.0240,-0.4205,-1.4043,-0.3981,-3.9711,-1.1425,-5.0796,-1.1926,
10.503394,-0.0913,1.1289,-0.2571,-1.4043,-0.3981,-3.9711,-1.1425,-5.0796,-1.1926,
10.507820,-0.0913,1.1289,-0.2571,-1.4043,-0.3981,-3.9711,-1.1712,-5.4129,-1.3510,
10.510933,-0.0913,1.1289,-0.2571,0.3968,1.3002,-2.5145,-1.1712,-5.4129,-1.3510,
10.560820,-0.0913,1.1289,-0.2571,1.7355,1.4264,-2.2944,-1.1712,-5.4129,-1.3510,
10.565345,0.1323,1.0291,-0.1710,1.7355,1.4264,-2.2944,-1.1712,-5.4129,-1.3510,
10.567978,0.1323,1.0291,-0.1710,1.7355,1.4264,-2.2944,-0.8406,-5.4500,-1.2372,
10.619154,0.2512,0.8987,-0.0391,1.7355,1.4264,-2.2944,-0.8406,-5.4500,-1.2372,
10.623230,0.2512,0.8987,-0.0391,1.7355,1.4264,-2.2944,-0.4529,-3.1445,-0.7809,
10.626872,0.2512,0.8987,-0.0391,4.7072,0.5640,-2.2053,-0.4529,-3.1445,-0.7809,
10.677504,0.2138,0.8797,0.0526,4.7072,0.5640,-2.2053,-0.4529,-3.1445,-0.7809,
10.681990,0.2138,0.8797,0.0526,4.7072,0.5640,-2.2053,-0.1690,-0.2610,0.0340,
10.685516,0.2138,0.8797,0.0526,5.2212,-0.7587,-0.8959,-0.1690,-0.2610,0.0340,
10.735955,-0.1885,0.9535,0.0912,5.2212,-0.7587,-0.8959,-0.1690,-0.2610,0.0340,
10.739970,-0.1885,0.9535,0.0912,3.3483,-0.4766,-0.1385,-0.1690,-0.2610,0.0340,
10.743214,-0.1885,0.9535,0.0912,3.3483,-0.4766,-0.1385,0.0448,0.8750,0.9656,
10.793964,-0.5040,1.3291,0.0515,3.3483,-0.4766,-0.1385,0.0448,0.8750,0.9656,
10.797588,-0.5040,1.3291,0.0515,3.3483,-0.4766,-0.1385,0.0069,1.2949,1.1151,
10.800237,-0.5040,1.3291,0.0515,-4.7390,1.7935,1.7767,0.0069,1.2949,1.1151,
10.852520,-0.5040,1.3291,0.0515,-0.9526,2.0949,-1.7599,0.0069,1.2949,1.1151,
10.856196,-0.1558,1.0087,0.1039,-0.9526,2.0949,-1.7599,0.0069,1.2949,1.1151,
10.858264,-0.1558,1.0087,0.1039,-0.9526,2.0949,-1.7599,0.0645,0.0988,1.5736,
10.910832,0.2406,1.0223,0.0412,-0.9526,2.0949,-1.7599,0.0645,0.0988,1.5736,
10.914918,0.2406,1.0223,0.0412,-0.9526,2.0949,-1.7599,0.0104,-0.5988,1.1086,
10.917215,0.2406,1.0223,0.0412,0.0240,0.0550,0.7067,0.0104,-0.5988,1.1086,
10.968968,-0.0361,1.0191,0.1089,0.0240,0.0550,0.7067,0.0104,-0.5988,1.1086,
10.972798,-0.0361,1.0191,0.1089,0.0240,0.0550,0.7067,0.0362,0.1250,0.7292,
10.975236,-0.0361,1.0191,0.1089,0.7879,0.7046,-0.3386,0.0362,0.1250,0.7292,
11.027124,0.0352,1.0005,0.1082,0.7879,0.7046,-0.3386,0.0362,0.1250,0.7292,
11.030457,0.0352,1.0005,0.1082,0.7879,0.7046,-0.3386,0.1437,-0.1798,0.7577,
11.032923,0.0352,1.0005,0.1082,-0.8990,0.3035,0.9220,0.1437,-0.1798,0.7577,
11.084443,0.0851,0.9987,0.1005,-0.8990,0.3035,0.9220,0.1437,-0.1798,0.7577,
11.086219,0.0851,0.9987,0.1005,-0.8990,0.3035,0.9220,0.2307,-0.1498,0.8237,
11.087229,0.0851,0.9987,0.1005,-0.9391,0.2388,0.5543,0.2307,-0.1498,0.8237,
11.143797,0.0890,0.9799,0.1179,-0.9391,0.2388,0.5543,0.2307,-0.1498,0.8237,
11.146651,0.0890,0.9799,0.1179,-0.9391,0.2388,0.5543,0.3119,-0.3492,0.9530,
11.149042,0.0890,0.9799,0.1179,-1.0977,0.1824,0.9169,0.3119,-0.3492,0.9530,
11.202648,0.2376,1.0205,-0.0046,-1.0977,0.1824,0.9169,0.3119,-0.3492,0.9530,
11.206382,0.2376,1.0205,-0.0046,-1.0977,0.1824,0.9169,0.3614,-0.2875,0.9825,
11.208806,0.2376,1.0205,-0.0046,-0.7683,0.4923,0.8002,0.3614,-0.2875,0.9825,
11.261396,0.2648,1.0344,0.0003,-0.7683,0.4923,0.8002,0.3614,-0.2875,0.9825,
11.266301,0.2648,1.0344,0.0003,-0.7683,0.4923,0.8002,0.2401,-0.3983,0.8626,
11.268661,0.2648,1.0344,0.0003,-0.3910,0.6728,0.1285,0.2401,-0.3983,0.8626,
11.319701,0.1561,1.0115,-0.0783,-0.3910,0.6728,0.1285,0.2401,-0.3983,0.8626,
11.324968,0.1561,1.0115,-0.0783,-0.3910,0.6728,0.1285,0.1503,-0.8874,0.9770,
11.327199,0.1561,1.0115,-0.0783,-1.1411,1.2282,0.3038,0.1503,-0.8874,0.9770,
11.378024,0.1705,1.1110,-0.0155,-1.1411,1.2282,0.3038,0.1503,-0.8874,0.9770,
11.383006,0.1705,1.1110,-0.0155,-1.1411,1.2282,0.3038,0.3496,-0.5685,1.2918,
11.386112,0.1705,1.1110,-0.0155,-2.1935,1.1840,-0.0281,0.3496,-0.5685,1.2918,
11.436594,0.0062,1.2538,0.0107,-2.1935,1.1840,-0.0281,0.3496,-0.5685,1.2918,
11.440534,0.0062,1.2538,0.0107,-2.1935,1.1840,-0.0281,0.5797,-0.9149,1.6899,
11.442617,0.0062,1.2538,0.0107,-3.3780,2.8659,1.3681,0.5797,-0.9149,1.6899,
11.492607,-0.8005,1.6118,-0.0514,-3.3780,2.8659,1.3681,0.5797,-0.9149,1.6899,
11.494412,-0.8005,1.6118,-0.0514,-3.3780,2.8659,1.3681,0.6937,-2.1877,2.4883,
11.495526,-0.8005,1.6118,-0.0514,-7.5561,6.2498,2.5469,0.6937,-2.1877,2.4883,
11.551123,0.4491,1.3867,-0.4056,-7.5561,6.2498,2.5469,0.6937,-2.1877,2.4883,
11.553508,0.4491,1.3867,-0.4056,-7.5561,6.2498,2.5469,0.4993,-4.2620,3.4201,
11.555303,0.4491,1.3867,-0.4056,-12.2882,8.2474,1.7001,0.4993,-4.2620,3.4201,
11.611047,0.6535,0.7039,-0.5726,-12.2882,8.2474,1.7001,0.4993,-4.2620,3.4201,
11.613656,0.6535,0.7039,-0.5726,-12.2882,8.2474,1.7001,0.0159,-1.6601,1.9727,
11.615460,0.6535,0.7039,-0.5726,0.7471,6.8094,0.4141,0.0159,-1.6601,1.9727,
11.669243,0.2371,0.1686,-0.3744,0.7471,6.8094,0.4141,0.0159,-1.6601,1.9727,
11.673900,0.2371,0.1686,-0.3744,0.7471,6.8094,0.4141,-1.7913,1.1784,-0.6581,
11.678629,0.2371,0.1686,-0.3744,-0.8921,-2.3464,-2.5772,-1.7913,1.1784,-0.6581,
11.726528,-0.2191,0.2915,-0.3033,-0.8921,-2.3464,-2.5772,-1.7913,1.1784,-0.6581,
11.729693,-0.2191,0.2915,-0.3033,-0.8921,-2.3464,-2.5772,-2.4339,0.6074,-3.0069,
11.731926,-0.2191,0.2915,-0.3033,-3.4867,-6.4161,-0.9240,-2.4339,0.6074,-3.0069,
11.785759,-0.1099,0.7409,-0.3837,-3.4867,-6.4161,-0.9240,-2.4339,0.6074,-3.0069,
11.789883,-0.1099,0.7409,-0.3837,-3.4867,-6.4161,-0.9240,-2.3718,-2.2317,-4.6114,
11.795363,-0.1099,0.7409,-0.3837,-5.2691,-5.1652,-1.7278,-2.3718,-2.2317,-4.6114,
11.843489,0.2238,1.4220,-0.6463,-5.2691,-5.1652,-1.7278,-2.3718,-2.2317,-4.6114,
11.846047,0.2238,1.4220,-0.6463,-5.2691,-5.1652,-1.7278,-2.6754,-3.1789,-5.2720,
11.847790,0.2238,1.4220,-0.6463,-0.3972,-0.3879,-3.8447,-2.6754,-3.1789,-5.2720,
11.901771,0.8134,1.5276,-0.7029,-0.3972,-0.3879,-3.8447,-2.6754,-3.1789,-5.2720,
11.905431,0.8134,1.5276,-0.7029,-0.3972,-0.3879,-3.8447,-2.9760,0.0175,-5.4272,
11.907990,0.8134,1.5276,-0.7029,8.9948,7.4169,-8.7256,-2.9760,0.0175,-5.4272,
11.960014,0.6704,1.0707,-0.2141,8.9948,7.4169,-8.7256,-2.9760,0.0175,-5.4272,
11.963979,0.6704,1.0707,-0.2141,8.9948,7.4169,-8.7256,-1.0648,1.8571,-1.6911,
11.966248,0.6704,1.0707,-0.2141,11.6029,4.7232,-5.9897,-1.0648,1.8571,-1.6911,
12.019014,-0.4985,1.3366,0.1548,11.6029,4.7232,-5.9897,-1.0648,1.8571,-1.6911,
12.023902,-0.4985,1.3366,0.1548,11.6029,4.7232,-5.9897,0.0930,0.8567,1.9625,
12.026301,-0.4985,1.3366,0.1548,9.5155,1.2519,-2.6239,0.0930,0.8567,1.9625,
12.076706,0.0081,1.3354,-0.2691,9.5155,1.2519,-2.6239,0.0930,0.8567,1.9625,
12.079475,0.0081,1.3354,-0.2691,9.5155,1.2519,-2.6239,0.7208,0.5936,2.4765,
12.081228,0.0081,1.3354,-0.2691,-8.4968,5.5164,2.8026,0.7208,0.5936,2.4765,
12.135453,0.1132,0.9399,0.1733,-8.4968,5.5164,2.8026,0.7208,0.5936,2.4765,
12.141632,0.1132,0.9399,0.1733,-8.4968,5.5164,2.8026,0.3649,1.0350,1.8624,
12.144910,0.1132,0.9399,0.1733,5.7370,1.1899,-3.7630,0.3649,1.0350,1.8624,
12.194619,0.0928,1.0283,-0.0807,5.7370,1.1899,-3.7630,0.3649,1.0350,1.8624,
12.198413,0.0928,1.0283,-0.0807,5.7370,1.1899,-3.7630,0.1942,-0.4453,1.1222,
12.200818,0.0928,1.0283,-0.0807,0.2728,0.1487,1.2231,0.1942,-0.4453,1.1222,
12.252977,-0.0274,0.9984,0.0546,0.2728,0.1487,1.2231,0.1942,-0.4453,1.1222,
12.256551,-0.0274,0.9984,0.0546,0.2728,0.1487,1.2231,0.2429,0.2372,0.8231,
12.259017,-0.0274,0.9984,0.0546,0.5687,0.6439,-0.3355,0.2429,0.2372,0.8231,
12.310870,0.0485,0.9851,0.0621,0.5687,0.6439,-0.3355,0.2429,0.2372,0.8231,
12.314783,0.0485,0.9851,0.0621,0.5687,0.6439,-0.3355,0.2938,-0.3331,0.9232,
12.316807,0.0485,0.9851,0.0621,-1.2610,0.1331,1.0912,0.2938,-0.3331,0.9232,
12.367918,0.0724,1.0035,-0.0114,-1.2610,0.1331,1.0912,0.2938,-0.3331,0.9232,
12.369294,0.0724,1.0035,-0.0114,-1.2610,0.1331,1.0912,0.3260,-0.1211,0.8754,
12.370400,0.0724,1.0035,-0.0114,0.0917,0.1682,0.7587,0.3260,-0.1211,0.8754,
12.427107,0.1767,0.9839,-0.0237,0.0917,0.1682,0.7587,0.3260,-0.1211,0.8754,
12.430275,0.1767,0.9839,-0.0237,0.0917,0.1682,0.7587,0.3384,-0.4706,0.9070,
12.433059,0.1767,0.9839,-0.0237,-1.0073,0.3883,0.6649,0.3384,-0.4706,0.9070,
12.486262,0.0972,1.0194,-0.0644,-1.0073,0.3883,0.6649,0.3384,-0.4706,0.9070,
12.489973,0.0972,1.0194,-0.0644,-1.0073,0.3883,0.6649,0.4023,-0.5591,0.9336,
12.491882,0.0972,1.0194,-0.0644,-0.5123,0.5154,0.5292,0.4023,-0.5591,0.9336,
12.544511,0.0972,1.0194,-0.0644,-1.5762,0.8835,0.6748,0.4023,-0.5591,0.9336,
12.549430,0.1109,1.0598,-0.0594,-1.5762,0.8835,0.6748,0.4023,-0.5591,0.9336,
12.551980,0.1109,1.0598,-0.0594,-1.5762,0.8835,0.6748,0.6616,-0.3284,1.1780,
12.601533,0.0484,1.1104,-0.0711,-1.5762,0.8835,0.6748,0.6616,-0.3284,1.1780,
12.604725,0.0484,1.1104,-0.0711,-1.5762,0.8835,0.6748,1.1091,-0.1501,1.6290,
12.606969,0.0484,1.1104,-0.0711,-2.8014,1.8701,1.3488,1.1091,-0.1501,1.6290,
12.658899,-0.2801,1.6007,-0.0817,-2.8014,1.8701,1.3488,1.1091,-0.1501,1.6290,
12.660964,-0.2801,1.6007,-0.0817,-2.8014,1.8701,1.3488,1.5518,-0.3447,2.0837,
12.661936,-0.2801,1.6007,-0.0817,-4.2076,3.5992,2.0422,1.5518,-0.3447,2.0837,
12.717387,-0.2173,1.4613,-0.0317,-4.2076,3.5992,2.0422,1.5518,-0.3447,2.0837,
12.719083,-0.2173,1.4613,-0.0317,-4.2076,3.5992,2.0422,1.5294,-0.7827,2.7577,
12.720079,-0.2173,1.4613,-0.0317,-10.3933,9.4996,2.9057,1.5294,-0.7827,2.7577,
12.776247,0.9461,1.2374,-0.2853,-10.3933,9.4996,2.9057,1.5294,-0.7827,2.7577,
12.779013,0.9461,1.2374,-0.2853,-10.3933,9.4996,2.9057,1.4834,-0.4773,2.3276,
12.780716,0.9461,1.2374,-0.2853,-1.7725,7.5794,2.5478,1.4834,-0.4773,2.3276,
12.835556,0.0654,0.3082,0.0092,-1.7725,7.5794,2.5478,1.4834,-0.4773,2.3276,
12.839274,0.0654,0.3082,0.0092,-1.7725,7.5794,2.5478,0.3337,0.3183,0.1069,
12.842662,0.0654,0.3082,0.0092,0.1657,2.7723,2.6851,0.3337,0.3183,0.1069,
12.894884,0.2486,0.2884,-0.0763,0.1657,2.7723,2.6851,0.3337,0.3183,0.1069,
12.898236,0.2486,0.2884,-0.0763,0.1657,2.7723,2.6851,-0.4496,-0.5502,-1.8731,
12.901252,0.2486,0.2884,-0.0763,-5.3451,-4.6182,4.4316,-0.4496,-0.5502,-1.8731,
12.952518,0.2486,0.2884,-0.0763,0.1619,-4.1310,2.0679,-0.4496,-0.5502,-1.8731,
12.956386,0.4426,0.5309,-0.1173,0.1619,-4.1310,2.0679,-0.4496,-0.5502,-1.8731,
12.959053,0.4426,0.5309,-0.1173,0.1619,-4.1310,2.0679,-1.6078,0.3136,-3.8668,
13.010649,0.2670,0.9470,-0.0037,0.1619,-4.1310,2.0679,-1.6078,0.3136,-3.8668,
13.014683,0.2670,0.9470,-0.0037,0.1619,-4.1310,2.0679,-2.4062,0.3857,-5.0221,
13.018260,0.2670,0.9470,-0.0037,2.8046,-3.0844,1.8241,-2.4062,0.3857,-5.0221,
13.067214,0.6394,1.6151,-0.2104,2.8046,-3.0844,1.8241,-2.4062,0.3857,-5.0221,
13.069050,0.6394,1.6151,-0.2104,2.8046,-3.0844,1.8241,-3.1409,-0.4693,-5.0020,
13.070418,0.6394,1.6151,-0.2104,4.9462,2.6714,-0.5428,-3.1409,-0.4693,-5.0020,
13.126353,0.7476,1.3224,-0.4358,4.9462,2.6714,-0.5428,-3.1409,-0.4693,-5.0020,
13.129029,0.7476,1.3224,-0.4358,4.9462,2.6714,-0.5428,-2.8729,-0.0906,-3.4097,
13.130409,0.7476,1.3224,-0.4358,9.9161,6.4804,-3.6141,-2.8729,-0.0906,-3.4097,
13.185373,0.8293,0.9124,-0.6370,9.9161,6.4804,-3.6141,-2.8729,-0.0906,-3.4097,
13.188573,0.8293,0.9124,-0.6370,9.9161,6.4804,-3.6141,-0.9813,0.9454,-0.6269,
13.191146,0.8293,0.9124,-0.6370,10.6705,2.6739,-6.6342,-0.9813,0.9454,-0.6269,
13.244108,-0.7959,1.3824,-0.3348,10.6705,2.6739,-6.6342,-0.9813,0.9454,-0.6269,
13.248462,-0.7959,1.3824,-0.3348,10.6705,2.6739,-6.6342,-0.0825,3.8269,1.9746,
13.251961,-0.7959,1.3824,-0.3348,9.7657,-0.2936,-7.9584,-0.0825,3.8269,1.9746,
13.301748,0.0300,1.2094,-0.0294,9.7657,-0.2936,-7.9584,-0.0825,3.8269,1.9746,
13.304568,0.0300,1.2094,-0.0294,9.7657,-0.2936,-7.9584,0.8925,1.6414,2.3223,
13.305574,0.0300,1.2094,-0.0294,-9.2604,8.1706,0.8111,0.8925,1.6414,2.3223,
13.359303,0.2636,1.0060,0.0150,-9.2604,8.1706,0.8111,0.8925,1.6414,2.3223,
13.361005,0.2636,1.0060,0.0150,-9.2604,8.1706,0.8111,0.3871,-0.4245,1.8526,
13.361980,0.2636,1.0060,0.0150,1.6832,-2.6002,-0.0731,0.3871,-0.4245,1.8526,
13.418797,0.0488,0.9797,-0.0772,1.6832,-2.6002,-0.0731,0.3871,-0.4245,1.8526,
13.422458,0.0488,0.9797,-0.0772,1.6832,-2.6002,-0.0731,0.3596,0.6506,0.9220,
13.424441,0.0488,0.9797,-0.0772,3.1086,1.4492,-0.7245,0.3596,0.6506,0.9220,
13.477373,0.0305,0.9830,0.0278,3.1086,1.4492,-0.7245,0.3596,0.6506,0.9220,
13.481153,0.0305,0.9830,0.0278,3.1086,1.4492,-0.7245,0.3575,0.3995,0.9245,
13.484023,0.0305,0.9830,0.0278,-1.2547,0.4754,0.8522,0.3575,0.3995,0.9245,
13.535394,0.1472,1.0283,-0.0831,-1.2547,0.4754,0.8522,0.3575,0.3995,0.9245,
13.538772,0.1472,1.0283,-0.0831,-1.2547,0.4754,0.8522,0.5266,0.2358,1.0656,
13.541070,0.1472,1.0283,-0.0831,-1.0940,0.5339,0.6976,0.5266,0.2358,1.0656,
13.594435,0.2173,0.9781,-0.1425,-1.0940,0.5339,0.6976,0.5266,0.2358,1.0656,
13.599227,0.2173,0.9781,-0.1425,-1.0940,0.5339,0.6976,0.5011,0.2881,0.9585,
13.603146,0.2173,0.9781,-0.1425,-0.1916,0.3610,0.0750,0.5011,0.2881,0.9585,
13.651719,0.2704,0.9602,-0.1483,-0.1916,0.3610,0.0750,0.5011,0.2881,0.9585,
13.655499,0.2704,0.9602,-0.1483,-0.1916,0.3610,0.0750,0.3734,0.0969,0.7728,
13.657722,0.2704,0.9602,-0.1483,0.1715,0.5087,-0.1429,0.3734,0.0969,0.7728,
13.710071,0.2249,0.9942,-0.1218,0.1715,0.5087,-0.1429,0.3734,0.0969,0.7728,
13.713733,0.2249,0.9942,-0.1218,0.1715,0.5087,-0.1429,0.3020,0.0322,0.6803,
13.716015,0.2249,0.9942,-0.1218,-0.1442,0.5427,0.1380,0.3020,0.0322,0.6803,
13.768682,0.2307,0.9358,0.0905,-0.1442,0.5427,0.1380,0.3020,0.0322,0.6803,
13.772939,0.2307,0.9358,0.0905,-0.1442,0.5427,0.1380,0.4697,-0.2647,0.8229,
13.775787,0.2307,0.9358,0.0905,-0.9682,0.7767,0.9555,0.4697,-0.2647,0.8229,
13.827143,0.1683,1.0518,0.2284,-0.9682,0.7767,0.9555,0.4697,-0.2647,0.8229,
13.830814,0.1683,1.0518,0.2284,-1.5358,0.7397,4.2069,0.4697,-0.2647,0.8229,
13.833530,0.1683,1.0518,0.2284,-1.5358,0.7397,4.2069,1.0226,-0.8619,1.2918,
13.886747,0.1683,1.0518,0.2284,-2.6638,4.3597,5.3461,1.0226,-0.8619,1.2918,
13.891433,-0.0451,1.7031,0.2464,-2.6638,4.3597,5.3461,1.0226,-0.8619,1.2918,
13.894324,-0.0451,1.7031,0.2464,-2.6638,4.3597,5.3461,1.3478,-1.3803,2.1283,
13.944526,0.2178,1.2626,-0.1398,-2.6638,4.3597,5.3461,1.3478,-1.3803,2.1283,
13.948443,0.2178,1.2626,-0.1398,-2.6638,4.3597,5.3461,0.1598,-4.3508,2.9395,
13.951096,0.2178,1.2626,-0.1398,-6.5022,10.0234,6.5527,0.1598,-4.3508,2.9395,
14.002950,0.4012,0.5823,-0.6724,-6.5022,10.0234,6.5527,0.1598,-4.3508,2.9395,
14.006456,0.4012,0.5823,-0.6724,0.3470,2.5879,1.7375,0.1598,-4.3508,2.9395,
14.008897,0.4012,0.5823,-0.6724,0.3470,2.5879,1.7375,-1.5376,-4.9334,2.7565,
14.060460,0.1486,0.4327,-0.7576,0.3470,2.5879,1.7375,-1.5376,-4.9334,2.7565,
14.064990,0.1486,0.4327,-0.7576,-0.5503,-2.4251,-3.6974,-1.5376,-4.9334,2.7565,
14.067700,0.1486,0.4327,-0.7576,-0.5503,-2.4251,-3.6974,-2.9863,-1.9114,2.1918,
14.118762,-0.4402,0.4961,-0.7510,-0.5503,-2.4251,-3.6974,-2.9863,-1.9114,2.1918,
14.123341,-0.4402,0.4961,-0.7510,-0.5503,-2.4251,-3.6974,-3.9525,-1.9179,0.9078,
14.126834,-0.4402,0.4961,-0.7510,-6.0117,-3.4941,-3.4080,-3.9525,-1.9179,0.9078,
14.177659,-0.2733,0.6689,-0.7983,-6.0117,-3.4941,-3.4080,-3.9525,-1.9179,0.9078,
14.182659,-0.2733,0.6689,-0.7983,-6.0117,-3.4941,-3.4080,-3.9666,-3.7819,-0.4325,
14.185614,-0.2733,0.6689,-0.7983,-7.8226,-3.4098,-5.7502,-3.9666,-3.7819,-0.4325,
14.235376,-0.2733,0.6689,-0.7983,-7.8226,-3.4098,-5.7502,-3.7047,-3.4821,-1.6748,
14.237307,-0.2733,0.6689,-0.7983,-4.1697,-0.5589,-6.0972,-3.7047,-3.4821,-1.6748,
14.254269,-0.0017,1.3195,-0.7581,-4.1697,-0.5589,-6.0972,-3.7047,-3.4821,-1.6748,
14.273283,-0.0347,1.3412,-0.5662,-4.1697,-0.5589,-6.0972,-3.7047,-3.4821,-1.6748,
14.293500,-0.0347,1.3412,-0.5662,-2.0532,3.2575,-7.6585,-3.7047,-3.4821,-1.6748,
14.296547,-0.0347,1.3412,-0.5662,-2.0532,3.2575,-7.6585,-2.7379,-3.4942,-1.7477,
14.298690,-0.0923,1.2470,-0.4810,-2.0532,3.2575,-7.6585,-2.7379,-3.4942,-1.7477,
14.313909,-0.1953,1.1193,-0.5013,-2.0532,3.2575,-7.6585,-2.7379,-3.4942,-1.7477,
14.331227,-0.2034,1.0875,-0.5828,-2.0532,3.2575,-7.6585,-2.7379,-3.4942,-1.7477,
14.351074,-0.2034,1.0875,-0.5828,-2.0532,3.2575,-7.6585,-1.1719,-3.6534,-1.3557,
14.354997,-0.1072,1.0902,-0.5416,-2.0532,3.2575,-7.6585,-1.1719,-3.6534,-1.3557,
14.358476,-0.1072,1.0902,-0.5416,-1.4953,2.6490,-5.2733,-1.1719,-3.6534,-1.3557,
14.373408,-0.0134,0.9947,-0.4661,-1.4953,2.6490,-5.2733,-1.1719,-3.6534,-1.3557,
14.390350,0.0486,0.9242,-0.3741,-1.4953,2.6490,-5.2733,-1.1719,-3.6534,-1.3557,
14.411333,0.0486,0.9242,-0.3741,-1.0533,0.8792,-5.4232,-1.1719,-3.6534,-1.3557,
14.415046,0.0486,0.9242,-0.3741,-1.0533,0.8792,-5.4232,-0.2462,-2.4044,-0.8536,
14.418045,0.0857,0.9369,-0.3020,-1.0533,0.8792,-5.4232,-0.2462,-2.4044,-0.8536,
14.430758,-0.0049,0.9400,-0.2207,-1.0533,0.8792,-5.4232,-0.2462,-2.4044,-0.8536,
14.451542,-0.1240,0.9269,-0.1314,-1.0533,0.8792,-5.4232,-0.2462,-2.4044,-0.8536,
14.468063,-0.1240,0.9269,-0.1314,-1.0533,0.8792,-5.4232,0.3028,-1.1853,-0.5622,
14.473555,-0.1282,0.9193,-0.0874,-1.0533,0.8792,-5.4232,0.3028,-1.1853,-0.5622,
14.477937,-0.1282,0.9193,-0.0874,0.7138,-0.3260,-2.9494,0.3028,-1.1853,-0.5622,
14.498343,-0.0679,0.9093,-0.0769,0.7138,-0.3260,-2.9494,0.3028,-1.1853,-0.5622,
14.507283,0.0103,0.9054,-0.0381,0.7138,-0.3260,-2.9494,0.3028,-1.1853,-0.5622,
14.526493,0.0103,0.9054,-0.0381,-0.6159,-0.4607,-0.7633,0.3028,-1.1853,-0.5622,
14.529401,0.0103,0.9054,-0.0381,-0.6159,-0.4607,-0.7633,0.4620,-2.1030,-0.2126,
14.530840,0.0852,0.9046,-0.0100,-0.6159,-0.4607,-0.7633,0.4620,-2.1030,-0.2126,
14.548378,0.1531,0.9171,0.0151,-0.6159,-0.4607,-0.7633,0.4620,-2.1030,-0.2126,
14.565342,0.2227,0.9124,0.0366,-0.6159,-0.4607,-0.7633,0.4620,-2.1030,-0.2126,
14.584930,0.2227,0.9124,0.0366,-0.6159,-0.4607,-0.7633,0.3753,-2.3799,-0.1549,
14.589149,0.2776,0.8258,0.1040,-0.6159,-0.4607,-0.7633,0.3753,-2.3799,-0.1549,
14.591620,0.2776,0.8258,0.1040,1.3432,-0.5337,0.2294,0.3753,-2.3799,-0.1549,
14.606630,0.3675,0.8182,0.1470,1.3432,-0.5337,0.2294,0.3753,-2.3799,-0.1549,
14.626259,0.5096,0.9586,0.1402,1.3432,-0.5337,0.2294,0.3753,-2.3799,-0.1549,
14.644548,0.5096,0.9586,0.1402,3.3754,-1.0689,1.2614,0.3753,-2.3799,-0.1549,
14.646739,0.5096,0.9586,0.1402,3.3754,-1.0689,1.2614,0.1366,-2.0816,-0.0437,
14.647839,0.7569,1.0365,0.1631,3.3754,-1.0689,1.2614,0.1366,-2.0816,-0.0437,
14.662218,0.8617,1.1290,0.0461,3.3754,-1.0689,1.2614,0.1366,-2.0816,-0.0437,
14.681173,0.0762,1.2721,0.3460,3.3754,-1.0689,1.2614,0.1366,-2.0816,-0.0437,
14.700361,0.0762,1.2721,0.3460,3.3754,-1.0689,1.2614,-0.3146,0.2529,0.4716,
14.702380,-0.8350,1.6205,0.2906,3.3754,-1.0689,1.2614,-0.3146,0.2529,0.4716,
14.703744,-0.8350,1.6205,0.2906,7.1108,0.7570,1.2720,-0.3146,0.2529,0.4716,
14.720998,-0.5186,1.1969,0.0249,7.1108,0.7570,1.2720,-0.3146,0.2529,0.4716,
14.741331,-0.1531,0.7496,-0.3767,7.1108,0.7570,1.2720,-0.3146,0.2529,0.4716,
14.759657,-0.1531,0.7496,-0.3767,7.1108,0.7570,1.2720,0.3103,0.8479,1.0862,
14.761483,0.0391,0.9474,-0.1812,7.1108,0.7570,1.2720,0.3103,0.8479,1.0862,
14.762605,0.0391,0.9474,-0.1812,-4.5452,3.8584,2.4139,0.3103,0.8479,1.0862,
14.780654,0.2154,1.1202,0.0925,-4.5452,3.8584,2.4139,0.3103,0.8479,1.0862,
14.798089,0.2310,1.0030,0.0691,-4.5452,3.8584,2.4139,0.3103,0.8479,1.0862,
14.817629,0.1880,0.9317,0.0664,-4.5452,3.8584,2.4139,0.3103,0.8479,1.0862,
14.820129,0.1880,0.9317,0.0664,-4.5452,3.8584,2.4139,-0.1674,0.0532,1.1216,
14.822482,0.1880,0.9317,0.0664,-0.6514,-0.2510,-1.3366,-0.1674,0.0532,1.1216,
14.838821,0.1782,1.0218,0.0032,-0.6514,-0.2510,-1.3366,-0.1674,0.0532,1.1216,
14.857084,0.2637,1.1007,-0.1047,-0.6514,-0.2510,-1.3366,-0.1674,0.0532,1.1216,
14.875875,0.2493,1.0560,-0.0842,-0.6514,-0.2510,-1.3366,-0.1674,0.0532,1.1216,
14.878549,0.2493,1.0560,-0.0842,-0.6514,-0.2510,-1.3366,-0.1660,-0.0934,0.7929,
14.879932,0.2493,1.0560,-0.0842,0.5244,0.2543,0.5431,-0.1660,-0.0934,0.7929,
14.895035,0.2066,1.0045,-0.0149,0.5244,0.2543,0.5431,-0.1660,-0.0934,0.7929,
14.914810,0.1663,1.0599,0.0061,0.5244,0.2543,0.5431,-0.1660,-0.0934,0.7929,
14.934658,0.1663,1.0599,0.0061,0.5244,0.2543,0.5431,-0.1676,-0.0656,0.4626,
14.938005,0.0630,1.0157,0.0464,0.5244,0.2543,0.5431,-0.1676,-0.0656,0.4626,
14.940496,0.0630,1.0157,0.0464,0.6598,0.9481,-0.6506,-0.1676,-0.0656,0.4626,
14.954160,0.0903,0.9244,0.0930,0.6598,0.9481,-0.6506,-0.1676,-0.0656,0.4626,
14.975376,0.1966,0.9422,0.0779,0.6598,0.9481,-0.6506,-0.1676,-0.0656,0.4626,
14.994635,0.2346,0.9935,0.0779,0.6598,0.9481,-0.6506,-0.1676,-0.0656,0.4626,
14.999664,0.2346,0.9935,0.0779,0.6598,0.9481,-0.6506,-0.0857,-0.3928,0.4877,
15.002378,0.2346,0.9935,0.0779,-0.8975,0.4657,0.4780,-0.0857,-0.3928,0.4877,
15.012910,0.1470,0.9769,0.0681,-0.8975,0.4657,0.4780,-0.0857,-0.3928,0.4877,
15.031162,0.1194,0.9745,0.0776,-0.8975,0.4657,0.4780,-0.0857,-0.3928,0.4877,
15.050856,0.1111,1.0148,0.0789,-0.8975,0.4657,0.4780,-0.0857,-0.3928,0.4877,
15.055556,0.1111,1.0148,0.0789,-0.8975,0.4657,0.4780,0.0254,-0.2908,0.4863,
15.058198,0.1111,1.0148,0.0789,-0.3111,0.2350,0.7698,0.0254,-0.2908,0.4863,
15.084528,0.0669,0.9896,0.0945,-0.3111,0.2350,0.7698,0.0254,-0.2908,0.4863,
15.089909,0.1629,0.9605,0.0569,-0.3111,0.2350,0.7698,0.0254,-0.2908,0.4863,
15.109164,0.1629,0.9605,0.0569,-0.3111,0.2350,0.7698,0.1617,-0.5345,0.7278,
15.111181,0.2608,0.9979,0.0249,-0.3111,0.2350,0.7698,0.1617,-0.5345,0.7278,
15.112460,0.2608,0.9979,0.0249,-1.5896,0.5447,1.0031,0.1617,-0.5345,0.7278,
15.129165,0.2068,1.0367,0.0396,-1.5896,0.5447,1.0031,0.1617,-0.5345,0.7278,
15.148457,0.1528,0.9894,0.0391,-1.5896,0.5447,1.0031,0.1617,-0.5345,0.7278,
15.168404,0.2688,1.0006,0.0007,-1.5896,0.5447,1.0031,0.1617,-0.5345,0.7278,
15.171598,0.2688,1.0006,0.0007,-1.5896,0.5447,1.0031,0.3180,-0.3510,0.8945,
15.174364,0.2688,1.0006,0.0007,-0.9551,0.7371,0.7918,0.3180,-0.3510,0.8945,
15.188002,0.3482,1.0382,-0.0186,-0.9551,0.7371,0.7918,0.3180,-0.3510,0.8945,
15.207357,0.2554,1.0536,0.0171,-0.9551,0.7371,0.7918,0.3180,-0.3510,0.8945,
15.228488,0.2554,1.0536,0.0171,-0.9551,0.7371,0.7918,0.1995,-0.8106,0.9583,
15.232335,0.1519,1.0438,0.0139,-0.9551,0.7371,0.7918,0.1995,-0.8106,0.9583,
15.234679,0.1519,1.0438,0.0139,-0.9589,1.0155,0.7120,0.1995,-0.8106,0.9583,
15.246564,0.2249,1.0152,-0.0684,-0.9589,1.0155,0.7120,0.1995,-0.8106,0.9583,
15.265772,0.2793,1.0382,-0.0908,-0.9589,1.0155,0.7120,0.1995,-0.8106,0.9583,
15.285654,0.2793,1.0382,-0.0908,-0.9589,1.0155,0.7120,0.3248,-0.9301,1.2851,
15.289181,0.2119,1.0709,-0.0498,-0.9589,1.0155,0.7120,0.3248,-0.9301,1.2851,
15.291669,0.2119,1.0709,-0.0498,-1.9849,1.5641,0.8758,0.3248,-0.9301,1.2851,
15.306913,0.1421,1.1449,-0.0159,-1.9849,1.5641,0.8758,0.3248,-0.9301,1.2851,
15.325669,0.1384,1.2841,0.0327,-1.9849,1.5641,0.8758,0.3248,-0.9301,1.2851,
15.347698,0.1384,1.2841,0.0327,-1.9849,1.5641,0.8758,0.7414,-0.7680,1.7131,
15.350904,0.0903,1.5631,0.1177,-1.9849,1.5641,0.8758,0.7414,-0.7680,1.7131,
15.355720,0.0903,1.5631,0.1177,-2.7144,2.4835,1.0279,0.7414,-0.7680,1.7131,
15.363154,-0.2439,1.8854,0.3470,-2.7144,2.4835,1.0279,0.7414,-0.7680,1.7131,
15.380665,-0.9071,1.8481,0.2620,-2.7144,2.4835,1.0279,0.7414,-0.7680,1.7131,
15.400290,-0.9071,1.8481,0.2620,-2.7144,2.4835,1.0279,0.8479,-1.9688,2.6172,
15.401665,-0.8338,1.5522,0.0234,-2.7144,2.4835,1.0279,0.8479,-1.9688,2.6172,
15.406496,-0.8338,1.5522,0.0234,-5.6787,8.0824,4.0858,0.8479,-1.9688,2.6172,
15.420078,-0.2886,1.3165,-0.2952,-5.6787,8.0824,4.0858,0.8479,-1.9688,2.6172,
15.441603,0.5494,1.1947,-0.4644,-5.6787,8.0824,4.0858,0.8479,-1.9688,2.6172,
15.460455,0.5494,1.1947,-0.4644,-12.3880,9.1132,4.2375,0.8479,-1.9688,2.6172,
15.464229,0.5494,1.1947,-0.4644,-12.3880,9.1132,4.2375,0.2791,-5.1264,3.4543,
15.466784,0.9769,1.2106,-0.5775,-12.3880,9.1132,4.2375,0.2791,-5.1264,3.4543,
15.488180,0.8744,1.0675,-0.5184,-12.3880,9.1132,4.2375,0.2791,-5.1264,3.4543,
15.498116,0.5193,0.5298,-0.5135,-12.3880,9.1132,4.2375,0.2791,-5.1264,3.4543,
15.517438,0.2522,0.3152,-0.6693,-12.3880,9.1132,4.2375,0.2791,-5.1264,3.4543,
15.519609,0.2522,0.3152,-0.6693,-12.3880,9.1132,4.2375,-0.2586,-2.3323,2.1711,
15.521277,0.2522,0.3152,-0.6693,1.9293,5.6163,-0.1240,-0.2586,-2.3323,2.1711,
15.537110,0.0044,0.3431,-0.5948,1.9293,5.6163,-0.1240,-0.2586,-2.3323,2.1711,
15.556583,-0.1392,0.2842,-0.4966,1.9293,5.6163,-0.1240,-0.2586,-2.3323,2.1711,
15.577988,-0.1392,0.2842,-0.4966,-3.3461,-2.5137,-1.8007,-0.2586,-2.3323,2.1711,
15.581604,-0.2100,0.2764,-0.4905,-3.3461,-2.5137,-1.8007,-0.2586,-2.3323,2.1711,
15.584098,-0.2100,0.2764,-0.4905,-3.3461,-2.5137,-1.8007,-2.2142,0.6296,-0.3498,
15.595398,-0.0513,0.3094,-0.4253,-3.3461,-2.5137,-1.8007,-2.2142,0.6296,-0.3498,
15.615514,-0.0564,0.3929,-0.4068,-3.3461,-2.5137,-1.8007,-2.2142,0.6296,-0.3498,
15.635067,-0.0564,0.3929,-0.4068,-6.2025,-4.8483,-2.1041,-2.2142,0.6296,-0.3498,
15.640631,-0.0564,0.3929,-0.4068,-6.2025,-4.8483,-2.1041,-2.8558,1.1020,-2.6141,
15.644061,-0.2197,0.5093,-0.4952,-6.2025,-4.8483,-2.1041,-2.8558,1.1020,-2.6141,
15.654784,-0.2451,0.6295,-0.5001,-6.2025,-4.8483,-2.1041,-2.8558,1.1020,-2.6141,
15.679978,-0.1028,0.7147,-0.4310,-6.2025,-4.8483,-2.1041,-2.8558,1.1020,-2.6141,
15.696959,-0.1028,0.7147,-0.4310,-6.2025,-4.8483,-2.1041,-2.6331,-1.3170,-4.3777,
15.699652,-0.1187,0.9137,-0.4515,-6.2025,-4.8483,-2.1041,-2.6331,-1.3170,-4.3777,
15.703867,-0.1187,0.9137,-0.4515,-4.2403,-3.8939,-3.0304,-2.6331,-1.3170,-4.3777,
15.712002,0.0615,1.2035,-0.6265,-4.2403,-3.8939,-3.0304,-2.6331,-1.3170,-4.3777,
15.731105,0.6683,1.4479,-0.6199,-4.2403,-3.8939,-3.0304,-2.6331,-1.3170,-4.3777,
15.751089,0.6683,1.4479,-0.6199,-4.2403,-3.8939,-3.0304,-2.6980,-1.3366,-4.7646,
15.753766,0.7901,1.4616,-0.6063,-4.2403,-3.8939,-3.0304,-2.6980,-1.3366,-4.7646,
15.756226,0.7901,1.4616,-0.6063,-0.4218,-0.1255,-4.6541,-2.6980,-1.3366,-4.7646,
15.769916,0.3413,1.3444,-0.5892,-0.4218,-0.1255,-4.6541,-2.6980,-1.3366,-4.7646,
15.789366,0.3030,1.4374,-0.5215,-0.4218,-0.1255,-4.6541,-2.6980,-1.3366,-4.7646,
15.809607,0.6119,1.3226,-0.4627,-0.4218,-0.1255,-4.6541,-2.6980,-1.3366,-4.7646,
15.816510,0.6119,1.3226,-0.4627,-0.4218,-0.1255,-4.6541,-2.2055,0.9165,-4.7322,
15.819163,0.6119,1.3226,-0.4627,8.4163,4.8605,-6.6295,-2.2055,0.9165,-4.7322,
15.830327,0.7064,1.0023,-0.1572,8.4163,4.8605,-6.6295,-2.2055,0.9165,-4.7322,
15.848127,0.6514,1.0694,-0.0586,8.4163,4.8605,-6.6295,-2.2055,0.9165,-4.7322,
15.867453,0.6514,1.0694,-0.0586,8.4163,4.8605,-6.6295,-0.7905,0.9387,-2.0118,
15.870299,0.6502,1.0841,-0.1043,8.4163,4.8605,-6.6295,-0.7905,0.9387,-2.0118,
15.874658,0.6502,1.0841,-0.1043,8.7708,3.5942,-4.5836,-0.7905,0.9387,-2.0118,
15.886624,0.5740,0.9442,-0.0779,8.7708,3.5942,-4.5836,-0.7905,0.9387,-2.0118,
15.906380,0.5750,0.9493,-0.1360,8.7708,3.5942,-4.5836,-0.7905,0.9387,-2.0118,
15.925972,0.5750,0.9493,-0.1360,8.7708,3.5942,-4.5836,0.2740,0.2491,1.1521,
15.928148,0.4498,1.1163,-0.3746,8.7708,3.5942,-4.5836,0.2740,0.2491,1.1521,
15.929505,0.4498,1.1163,-0.3746,8.8716,1.1770,-1.4256,0.2740,0.2491,1.1521,
15.965331,-1.1598,1.4789,0.2405,8.8716,1.1770,-1.4256,0.2740,0.2491,1.1521,
15.968861,-1.4848,1.8852,0.4410,8.8716,1.1770,-1.4256,0.2740,0.2491,1.1521,
15.984338,-1.4848,1.8852,0.4410,8.8716,1.1770,-1.4256,0.1482,1.4523,1.7771,
15.986187,0.2439,1.3527,-0.2752,8.8716,1.1770,-1.4256,0.1482,1.4523,1.7771,
15.987018,0.2439,1.3527,-0.2752,1.3810,2.3542,-1.2307,0.1482,1.4523,1.7771,
16.003876,0.4759,1.0814,-0.7293,1.3810,2.3542,-1.2307,0.1482,1.4523,1.7771,
16.026123,0.2141,0.8563,-0.1194,1.3810,2.3542,-1.2307,0.1482,1.4523,1.7771,
16.045087,0.0352,0.8350,0.5606,1.3810,2.3542,-1.2307,0.1482,1.4523,1.7771,
16.048284,0.0352,0.8350,0.5606,1.3810,2.3542,-1.2307,0.3748,0.7939,1.8279,
16.050698,0.0352,0.8350,0.5606,-1.6305,4.6593,-1.8888,0.3748,0.7939,1.8279,
16.064342,-0.0918,1.0318,0.3103,-1.6305,4.6593,-1.8888,0.3748,0.7939,1.8279,
16.082823,0.0283,1.0108,-0.0520,-1.6305,4.6593,-1.8888,0.3748,0.7939,1.8279,
16.101645,0.2586,0.9654,-0.0845,-1.6305,4.6593,-1.8888,0.3748,0.7939,1.8279,
16.105794,0.2586,0.9654,-0.0845,-1.6305,4.6593,-1.8888,0.3335,-0.3437,1.4026,
16.108333,0.2586,0.9654,-0.0845,0.5992,-0.5833,2.5434,0.3335,-0.3437,1.4026,
16.120241,0.2207,1.0489,-0.0908,0.5992,-0.5833,2.5434,0.3335,-0.3437,1.4026,
16.139511,0.1402,1.0633,-0.1030,0.5992,-0.5833,2.5434,0.3335,-0.3437,1.4026,
16.161063,0.1402,1.0633,-0.1030,0.5992,-0.5833,2.5434,0.2005,0.0002,0.8962,
16.164655,0.0996,0.9962,-0.0281,0.5992,-0.5833,2.5434,0.2005,0.0002,0.8962,
16.166949,0.0996,0.9962,-0.0281,1.2267,0.4066,-0.5351,0.2005,0.0002,0.8962,
16.178452,0.1138,0.9754,0.0200,1.2267,0.4066,-0.5351,0.2005,0.0002,0.8962,
16.198613,-0.0261,1.0023,0.0259,1.2267,0.4066,-0.5351,0.2005,0.0002,0.8962,
16.217985,-0.0261,1.0023,0.0259,1.2267,0.4066,-0.5351,0.1566,0.4563,0.6398,
16.221266,-0.0869,0.9898,0.0850,1.2267,0.4066,-0.5351,0.1566,0.4563,0.6398,
16.222631,-0.0869,0.9898,0.0850,0.3575,0.4558,-0.0850,0.1566,0.4563,0.6398,
16.236643,0.0847,0.9693,0.0105,0.3575,0.4558,-0.0850,0.1566,0.4563,0.6398,
16.257204,0.1128,1.0292,-0.0256,0.3575,0.4558,-0.0850,0.1566,0.4563,0.6398,
16.276239,0.1128,1.0292,-0.0256,0.3575,0.4558,-0.0850,0.1973,-0.0831,0.7858,
16.278324,0.0444,1.0377,-0.0239,0.3575,0.4558,-0.0850,0.1973,-0.0831,0.7858,
16.280202,0.0444,1.0377,-0.0239,-1.2985,0.2616,0.7758,0.1973,-0.0831,0.7858,
16.296643,0.0628,0.9891,0.0115,-1.2985,0.2616,0.7758,0.1973,-0.0831,0.7858,
16.315345,0.1089,0.9503,0.0313,-1.2985,0.2616,0.7758,0.1973,-0.0831,0.7858,
16.335912,0.1089,0.9503,0.0313,-0.9744,0.6465,0.4240,0.1973,-0.0831,0.7858,
16.339256,0.1858,0.9569,0.0256,-0.9744,0.6465,0.4240,0.1973,-0.0831,0.7858,
16.341344,0.1858,0.9569,0.0256,-0.9744,0.6465,0.4240,0.3026,-0.1262,0.9273,
16.354414,0.1433,1.0118,0.0071,-0.9744,0.6465,0.4240,0.3026,-0.1262,0.9273,
16.373226,0.1148,1.0438,-0.0256,-0.9744,0.6465,0.4240,0.3026,-0.1262,0.9273,
16.393561,0.1338,1.0399,-0.0808,-0.9744,0.6465,0.4240,0.3026,-0.1262,0.9273,
16.396823,0.1338,1.0399,-0.0808,-0.9744,0.6465,0.4240,0.3582,-0.3076,1.0108,
16.399106,0.1338,1.0399,-0.0808,-0.7839,0.3231,0.9704,0.3582,-0.3076,1.0108,
16.413185,0.1458,1.0238,-0.1170,-0.7839,0.3231,0.9704,0.3582,-0.3076,1.0108,
16.432673,0.1807,1.0323,-0.0889,-0.7839,0.3231,0.9704,0.3582,-0.3076,1.0108,
16.450432,0.1963,1.0646,-0.0254,-0.7839,0.3231,0.9704,0.3582,-0.3076,1.0108,
16.452555,0.1963,1.0646,-0.0254,-0.7839,0.3231,0.9704,0.4478,-0.3131,1.2087,
16.453915,0.1963,1.0646,-0.0254,-1.5269,1.1217,0.3104,0.4478,-0.3131,1.2087,
16.470674,0.2049,1.0860,0.0359,-1.5269,1.1217,0.3104,0.4478,-0.3131,1.2087,
16.489693,0.1214,1.1070,0.0366,-1.5269,1.1217,0.3104,0.4478,-0.3131,1.2087,
16.510949,0.1218,1.1449,-0.0132,-1.5269,1.1217,0.3104,0.4478,-0.3131,1.2087,
16.513855,0.1218,1.1449,-0.0132,-1.5269,1.1217,0.3104,0.7473,-0.3956,1.4787,
16.517751,0.1218,1.1449,-0.0132,-1.6228,1.6700,1.2234,0.7473,-0.3956,1.4787,
16.531155,0.1826,1.2794,-0.0679,-1.6228,1.6700,1.2234,0.7473,-0.3956,1.4787,
16.548402,0.0320,1.5763,-0.0649,-1.6228,1.6700,1.2234,0.7473,-0.3956,1.4787,
16.567069,-0.3111,1.6916,-0.1245,-1.6228,1.6700,1.2234,0.7473,-0.3956,1.4787,
16.568485,-0.3111,1.6916,-0.1245,-1.6228,1.6700,1.2234,1.1814,-0.9322,1.8298,
16.569311,-0.3111,1.6916,-0.1245,-2.8845,3.3014,2.0969,1.1814,-0.9322,1.8298,
16.586356,-0.5210,1.6222,-0.1929,-2.8845,3.3014,2.0969,1.1814,-0.9322,1.8298,
16.606110,-0.6644,1.6000,-0.1809,-2.8845,3.3014,2.0969,1.1814,-0.9322,1.8298,
16.626158,-0.2854,1.4108,-0.1465,-2.8845,3.3014,2.0969,1.1814,-0.9322,1.8298,
16.628495,-0.2854,1.4108,-0.1465,-7.7214,8.5320,1.9446,1.1814,-0.9322,1.8298,
16.630090,-0.2854,1.4108,-0.1465,-7.7214,8.5320,1.9446,1.4315,-1.2016,2.5445,
16.644966,0.7015,1.1529,-0.2124,-7.7214,8.5320,1.9446,1.4315,-1.2016,2.5445,
16.668416,1.1639,1.1276,-0.2864,-7.7214,8.5320,1.9446,1.4315,-1.2016,2.5445,
16.684786,0.8978,1.0736,-0.1370,-7.7214,8.5320,1.9446,1.4315,-1.2016,2.5445,
16.687757,0.8978,1.0736,-0.1370,-7.7214,8.5320,1.9446,1.0959,-2.1091,2.9599,
16.689782,0.8978,1.0736,-0.1370,-6.5270,7.2251,2.5086,1.0959,-2.1091,2.9599,
16.704855,0.5350,0.6588,-0.0496,-6.5270,7.2251,2.5086,1.0959,-2.1091,2.9599,
16.724885,0.3677,0.4021,-0.1211,-6.5270,7.2251,2.5086,1.0959,-2.1091,2.9599,
16.745187,0.3677,0.4021,-0.1211,2.5216,3.2109,2.8371,1.0959,-2.1091,2.9599,
16.748460,0.1189,0.3330,-0.0676,2.5216,3.2109,2.8371,1.0959,-2.1091,2.9599,
16.750029,0.1189,0.3330,-0.0676,2.5216,3.2109,2.8371,0.0315,-0.4306,0.8630,
16.764183,-0.0979,0.2813,0.0364,2.5216,3.2109,2.8371,0.0315,-0.4306,0.8630,
16.782282,0.0447,0.2459,-0.1497,2.5216,3.2109,2.8371,0.0315,-0.4306,0.8630,
16.802682,0.0447,0.2459,-0.1497,2.5216,3.2109,2.8371,-0.9450,0.1283,-1.0836,
16.807876,0.2735,0.3714,-0.3213,2.5216,3.2109,2.8371,-0.9450,0.1283,-1.0836,
16.810862,0.2735,0.3714,-0.3213,-4.2424,-3.3502,3.4304,-0.9450,0.1283,-1.0836,
16.824732,0.2827,0.5137,-0.3338,-4.2424,-3.3502,3.4304,-0.9450,0.1283,-1.0836,
16.839379,0.2295,0.4830,-0.1775,-4.2424,-3.3502,3.4304,-0.9450,0.1283,-1.0836,
16.861485,0.2295,0.4830,-0.1775,-4.2424,-3.3502,3.4304,-1.7626,0.6995,-2.9716,
16.864346,0.1807,0.4368,-0.0173,-4.2424,-3.3502,3.4304,-1.7626,0.6995,-2.9716,
16.866180,0.1807,0.4368,-0.0173,-2.3825,-4.1233,0.3420,-1.7626,0.6995,-2.9716,
16.879870,0.1577,0.5508,0.0022,-2.3825,-4.1233,0.3420,-1.7626,0.6995,-2.9716,
16.898535,0.0239,0.7728,-0.0398,-2.3825,-4.1233,0.3420,-1.7626,0.6995,-2.9716,
16.918915,0.0239,0.7728,-0.0398,-0.2252,-4.1066,1.3077,-1.7626,0.6995,-2.9716,
16.922812,0.0005,0.9962,-0.2635,-0.2252,-4.1066,1.3077,-1.7626,0.6995,-2.9716,
16.925592,0.0005,0.9962,-0.2635,-0.2252,-4.1066,1.3077,-2.0293,0.0265,-4.5949,
16.936726,0.2381,1.2760,-0.3528,-0.2252,-4.1066,1.3077,-2.0293,0.0265,-4.5949,
16.955684,0.4864,1.5497,-0.4004,-0.2252,-4.1066,1.3077,-2.0293,0.0265,-4.5949,
16.975863,0.6553,1.8283,-0.4781,-0.2252,-4.1066,1.3077,-2.0293,0.0265,-4.5949,
16.978285,0.6553,1.8283,-0.4781,-0.2252,-4.1066,1.3077,-2.7245,-0.7933,-4.9792,
16.979945,0.6553,1.8283,-0.4781,1.4763,0.6190,-1.6179,-2.7245,-0.7933,-4.9792,
16.994920,0.8387,1.6679,-0.4893,1.4763,0.6190,-1.6179,-2.7245,-0.7933,-4.9792,
17.015224,0.9322,1.2614,-0.3684,1.4763,0.6190,-1.6179,-2.7245,-0.7933,-4.9792,
17.033975,0.7586,1.1664,-0.3247,1.4763,0.6190,-1.6179,-2.7245,-0.7933,-4.9792,
17.036285,0.7586,1.1664,-0.3247,1.4763,0.6190,-1.6179,-2.6123,1.6789,-4.3119,
17.037750,0.7586,1.1664,-0.3247,9.2608,7.4944,-5.0468,-2.6123,1.6789,-4.3119,
17.053541,0.5743,1.1481,-0.2381,9.2608,7.4944,-5.0468,-2.6123,1.6789,-4.3119,
17.072471,0.5047,1.0204,-0.2488,9.2608,7.4944,-5.0468,-2.6123,1.6789,-4.3119,
17.091818,0.6343,0.9574,-0.3235,9.2608,7.4944,-5.0468,-2.6123,1.6789,-4.3119,
17.095215,0.6343,0.9574,-0.3235,9.2608,7.4944,-5.0468,-1.1704,1.9340,-1.4426,
17.097034,0.6343,0.9574,-0.3235,10.8376,2.9611,-3.7820,-1.1704,1.9340,-1.4426,
17.115993,0.6978,0.9205,-0.4429,10.8376,2.9611,-3.7820,-1.1704,1.9340,-1.4426,
17.131776,0.5472,0.9466,-0.6539,10.8376,2.9611,-3.7820,-1.1704,1.9340,-1.4426,
17.152668,0.5472,0.9466,-0.6539,8.6895,0.5040,-3.6643,-1.1704,1.9340,-1.4426,
17.154758,-0.2063,1.1703,-0.4170,8.6895,0.5040,-3.6643,-1.1704,1.9340,-1.4426,
17.155977,-0.2063,1.1703,-0.4170,8.6895,0.5040,-3.6643,0.0554,1.5736,1.2786,
17.169830,-1.6354,1.4665,0.1270,8.6895,0.5040,-3.6643,0.0554,1.5736,1.2786,
17.189068,-0.8604,1.5048,0.1128,8.6895,0.5040,-3.6643,0.0554,1.5736,1.2786,
17.209936,0.1174,1.4486,-0.1016,8.6895,0.5040,-3.6643,0.0554,1.5736,1.2786,
17.212923,0.1174,1.4486,-0.1016,8.6895,0.5040,-3.6643,0.1403,2.5614,1.3549,
17.214893,0.1174,1.4486,-0.1016,-2.1992,2.5131,-2.9594,0.1403,2.5614,1.3549,
17.234865,0.1406,1.1232,-0.2879,-2.1992,2.5131,-2.9594,0.1403,2.5614,1.3549,
17.253078,-0.0129,0.7230,0.0105,-2.1992,2.5131,-2.9594,0.1403,2.5614,1.3549,
17.267068,0.0352,0.7972,0.1560,-2.1992,2.5131,-2.9594,0.1403,2.5614,1.3549,
17.268852,0.0352,0.7972,0.1560,-2.1992,2.5131,-2.9594,0.4697,0.4763,1.6811,
17.269746,0.0352,0.7972,0.1560,-0.8383,3.9120,-0.4639,0.4697,0.4763,1.6811,
17.286514,0.1094,1.0133,0.0418,-0.8383,3.9120,-0.4639,0.4697,0.4763,1.6811,
17.306805,0.2281,1.0707,-0.0911,-0.8383,3.9120,-0.4639,0.4697,0.4763,1.6811,
17.326857,0.1477,1.0069,-0.0457,-0.8383,3.9120,-0.4639,0.4697,0.4763,1.6811,
17.330632,0.1477,1.0069,-0.0457,0.9541,-1.1571,1.1856,0.4697,0.4763,1.6811,
17.334490,0.1477,1.0069,-0.0457,0.9541,-1.1571,1.1856,0.1621,-0.1107,1.0768,
17.346347,-0.1143,1.0372,-0.0996,0.9541,-1.1571,1.1856,0.1621,-0.1107,1.0768,
17.364654,-0.1875,1.1029,-0.0752,0.9541,-1.1571,1.1856,0.1621,-0.1107,1.0768,
17.384018,-0.1875,1.1029,-0.0752,0.9541,-1.1571,1.1856,0.1771,0.5423,0.8414,
17.386337,-0.1150,1.0445,-0.0530,0.9541,-1.1571,1.1856,0.1771,0.5423,0.8414,
17.387247,-0.1150,1.0445,-0.0530,0.8823,0.7215,-0.1594,0.1771,0.5423,0.8414,
17.402803,0.0325,0.9923,-0.0537,0.8823,0.7215,-0.1594,0.1771,0.5423,0.8414,
17.422208,0.0825,1.0045,-0.0466,0.8823,0.7215,-0.1594,0.1771,0.5423,0.8414,
17.441958,0.1365,0.9754,-0.0554,0.8823,0.7215,-0.1594,0.1771,0.5423,0.8414,
17.444646,0.1365,0.9754,-0.0554,0.8823,0.7215,-0.1594,0.2240,-0.0099,0.9043,
17.445653,0.1365,0.9754,-0.0554,-1.3290,0.8097,0.1409,0.2240,-0.0099,0.9043,
17.465120,0.1609,0.9442,-0.0549,-1.3290,0.8097,0.1409,0.2240,-0.0099,0.9043,
17.481563,0.1262,0.9891,-0.0686,-1.3290,0.8097,0.1409,0.2240,-0.0099,0.9043,
17.500430,0.0840,0.9886,-0.0559,-1.3290,0.8097,0.1409,0.2240,-0.0099,0.9043,
17.502412,0.0840,0.9886,-0.0559,-1.3290,0.8097,0.1409,0.2030,0.1012,0.6809,
17.503333,0.0840,0.9886,-0.0559,0.4081,0.1377,0.3244,0.2030,0.1012,0.6809,
17.520029,0.1448,0.9481,-0.0320,0.4081,0.1377,0.3244,0.2030,0.1012,0.6809,
17.538944,0.2071,0.9388,-0.0322,0.4081,0.1377,0.3244,0.2030,0.1012,0.6809,
17.558664,0.1885,0.9532,-0.0410,0.4081,0.1377,0.3244,0.2030,0.1012,0.6809,
17.559499,0.1885,0.9532,-0.0410,0.4081,0.1377,0.3244,0.1543,-0.0546,0.5315,
17.559853,0.1885,0.9532,-0.0410,0.0376,0.1785,0.4070,0.1543,-0.0546,0.5315,
17.577655,0.1196,0.9747,-0.0635,0.0376,0.1785,0.4070,0.1543,-0.0546,0.5315,
17.597284,0.0518,1.0023,-0.0588,0.0376,0.1785,0.4070,0.1543,-0.0546,0.5315,
17.617097,0.0410,1.0089,-0.0376,0.0376,0.1785,0.4070,0.1543,-0.0546,0.5315,
17.617747,0.0410,1.0089,-0.0376,0.0376,0.1785,0.4070,0.2177,0.1049,0.4246,
17.618151,0.0410,1.0089,-0.0376,0.3176,0.0281,0.5729,0.2177,0.1049,0.4246,
17.637028,0.0554,0.9845,-0.0188,0.3176,0.0281,0.5729,0.2177,0.1049,0.4246,
17.656191,0.1004,0.9459,-0.0232,0.3176,0.0281,0.5729,0.2177,0.1049,0.4246,
17.675680,0.1004,0.9459,-0.0232,0.3176,0.0281,0.5729,0.3692,-0.2327,0.6561,
17.677134,0.1004,0.9459,-0.0232,-1.2010,0.5235,0.8501,0.3692,-0.2327,0.6561,
17.681537,0.1299,0.9659,-0.0618,-1.2010,0.5235,0.8501,0.3692,-0.2327,0.6561,
17.733533,0.1299,0.9659,-0.0618,-1.2010,0.5235,0.8501,0.5327,-0.4524,0.8304,
17.734793,0.1284,1.0126,-0.0789,-1.2010,0.5235,0.8501,0.5327,-0.4524,0.8304,
17.735482,0.1558,1.0003,-0.0571,-1.2010,0.5235,0.8501,0.5327,-0.4524,0.8304,
17.737414,0.1494,0.9605,-0.0459,-1.2010,0.5235,0.8501,0.5327,-0.4524,0.8304,
17.738052,0.1494,0.9605,-0.0459,-0.9066,0.4184,1.0101,0.5327,-0.4524,0.8304,
17.791693,0.1433,0.9886,-0.0728,-0.9066,0.4184,1.0101,0.5327,-0.4524,0.8304,
17.793433,0.1367,1.0172,-0.0669,-0.9066,0.4184,1.0101,0.5327,-0.4524,0.8304,
17.794269,0.1519,0.9969,-0.0393,-0.9066,0.4184,1.0101,0.5327,-0.4524,0.8304,
17.794950,0.1519,0.9969,-0.0393,-0.9066,0.4184,1.0101,0.7980,-0.7063,1.0809,
17.795572,0.1519,0.9969,-0.0393,-1.0892,0.7190,1.4623,0.7980,-0.7063,1.0809,
17.850038,0.1519,0.9969,-0.0393,-1.0892,0.7190,1.4623,1.0480,-0.9678,1.4264,
17.852008,0.1262,1.1144,-0.0022,-1.0892,0.7190,1.4623,1.0480,-0.9678,1.4264,
17.852941,0.0659,1.4467,0.0090,-1.0892,0.7190,1.4623,1.0480,-0.9678,1.4264,
17.853599,0.0742,1.7883,0.0823,-1.0892,0.7190,1.4623,1.0480,-0.9678,1.4264,
17.854097,0.0742,1.7883,0.0823,-1.7615,1.6591,2.3382,1.0480,-0.9678,1.4264,
17.908214,0.0742,1.7883,0.0823,-1.7615,1.6591,2.3382,0.3046,-2.8755,2.3415,
17.910070,0.0742,1.7883,0.0823,-2.7955,8.2475,4.1151,0.3046,-2.8755,2.3415,
17.911106,0.1318,1.7932,0.1419,-2.7955,8.2475,4.1151,0.3046,-2.8755,2.3415,
17.911761,0.0325,1.4481,0.0498,-2.7955,8.2475,4.1151,0.3046,-2.8755,2.3415,
17.912415,0.0757,1.0443,0.0369,-2.7955,8.2475,4.1151,0.3046,-2.8755,2.3415,
17.966724,0.3831,0.8951,-0.0693,-2.7955,8.2475,4.1151,0.3046,-2.8755,2.3415,
17.967562,0.4659,0.8565,-0.1870,-2.7955,8.2475,4.1151,0.3046,-2.8755,2.3415,
17.968207,0.1624,0.6478,-0.2908,-2.7955,8.2475,4.1151,0.3046,-2.8755,2.3415,
17.968984,0.1624,0.6478,-0.2908,-2.7955,8.2475,4.1151,-1.3851,-4.8996,2.4486,
17.970020,0.1624,0.6478,-0.2908,-2.1567,3.0828,3.7825,-1.3851,-4.8996,2.4486,
18.025206,0.1624,0.6478,-0.2908,-2.1567,3.0828,3.7825,-2.9560,-5.4394,1.7039,
18.027354,-0.0195,0.5587,-0.3641,-2.1567,3.0828,3.7825,-2.9560,-5.4394,1.7039,
18.028320,-0.1497,0.5345,-0.6920,-2.1567,3.0828,3.7825,-2.9560,-5.4394,1.7039,
18.029161,-0.2193,0.5628,-0.9554,-2.1567,3.0828,3.7825,-2.9560,-5.4394,1.7039,
18.029995,-0.2193,0.5628,-0.9554,-1.3888,-1.4888,0.7135,-2.9560,-5.4394,1.7039,
18.083690,0.0530,0.6324,-0.9115,-1.3888,-1.4888,0.7135,-2.9560,-5.4394,1.7039,
18.085511,0.0332,0.6834,-0.9513,-1.3888,-1.4888,0.7135,-2.9560,-5.4394,1.7039,
18.086798,-0.2957,0.7701,-0.8961,-1.3888,-1.4888,0.7135,-2.9560,-5.4394,1.7039,
18.088214,-0.2957,0.7701,-0.8961,-4.2729,-2.8668,-5.6649,-2.9560,-5.4394,1.7039,
18.089529,-0.2957,0.7701,-0.8961,-4.2729,-2.8668,-5.6649,-3.3775,-4.0763,1.3755,
18.141530,-0.2957,0.7701,-0.8961,-4.2729,-2.8668,-5.6649,-2.6760,-4.1028,0.3167,
18.144402,-0.4747,0.7779,-0.8863,-4.2729,-2.8668,-5.6649,-2.6760,-4.1028,0.3167,
18.145580,-0.4515,0.6939,-0.9410,-4.2729,-2.8668,-5.6649,-2.6760,-4.1028,0.3167,
18.146593,-0.2547,0.7266,-0.9798,-4.2729,-2.8668,-5.6649,-2.6760,-4.1028,0.3167,
18.147696,-0.2547,0.7266,-0.9798,-5.1535,-1.5149,-6.7403,-2.6760,-4.1028,0.3167,
18.199868,-0.0786,0.8211,-0.9413,-5.1535,-1.5149,-6.7403,-2.6760,-4.1028,0.3167,
18.201711,-0.0076,0.8902,-0.8609,-5.1535,-1.5149,-6.7403,-2.6760,-4.1028,0.3167,
18.202905,0.0347,0.9476,-0.7464,-5.1535,-1.5149,-6.7403,-2.6760,-4.1028,0.3167,
18.203715,0.0347,0.9476,-0.7464,-4.5959,-1.7120,-7.4235,-2.6760,-4.1028,0.3167,
18.204605,0.0347,0.9476,-0.7464,-4.5959,-1.7120,-7.4235,-1.8479,-4.0105,-0.3307,
18.258349,0.0347,0.9476,-0.7464,-4.5959,-1.7120,-7.4235,-1.1576,-2.3074,-1.1655,
18.260152,0.0347,0.9476,-0.7464,-1.0136,-0.1271,-5.6915,-1.1576,-2.3074,-1.1655,
18.261305,0.0166,0.9571,-0.6341,-1.0136,-0.1271,-5.6915,-1.1576,-2.3074,-1.1655,
18.262470,-0.0728,0.9547,-0.5525,-1.0136,-0.1271,-5.6915,-1.1576,-2.3074,-1.1655,
18.263473,-0.0921,0.9898,-0.4700,-1.0136,-0.1271,-5.6915,-1.1576,-2.3074,-1.1655,
18.316656,-0.0921,0.9898,-0.4700,-1.0136,-0.1271,-5.6915,-0.8512,-2.2439,-1.1502,
18.318191,-0.0452,1.0238,-0.3672,-1.0136,-0.1271,-5.6915,-0.8512,-2.2439,-1.1502,
18.318916,0.0159,1.0406,-0.2796,-1.0136,-0.1271,-5.6915,-0.8512,-2.2439,-1.1502,
18.319670,0.0420,1.0592,-0.2066,-1.0136,-0.1271,-5.6915,-0.8512,-2.2439,-1.1502,
18.320394,0.0420,1.0592,-0.2066,-1.0105,0.3117,-3.2199,-0.8512,-2.2439,-1.1502,
18.375418,0.0127,1.0348,-0.1301,-1.0105,0.3117,-3.2199,-0.8512,-2.2439,-1.1502,
18.377072,-0.0217,0.9879,-0.0935,-1.0105,0.3117,-3.2199,-0.8512,-2.2439,-1.1502,
18.378307,-0.0342,1.0008,-0.0872,-1.0105,0.3117,-3.2199,-0.8512,-2.2439,-1.1502,
18.379402,-0.0342,1.0008,-0.0872,0.5699,0.7951,-1.0704,-0.8512,-2.2439,-1.1502,
18.381206,-0.0342,1.0008,-0.0872,0.5699,0.7951,-1.0704,-0.7090,-2.7917,-0.8947,
18.433448,-0.0342,1.0008,-0.0872,0.5699,0.7951,-1.0704,-0.4852,-3.7782,-0.5591,
18.435104,-0.0078,1.0082,-0.0601,0.5699,0.7951,-1.0704,-0.4852,-3.7782,-0.5591,
18.436272,0.0562,0.9833,-0.0439,0.5699,0.7951,-1.0704,-0.4852,-3.7782,-0.5591,
18.437282,0.1314,0.9259,0.0017,0.5699,0.7951,-1.0704,-0.4852,-3.7782,-0.5591,
18.438422,0.1314,0.9259,0.0017,0.5912,0.3367,-0.2400,-0.4852,-3.7782,-0.5591,
18.493600,0.1314,0.9259,0.0017,0.5912,0.3367,-0.2400,-0.2916,-3.7051,-0.1022,
18.497906,0.2168,0.9256,0.0215,0.5912,0.3367,-0.2400,-0.2916,-3.7051,-0.1022,
18.500723,0.2530,0.9503,-0.0037,0.5912,0.3367,-0.2400,-0.2916,-3.7051,-0.1022,
18.504151,0.3011,0.8680,0.0076,0.5912,0.3367,-0.2400,-0.2916,-3.7051,-0.1022,
18.507027,0.3011,0.8680,0.0076,2.2175,-0.1911,0.1226,-0.2916,-3.7051,-0.1022,
18.551455,0.4009,0.8768,-0.0342,2.2175,-0.1911,0.1226,-0.2916,-3.7051,-0.1022,
18.555413,0.5254,0.9486,-0.0974,2.2175,-0.1911,0.1226,-0.2916,-3.7051,-0.1022,
18.558057,0.4488,0.9759,0.0151,2.2175,-0.1911,0.1226,-0.2916,-3.7051,-0.1022,
18.562223,0.4488,0.9759,0.0151,2.2175,-0.1911,0.1226,0.0094,-2.8332,0.6064,
18.564743,0.4488,0.9759,0.0151,3.6378,-0.6625,-0.0319,0.0094,-2.8332,0.6064,
18.609318,0.1089,1.0336,0.2639,3.6378,-0.6625,-0.0319,0.0094,-2.8332,0.6064,
18.611273,0.0330,1.2194,0.3597,3.6378,-0.6625,-0.0319,0.0094,-2.8332,0.6064,
18.614031,0.0190,1.3102,-0.0071,3.6378,-0.6625,-0.0319,0.0094,-2.8332,0.6064,
18.616474,0.0190,1.3102,-0.0071,3.6691,0.1810,0.5582,0.0094,-2.8332,0.6064,
18.622750,0.0190,1.3102,-0.0071,3.6691,0.1810,0.5582,-0.1784,0.5390,0.5899,
18.667870,0.0190,1.3102,-0.0071,-0.9237,2.5065,0.7848,-0.1784,0.5390,0.5899,
18.669729,-0.2493,1.1522,-0.1306,-0.9237,2.5065,0.7848,-0.1784,0.5390,0.5899,
18.670949,-0.1841,0.9027,-0.1231,-0.9237,2.5065,0.7848,-0.1784,0.5390,0.5899,
18.672866,-0.1865,0.9774,-0.2151,-0.9237,2.5065,0.7848,-0.1784,0.5390,0.5899,
18.674387,-0.1865,0.9774,-0.2151,-0.9237,2.5065,0.7848,0.2048,0.9735,0.7689,
18.726867,-0.0029,1.1659,0.0198,-0.9237,2.5065,0.7848,0.2048,0.9735,0.7689,
18.728543,0.1721,1.1529,0.0847,-0.9237,2.5065,0.7848,0.2048,0.9735,0.7689,
18.729521,0.1719,0.9879,0.0772,-0.9237,2.5065,0.7848,0.2048,0.9735,0.7689,
18.730410,0.1719,0.9879,0.0772,-0.9237,2.5065,0.7848,-0.1244,-0.1213,0.9691,
18.731816,0.1719,0.9879,0.0772,-2.0030,0.4527,-1.0252,-0.1244,-0.1213,0.9691,
18.744519,0.0610,0.9388,0.0200,-2.0030,0.4527,-1.0252,-0.1244,-0.1213,0.9691,
18.764151,0.0491,1.0209,0.0142,-2.0030,0.4527,-1.0252,-0.1244,-0.1213,0.9691,
18.783801,0.1599,1.0709,0.0327,-2.0030,0.4527,-1.0252,-0.1244,-0.1213,0.9691,
18.785759,0.1599,1.0709,0.0327,-2.0030,0.4527,-1.0252,-0.1087,-0.4229,0.7485,
18.787357,0.1599,1.0709,0.0327,0.1245,0.5959,0.5647,-0.1087,-0.4229,0.7485,
18.804326,0.2344,0.9955,0.1006,0.1245,0.5959,0.5647,-0.1087,-0.4229,0.7485,
18.823460,0.1592,0.9603,0.1384,0.1245,0.5959,0.5647,-0.1087,-0.4229,0.7485,
18.842838,0.1509,0.9857,0.1172,0.1245,0.5959,0.5647,-0.1087,-0.4229,0.7485,
18.846688,0.1509,0.9857,0.1172,0.1245,0.5959,0.5647,-0.0517,-0.4066,0.5374,
18.849832,0.1509,0.9857,0.1172,-0.0462,0.6519,0.4483,-0.0517,-0.4066,0.5374,
18.865236,0.1922,0.9896,0.0950,-0.0462,0.6519,0.4483,-0.0517,-0.4066,0.5374,
18.882627,0.1817,0.9840,0.0523,-0.0462,0.6519,0.4483,-0.0517,-0.4066,0.5374,
18.902993,0.1736,1.0082,0.0042,-0.0462,0.6519,0.4483,-0.0517,-0.4066,0.5374,
18.904682,0.1736,1.0082,0.0042,-0.0462,0.6519,0.4483,-0.0049,-0.5172,0.3659,
18.905540,0.1736,1.0082,0.0042,-0.0544,0.1874,1.1384,-0.0049,-0.5172,0.3659,
18.919883,0.1765,1.0187,0.0098,-0.0544,0.1874,1.1384,-0.0049,-0.5172,0.3659,
18.939415,0.1609,0.9916,0.0532,-0.0544,0.1874,1.1384,-0.0049,-0.5172,0.3659,
18.958739,0.1384,0.9793,0.0869,-0.0544,0.1874,1.1384,-0.0049,-0.5172,0.3659,
18.961055,0.1384,0.9793,0.0869,-0.0544,0.1874,1.1384,0.0639,-0.4616,0.2953,
18.962593,0.1384,0.9793,0.0869,-0.1168,0.4561,0.2872,0.0639,-0.4616,0.2953,
18.981894,0.1350,0.9793,0.0723,-0.1168,0.4561,0.2872,0.0639,-0.4616,0.2953,
18.999543,0.1389,0.9884,0.0525,-0.1168,0.4561,0.2872,0.0639,-0.4616,0.2953,
19.019624,0.1389,0.9884,0.0525,-0.6221,0.2965,0.8816,0.0639,-0.4616,0.2953,
19.023380,0.1096,0.9881,0.0332,-0.6221,0.2965,0.8816,0.0639,-0.4616,0.2953,
19.025351,0.1096,0.9881,0.0332,-0.6221,0.2965,0.8816,0.1360,-0.5045,0.3694,
19.037965,0.1585,0.9801,0.0388,-0.6221,0.2965,0.8816,0.1360,-0.5045,0.3694,
19.055888,0.1663,0.9928,0.0481,-0.6221,0.2965,0.8816,0.1360,-0.5045,0.3694,
19.075406,0.0957,0.9779,0.0212,-0.6221,0.2965,0.8816,0.1360,-0.5045,0.3694,
19.077516,0.0957,0.9779,0.0212,-1.0001,0.3872,0.7388,0.1360,-0.5045,0.3694,
19.078977,0.0957,0.9779,0.0212,-1.0001,0.3872,0.7388,0.2429,-0.1997,0.5683,
19.095470,0.1426,0.9703,-0.0164,-1.0001,0.3872,0.7388,0.2429,-0.1997,0.5683,
19.118086,0.2903,0.9671,-0.0286,-1.0001,0.3872,0.7388,0.2429,-0.1997,0.5683,
19.135901,0.2903,0.9671,-0.0286,-1.4042,0.4530,0.6823,0.2429,-0.1997,0.5683,
19.138573,0.2705,1.0082,-0.0149,-1.4042,0.4530,0.6823,0.2429,-0.1997,0.5683,
19.139567,0.2705,1.0082,-0.0149,-1.4042,0.4530,0.6823,0.2516,-0.3608,0.7986,
19.152907,0.1909,1.0321,-0.0193,-1.4042,0.4530,0.6823,0.2516,-0.3608,0.7986,
19.172307,0.2056,1.0189,-0.0254,-1.4042,0.4530,0.6823,0.2516,-0.3608,0.7986,
19.192836,0.2056,1.0189,-0.0254,-1.4042,0.4530,0.6823,0.2616,-0.4457,0.8813,
19.195850,0.2056,1.0189,-0.0254,-0.7084,0.8172,0.5109,0.2616,-0.4457,0.8813,
19.198545,0.2034,1.0292,-0.0247,-0.7084,0.8172,0.5109,0.2616,-0.4457,0.8813,
19.212462,0.2197,1.0428,-0.0291,-0.7084,0.8172,0.5109,0.2616,-0.4457,0.8813,
19.236846,0.2405,1.0760,-0.0547,-0.7084,0.8172,0.5109,0.2616,-0.4457,0.8813,
19.251750,0.2158,1.1175,-0.1045,-0.7084,0.8172,0.5109,0.2616,-0.4457,0.8813,
19.254404,0.2158,1.1175,-0.1045,-0.7084,0.8172,0.5109,0.2885,-0.8487,1.1637,
19.255661,0.2158,1.1175,-0.1045,-1.6427,1.3166,0.7655,0.2885,-0.8487,1.1637,
19.270351,0.2058,1.1163,-0.1370,-1.6427,1.3166,0.7655,0.2885,-0.8487,1.1637,
19.289770,0.2132,1.1278,-0.0955,-1.6427,1.3166,0.7655,0.2885,-0.8487,1.1637,
19.310450,0.2132,1.1278,-0.0955,-1.6427,1.3166,0.7655,0.4976,-0.8283,1.5038,
19.316353,0.1944,1.2167,-0.0247,-1.6427,1.3166,0.7655,0.4976,-0.8283,1.5038,
19.318750,0.1944,1.2167,-0.0247,-2.1901,2.3828,0.4921,0.4976,-0.8283,1.5038,
19.335040,0.0479,1.5045,0.0584,-2.1901,2.3828,0.4921,0.4976,-0.8283,1.5038,
19.351988,-0.2183,1.7248,0.0921,-2.1901,2.3828,0.4921,0.4976,-0.8283,1.5038,
19.367204,-0.2183,1.7248,0.0921,-3.6155,4.6892,1.8996,0.4976,-0.8283,1.5038,
19.368862,-0.2183,1.7248,0.0921,-3.6155,4.6892,1.8996,0.9181,-0.8635,1.9000,
19.370968,-0.5355,1.5531,-0.0359,-3.6155,4.6892,1.8996,0.9181,-0.8635,1.9000,
19.386436,-0.6470,1.4816,-0.1565,-3.6155,4.6892,1.8996,0.9181,-0.8635,1.9000,
19.407922,-0.3853,1.3629,-0.2842,-3.6155,4.6892,1.8996,0.9181,-0.8635,1.9000,
19.425115,-0.3853,1.3629,-0.2842,-3.6155,4.6892,1.8996,0.8420,-1.9427,2.8992,
19.427081,0.5372,1.2164,-0.4014,-3.6155,4.6892,1.8996,0.8420,-1.9427,2.8992,
19.428151,0.5372,1.2164,-0.4014,-10.4498,8.5917,2.7278,0.8420,-1.9427,2.8992,
19.447140,1.0651,1.3559,-0.3540,-10.4498,8.5917,2.7278,0.8420,-1.9427,2.8992,
19.464035,0.9176,1.3495,-0.2000,-10.4498,8.5917,2.7278,0.8420,-1.9427,2.8992,
19.484851,0.5479,0.7994,-0.1345,-10.4498,8.5917,2.7278,0.8420,-1.9427,2.8992,
19.487658,0.5479,0.7994,-0.1345,-10.4498,8.5917,2.7278,0.6679,-1.7194,2.5752,
19.489762,0.5479,0.7994,-0.1345,-2.4724,6.8500,0.5234,0.6679,-1.7194,2.5752,
19.514312,0.3560,0.5503,-0.1944,-2.4724,6.8500,0.5234,0.6679,-1.7194,2.5752,
19.525708,0.0596,0.4656,-0.2212,-2.4724,6.8500,0.5234,0.6679,-1.7194,2.5752,
19.542700,-0.1716,0.3011,-0.1138,-2.4724,6.8500,0.5234,0.6679,-1.7194,2.5752,
19.545355,-0.1716,0.3011,-0.1138,-2.4724,6.8500,0.5234,-0.5113,-0.6565,0.6400,
19.547610,-0.1716,0.3011,-0.1138,-0.5544,2.8859,2.2293,-0.5113,-0.6565,0.6400,
19.565682,-0.0715,0.2085,-0.2051,-0.5544,2.8859,2.2293,-0.5113,-0.6565,0.6400,
19.581009,0.1904,0.3318,-0.3599,-0.5544,2.8859,2.2293,-0.5113,-0.6565,0.6400,
19.601931,0.2222,0.4498,-0.3753,-0.5544,2.8859,2.2293,-0.5113,-0.6565,0.6400,
19.604485,0.2222,0.4498,-0.3753,-0.5544,2.8859,2.2293,-1.2633,-0.7837,-1.3463,
19.606335,0.2222,0.4498,-0.3753,-6.3213,-3.4567,1.9805,-1.2633,-0.7837,-1.3463,
19.620753,0.1477,0.4671,-0.3089,-6.3213,-3.4567,1.9805,-1.2633,-0.7837,-1.3463,
19.643596,0.1677,0.4913,-0.2569,-6.3213,-3.4567,1.9805,-1.2633,-0.7837,-1.3463,
19.658888,0.1677,0.4913,-0.2569,-6.3213,-3.4567,1.9805,-2.1908,-0.8424,-3.3310,
19.661079,0.2356,0.5984,-0.2146,-6.3213,-3.4567,1.9805,-2.1908,-0.8424,-3.3310,
19.662431,0.2356,0.5984,-0.2146,-2.2499,-3.8932,-0.3543,-2.1908,-0.8424,-3.3310,
19.678135,0.1953,0.7523,-0.2066,-2.2499,-3.8932,-0.3543,-2.1908,-0.8424,-3.3310,
19.697967,0.1170,0.8812,-0.2637,-2.2499,-3.8932,-0.3543,-2.1908,-0.8424,-3.3310,
19.717402,0.1170,0.8812,-0.2637,-2.2499,-3.8932,-0.3543,-2.6245,-1.0201,-4.6489,
19.723214,0.2234,1.0362,-0.4134,-2.2499,-3.8932,-0.3543,-2.6245,-1.0201,-4.6489,
19.725447,0.2234,1.0362,-0.4134,0.3570,-3.0614,-0.3008,-2.6245,-1.0201,-4.6489,
19.738629,0.4930,1.3175,-0.4310,0.3570,-3.0614,-0.3008,-2.6245,-1.0201,-4.6489,
19.755840,0.6473,1.5856,-0.5284,0.3570,-3.0614,-0.3008,-2.6245,-1.0201,-4.6489,
19.774627,0.7904,1.4474,-0.5684,0.3570,-3.0614,-0.3008,-2.6245,-1.0201,-4.6489,
19.776315,0.7904,1.4474,-0.5684,0.3570,-3.0614,-0.3008,-2.9550,-0.3474,-5.0388,
19.777312,0.7904,1.4474,-0.5684,3.8192,1.2099,-3.2390,-2.9550,-0.3474,-5.0388,
19.794469,1.0191,1.3046,-0.4571,3.8192,1.2099,-3.2390,-2.9550,-0.3474,-5.0388,
19.814963,0.8626,1.3549,-0.4307,3.8192,1.2099,-3.2390,-2.9550,-0.3474,-5.0388,
19.837413,0.7608,1.3099,-0.3042,3.8192,1.2099,-3.2390,-2.9550,-0.3474,-5.0388,
19.841359,0.7608,1.3099,-0.3042,3.8192,1.2099,-3.2390,-2.2871,1.4696,-4.0572,
19.844365,0.7608,1.3099,-0.3042,11.1236,5.2646,-5.6094,-2.2871,1.4696,-4.0572,
19.853872,0.7879,1.0563,-0.2163,11.1236,5.2646,-5.6094,-2.2871,1.4696,-4.0572,
19.871938,0.7164,0.9791,-0.2464,11.1236,5.2646,-5.6094,-2.2871,1.4696,-4.0572,
19.891932,0.6871,0.9647,-0.3557,11.1236,5.2646,-5.6094,-2.2871,1.4696,-4.0572,
19.895074,0.6871,0.9647,-0.3557,11.1236,5.2646,-5.6094,-0.9000,1.3160,-0.5103,
19.897443,0.6871,0.9647,-0.3557,11.1036,3.3253,-3.7773,-0.9000,1.3160,-0.5103,
19.911779,0.5789,0.9232,-0.5965,11.1036,3.3253,-3.7773,-0.9000,1.3160,-0.5103,
19.931138,0.0669,1.1307,-0.8436,11.1036,3.3253,-3.7773,-0.9000,1.3160,-0.5103,
19.950734,-1.6838,1.4638,-0.2544,11.1036,3.3253,-3.7773,-0.9000,1.3160,-0.5103,
19.955546,-1.6838,1.4638,-0.2544,11.1036,3.3253,-3.7773,-0.0790,2.1301,1.5970,
19.958432,-1.6838,1.4638,-0.2544,8.7852,0.2688,-4.1925,-0.0790,2.1301,1.5970,
19.970719,-1.1788,1.7128,0.1126,8.7852,0.2688,-4.1925,-0.0790,2.1301,1.5970,
19.988796,0.1736,1.5631,-0.0833,8.7852,0.2688,-4.1925,-0.0790,2.1301,1.5970,
20.009272,0.1736,1.5631,-0.0833,8.7852,0.2688,-4.1925,0.2397,2.6021,1.5919,
20.011912,0.2288,1.1830,-0.1563,8.7852,0.2688,-4.1925,0.2397,2.6021,1.5919,
20.014576,0.2288,1.1830,-0.1563,-7.5379,4.7176,-3.0305,0.2397,2.6021,1.5919,
20.040298,-0.0205,0.5818,0.3279,-7.5379,4.7176,-3.0305,0.2397,2.6021,1.5919,
20.055414,-0.0442,0.6536,0.5477,-7.5379,4.7176,-3.0305,0.2397,2.6021,1.5919,
20.066561,-0.0442,0.6536,0.5477,-7.5379,4.7176,-3.0305,0.2030,-0.1209,1.6858,
20.068551,-0.0886,1.0538,0.0798,-7.5379,4.7176,-3.0305,0.2030,-0.1209,1.6858,
20.069496,-0.0886,1.0538,0.0798,1.8878,1.3868,0.5831,0.2030,-0.1209,1.6858,
20.086888,0.2381,1.1654,-0.2991,1.8878,1.3868,0.5831,0.2030,-0.1209,1.6858,
20.105773,0.3934,1.0382,-0.2075,1.8878,1.3868,0.5831,0.2030,-0.1209,1.6858,
20.128890,0.3934,1.0382,-0.2075,1.8878,1.3868,0.5831,0.1549,-0.5001,1.1204,
20.131820,0.1326,1.0480,-0.1387,1.8878,1.3868,0.5831,0.1549,-0.5001,1.1204,
20.136443,0.1326,1.0480,-0.1387,0.3669,-0.1168,1.4211,0.1549,-0.5001,1.1204,
20.145894,-0.0010,1.0191,0.0063,0.3669,-0.1168,1.4211,0.1549,-0.5001,1.1204,
20.163794,-0.0342,0.9530,0.1008,0.3669,-0.1168,1.4211,0.1549,-0.5001,1.1204,
20.184190,-0.0342,0.9530,0.1008,1.3448,0.6410,-0.6761,0.1549,-0.5001,1.1204,
20.186806,-0.0342,0.9530,0.1008,1.3448,0.6410,-0.6761,0.1574,0.9558,0.6286,
20.188346,-0.1436,0.9991,0.0828,1.3448,0.6410,-0.6761,0.1574,0.9558,0.6286,
20.203946,-0.1695,1.0282,0.0061,1.3448,0.6410,-0.6761,0.1574,0.9558,0.6286,
20.223322,-0.0083,0.9967,-0.0254,1.3448,0.6410,-0.6761,0.1574,0.9558,0.6286,
20.242650,0.2107,0.9767,-0.0496,1.3448,0.6410,-0.6761,0.1574,0.9558,0.6286,
20.245495,0.2107,0.9767,-0.0496,1.3448,0.6410,-0.6761,0.2177,-0.2897,0.9265,
20.247581,0.2107,0.9767,-0.0496,-1.9744,0.2682,1.1680,0.2177,-0.2897,0.9265,
20.263781,0.2549,0.9911,-0.0310,-1.9744,0.2682,1.1680,0.2177,-0.2897,0.9265,
20.280797,0.0684,0.9935,0.0256,-1.9744,0.2682,1.1680,0.2177,-0.2897,0.9265,
20.302420,0.0684,0.9935,0.0256,0.1639,0.2795,0.3724,0.2177,-0.2897,0.9265,
20.307258,0.0684,0.9935,0.0256,0.1639,0.2795,0.3724,0.3496,0.2281,0.8689,
20.308871,0.0042,0.9796,-0.0002,0.1639,0.2795,0.3724,0.3496,0.2281,0.8689,
20.320374,0.0960,0.9730,-0.0674,0.1639,0.2795,0.3724,0.3496,0.2281,0.8689,
20.339769,0.1897,0.9947,-0.0989,0.1639,0.2795,0.3724,0.3496,0.2281,0.8689,
20.358189,0.2442,1.0069,-0.0742,0.1639,0.2795,0.3724,0.3496,0.2281,0.8689,
20.359846,0.2442,1.0069,-0.0742,0.1639,0.2795,0.3724,0.3708,-0.1720,0.9717,
20.361170,0.2442,1.0069,-0.0742,-1.2793,0.3223,0.7873,0.3708,-0.1720,0.9717,
20.377495,0.1917,0.9979,-0.0579,-1.2793,0.3223,0.7873,0.3708,-0.1720,0.9717,
20.396903,0.1287,0.9950,-0.0745,-1.2793,0.3223,0.7873,0.3708,-0.1720,0.9717,
20.416764,0.1287,0.9950,-0.0745,-1.2793,0.3223,0.7873,0.4217,-0.1586,0.9516,
20.418906,0.1160,1.0182,-0.0913,-1.2793,0.3223,0.7873,0.4217,-0.1586,0.9516,
20.419617,0.1160,1.0182,-0.0913,-0.2844,0.6277,0.4094,0.4217,-0.1586,0.9516,
20.437358,0.1250,1.0333,-0.1189,-0.2844,0.6277,0.4094,0.4217,-0.1586,0.9516,
20.457209,0.1958,1.0233,-0.1223,-0.2844,0.6277,0.4094,0.4217,-0.1586,0.9516,
20.475037,0.2349,1.0419,-0.0737,-0.2844,0.6277,0.4094,0.4217,-0.1586,0.9516,
20.476958,0.2349,1.0419,-0.0737,-0.2844,0.6277,0.4094,0.5530,-0.2529,1.1857,
20.477844,0.2349,1.0419,-0.0737,-1.6986,0.9891,0.5557,0.5530,-0.2529,1.1857,
20.494507,0.1707,1.0900,0.0022,-1.6986,0.9891,0.5557,0.5530,-0.2529,1.1857,
20.515076,0.0901,1.1363,0.0344,-1.6986,0.9891,0.5557,0.5530,-0.2529,1.1857,
20.537960,0.0901,1.1363,0.0344,-1.6986,0.9891,0.5557,0.8778,-0.3779,1.4718,
20.541272,0.0574,1.2350,-0.0129,-1.6986,0.9891,0.5557,0.8778,-0.3779,1.4718,
20.543701,0.0574,1.2350,-0.0129,-1.6298,1.6854,1.3513,0.8778,-0.3779,1.4718,
20.562742,0.1157,1.3881,-0.1104,-1.6298,1.6854,1.3513,0.8778,-0.3779,1.4718,
20.574082,0.0547,1.5402,-0.2014,-1.6298,1.6854,1.3513,0.8778,-0.3779,1.4718,
20.591266,-0.1753,1.6318,-0.2371,-1.6298,1.6854,1.3513,0.8778,-0.3779,1.4718,
20.593106,-0.1753,1.6318,-0.2371,-1.6298,1.6854,1.3513,1.3123,-0.6943,1.9491,
20.594155,-0.1753,1.6318,-0.2371,-3.5231,4.2282,2.4525,1.3123,-0.6943,1.9491,
20.610902,-0.4881,1.6437,-0.1843,-3.5231,4.2282,2.4525,1.3123,-0.6943,1.9491,
20.631166,-0.4720,1.5509,-0.1377,-3.5231,4.2282,2.4525,1.3123,-0.6943,1.9491,
20.653317,0.1970,1.3207,-0.2195,-3.5231,4.2282,2.4525,1.3123,-0.6943,1.9491,
20.656475,0.1970,1.3207,-0.2195,-3.5231,4.2282,2.4525,1.3060,-1.3313,2.5272,
20.657623,0.1970,1.3207,-0.2195,-7.1168,8.4921,1.6367,1.3060,-1.3313,2.5272,
20.669676,0.8490,1.2301,-0.2720,-7.1168,8.4921,1.6367,1.3060,-1.3313,2.5272,
20.688728,0.8136,1.2250,-0.2083,-7.1168,8.4921,1.6367,1.3060,-1.3313,2.5272,
20.708581,0.5237,0.8763,-0.0474,-7.1168,8.4921,1.6367,1.3060,-1.3313,2.5272,
20.710864,0.5237,0.8763,-0.0474,-7.1168,8.4921,1.6367,0.9707,-1.5650,2.6170,
20.712991,0.5237,0.8763,-0.0474,-3.8358,7.1074,2.4569,0.9707,-1.5650,2.6170,
20.728453,0.3934,0.4444,-0.1179,-3.8358,7.1074,2.4569,0.9707,-1.5650,2.6170,
20.748034,0.4285,0.2979,-0.2881,-3.8358,7.1074,2.4569,0.9707,-1.5650,2.6170,
20.768667,0.4285,0.2979,-0.2881,-3.8358,7.1074,2.4569,-0.1753,-0.3290,0.5443,
20.773733,0.2136,0.3313,-0.1756,-3.8358,7.1074,2.4569,-0.1753,-0.3290,0.5443,
20.775053,0.2136,0.3313,-0.1756,-0.1630,2.1240,3.2849,-0.1753,-0.3290,0.5443,
20.793083,-0.0571,0.2266,0.0015,-0.1630,2.1240,3.2849,-0.1753,-0.3290,0.5443,
20.806826,0.0532,0.1851,-0.1941,-0.1630,2.1240,3.2849,-0.1753,-0.3290,0.5443,
20.825737,0.0532,0.1851,-0.1941,-0.1630,2.1240,3.2849,-1.2930,0.4299,-1.5999,
20.828533,0.0532,0.1851,-0.1941,-3.3343,-4.1617,2.3196,-1.2930,0.4299,-1.5999,
20.830026,0.2114,0.3587,-0.3252,-3.3343,-4.1617,2.3196,-1.2930,0.4299,-1.5999,
20.844868,0.2141,0.4942,-0.2156,-3.3343,-4.1617,2.3196,-1.2930,0.4299,-1.5999,
20.864389,0.2154,0.5230,-0.1199,-3.3343,-4.1617,2.3196,-1.2930,0.4299,-1.5999,
20.884313,0.2154,0.5230,-0.1199,-3.3343,-4.1617,2.3196,-1.9906,0.3283,-3.2443,
20.891029,0.2718,0.5645,-0.1506,-3.3343,-4.1617,2.3196,-1.9906,0.3283,-3.2443,
20.893806,0.2718,0.5645,-0.1506,-2.2660,-4.7420,0.4487,-1.9906,0.3283,-3.2443,
20.904948,0.2105,0.6871,-0.1304,-2.2660,-4.7420,0.4487,-1.9906,0.3283,-3.2443,
20.925343,0.0708,0.8595,-0.1709,-2.2660,-4.7420,0.4487,-1.9906,0.3283,-3.2443,
20.942745,0.0708,0.8595,-0.1709,-2.2660,-4.7420,0.4487,-2.3474,-0.5304,-4.4318,
20.945107,0.1055,1.0865,-0.3123,-2.2660,-4.7420,0.4487,-2.3474,-0.5304,-4.4318,
20.946339,0.1055,1.0865,-0.3123,0.7524,-3.2921,0.4179,-2.3474,-0.5304,-4.4318,
20.961433,0.3123,1.3209,-0.3435,0.7524,-3.2921,0.4179,-2.3474,-0.5304,-4.4318,
20.980909,0.5594,1.5590,-0.3970,0.7524,-3.2921,0.4179,-2.3474,-0.5304,-4.4318,
21.000328,0.5594,1.5590,-0.3970,0.7524,-3.2921,0.4179,-3.1419,-0.9124,-4.4557,
21.001857,0.5594,1.5590,-0.3970,2.4879,1.3195,-2.6206,-3.1419,-0.9124,-4.4557,
21.003059,0.5198,1.7641,-0.3477,2.4879,1.3195,-2.6206,-3.1419,-0.9124,-4.4557,
21.019787,0.4942,1.6300,-0.3328,2.4879,1.3195,-2.6206,-3.1419,-0.9124,-4.4557,
21.039036,0.5381,1.2992,-0.3379,2.4879,1.3195,-2.6206,-3.1419,-0.9124,-4.4557,
21.059888,0.5381,1.2992,-0.3379,7.7234,7.1732,-4.8345,-3.1419,-0.9124,-4.4557,
21.063553,0.5381,1.2992,-0.3379,7.7234,7.1732,-4.8345,-2.7261,-0.2382,-3.4170,
21.066239,0.5538,1.1041,-0.2188,7.7234,7.1732,-4.8345,-2.7261,-0.2382,-3.4170,
21.077809,0.5499,1.0470,-0.2427,7.7234,7.1732,-4.8345,-2.7261,-0.2382,-3.4170,
21.097397,0.5657,0.9906,-0.3694,7.7234,7.1732,-4.8345,-2.7261,-0.2382,-3.4170,
21.117918,0.5657,0.9906,-0.3694,8.1248,2.4199,-4.4090,-2.7261,-0.2382,-3.4170,
21.123692,0.5657,0.9906,-0.3694,8.1248,2.4199,-4.4090,-1.0020,-0.2284,-0.6489,
21.126618,0.5355,0.8856,-0.3953,8.1248,2.4199,-4.4090,-1.0020,-0.2284,-0.6489,
21.139316,0.4300,0.8363,-0.3926,8.1248,2.4199,-4.4090,-1.0020,-0.2284,-0.6489,
21.158124,0.4122,0.8912,-0.7117,8.1248,2.4199,-4.4090,-1.0020,-0.2284,-0.6489,
21.175323,0.4122,0.8912,-0.7117,8.1248,2.4199,-4.4090,0.4351,0.7111,1.3645,
21.177686,-0.0386,1.1446,-0.7296,8.1248,2.4199,-4.4090,0.4351,0.7111,1.3645,
21.178839,-0.0386,1.1446,-0.7296,7.0001,-0.2222,-5.1605,0.4351,0.7111,1.3645,
21.194993,-1.3493,1.6098,0.2735,7.0001,-0.2222,-5.1605,0.4351,0.7111,1.3645,
21.214095,-0.6617,1.7905,0.6441,7.0001,-0.2222,-5.1605,0.4351,0.7111,1.3645,
21.235315,0.3399,1.3449,-0.4847,7.0001,-0.2222,-5.1605,0.4351,0.7111,1.3645,
21.239220,0.3399,1.3449,-0.4847,7.0001,-0.2222,-5.1605,0.4579,3.5048,0.9913,
21.241787,0.3399,1.3449,-0.4847,-1.4779,2.6464,-4.5056,0.4579,3.5048,0.9913,
21.255672,-0.1272,0.8827,-0.0803,-1.4779,2.6464,-4.5056,0.4579,3.5048,0.9913,
21.273674,-0.3802,0.6988,0.1912,-1.4779,2.6464,-4.5056,0.4579,3.5048,0.9913,
21.293485,-0.0273,0.9349,0.1279,-1.4779,2.6464,-4.5056,0.4579,3.5048,0.9913,
21.296854,-0.0273,0.9349,0.1279,-1.4779,2.6464,-4.5056,0.5129,0.2466,1.5950,
21.298010,-0.0273,0.9349,0.1279,-0.6037,3.6651,-0.1183,0.5129,0.2466,1.5950,
21.311197,0.3902,1.0973,-0.1292,-0.6037,3.6651,-0.1183,0.5129,0.2466,1.5950,
21.330293,0.4966,1.0472,-0.1106,-0.6037,3.6651,-0.1183,0.5129,0.2466,1.5950,
21.350845,0.0403,1.0165,0.0129,-0.6037,3.6651,-0.1183,0.5129,0.2466,1.5950,
21.354135,0.0403,1.0165,0.0129,-0.6037,3.6651,-0.1183,0.0953,-0.2822,0.8461,
21.356740,0.0403,1.0165,0.0129,0.3278,-0.5625,0.2831,0.0953,-0.2822,0.8461,
21.371501,-0.2373,1.0702,0.0442,0.3278,-0.5625,0.2831,0.0953,-0.2822,0.8461,
21.389737,-0.2097,1.0055,0.0942,0.3278,-0.5625,0.2831,0.0953,-0.2822,0.8461,
21.408921,-0.2097,1.0055,0.0942,0.3278,-0.5625,0.2831,-0.0238,0.3767,0.5364,
21.411787,0.0432,0.9808,0.1109,0.3278,-0.5625,0.2831,-0.0238,0.3767,0.5364,
21.414235,0.0432,0.9808,0.1109,1.0558,0.7341,-0.5127,-0.0238,0.3767,0.5364,
21.436392,0.0571,1.0409,0.0730,1.0558,0.7341,-0.5127,-0.0238,0.3767,0.5364,
21.447194,0.0269,1.0304,0.0523,1.0558,0.7341,-0.5127,-0.0238,0.3767,0.5364,
21.466995,0.0591,0.9542,0.0610,1.0558,0.7341,-0.5127,-0.0238,0.3767,0.5364,
21.469752,0.0591,0.9542,0.0610,1.0558,0.7341,-0.5127,0.0582,-0.2307,0.5225,
21.471164,0.0591,0.9542,0.0610,-0.5645,0.3801,0.5945,0.0582,-0.2307,0.5225,
21.505767,-0.0134,0.9942,0.0676,-0.5645,0.3801,0.5945,0.0582,-0.2307,0.5225,
21.507964,-0.0784,1.0011,0.1179,-0.5645,0.3801,0.5945,0.0582,-0.2307,0.5225,
21.525217,-0.0269,0.9642,0.1399,-0.5645,0.3801,0.5945,0.0582,-0.2307,0.5225,
21.527086,-0.0269,0.9642,0.1399,-0.5645,0.3801,0.5945,0.1875,-0.0376,0.5246,
21.528040,-0.0269,0.9642,0.1399,-0.2575,0.2264,0.3752,0.1875,-0.0376,0.5246,
21.544739,0.0862,1.0043,0.0767,-0.2575,0.2264,0.3752,0.1875,-0.0376,0.5246,
21.564807,0.1214,0.9662,0.0376,-0.2575,0.2264,0.3752,0.1875,-0.0376,0.5246,
21.585405,0.1038,0.9420,0.0369,-0.2575,0.2264,0.3752,0.1875,-0.0376,0.5246,
21.588253,0.1038,0.9420,0.0369,-0.2575,0.2264,0.3752,0.3003,-0.3374,0.6459,
21.590601,0.1038,0.9420,0.0369,-0.9013,0.2156,1.0392,0.3003,-0.3374,0.6459,
21.607285,0.0718,0.9906,0.0251,-0.9013,0.2156,1.0392,0.3003,-0.3374,0.6459,
21.627423,0.0315,1.0069,0.0068,-0.9013,0.2156,1.0392,0.3003,-0.3374,0.6459,
21.649071,0.0315,1.0069,0.0068,-0.9013,0.2156,1.0392,0.3362,-0.3241,0.6357,
21.653228,0.0354,0.9938,-0.0027,-0.9013,0.2156,1.0392,0.3362,-0.3241,0.6357,
21.654768,0.0354,0.9938,-0.0027,-0.2157,0.0224,0.4688,0.3362,-0.3241,0.6357,
21.661619,0.1126,0.9793,-0.0068,-0.2157,0.0224,0.4688,0.3362,-0.3241,0.6357,
21.680495,0.2012,0.9710,-0.0066,-0.2157,0.0224,0.4688,0.3362,-0.3241,0.6357,
21.700652,0.2068,0.9942,0.0188,-0.2157,0.0224,0.4688,0.3362,-0.3241,0.6357,
21.703343,0.2068,0.9942,0.0188,-0.9822,0.3477,0.3686,0.3362,-0.3241,0.6357,
21.705414,0.2068,0.9942,0.0188,-0.9822,0.3477,0.3686,0.3429,-0.6377,0.7459,
21.719542,0.1323,1.0043,0.0430,-0.9822,0.3477,0.3686,0.3429,-0.6377,0.7459,
21.743123,0.0921,1.0233,0.0042,-0.9822,0.3477,0.3686,0.3429,-0.6377,0.7459,
21.759237,0.1582,1.0389,-0.0105,-0.9822,0.3477,0.3686,0.3429,-0.6377,0.7459,
21.765589,0.1582,1.0389,-0.0105,-0.9822,0.3477,0.3686,0.4789,-0.7660,0.7538,
21.768402,0.1582,1.0389,-0.0105,-0.1867,0.3994,0.8826,0.4789,-0.7660,0.7538,
21.777825,0.1787,1.0213,0.0286,-0.1867,0.3994,0.8826,0.4789,-0.7660,0.7538,
21.797720,0.0842,1.0587,0.1052,-0.1867,0.3994,0.8826,0.4789,-0.7660,0.7538,
21.817997,-0.1245,1.2196,0.1509,-0.1867,0.3994,0.8826,0.4789,-0.7660,0.7538,
21.821353,-0.1245,1.2196,0.1509,-0.1867,0.3994,0.8826,0.7852,-1.1295,0.9542,
21.824576,-0.1245,1.2196,0.1509,-0.9825,0.9228,1.3190,0.7852,-1.1295,0.9542,
21.844120,-0.3064,1.4826,0.1863,-0.9825,0.9228,1.3190,0.7852,-1.1295,0.9542,
21.855532,-0.1936,1.6330,0.2478,-0.9825,0.9228,1.3190,0.7852,-1.1295,0.9542,
21.874401,-0.1936,1.6330,0.2478,-0.9825,0.9228,1.3190,0.6671,-2.6404,1.9169,
21.876066,-0.1660,1.5981,0.0576,-0.9825,0.9228,1.3190,0.6671,-2.6404,1.9169,
21.876628,-0.1660,1.5981,0.0576,-4.1944,3.4492,3.4113,0.6671,-2.6404,1.9169,
21.895753,-0.0352,1.4564,-0.2610,-4.1944,3.4492,3.4113,0.6671,-2.6404,1.9169,
21.914546,0.2212,1.2721,-0.2007,-4.1944,3.4492,3.4113,0.6671,-2.6404,1.9169,
21.933919,0.2212,1.2721,-0.2007,-4.1944,3.4492,3.4113,-0.4132,-5.1985,3.1075,
21.936440,0.4161,1.0287,-0.0982,-4.1944,3.4492,3.4113,-0.4132,-5.1985,3.1075,
21.938021,0.4161,1.0287,-0.0982,-5.0834,6.9326,2.9239,-0.4132,-5.1985,3.1075,
21.953418,0.6480,0.8897,-0.1079,-5.0834,6.9326,2.9239,-0.4132,-5.1985,3.1075,
21.972631,0.5635,0.7928,-0.1980,-5.0834,6.9326,2.9239,-0.4132,-5.1985,3.1075,
21.991383,0.5635,0.7928,-0.1980,-5.0834,6.9326,2.9239,-1.8937,-5.4648,2.9660,
21.994731,0.3230,0.6663,-0.3294,-5.0834,6.9326,2.9239,-1.8937,-5.4648,2.9660,
21.996841,0.3230,0.6663,-0.3294,-0.0483,2.3666,1.8088,-1.8937,-5.4648,2.9660,
22.011994,0.0742,0.5259,-0.4551,-0.0483,2.3666,1.8088,-1.8937,-5.4648,2.9660,
22.031082,-0.0928,0.4703,-0.6280,-0.0483,2.3666,1.8088,-1.8937,-5.4648,2.9660,
22.050813,-0.0928,0.4703,-0.6280,-0.0483,2.3666,1.8088,-2.6801,-4.1478,2.0609,
22.055434,-0.1043,0.5269,-0.7552,-0.0483,2.3666,1.8088,-2.6801,-4.1478,2.0609,
22.058031,-0.1043,0.5269,-0.7552,-1.2997,-1.5045,-0.2645,-2.6801,-4.1478,2.0609,
22.069405,-0.0093,0.5101,-0.7220,-1.2997,-1.5045,-0.2645,-2.6801,-4.1478,2.0609,
22.089230,-0.0422,0.4095,-0.6570,-1.2997,-1.5045,-0.2645,-2.6801,-4.1478,2.0609,
22.109472,-0.1526,0.4056,-0.5814,-1.2997,-1.5045,-0.2645,-2.6801,-4.1478,2.0609,
22.113091,-0.1526,0.4056,-0.5814,-1.2997,-1.5045,-0.2645,-3.0208,-2.8580,1.2002,
22.115827,-0.1526,0.4056,-0.5814,-5.1418,-3.1634,-4.5245,-3.0208,-2.8580,1.2002,
22.128953,-0.2176,0.5052,-0.5638,-5.1418,-3.1634,-4.5245,-3.0208,-2.8580,1.2002,
22.147012,-0.2928,0.6392,-0.5950,-5.1418,-3.1634,-4.5245,-3.0208,-2.8580,1.2002,
22.167741,-0.2928,0.6392,-0.5950,-5.1418,-3.1634,-4.5245,-3.0552,-2.6015,-0.5042,
22.170903,-0.2928,0.6392,-0.5950,-5.1811,-4.1728,-4.2955,-3.0552,-2.6015,-0.5042,
22.206008,-0.3689,0.7784,-0.5557,-5.1811,-4.1728,-4.2955,-3.0552,-2.6015,-0.5042,
22.207797,-0.3899,0.9398,-0.5411,-5.1811,-4.1728,-4.2955,-3.0552,-2.6015,-0.5042,
22.208784,-0.3658,1.1132,-0.5484,-5.1811,-4.1728,-4.2955,-3.0552,-2.6015,-0.5042,
22.224758,-0.3658,1.1132,-0.5484,-5.1811,-4.1728,-4.2955,-2.6546,-4.0942,-1.7589,
22.226680,-0.3658,1.1132,-0.5484,-5.9627,-1.2937,-4.4375,-2.6546,-4.0942,-1.7589,
22.263906,-0.3047,1.3048,-0.5523,-5.9627,-1.2937,-4.4375,-2.6546,-4.0942,-1.7589,
22.265803,-0.1885,1.4521,-0.5569,-5.9627,-1.2937,-4.4375,-2.6546,-4.0942,-1.7589,
22.266966,-0.0925,1.4369,-0.5450,-5.9627,-1.2937,-4.4375,-2.6546,-4.0942,-1.7589,
22.283426,-0.0925,1.4369,-0.5450,-5.9627,-1.2937,-4.4375,-2.0326,-4.4481,-2.1885,
22.286041,-0.0925,1.4369,-0.5450,-3.8924,3.2638,-4.8527,-2.0326,-4.4481,-2.1885,
22.322342,-0.0173,1.3578,-0.5291,-3.8924,3.2638,-4.8527,-2.0326,-4.4481,-2.1885,
22.324509,0.0139,1.3427,-0.4834,-3.8924,3.2638,-4.8527,-2.0326,-4.4481,-2.1885,
22.325707,0.0371,1.3009,-0.4410,-3.8924,3.2638,-4.8527,-2.0326,-4.4481,-2.1885,
22.342527,0.0371,1.3009,-0.4410,-0.4400,3.9911,-4.9879,-2.0326,-4.4481,-2.1885,
22.345314,0.0371,1.3009,-0.4410,-0.4400,3.9911,-4.9879,-1.1845,-2.8951,-1.6422,
22.382315,0.1265,1.2054,-0.3982,-0.4400,3.9911,-4.9879,-1.1845,-2.8951,-1.6422,
22.386086,0.0415,1.0458,-0.2295,-0.4400,3.9911,-4.9879,-1.1845,-2.8951,-1.6422,
22.389071,-0.0684,0.8890,-0.1228,-0.4400,3.9911,-4.9879,-1.1845,-2.8951,-1.6422,
22.400671,-0.0684,0.8890,-0.1228,-0.4400,3.9911,-4.9879,-0.3470,-2.1439,-0.8664,
22.403303,-0.0684,0.8890,-0.1228,1.0038,2.0502,-3.5410,-0.3470,-2.1439,-0.8664,
22.440477,0.0391,0.9068,-0.1267,1.0038,2.0502,-3.5410,-0.3470,-2.1439,-0.8664,
22.444512,0.0715,0.9649,-0.1087,1.0038,2.0502,-3.5410,-0.3470,-2.1439,-0.8664,
22.446987,-0.0413,0.8958,-0.0552,1.0038,2.0502,-3.5410,-0.3470,-2.1439,-0.8664,
22.458636,-0.0413,0.8958,-0.0552,1.0038,2.0502,-3.5410,0.0397,-1.1067,-0.7110,
22.460856,-0.0413,0.8958,-0.0552,0.8485,-0.5045,-1.2100,0.0397,-1.1067,-0.7110,
22.497196,-0.1033,0.8326,-0.0100,0.8485,-0.5045,-1.2100,0.0397,-1.1067,-0.7110,
22.498789,-0.0957,0.8309,0.0002,0.8485,-0.5045,-1.2100,0.0397,-1.1067,-0.7110,
22.499444,-0.0164,0.8683,0.0188,0.8485,-0.5045,-1.2100,0.0397,-1.1067,-0.7110,
22.516562,-0.0164,0.8683,0.0188,0.8485,-0.5045,-1.2100,0.1775,-1.0173,-0.5571,
22.518032,-0.0164,0.8683,0.0188,0.2294,-1.1158,-0.2018,0.1775,-1.0173,-0.5571,
22.555271,0.1177,0.9186,0.0899,0.2294,-1.1158,-0.2018,0.1775,-1.0173,-0.5571,
22.556828,0.2376,0.9234,0.1712,0.2294,-1.1158,-0.2018,0.1775,-1.0173,-0.5571,
22.557793,0.3208,0.8998,0.1851,0.2294,-1.1158,-0.2018,0.1775,-1.0173,-0.5571,
22.575108,0.3208,0.8998,0.1851,0.2294,-1.1158,-0.2018,0.3390,-1.5217,-0.1608,
22.576441,0.3208,0.8998,0.1851,2.1781,-0.6016,0.9988,0.3390,-1.5217,-0.1608,
22.615085,0.4893,0.9161,0.1419,2.1781,-0.6016,0.9988,0.3390,-1.5217,-0.1608,
22.616397,0.8136,0.9984,0.0303,2.1781,-0.6016,0.9988,0.3390,-1.5217,-0.1608,
22.617057,0.4783,1.1766,0.0884,2.1781,-0.6016,0.9988,0.3390,-1.5217,-0.1608,
22.634366,0.4783,1.1766,0.0884,2.1781,-0.6016,0.9988,-0.1136,-0.7420,0.9147,
22.635837,0.4783,1.1766,0.0884,5.7741,-0.3006,1.1301,-0.1136,-0.7420,0.9147,
22.672312,-0.4024,1.3764,0.4488,5.7741,-0.3006,1.1301,-0.1136,-0.7420,0.9147,
22.674637,-0.5621,1.4308,-0.1831,5.7741,-0.3006,1.1301,-0.1136,-0.7420,0.9147,
22.675539,-0.1011,1.0734,-0.4485,5.7741,-0.3006,1.1301,-0.1136,-0.7420,0.9147,
22.691655,-0.1011,1.0734,-0.4485,5.7741,-0.3006,1.1301,0.4720,1.1965,1.1417,
22.694098,-0.1011,1.0734,-0.4485,-1.7293,3.4540,1.3636,0.4720,1.1965,1.1417,
22.730399,0.1570,0.9244,-0.3328,-1.7293,3.4540,1.3636,0.4720,1.1965,1.1417,
22.731799,0.0352,1.0382,-0.1057,-1.7293,3.4540,1.3636,0.4720,1.1965,1.1417,
22.733091,0.1409,1.0560,0.0701,-1.7293,3.4540,1.3636,0.4720,1.1965,1.1417,
22.749899,0.1409,1.0560,0.0701,-1.7293,3.4540,1.3636,-0.0992,0.1228,1.0265,
22.752636,0.1409,1.0560,0.0701,-0.4103,0.3760,-2.7001,-0.0992,0.1228,1.0265,
22.789628,0.1297,1.0128,0.0159,-0.4103,0.3760,-2.7001,-0.0992,0.1228,1.0265,
22.791432,0.0967,0.9632,-0.0298,-0.4103,0.3760,-2.7001,-0.0992,0.1228,1.0265,
22.793238,0.1506,1.0484,0.0369,-0.4103,0.3760,-2.7001,-0.0992,0.1228,1.0265,
22.808975,0.1506,1.0484,0.0369,-0.4103,0.3760,-2.7001,-0.1234,-0.5459,0.7506,
22.811432,0.1506,1.0484,0.0369,0.0790,0.3953,0.3376,-0.1234,-0.5459,0.7506,
22.848003,0.1939,1.0633,0.0501,0.0790,0.3953,0.3376,-0.1234,-0.5459,0.7506,
22.851386,0.1997,0.9803,0.0352,0.0790,0.3953,0.3376,-0.1234,-0.5459,0.7506,
22.853992,0.1536,0.9862,0.0535,0.0790,0.3953,0.3376,-0.1234,-0.5459,0.7506,
22.867286,0.1536,0.9862,0.0535,0.0790,0.3953,0.3376,-0.0933,-0.5143,0.4608,
22.870967,0.1536,0.9862,0.0535,0.3998,0.6138,0.5301,-0.0933,-0.5143,0.4608,
22.906607,0.1150,1.0055,0.1179,0.3998,0.6138,0.5301,-0.0933,-0.5143,0.4608,
22.909861,0.1077,0.9715,0.1360,0.3998,0.6138,0.5301,-0.0933,-0.5143,0.4608,
22.911973,0.1128,0.9559,0.0803,0.3998,0.6138,0.5301,-0.0933,-0.5143,0.4608,
22.925677,0.1128,0.9559,0.0803,0.3998,0.6138,0.5301,0.0006,-0.4168,0.3991,
22.928823,0.1128,0.9559,0.0803,-0.3598,0.2235,1.1523,0.0006,-0.4168,0.3991,
22.964697,0.0884,0.9972,0.0271,-0.3598,0.2235,1.1523,0.0006,-0.4168,0.3991,
22.966630,0.0857,1.0314,0.0164,-0.3598,0.2235,1.1523,0.0006,-0.4168,0.3991,
22.967630,0.1155,1.0038,0.0220,-0.3598,0.2235,1.1523,0.0006,-0.4168,0.3991,
22.984267,0.1155,1.0038,0.0220,-0.3598,0.2235,1.1523,0.1331,-0.4091,0.5258,
22.986496,0.1155,1.0038,0.0220,-0.9207,0.3418,0.6558,0.1331,-0.4091,0.5258,
23.023817,0.1814,0.9459,0.0479,-0.9207,0.3418,0.6558,0.1331,-0.4091,0.5258,
23.026859,0.1885,0.9564,0.0408,-0.9207,0.3418,0.6558,0.1331,-0.4091,0.5258,
23.028993,0.1135,0.9955,-0.0017,-0.9207,0.3418,0.6558,0.1331,-0.4091,0.5258,
23.044018,0.1135,0.9955,-0.0017,-0.9207,0.3418,0.6558,0.2136,-0.2722,0.5995,
23.047380,0.1135,0.9955,-0.0017,-0.5849,0.1578,0.7486,0.2136,-0.2722,0.5995,
23.081675,0.1118,1.0143,-0.0059,-0.5849,0.1578,0.7486,0.2136,-0.2722,0.5995,
23.086105,0.1773,1.0089,0.0120,-0.5849,0.1578,0.7486,0.2136,-0.2722,0.5995,
23.087966,0.2178,0.9969,-0.0090,-0.5849,0.1578,0.7486,0.2136,-0.2722,0.5995,
23.100227,0.2178,0.9969,-0.0090,-0.5849,0.1578,0.7486,0.2830,-0.2531,0.7691,
23.102736,0.2178,0.9969,-0.0090,-1.2436,0.6294,0.5800,0.2830,-0.2531,0.7691,
23.139443,0.1387,1.0099,-0.0400,-1.2436,0.6294,0.5800,0.2830,-0.2531,0.7691,
23.142519,0.1421,1.0216,-0.0564,-1.2436,0.6294,0.5800,0.2830,-0.2531,0.7691,
23.143962,0.1985,1.0223,-0.0527,-1.2436,0.6294,0.5800,0.2830,-0.2531,0.7691,
23.159149,0.1985,1.0223,-0.0527,-1.2436,0.6294,0.5800,0.2971,-0.5345,0.9465,
23.162009,0.1985,1.0223,-0.0527,-1.3900,0.8141,0.4596,0.2971,-0.5345,0.9465,
23.198052,0.2012,1.0170,-0.0469,-1.3900,0.8141,0.4596,0.2971,-0.5345,0.9465,
23.201365,0.2224,1.0550,-0.0322,-1.3900,0.8141,0.4596,0.2971,-0.5345,0.9465,
23.203375,0.2210,1.0765,-0.0335,-1.3900,0.8141,0.4596,0.2971,-0.5345,0.9465,
23.218535,0.2210,1.0765,-0.0335,-1.3900,0.8141,0.4596,0.4431,-0.4976,1.1894,
23.224615,0.2210,1.0765,-0.0335,-1.5535,1.2632,0.6890,0.4431,-0.4976,1.1894,
23.237683,0.1406,1.1344,-0.0662,-1.5535,1.2632,0.6890,0.4431,-0.4976,1.1894,
23.255479,0.1819,1.2052,-0.0427,-1.5535,1.2632,0.6890,0.4431,-0.4976,1.1894,
23.275772,0.1365,1.3488,0.0125,-1.5535,1.2632,0.6890,0.4431,-0.4976,1.1894,
23.282783,0.1365,1.3488,0.0125,-1.5535,1.2632,0.6890,0.7457,-0.6833,1.5647,
23.285304,0.1365,1.3488,0.0125,-2.5615,2.2772,1.1034,0.7457,-0.6833,1.5647,
23.295020,-0.1072,1.6720,0.1206,-2.5615,2.2772,1.1034,0.7457,-0.6833,1.5647,
23.313568,-0.5416,1.7680,0.0396,-2.5615,2.2772,1.1034,0.7457,-0.6833,1.5647,
23.333184,-0.6734,1.5890,-0.1377,-2.5615,2.2772,1.1034,0.7457,-0.6833,1.5647,
23.334980,-0.6734,1.5890,-0.1377,-2.5615,2.2772,1.1034,1.2217,-0.9470,2.1002,
23.336188,-0.6734,1.5890,-0.1377,-4.3927,5.9677,2.7224,1.2217,-0.9470,2.1002,
23.352891,-0.7889,1.5563,-0.1641,-4.3927,5.9677,2.7224,1.2217,-0.9470,2.1002,
23.373153,-0.3013,1.2655,-0.2437,-4.3927,5.9677,2.7224,1.2217,-0.9470,2.1002,
23.393017,-0.3013,1.2655,-0.2437,-12.1605,9.1945,2.8864,1.2217,-0.9470,2.1002,
23.395210,-0.3013,1.2655,-0.2437,-12.1605,9.1945,2.8864,0.9802,-2.9336,3.0033,
23.396896,0.8766,1.0702,-0.3457,-12.1605,9.1945,2.8864,0.9802,-2.9336,3.0033,
23.415844,1.2247,1.3854,-0.3072,-12.1605,9.1945,2.8864,0.9802,-2.9336,3.0033,
23.432952,0.8614,1.2081,-0.1494,-12.1605,9.1945,2.8864,0.9802,-2.9336,3.0033,
23.450316,0.5562,0.5408,-0.3079,-12.1605,9.1945,2.8864,0.9802,-2.9336,3.0033,
23.453083,0.5562,0.5408,-0.3079,-12.1605,9.1945,2.8864,0.8481,-1.5595,2.1928,
23.454894,0.5562,0.5408,-0.3079,-0.1718,6.1494,1.6308,0.8481,-1.5595,2.1928,
23.469748,0.4458,0.4407,-0.3892,-0.1718,6.1494,1.6308,0.8481,-1.5595,2.1928,
23.488607,0.1524,0.4173,-0.1382,-0.1718,6.1494,1.6308,0.8481,-1.5595,2.1928,
23.509189,0.1524,0.4173,-0.1382,-0.1718,6.1494,1.6308,-1.0208,0.4769,-0.0651,
23.512875,-0.1731,0.2141,0.0552,-0.1718,6.1494,1.6308,-1.0208,0.4769,-0.0651,
23.515210,-0.1731,0.2141,0.0552,-0.0548,0.8504,1.2397,-1.0208,0.4769,-0.0651,
23.541303,-0.2400,0.1167,-0.1614,-0.0548,0.8504,1.2397,-1.0208,0.4769,-0.0651,
23.553535,-0.0020,0.3035,-0.3755,-0.0548,0.8504,1.2397,-1.0208,0.4769,-0.0651,
23.567052,0.1028,0.5494,-0.3179,-0.0548,0.8504,1.2397,-1.0208,0.4769,-0.0651,
23.569625,0.1028,0.5494,-0.3179,-0.0548,0.8504,1.2397,-1.7047,0.1499,-1.9898,
23.571662,0.1028,0.5494,-0.3179,-6.1281,-4.8101,2.4365,-1.7047,0.1499,-1.9898,
23.586262,0.1338,0.6133,-0.2476,-6.1281,-4.8101,2.4365,-1.7047,0.1499,-1.9898,
23.606501,0.2112,0.5689,-0.2110,-6.1281,-4.8101,2.4365,-1.7047,0.1499,-1.9898,
23.634102,0.1809,0.6426,-0.1802,-6.1281,-4.8101,2.4365,-1.7047,0.1499,-1.9898,
23.638925,0.1809,0.6426,-0.1802,-2.6359,-3.7452,-0.7998,-1.7047,0.1499,-1.9898,
23.642726,0.1809,0.6426,-0.1802,-2.6359,-3.7452,-0.7998,-2.3561,-0.4779,-3.7719,
23.652708,0.0073,0.8331,-0.1519,-2.6359,-3.7452,-0.7998,-2.3561,-0.4779,-3.7719,
23.664160,-0.0432,1.0763,-0.3294,-2.6359,-3.7452,-0.7998,-2.3561,-0.4779,-3.7719,
23.684397,-0.0432,1.0763,-0.3294,0.5901,-2.6561,-0.7117,-2.3561,-0.4779,-3.7719,
23.687517,-0.0432,1.0763,-0.3294,0.5901,-2.6561,-0.7117,-2.6825,-1.6534,-4.8206,
23.693913,0.2766,1.3563,-0.5125,0.5901,-2.6561,-0.7117,-2.6825,-1.6534,-4.8206,
23.704474,0.7374,1.6647,-0.5733,0.5901,-2.6561,-0.7117,-2.6825,-1.6534,-4.8206,
23.721462,0.7625,1.7360,-0.5291,0.5901,-2.6561,-0.7117,-2.6825,-1.6534,-4.8206,
23.740993,0.6170,1.4862,-0.3807,0.5901,-2.6561,-0.7117,-2.6825,-1.6534,-4.8206,
23.743378,0.6170,1.4862,-0.3807,0.5901,-2.6561,-0.7117,-3.1957,-0.1906,-4.8969,
23.744698,0.6170,1.4862,-0.3807,5.0565,4.1249,-5.2031,-3.1957,-0.1906,-4.8969,
23.761320,0.7357,1.2914,-0.2696,5.0565,4.1249,-5.2031,-3.1957,-0.1906,-4.8969,
23.784585,0.6881,1.2824,-0.1331,5.0565,4.1249,-5.2031,-3.1957,-0.1906,-4.8969,
23.799864,0.5596,1.1898,-0.1128,5.0565,4.1249,-5.2031,-3.1957,-0.1906,-4.8969,
