time,gFx,gFy,gFz,ax,ay,az,wx,wy,wz,P
0.007,0.02,1.00,0.10,-0.03,-0.01,0.06,-0.01,0.04,-0.01,1008.70
0.02,0.02,1.00,0.10,-0.03,-0.01,0.06,-0.01,0.04,-0.01,1008.70
0.02,0.05,1.00,0.04,-0.03,-0.01,0.06,-0.01,0.04,-0.01,1008.70
0.02,0.06,1.01,0.07,-0.03,-0.01,0.06,-0.01,0.04,-0.01,1008.70
0.021,0.06,1.01,0.07,-0.03,-0.01,0.06,0.01,-0.05,0.01,1008.70
0.021,0.06,1.01,0.07,-0.01,0.02,0.01,0.01,-0.05,0.01,1008.70
0.078,0.06,1.01,0.07,0.01,-0.01,0.07,0.01,-0.05,0.01,1008.70
0.079,0.04,1.01,0.08,0.01,-0.01,0.07,0.01,-0.05,0.01,1008.70
0.079,0.05,1.00,0.08,0.01,-0.01,0.07,0.01,-0.05,0.01,1008.70
0.079,0.06,1.00,0.08,0.01,-0.01,0.07,0.01,-0.05,0.01,1008.70
0.08,0.06,1.00,0.08,0.01,-0.01,0.07,0.02,0.01,0.01,1008.70
0.087,0.06,1.00,0.08,0.01,-0.01,0.07,0.02,0.01,0.01,1008.70
0.136,0.04,1.00,0.08,0.01,-0.01,0.07,0.02,0.01,0.01,1008.70
0.137,0.04,1.00,0.08,0.01,-0.01,0.07,0.02,0.01,0.01,1008.70
0.137,0.06,0.99,0.08,0.01,-0.01,0.07,0.02,0.01,0.01,1008.70
0.138,0.06,0.99,0.08,0.01,-0.01,0.07,0.04,-0.00,0.01,1008.70
0.138,0.06,0.99,0.08,-0.01,-0.05,0.10,0.04,-0.00,0.01,1008.70
0.166,0.06,0.99,0.08,-0.01,-0.05,0.10,0.04,-0.00,0.01,1008.69
0.195,0.06,0.99,0.08,0.01,0.04,-0.08,0.04,-0.00,0.01,1008.69
0.196,0.06,1.00,0.06,0.01,0.04,-0.08,0.04,-0.00,0.01,1008.69
0.196,0.04,1.01,0.06,0.01,0.04,-0.08,0.04,-0.00,0.01,1008.69
0.196,0.04,1.01,0.05,0.01,0.04,-0.08,0.04,-0.00,0.01,1008.69
0.196,0.04,1.01,0.05,0.01,0.04,-0.08,0.04,0.01,-0.00,1008.69
0.207,0.04,1.01,0.05,0.01,0.04,-0.08,0.04,0.01,-0.00,1008.69
0.253,0.04,1.01,0.07,0.01,0.04,-0.08,0.04,0.01,-0.00,1008.69
0.254,0.05,1.01,0.08,0.01,0.04,-0.08,0.04,0.01,-0.00,1008.69
0.254,0.03,1.00,0.08,0.01,0.04,-0.08,0.04,0.01,-0.00,1008.69
0.255,0.03,1.00,0.08,-0.04,0.04,0.14,0.04,0.01,-0.00,1008.69
0.255,0.03,1.00,0.08,-0.04,0.04,0.14,0.05,0.04,0.00,1008.69
0.285,0.03,1.00,0.08,-0.04,0.04,0.14,0.05,0.04,0.00,1008.70
0.311,0.03,1.00,0.08,-0.04,0.04,0.14,0.05,0.04,0.00,1008.70
0.312,0.05,1.01,0.07,-0.04,0.04,0.14,0.05,0.04,0.00,1008.70
0.312,0.07,1.00,0.05,-0.04,0.04,0.14,0.05,0.04,0.00,1008.70
0.313,0.07,1.00,0.05,-0.04,0.04,0.14,0.08,-0.01,0.00,1008.70
0.313,0.07,1.00,0.05,0.05,0.01,0.03,0.08,-0.01,0.00,1008.70
0.365,0.07,1.00,0.05,0.05,0.01,0.03,0.08,-0.01,0.00,1008.70
0.37,0.05,0.99,0.06,0.05,0.01,0.03,0.08,-0.01,0.00,1008.70
0.37,0.04,1.00,0.06,0.05,0.01,0.03,0.08,-0.01,0.00,1008.70
0.37,0.05,1.00,0.06,0.05,0.01,0.03,0.08,-0.01,0.00,1008.70
0.371,0.05,1.00,0.06,0.01,-0.04,0.02,0.08,-0.01,0.00,1008.70
0.371,0.05,1.00,0.06,0.01,-0.04,0.02,0.07,0.02,-0.02,1008.70
0.406,0.05,1.00,0.06,0.01,-0.04,0.02,0.07,0.02,-0.02,1008.70
0.43,0.05,1.01,0.05,0.01,-0.04,0.02,0.07,0.02,-0.02,1008.70
0.43,0.04,1.02,0.05,0.01,-0.04,0.02,0.07,0.02,-0.02,1008.70
0.431,0.05,1.01,0.05,0.01,-0.04,0.02,0.07,0.02,-0.02,1008.70
0.431,0.05,1.01,0.05,0.01,-0.04,0.02,0.09,0.03,-0.03,1008.70
0.431,0.05,1.01,0.05,0.04,0.06,-0.01,0.09,0.03,-0.03,1008.70
0.485,0.05,1.01,0.05,0.04,0.06,-0.01,0.09,0.03,-0.03,1008.71
0.487,0.05,1.00,0.05,0.04,0.06,-0.01,0.09,0.03,-0.03,1008.71
0.488,0.06,1.00,0.06,0.04,0.06,-0.01,0.09,0.03,-0.03,1008.71
0.488,0.08,1.00,0.06,0.04,0.06,-0.01,0.09,0.03,-0.03,1008.71
0.488,0.08,1.00,0.06,0.20,-0.06,0.09,0.09,0.03,-0.03,1008.71
0.488,0.08,1.00,0.06,0.20,-0.06,0.09,0.10,0.04,-0.05,1008.71
0.545,0.07,1.01,0.05,0.20,-0.06,0.09,0.10,0.04,-0.05,1008.71
0.546,0.08,1.01,0.06,0.20,-0.06,0.09,0.10,0.04,-0.05,1008.71
0.546,0.09,0.99,0.01,0.20,-0.06,0.09,0.10,0.04,-0.05,1008.71
0.546,0.09,0.99,0.01,0.20,-0.06,0.09,0.15,0.10,-0.15,1008.71
0.547,0.09,0.99,0.01,0.41,-0.03,0.01,0.15,0.10,-0.15,1008.71
0.571,0.09,0.99,0.01,0.41,-0.03,0.01,0.15,0.10,-0.15,1008.71
0.609,0.03,1.01,-0.01,0.41,-0.03,0.01,0.15,0.10,-0.15,1008.71
0.609,-0.01,1.01,0.03,0.41,-0.03,0.01,0.15,0.10,-0.15,1008.71
0.61,0.01,0.99,0.05,0.41,-0.03,0.01,0.15,0.10,-0.15,1008.71
0.61,0.01,0.99,0.05,0.41,-0.03,0.01,0.20,0.14,-0.25,1008.71
0.61,0.01,0.99,0.05,0.41,-0.03,0.01,0.20,0.14,-0.25,1008.72
0.61,0.01,0.99,0.05,-0.09,-0.03,-0.03,0.20,0.14,-0.25,1008.72
0.661,0.01,1.00,0.00,-0.09,-0.03,-0.03,0.20,0.14,-0.25,1008.72
0.662,0.05,1.00,-0.02,-0.09,-0.03,-0.03,0.20,0.14,-0.25,1008.72
0.662,0.08,1.00,-0.02,-0.09,-0.03,-0.03,0.20,0.14,-0.25,1008.72
0.663,0.08,1.00,-0.02,-0.09,-0.03,-0.03,0.26,0.15,-0.23,1008.72
0.663,0.08,1.00,-0.02,0.37,-0.03,-0.23,0.26,0.15,-0.23,1008.72
0.685,0.08,1.00,-0.02,0.37,-0.03,-0.23,0.26,0.15,-0.23,1008.71
0.719,0.05,0.96,-0.00,0.37,-0.03,-0.23,0.26,0.15,-0.23,1008.71
0.72,0.01,0.97,0.03,0.37,-0.03,-0.23,0.26,0.15,-0.23,1008.71
0.721,-0.01,0.99,0.02,0.37,-0.03,-0.23,0.26,0.15,-0.23,1008.71
0.721,-0.01,0.99,0.02,0.37,-0.03,-0.23,0.25,0.23,-0.34,1008.71
0.722,-0.01,0.99,0.02,0.25,-0.33,0.19,0.25,0.23,-0.34,1008.71
0.767,-0.01,0.99,0.02,0.25,-0.33,0.19,0.25,0.23,-0.34,1008.71
0.778,-0.01,1.00,-0.02,0.25,-0.33,0.19,0.25,0.23,-0.34,1008.71
0.779,-0.01,0.95,-0.05,0.25,-0.33,0.19,0.25,0.23,-0.34,1008.71
0.78,0.03,0.87,-0.02,0.25,-0.33,0.19,0.25,0.23,-0.34,1008.71
0.78,0.03,0.87,-0.02,0.25,-0.33,0.19,0.18,0.07,-0.34,1008.71
0.78,0.03,0.87,-0.02,0.32,-0.64,-0.15,0.18,0.07,-0.34,1008.71
0.805,0.03,0.87,-0.02,0.32,-0.64,-0.15,0.18,0.07,-0.34,1008.71
0.836,0.03,0.88,-0.01,0.32,-0.64,-0.15,0.18,0.07,-0.34,1008.71
0.838,-0.03,0.94,-0.02,0.32,-0.64,-0.15,0.18,0.07,-0.34,1008.71
0.838,-0.17,1.11,0.00,0.32,-0.64,-0.15,0.18,0.07,-0.34,1008.71
0.838,-0.17,1.11,0.00,0.32,-0.64,-0.15,-0.09,0.05,-0.25,1008.71
0.838,-0.17,1.11,0.00,-0.14,-0.26,0.00,-0.09,0.05,-0.25,1008.71
0.885,-0.17,1.11,0.00,-0.14,-0.26,0.00,-0.09,0.05,-0.25,1008.70
0.895,-0.32,1.26,-0.02,-0.14,-0.26,0.00,-0.09,0.05,-0.25,1008.70
0.895,-0.29,1.15,-0.05,-0.14,-0.26,0.00,-0.09,0.05,-0.25,1008.70
0.896,-0.13,0.98,-0.02,-0.14,-0.26,0.00,-0.09,0.05,-0.25,1008.70
0.896,-0.13,0.98,-0.02,-0.14,-0.26,0.00,0.04,0.10,0.06,1008.70
0.897,-0.13,0.98,-0.02,-1.97,1.24,-0.16,0.04,0.10,0.06,1008.70
0.953,-0.09,0.90,0.06,-1.97,1.24,-0.16,0.04,0.10,0.06,1008.70
0.954,-0.03,0.94,0.05,-1.97,1.24,-0.16,0.04,0.10,0.06,1008.70
0.954,-0.11,1.04,0.04,-1.97,1.24,-0.16,0.04,0.10,0.06,1008.70
0.955,-0.11,1.04,0.04,-1.97,1.24,-0.16,0.13,0.50,0.49,1008.70
0.955,-0.11,1.04,0.04,-0.56,-0.47,0.68,0.13,0.50,0.49,1008.70
0.968,-0.11,1.04,0.04,-0.56,-0.47,0.68,0.13,0.50,0.49,1008.70
1.005,-0.11,1.04,0.04,-0.56,-0.47,0.68,0.13,0.50,0.49,1008.70
1.012,-0.23,1.07,0.06,-0.56,-0.47,0.68,0.13,0.50,0.49,1008.70
1.012,-0.11,1.02,0.05,-0.56,-0.47,0.68,0.13,0.50,0.49,1008.70
1.013,0.09,1.01,-0.05,-0.56,-0.47,0.68,0.13,0.50,0.49,1008.70
1.013,0.09,1.01,-0.05,-0.56,-0.47,0.68,0.08,0.32,0.61,1008.70
1.013,0.09,1.01,-0.05,-0.93,0.26,0.42,0.08,0.32,0.61,1008.70
1.071,0.07,1.00,-0.01,-0.93,0.26,0.42,0.08,0.32,0.61,1008.70
1.072,0.06,1.00,0.00,-0.93,0.26,0.42,0.08,0.32,0.61,1008.70
1.072,0.10,1.00,-0.09,-0.93,0.26,0.42,0.08,0.32,0.61,1008.70
1.073,0.10,1.00,-0.09,-0.93,0.26,0.42,0.20,0.05,0.57,1008.70
1.073,0.10,1.00,-0.09,0.30,-0.05,0.02,0.20,0.05,0.57,1008.70
1.087,0.10,1.00,-0.09,0.30,-0.05,0.02,0.20,0.05,0.57,1008.70
1.129,0.12,1.01,-0.09,0.30,-0.05,0.02,0.20,0.05,0.57,1008.70
1.13,0.14,1.00,-0.05,0.30,-0.05,0.02,0.20,0.05,0.57,1008.70
1.13,0.19,0.99,-0.09,0.30,-0.05,0.02,0.20,0.05,0.57,1008.70
1.131,0.19,0.99,-0.09,0.74,-0.04,-0.29,0.20,0.05,0.57,1008.70
1.131,0.19,0.99,-0.09,0.74,-0.04,-0.29,0.24,-0.03,0.37,1008.70
1.166,0.19,0.99,-0.09,0.74,-0.04,-0.29,0.24,-0.03,0.37,1008.70
1.187,0.20,1.02,-0.18,0.74,-0.04,-0.29,0.24,-0.03,0.37,1008.70
1.188,0.11,1.05,-0.22,0.74,-0.04,-0.29,0.24,-0.03,0.37,1008.70
1.188,0.02,1.05,-0.10,0.74,-0.04,-0.29,0.24,-0.03,0.37,1008.70
1.188,0.02,1.05,-0.10,0.74,-0.04,-0.29,0.22,-0.00,0.13,1008.70
1.189,0.02,1.05,-0.10,0.28,0.37,-1.02,0.22,-0.00,0.13,1008.70
1.205,0.02,1.05,-0.10,0.28,0.37,-1.02,0.22,-0.00,0.13,1008.69
1.245,-0.15,1.04,0.04,0.28,0.37,-1.02,0.22,-0.00,0.13,1008.69
1.246,-0.42,1.18,-0.11,0.28,0.37,-1.02,0.22,-0.00,0.13,1008.69
1.246,-0.18,1.38,-0.16,0.28,0.37,-1.02,0.22,-0.00,0.13,1008.69
1.247,-0.18,1.38,-0.16,0.28,0.37,-1.02,0.32,-0.19,0.11,1008.69
1.247,-0.18,1.38,-0.16,-3.22,1.93,0.04,0.32,-0.19,0.11,1008.69
1.285,-0.18,1.38,-0.16,-3.22,1.93,0.04,0.32,-0.19,0.11,1008.70
1.31,0.32,1.43,-0.39,-3.22,1.93,0.04,0.32,-0.19,0.11,1008.70
1.311,0.23,1.44,-0.49,-3.22,1.93,0.04,0.32,-0.19,0.11,1008.70
1.312,-0.22,1.32,-0.32,-3.22,1.93,0.04,0.32,-0.19,0.11,1008.70
1.312,-0.22,1.32,-0.32,-3.22,1.93,0.04,0.29,-0.37,0.44,1008.70
1.312,-0.22,1.32,-0.32,0.08,3.78,-2.85,0.29,-0.37,0.44,1008.70
1.361,-0.44,1.10,-0.33,0.08,3.78,-2.85,0.29,-0.37,0.44,1008.70
1.362,-0.16,0.86,-0.18,0.08,3.78,-2.85,0.29,-0.37,0.44,1008.70
1.362,0.22,0.79,-0.23,0.08,3.78,-2.85,0.29,-0.37,0.44,1008.70
1.363,0.22,0.79,-0.23,-2.61,-0.86,-1.18,0.29,-0.37,0.44,1008.70
1.363,0.22,0.79,-0.23,-2.61,-0.86,-1.18,0.17,-0.17,0.75,1008.70
1.365,0.22,0.79,-0.23,-2.61,-0.86,-1.18,0.17,-0.17,0.75,1008.69
1.405,0.22,0.79,-0.23,-2.61,-0.86,-1.18,0.17,-0.17,0.75,1008.69
1.419,0.30,0.86,-0.35,-2.61,-0.86,-1.18,0.17,-0.17,0.75,1008.69
1.42,-0.11,0.80,-0.25,-2.61,-0.86,-1.18,0.17,-0.17,0.75,1008.69
1.421,-0.54,0.59,-0.22,-2.61,-0.86,-1.18,0.17,-0.17,0.75,1008.69
1.421,-0.54,0.59,-0.22,-2.61,-0.86,-1.18,0.01,-0.70,0.35,1008.69
1.422,-0.54,0.59,-0.22,-2.56,-2.38,-1.36,0.01,-0.70,0.35,1008.69
1.478,-0.74,0.49,-0.23,-2.56,-2.38,-1.36,0.01,-0.70,0.35,1008.69
1.479,-0.59,0.54,-0.26,-2.56,-2.38,-1.36,0.01,-0.70,0.35,1008.69
1.479,-0.37,0.62,-0.37,-2.56,-2.38,-1.36,0.01,-0.70,0.35,1008.69
1.479,-0.37,0.62,-0.37,-2.56,-2.38,-1.36,0.28,-2.53,-0.35,1008.69
1.48,-0.37,0.62,-0.37,-6.41,-4.25,-1.12,0.28,-2.53,-0.35,1008.69
1.486,-0.37,0.62,-0.37,-6.41,-4.25,-1.12,0.28,-2.53,-0.35,1008.69
1.536,-0.20,0.70,-0.43,-6.41,-4.25,-1.12,0.28,-2.53,-0.35,1008.69
1.538,-0.05,0.79,-0.42,-6.41,-4.25,-1.12,0.28,-2.53,-0.35,1008.69
1.538,0.06,0.88,-0.39,-6.41,-4.25,-1.12,0.28,-2.53,-0.35,1008.69
1.539,0.06,0.88,-0.39,-6.41,-4.25,-1.12,0.01,-2.10,-0.99,1008.69
1.54,0.06,0.88,-0.39,-0.71,-1.86,-2.28,0.01,-2.10,-0.99,1008.69
1.565,0.06,0.88,-0.39,-0.71,-1.86,-2.28,0.01,-2.10,-0.99,1008.70
1.595,0.09,0.91,-0.30,-0.71,-1.86,-2.28,0.01,-2.10,-0.99,1008.70
1.596,-0.03,0.91,-0.16,-0.71,-1.86,-2.28,0.01,-2.10,-0.99,1008.70
1.596,-0.17,0.87,-0.08,-0.71,-1.86,-2.28,0.01,-2.10,-0.99,1008.70
1.597,-0.17,0.87,-0.08,-0.71,-1.86,-2.28,-0.48,-0.95,-1.89,1008.70
1.597,-0.17,0.87,-0.08,0.69,-0.81,-0.23,-0.48,-0.95,-1.89,1008.70
1.605,-0.17,0.87,-0.08,0.69,-0.81,-0.23,-0.48,-0.95,-1.89,1008.69
1.654,-0.13,0.91,-0.08,0.69,-0.81,-0.23,-0.48,-0.95,-1.89,1008.69
1.655,0.05,1.06,-0.11,0.69,-0.81,-0.23,-0.48,-0.95,-1.89,1008.69
1.655,0.24,1.12,-0.03,0.69,-0.81,-0.23,-0.48,-0.95,-1.89,1008.69
1.655,0.24,1.12,-0.03,0.69,-0.81,-0.23,-0.37,-2.18,-1.15,1008.69
1.656,0.24,1.12,-0.03,2.35,0.60,0.38,-0.37,-2.18,-1.15,1008.69
1.687,0.24,1.12,-0.03,2.35,0.60,0.38,-0.37,-2.18,-1.15,1008.71
1.711,0.43,1.08,0.04,2.35,0.60,0.38,-0.37,-2.18,-1.15,1008.71
1.712,0.57,0.90,-0.17,2.35,0.60,0.38,-0.37,-2.18,-1.15,1008.71
1.712,0.91,1.02,-0.58,2.35,0.60,0.38,-0.37,-2.18,-1.15,1008.71
1.713,0.91,1.02,-0.58,2.35,0.60,0.38,-0.27,-4.08,1.06,1008.71
1.714,0.91,1.02,-0.58,7.49,0.16,-1.73,-0.27,-4.08,1.06,1008.71
1.765,0.91,1.02,-0.58,7.49,0.16,-1.73,-0.27,-4.08,1.06,1008.72
1.771,1.48,1.67,-0.25,7.49,0.16,-1.73,-0.27,-4.08,1.06,1008.72
1.772,0.04,2.24,1.86,7.49,0.16,-1.73,-0.27,-4.08,1.06,1008.72
1.773,-0.63,0.89,-0.16,7.49,0.16,-1.73,-0.27,-4.08,1.06,1008.72
1.773,-0.63,0.89,-0.16,3.24,5.82,5.02,-0.27,-4.08,1.06,1008.72
1.774,-0.63,0.89,-0.16,3.24,5.82,5.02,-0.38,-0.06,1.57,1008.72
1.806,-0.63,0.89,-0.16,3.24,5.82,5.02,-0.38,-0.06,1.57,1008.68
1.828,-0.48,0.57,-1.55,3.24,5.82,5.02,-0.38,-0.06,1.57,1008.68
1.829,0.28,0.76,-0.40,3.24,5.82,5.02,-0.38,-0.06,1.57,1008.68
1.829,0.68,0.99,0.64,3.24,5.82,5.02,-0.38,-0.06,1.57,1008.68
1.83,0.68,0.99,0.64,0.72,-2.21,-3.87,-0.38,-0.06,1.57,1008.68
1.83,0.68,0.99,0.64,0.72,-2.21,-3.87,0.14,0.47,2.00,1008.68
1.887,0.68,0.99,0.64,0.72,-2.21,-3.87,0.14,0.47,2.00,1008.69
1.888,0.68,0.99,0.64,1.91,0.72,-0.75,0.14,0.47,2.00,1008.69
1.89,0.29,1.21,-0.05,1.91,0.72,-0.75,0.14,0.47,2.00,1008.69
1.89,0.38,1.07,-0.18,1.91,0.72,-0.75,0.14,0.47,2.00,1008.69
1.89,0.40,0.91,-0.16,1.91,0.72,-0.75,0.14,0.47,2.00,1008.69
1.89,0.40,0.91,-0.16,1.91,0.72,-0.75,0.14,-0.20,1.24,1008.69
1.945,0.26,1.07,-0.14,1.91,0.72,-0.75,0.14,-0.20,1.24,1008.69
1.945,0.16,1.03,-0.07,1.91,0.72,-0.75,0.14,-0.20,1.24,1008.69
1.946,0.09,0.98,0.01,1.91,0.72,-0.75,0.14,-0.20,1.24,1008.69
1.946,0.09,0.98,0.01,-0.33,0.42,-0.15,0.14,-0.20,1.24,1008.69
1.946,0.09,0.98,0.01,-0.33,0.42,-0.15,0.01,0.06,0.70,1008.69
1.965,0.09,0.98,0.01,-0.33,0.42,-0.15,0.01,0.06,0.70,1008.70
2.005,0.09,0.98,0.01,0.24,-0.20,0.34,0.01,0.06,0.70,1008.70
2.005,0.23,0.96,-0.03,0.24,-0.20,0.34,0.01,0.06,0.70,1008.70
2.006,0.32,0.96,-0.01,0.24,-0.20,0.34,0.01,0.06,0.70,1008.70
2.006,0.26,0.94,-0.01,0.24,-0.20,0.34,0.01,0.06,0.70,1008.70
2.006,0.26,0.94,-0.01,0.24,-0.20,0.34,-0.00,-0.26,0.75,1008.70
2.008,0.26,0.94,-0.01,0.24,-0.20,0.34,-0.00,-0.26,0.75,1008.71
2.062,0.24,0.95,-0.04,0.24,-0.20,0.34,-0.00,-0.26,0.75,1008.71
2.062,0.22,1.00,-0.08,0.24,-0.20,0.34,-0.00,-0.26,0.75,1008.71
2.063,0.17,1.00,-0.07,0.24,-0.20,0.34,-0.00,-0.26,0.75,1008.71
2.063,0.17,1.00,-0.07,0.24,-0.20,0.34,0.03,-0.19,0.68,1008.71
2.064,0.17,1.00,-0.07,-0.71,0.18,-0.00,0.03,-0.19,0.68,1008.71
2.087,0.17,1.00,-0.07,-0.71,0.18,-0.00,0.03,-0.19,0.68,1008.71
2.121,0.17,1.01,-0.02,-0.71,0.18,-0.00,0.03,-0.19,0.68,1008.71
2.122,0.25,0.97,-0.05,-0.71,0.18,-0.00,0.03,-0.19,0.68,1008.71
2.122,0.33,0.93,-0.04,-0.71,0.18,-0.00,0.03,-0.19,0.68,1008.71
2.122,0.33,0.93,-0.04,-0.71,0.18,-0.00,0.12,-0.25,0.87,1008.71
2.123,0.33,0.93,-0.04,-0.77,0.21,0.33,0.12,-0.25,0.87,1008.71
2.166,0.33,0.93,-0.04,-0.77,0.21,0.33,0.12,-0.25,0.87,1008.71
2.178,0.33,0.93,-0.04,-1.07,0.52,0.24,0.12,-0.25,0.87,1008.71
2.179,0.33,0.97,-0.03,-1.07,0.52,0.24,0.12,-0.25,0.87,1008.71
2.18,0.24,0.98,-0.07,-1.07,0.52,0.24,0.12,-0.25,0.87,1008.71
2.18,0.24,0.98,-0.08,-1.07,0.52,0.24,0.12,-0.25,0.87,1008.71
2.18,0.24,0.98,-0.08,-1.07,0.52,0.24,0.18,-0.23,0.97,1008.71
2.206,0.24,0.98,-0.08,-1.07,0.52,0.24,0.18,-0.23,0.97,1008.70
2.236,0.27,1.05,-0.05,-1.07,0.52,0.24,0.18,-0.23,0.97,1008.70
2.238,0.22,1.07,-0.06,-1.07,0.52,0.24,0.18,-0.23,0.97,1008.70
2.238,0.23,0.96,-0.09,-1.07,0.52,0.24,0.18,-0.23,0.97,1008.70
2.239,0.23,0.96,-0.09,-1.07,0.52,0.24,0.12,-0.57,1.27,1008.70
2.239,0.23,0.96,-0.09,-1.96,1.28,0.37,0.12,-0.57,1.27,1008.70
2.287,0.23,0.96,-0.09,-1.96,1.28,0.37,0.12,-0.57,1.27,1008.70
2.296,0.32,0.93,-0.12,-1.96,1.28,0.37,0.12,-0.57,1.27,1008.70
2.297,0.31,1.03,-0.15,-1.96,1.28,0.37,0.12,-0.57,1.27,1008.70
2.297,0.24,1.13,-0.15,-1.96,1.28,0.37,0.12,-0.57,1.27,1008.70
2.298,0.24,1.13,-0.15,-1.96,1.28,0.37,0.34,-0.54,1.64,1008.70
2.299,0.24,1.13,-0.15,-2.19,1.71,-0.06,0.34,-0.54,1.64,1008.70
2.353,0.12,1.15,-0.13,-2.19,1.71,-0.06,0.34,-0.54,1.64,1008.70
2.355,0.11,1.17,-0.10,-2.19,1.71,-0.06,0.34,-0.54,1.64,1008.70
2.355,0.04,1.39,-0.06,-2.19,1.71,-0.06,0.34,-0.54,1.64,1008.70
2.355,0.04,1.39,-0.06,-2.19,1.71,-0.06,0.62,-0.50,2.08,1008.70
2.356,0.04,1.39,-0.06,-5.03,4.40,0.78,0.62,-0.50,2.08,1008.70
2.365,0.04,1.39,-0.06,-5.03,4.40,0.78,0.62,-0.50,2.08,1008.70
2.405,0.04,1.39,-0.06,-5.03,4.40,0.78,0.62,-0.50,2.08,1008.70
2.411,-0.26,1.80,0.14,-5.03,4.40,0.78,0.62,-0.50,2.08,1008.70
2.411,-0.67,2.00,-0.04,-5.03,4.40,0.78,0.62,-0.50,2.08,1008.70
2.412,-0.88,1.96,-0.09,-5.03,4.40,0.78,0.62,-0.50,2.08,1008.70
2.412,-0.88,1.96,-0.09,-5.03,4.40,0.78,0.65,-1.69,2.12,1008.70
2.412,-0.88,1.96,-0.09,-12.26,11.74,2.62,0.65,-1.69,2.12,1008.70
2.476,-0.22,1.42,-0.30,-12.26,11.74,2.62,0.65,-1.69,2.12,1008.70
2.477,0.88,1.08,-0.50,-12.26,11.74,2.62,0.65,-1.69,2.12,1008.70
2.477,1.26,0.97,-0.57,-12.26,11.74,2.62,0.65,-1.69,2.12,1008.70
2.478,1.26,0.97,-0.57,-12.26,11.74,2.62,1.03,-3.26,4.31,1008.70
2.478,1.26,0.97,-0.57,-0.94,6.09,-0.18,1.03,-3.26,4.31,1008.70
2.486,1.26,0.97,-0.57,-0.94,6.09,-0.18,1.03,-3.26,4.31,1008.70
2.529,1.18,0.68,-0.75,-0.94,6.09,-0.18,1.03,-3.26,4.31,1008.70
2.53,1.13,0.38,-1.11,-0.94,6.09,-0.18,1.03,-3.26,4.31,1008.70
2.53,0.87,0.31,-0.91,-0.94,6.09,-0.18,1.03,-3.26,4.31,1008.70
2.531,0.87,0.31,-0.91,-0.94,6.09,-0.18,-0.19,-0.72,1.95,1008.70
2.531,0.87,0.31,-0.91,2.71,0.03,-4.41,-0.19,-0.72,1.95,1008.70
2.566,0.87,0.31,-0.91,2.71,0.03,-4.41,-0.19,-0.72,1.95,1008.64
2.587,0.25,0.11,-0.61,2.71,0.03,-4.41,-0.19,-0.72,1.95,1008.64
2.589,-0.30,-0.03,-0.19,2.71,0.03,-4.41,-0.19,-0.72,1.95,1008.64
2.589,-0.48,-0.01,-0.26,2.71,0.03,-4.41,-0.19,-0.72,1.95,1008.64
2.59,-0.48,-0.01,-0.26,2.71,0.03,-4.41,-2.65,0.37,-2.21,1008.64
2.591,-0.48,-0.01,-0.26,-8.64,-5.70,0.21,-2.65,0.37,-2.21,1008.64
2.607,-0.48,-0.01,-0.26,-8.64,-5.70,0.21,-2.65,0.37,-2.21,1008.60
2.646,-0.24,0.22,-0.59,-8.64,-5.70,0.21,-2.65,0.37,-2.21,1008.60
2.648,0.12,0.40,-0.82,-8.64,-5.70,0.21,-2.65,0.37,-2.21,1008.60
2.649,0.26,0.46,-0.75,-8.64,-5.70,0.21,-2.65,0.37,-2.21,1008.60
2.65,0.26,0.46,-0.75,-8.64,-5.70,0.21,-2.52,-0.41,-3.12,1008.60
2.652,0.26,0.46,-0.75,-5.05,-3.96,-4.17,-2.52,-0.41,-3.12,1008.60
2.686,0.26,0.46,-0.75,-5.05,-3.96,-4.17,-2.52,-0.41,-3.12,1008.65
2.707,0.27,0.45,-0.55,-5.05,-3.96,-4.17,-2.52,-0.41,-3.12,1008.65
2.709,0.16,0.46,-0.36,-5.05,-3.96,-4.17,-2.52,-0.41,-3.12,1008.65
2.71,0.06,0.73,-0.40,-5.05,-3.96,-4.17,-2.52,-0.41,-3.12,1008.65
2.712,0.06,0.73,-0.40,-1.19,-3.67,-2.33,-2.52,-0.41,-3.12,1008.65
2.713,0.06,0.73,-0.40,-1.19,-3.67,-2.33,-2.79,-1.57,-5.05,1008.65
2.763,0.09,1.29,-0.60,-1.19,-3.67,-2.33,-2.79,-1.57,-5.05,1008.65
2.766,0.40,1.46,-0.83,-1.19,-3.67,-2.33,-2.79,-1.57,-5.05,1008.65
2.767,0.81,1.35,-0.89,-1.19,-3.67,-2.33,-2.79,-1.57,-5.05,1008.65
2.768,0.81,1.35,-0.89,-1.19,-3.67,-2.33,-1.95,-1.96,-5.29,1008.65
2.77,0.81,1.35,-0.89,4.49,3.71,-6.43,-1.95,-1.96,-5.29,1008.65
2.772,0.81,1.35,-0.89,4.49,3.71,-6.43,-1.95,-1.96,-5.29,1008.68
2.808,0.81,1.35,-0.89,4.49,3.71,-6.43,-1.95,-1.96,-5.29,1008.70
2.822,0.95,1.48,-0.64,4.49,3.71,-6.43,-1.95,-1.96,-5.29,1008.70
2.824,1.07,1.23,-0.54,4.49,3.71,-6.43,-1.95,-1.96,-5.29,1008.70
2.825,1.09,0.75,-0.34,4.49,3.71,-6.43,-1.95,-1.96,-5.29,1008.70
2.826,1.09,0.75,-0.34,4.49,3.71,-6.43,-1.70,-0.16,-3.82,1008.70
2.827,1.09,0.75,-0.34,12.34,1.80,-4.68,-1.70,-0.16,-3.82,1008.70
2.882,1.09,0.75,-0.34,8.10,-0.62,0.07,-1.70,-0.16,-3.82,1008.70
2.885,0.84,0.80,-0.07,8.10,-0.62,0.07,-1.70,-0.16,-3.82,1008.70
2.886,0.50,1.00,0.00,8.10,-0.62,0.07,-1.70,-0.16,-3.82,1008.70
2.887,0.34,0.86,0.03,8.10,-0.62,0.07,-1.70,-0.16,-3.82,1008.70
2.888,0.34,0.86,0.03,8.10,-0.62,0.07,-0.47,1.23,-1.08,1008.70
2.889,0.34,0.86,0.03,8.10,-0.62,0.07,-0.47,1.23,-1.08,1008.70
2.938,0.41,0.68,-0.10,8.10,-0.62,0.07,-0.47,1.23,-1.08,1008.70
2.94,0.61,0.70,-0.81,8.10,-0.62,0.07,-0.47,1.23,-1.08,1008.70
2.941,0.24,1.58,-0.87,8.10,-0.62,0.07,-0.47,1.23,-1.08,1008.70
2.942,0.24,1.58,-0.87,8.10,-0.62,0.07,0.11,0.47,1.74,1008.70
2.943,0.24,1.58,-0.87,5.65,0.13,-5.40,0.11,0.47,1.74,1008.70
2.966,0.24,1.58,-0.87,5.65,0.13,-5.40,0.11,0.47,1.74,1008.73
2.995,-1.24,2.32,0.58,5.65,0.13,-5.40,0.11,0.47,1.74,1008.73
2.997,-1.03,2.11,0.70,5.65,0.13,-5.40,0.11,0.47,1.74,1008.73
2.998,0.56,0.98,-0.68,5.65,0.13,-5.40,0.11,0.47,1.74,1008.73
2.998,0.56,0.98,-0.68,5.65,0.13,-5.40,-0.11,1.45,0.67,1008.73
2.999,0.56,0.98,-0.68,-4.37,7.95,2.38,-0.11,1.45,0.67,1008.73
3.012,0.56,0.98,-0.68,-4.37,7.95,2.38,-0.11,1.45,0.67,1008.72
3.055,0.78,0.60,-1.11,-4.37,7.95,2.38,-0.11,1.45,0.67,1008.72
3.058,0.61,0.50,0.72,-4.37,7.95,2.38,-0.11,1.45,0.67,1008.72
3.059,0.01,0.81,0.85,-4.37,7.95,2.38,-0.11,1.45,0.67,1008.72
3.06,0.01,0.81,0.85,-4.37,7.95,2.38,-0.08,0.72,2.05,1008.72
3.061,0.01,0.81,0.85,4.54,-3.52,1.89,-0.08,0.72,2.05,1008.72
3.087,0.01,0.81,0.85,4.54,-3.52,1.89,-0.08,0.72,2.05,1008.69
3.114,-0.47,1.26,-0.32,4.54,-3.52,1.89,-0.08,0.72,2.05,1008.69
3.116,-0.00,1.21,-0.54,4.54,-3.52,1.89,-0.08,0.72,2.05,1008.69
3.118,0.58,1.01,-0.36,4.54,-3.52,1.89,-0.08,0.72,2.05,1008.69
3.119,0.58,1.01,-0.36,4.54,-3.52,1.89,0.51,-0.32,1.46,1008.69
3.12,0.58,1.01,-0.36,-0.53,1.63,-3.28,0.51,-0.32,1.46,1008.69
3.167,0.58,1.01,-0.36,-0.53,1.63,-3.28,0.51,-0.32,1.46,1008.69
3.171,0.56,0.94,-0.27,-0.53,1.63,-3.28,0.51,-0.32,1.46,1008.69
3.173,0.20,0.92,-0.06,-0.53,1.63,-3.28,0.51,-0.32,1.46,1008.69
3.174,-0.11,0.97,0.06,-0.53,1.63,-3.28,0.51,-0.32,1.46,1008.69
3.175,-0.11,0.97,0.06,-0.53,1.63,-3.28,0.08,0.36,0.72,1008.69
3.176,-0.11,0.97,0.06,0.83,-0.39,-0.13,0.08,0.36,0.72,1008.69
3.21,-0.11,0.97,0.06,0.83,-0.39,-0.13,0.08,0.36,0.72,1008.67
3.229,-0.13,1.01,0.02,0.83,-0.39,-0.13,0.08,0.36,0.72,1008.67
3.231,0.03,0.97,-0.01,0.83,-0.39,-0.13,0.08,0.36,0.72,1008.67
3.232,0.17,0.95,-0.05,0.83,-0.39,-0.13,0.08,0.36,0.72,1008.67
3.232,0.17,0.95,-0.05,0.83,-0.39,-0.13,0.17,-0.10,0.92,1008.67
3.233,0.17,0.95,-0.05,-1.57,0.00,0.73,0.17,-0.10,0.92,1008.67
3.288,0.17,0.95,-0.05,-1.57,0.00,0.73,0.17,-0.10,0.92,1008.71
3.29,0.21,0.94,-0.08,-1.57,0.00,0.73,0.17,-0.10,0.92,1008.71
3.291,0.21,0.95,-0.07,-1.57,0.00,0.73,0.17,-0.10,0.92,1008.71
3.292,0.20,0.99,-0.07,-1.57,0.00,0.73,0.17,-0.10,0.92,1008.71
3.293,0.20,0.99,-0.07,-1.57,0.00,0.73,0.24,-0.33,1.05,1008.71
3.294,0.20,0.99,-0.07,-0.32,-0.02,0.30,0.24,-0.33,1.05,1008.71
3.347,0.10,1.00,-0.06,-0.32,-0.02,0.30,0.24,-0.33,1.05,1008.71
3.349,0.07,0.99,-0.09,-0.32,-0.02,0.30,0.24,-0.33,1.05,1008.71
3.35,0.20,0.98,-0.11,-0.32,-0.02,0.30,0.24,-0.33,1.05,1008.71
3.351,0.20,0.98,-0.11,-0.32,-0.02,0.30,0.38,-0.32,1.22,1008.71
3.352,0.20,0.98,-0.11,-1.78,0.44,0.42,0.38,-0.32,1.22,1008.71
3.369,0.20,0.98,-0.11,-1.78,0.44,0.42,0.38,-0.32,1.22,1008.72
3.405,0.34,0.97,-0.14,-1.78,0.44,0.42,0.38,-0.32,1.22,1008.72
3.407,0.37,0.98,-0.20,-1.78,0.44,0.42,0.38,-0.32,1.22,1008.72
3.408,0.35,0.98,-0.20,-1.78,0.44,0.42,0.38,-0.32,1.22,1008.72
3.409,0.35,0.98,-0.20,-1.78,0.44,0.42,0.42,-0.44,1.46,1008.72
3.41,0.35,0.98,-0.20,-0.24,0.64,-0.16,0.42,-0.44,1.46,1008.72
3.411,0.35,0.98,-0.20,-0.24,0.64,-0.16,0.42,-0.44,1.46,1008.71
3.462,0.37,1.01,-0.16,-0.24,0.64,-0.16,0.42,-0.44,1.46,1008.71
3.463,0.41,1.03,-0.11,-0.24,0.64,-0.16,0.42,-0.44,1.46,1008.71
3.464,0.31,1.04,-0.15,-0.24,0.64,-0.16,0.42,-0.44,1.46,1008.71
3.464,0.31,1.04,-0.15,-0.75,1.50,0.53,0.42,-0.44,1.46,1008.71
3.465,0.31,1.04,-0.15,-0.75,1.50,0.53,0.52,-0.27,1.35,1008.71
3.486,0.31,1.04,-0.15,-0.75,1.50,0.53,0.52,-0.27,1.35,1008.71
3.521,0.21,1.09,-0.19,-0.75,1.50,0.53,0.52,-0.27,1.35,1008.71
3.522,0.19,1.12,-0.24,-0.75,1.50,0.53,0.52,-0.27,1.35,1008.71
3.522,0.21,1.18,-0.33,-0.75,1.50,0.53,0.52,-0.27,1.35,1008.71
3.523,0.21,1.18,-0.33,-0.75,1.50,0.53,0.71,-0.50,1.57,1008.71
3.523,0.21,1.18,-0.33,-2.97,2.97,-0.08,0.71,-0.50,1.57,1008.71
3.568,0.21,1.18,-0.33,-2.97,2.97,-0.08,0.71,-0.50,1.57,1008.71
3.579,0.19,1.36,-0.31,-2.97,2.97,-0.08,0.71,-0.50,1.57,1008.71
3.58,-0.05,1.65,-0.18,-2.97,2.97,-0.08,0.71,-0.50,1.57,1008.71
3.58,-0.51,1.84,-0.13,-2.97,2.97,-0.08,0.71,-0.50,1.57,1008.71
3.581,-0.51,1.84,-0.13,-2.97,2.97,-0.08,1.15,-0.58,1.73,1008.71
3.581,-0.51,1.84,-0.13,-6.75,8.35,1.05,1.15,-0.58,1.73,1008.71
3.613,-0.51,1.84,-0.13,-6.75,8.35,1.05,1.15,-0.58,1.73,1008.70
3.639,-0.89,1.80,-0.16,-6.75,8.35,1.05,1.15,-0.58,1.73,1008.70
3.642,-0.79,1.44,0.05,-6.75,8.35,1.05,1.15,-0.58,1.73,1008.70
3.643,0.22,1.07,-0.04,-6.75,8.35,1.05,1.15,-0.58,1.73,1008.70
3.644,0.22,1.07,-0.04,-6.75,8.35,1.05,1.32,-1.49,2.45,1008.70
3.645,0.22,1.07,-0.04,-10.83,7.51,3.58,1.32,-1.49,2.45,1008.70
3.686,0.22,1.07,-0.04,-10.83,7.51,3.58,1.32,-1.49,2.45,1008.70
3.7,1.09,1.06,-0.37,-10.83,7.51,3.58,1.32,-1.49,2.45,1008.70
3.702,1.40,0.98,-0.54,-10.83,7.51,3.58,1.32,-1.49,2.45,1008.70
3.702,1.20,0.72,-0.53,-10.83,7.51,3.58,1.32,-1.49,2.45,1008.70
3.703,1.20,0.72,-0.53,-10.83,7.51,3.58,1.91,-1.11,3.26,1008.70
3.703,1.20,0.72,-0.53,5.12,4.16,0.44,1.91,-1.11,3.26,1008.70
3.755,0.91,0.49,-0.54,5.12,4.16,0.44,1.91,-1.11,3.26,1008.70
3.756,0.67,0.37,-0.34,5.12,4.16,0.44,1.91,-1.11,3.26,1008.70
3.756,0.34,0.22,-0.08,5.12,4.16,0.44,1.91,-1.11,3.26,1008.70
3.757,0.34,0.22,-0.08,5.12,4.16,0.44,-0.26,1.27,-0.18,1008.70
3.757,0.34,0.22,-0.08,-0.95,-1.43,1.36,-0.26,1.27,-0.18,1008.70
3.766,0.34,0.22,-0.08,-0.95,-1.43,1.36,-0.26,1.27,-0.18,1008.66
3.808,0.34,0.22,-0.08,-0.95,-1.43,1.36,-0.26,1.27,-0.18,1008.63
3.812,0.09,0.13,0.26,-0.95,-1.43,1.36,-0.26,1.27,-0.18,1008.63
3.812,-0.02,0.11,0.19,-0.95,-1.43,1.36,-0.26,1.27,-0.18,1008.63
3.813,0.02,0.27,-0.06,-0.95,-1.43,1.36,-0.26,1.27,-0.18,1008.63
3.813,0.02,0.27,-0.06,-0.95,-1.43,1.36,-1.13,0.52,-2.84,1008.63
3.814,0.02,0.27,-0.06,-6.00,-4.66,5.08,-1.13,0.52,-2.84,1008.63
3.87,0.28,0.48,-0.28,-6.00,-4.66,5.08,-1.13,0.52,-2.84,1008.63
3.872,0.52,0.60,-0.26,-6.00,-4.66,5.08,-1.13,0.52,-2.84,1008.63
3.872,0.55,0.60,-0.14,-6.00,-4.66,5.08,-1.13,0.52,-2.84,1008.63
3.873,0.55,0.60,-0.14,-6.00,-4.66,5.08,-1.51,-0.34,-3.78,1008.63
3.874,0.55,0.60,-0.14,-0.27,-2.33,1.06,-1.51,-0.34,-3.78,1008.63
3.887,0.55,0.60,-0.14,-0.27,-2.33,1.06,-1.51,-0.34,-3.78,1008.70
3.929,0.49,0.60,-0.10,-0.27,-2.33,1.06,-1.51,-0.34,-3.78,1008.70
3.93,0.45,0.74,-0.20,-0.27,-2.33,1.06,-1.51,-0.34,-3.78,1008.70
3.931,0.50,1.00,-0.32,-0.27,-2.33,1.06,-1.51,-0.34,-3.78,1008.70
3.931,0.50,1.00,-0.32,2.70,-1.51,0.13,-1.51,-0.34,-3.78,1008.70
3.932,0.50,1.00,-0.32,2.70,-1.51,0.13,-2.47,-0.66,-5.15,1008.70
3.966,0.50,1.00,-0.32,2.70,-1.51,0.13,-2.47,-0.66,-5.15,1008.69
3.987,0.63,1.37,-0.37,2.70,-1.51,0.13,-2.47,-0.66,-5.15,1008.69
3.987,0.65,1.58,-0.53,2.70,-1.51,0.13,-2.47,-0.66,-5.15,1008.69
3.988,0.64,1.51,-0.61,2.70,-1.51,0.13,-2.47,-0.66,-5.15,1008.69
3.988,0.64,1.51,-0.61,2.70,-1.51,0.13,-2.83,-0.12,-5.41,1008.69
3.989,0.64,1.51,-0.61,7.14,4.94,-4.28,-2.83,-0.12,-5.41,1008.69
4.008,0.64,1.51,-0.61,7.14,4.94,-4.28,-2.83,-0.12,-5.41,1008.68
4.046,0.82,1.35,-0.40,7.14,4.94,-4.28,-2.83,-0.12,-5.41,1008.68
4.047,1.01,1.17,-0.21,7.14,4.94,-4.28,-2.83,-0.12,-5.41,1008.68
4.047,0.88,0.97,-0.37,7.14,4.94,-4.28,-2.83,-0.12,-5.41,1008.68
4.047,0.88,0.97,-0.37,7.14,4.94,-4.28,-2.36,0.88,-3.36,1008.68
4.048,0.88,0.97,-0.37,11.41,2.05,-3.69,-2.36,0.88,-3.36,1008.68
4.087,0.88,0.97,-0.37,11.41,2.05,-3.69,-2.36,0.88,-3.36,1008.69
4.104,0.59,0.77,-0.51,11.41,2.05,-3.69,-2.36,0.88,-3.36,1008.69
4.105,0.47,0.74,-0.32,11.41,2.05,-3.69,-2.36,0.88,-3.36,1008.69
4.105,0.46,0.82,-0.35,11.41,2.05,-3.69,-2.36,0.88,-3.36,1008.69
4.105,0.46,0.82,-0.35,11.41,2.05,-3.69,-0.65,1.16,-0.44,1008.69
4.106,0.46,0.82,-0.35,7.68,-1.59,-4.40,-0.65,1.16,-0.44,1008.69
4.163,0.68,1.02,-1.02,7.68,-1.59,-4.40,-0.65,1.16,-0.44,1008.69
4.164,0.13,1.52,-0.79,7.68,-1.59,-4.40,-0.65,1.16,-0.44,1008.69
4.164,-1.63,1.81,0.74,7.68,-1.59,-4.40,-0.65,1.16,-0.44,1008.69
4.165,-1.63,1.81,0.74,7.68,-1.59,-4.40,-0.06,2.19,0.64,1008.69
4.171,-1.63,1.81,0.74,-0.25,4.79,-3.70,-0.06,2.19,0.64,1008.69
4.175,-1.63,1.81,0.74,-0.25,4.79,-3.70,-0.06,2.19,0.64,1008.70
4.207,-1.63,1.81,0.74,-0.25,4.79,-3.70,-0.06,2.19,0.64,1008.67
4.22,-1.27,1.71,-0.05,-0.25,4.79,-3.70,-0.06,2.19,0.64,1008.67
4.22,0.20,1.11,-1.14,-0.25,4.79,-3.70,-0.06,2.19,0.64,1008.67
4.22,0.63,0.70,-0.33,-0.25,4.79,-3.70,-0.06,2.19,0.64,1008.67
4.221,0.63,0.70,-0.33,-0.25,4.79,-3.70,0.54,1.09,2.02,1008.67
4.221,0.63,0.70,-0.33,-0.16,1.84,-4.65,0.54,1.09,2.02,1008.67
4.279,0.39,0.65,0.54,-0.16,1.84,-4.65,0.54,1.09,2.02,1008.67
4.28,-0.02,1.05,0.07,-0.16,1.84,-4.65,0.54,1.09,2.02,1008.67
4.28,0.10,1.16,-0.17,-0.16,1.84,-4.65,0.54,1.09,2.02,1008.67
4.281,0.10,1.16,-0.17,-0.16,1.84,-4.65,-0.17,-0.23,1.19,1008.67
4.281,0.10,1.16,-0.17,2.14,-0.38,1.64,-0.17,-0.23,1.19,1008.67
4.287,0.10,1.16,-0.17,2.14,-0.38,1.64,-0.17,-0.23,1.19,1008.71
4.338,0.21,0.99,-0.08,2.14,-0.38,1.64,-0.17,-0.23,1.19,1008.71
4.339,-0.05,1.00,-0.06,2.14,-0.38,1.64,-0.17,-0.23,1.19,1008.71
4.34,-0.26,1.06,0.05,2.14,-0.38,1.64,-0.17,-0.23,1.19,1008.71
4.341,-0.26,1.06,0.05,-0.10,0.24,-0.19,-0.17,-0.23,1.19,1008.71
4.342,-0.26,1.06,0.05,-0.10,0.24,-0.19,-0.12,0.14,0.64,1008.71
4.366,-0.26,1.06,0.05,-0.10,0.24,-0.19,-0.12,0.14,0.64,1008.73
4.395,-0.20,1.01,0.19,-0.10,0.24,-0.19,-0.12,0.14,0.64,1008.73
4.396,-0.10,0.95,0.20,-0.10,0.24,-0.19,-0.12,0.14,0.64,1008.73
4.397,-0.11,0.98,0.17,-0.10,0.24,-0.19,-0.12,0.14,0.64,1008.73
4.397,-0.11,0.98,0.17,-0.10,0.24,-0.19,0.12,-0.10,0.94,1008.73
4.398,-0.11,0.98,0.17,-1.62,-0.09,1.95,0.12,-0.10,0.94,1008.73
4.408,-0.11,0.98,0.17,-1.62,-0.09,1.95,0.12,-0.10,0.94,1008.71
4.454,-0.04,1.00,0.08,-1.62,-0.09,1.95,0.12,-0.10,0.94,1008.71
4.455,0.06,0.98,-0.03,-1.62,-0.09,1.95,0.12,-0.10,0.94,1008.71
4.455,0.13,0.98,-0.02,-1.62,-0.09,1.95,0.12,-0.10,0.94,1008.71
4.456,0.13,0.98,-0.02,-1.62,-0.09,1.95,0.40,-0.20,1.24,1008.71
4.456,0.13,0.98,-0.02,-0.50,-0.03,0.48,0.40,-0.20,1.24,1008.71
4.488,0.13,0.98,-0.02,-0.50,-0.03,0.48,0.40,-0.20,1.24,1008.72
4.513,0.05,0.98,0.06,-0.50,-0.03,0.48,0.40,-0.20,1.24,1008.72
4.515,0.10,0.97,0.03,-0.50,-0.03,0.48,0.40,-0.20,1.24,1008.72
4.516,0.21,0.98,-0.10,-0.50,-0.03,0.48,0.40,-0.20,1.24,1008.72
4.517,0.21,0.98,-0.10,-0.50,-0.03,0.48,0.50,-0.04,1.33,1008.72
4.518,0.21,0.98,-0.10,-0.54,0.01,0.65,0.50,-0.04,1.33,1008.72
4.567,0.21,0.98,-0.10,-0.54,0.01,0.65,0.50,-0.04,1.33,1008.72
4.57,0.22,1.00,-0.18,-0.54,0.01,0.65,0.50,-0.04,1.33,1008.72
4.571,0.24,1.00,-0.18,-0.54,0.01,0.65,0.50,-0.04,1.33,1008.72
4.571,0.29,1.00,-0.19,-0.54,0.01,0.65,0.50,-0.04,1.33,1008.72
4.572,0.29,1.00,-0.19,-0.54,0.01,0.65,0.50,-0.28,1.25,1008.72
4.572,0.29,1.00,-0.19,0.06,0.42,-0.85,0.50,-0.28,1.25,1008.72
4.607,0.29,1.00,-0.19,0.06,0.42,-0.85,0.50,-0.28,1.25,1008.71
4.631,0.25,1.01,-0.15,0.06,0.42,-0.85,0.50,-0.28,1.25,1008.71
4.632,0.15,1.00,-0.13,0.06,0.42,-0.85,0.50,-0.28,1.25,1008.71
4.633,0.10,0.99,-0.12,0.06,0.42,-0.85,0.50,-0.28,1.25,1008.71
4.633,0.10,0.99,-0.12,0.06,0.42,-0.85,0.49,-0.25,1.13,1008.71
4.634,0.10,0.99,-0.12,-1.34,0.61,-0.03,0.49,-0.25,1.13,1008.71
4.687,0.10,0.99,-0.12,-1.34,0.61,-0.03,0.49,-0.25,1.13,1008.72
4.688,0.10,1.02,-0.06,-1.34,0.61,-0.03,0.49,-0.25,1.13,1008.72
4.688,0.12,1.07,-0.06,-1.34,0.61,-0.03,0.49,-0.25,1.13,1008.72
4.688,0.16,1.10,-0.06,-1.34,0.61,-0.03,0.49,-0.25,1.13,1008.72
4.689,0.16,1.10,-0.06,-1.34,0.61,-0.03,0.73,-0.13,1.56,1008.72
4.689,0.16,1.10,-0.06,-2.47,1.56,1.09,0.73,-0.13,1.56,1008.72
4.747,0.17,1.10,-0.08,-2.47,1.56,1.09,0.73,-0.13,1.56,1008.72
4.747,0.15,1.19,-0.13,-2.47,1.56,1.09,0.73,-0.13,1.56,1008.72
4.748,0.06,1.46,-0.06,-2.47,1.56,1.09,0.73,-0.13,1.56,1008.72
4.748,0.06,1.46,-0.06,-3.35,3.97,1.38,0.73,-0.13,1.56,1008.72
4.749,0.06,1.46,-0.06,-3.35,3.97,1.38,1.04,-0.44,1.95,1008.72
4.766,0.06,1.46,-0.06,-3.35,3.97,1.38,1.04,-0.44,1.95,1008.72
4.804,-0.30,1.79,-0.04,-3.35,3.97,1.38,1.04,-0.44,1.95,1008.72
4.805,-0.76,1.94,-0.19,-3.35,3.97,1.38,1.04,-0.44,1.95,1008.72
4.805,-1.06,1.83,-0.14,-3.35,3.97,1.38,1.04,-0.44,1.95,1008.72
4.805,-1.06,1.83,-0.14,-3.35,3.97,1.38,1.27,-1.20,2.01,1008.72
4.806,-1.06,1.83,-0.14,-12.02,10.45,1.99,1.27,-1.20,2.01,1008.72
4.806,-1.06,1.83,-0.14,-12.02,10.45,1.99,1.27,-1.20,2.01,1008.72
4.863,-0.49,1.23,0.07,-12.02,10.45,1.99,1.27,-1.20,2.01,1008.72
4.866,0.53,0.94,-0.33,-12.02,10.45,1.99,1.27,-1.20,2.01,1008.72
4.867,1.18,0.90,-0.67,-12.02,10.45,1.99,1.27,-1.20,2.01,1008.72
4.868,1.18,0.90,-0.67,-2.00,3.89,1.70,1.27,-1.20,2.01,1008.72
4.869,1.18,0.90,-0.67,-2.00,3.89,1.70,1.57,-3.01,3.90,1008.72
4.887,1.18,0.90,-0.67,-2.00,3.89,1.70,1.57,-3.01,3.90,1008.72
4.921,1.22,0.79,-0.61,-2.00,3.89,1.70,1.57,-3.01,3.90,1008.72
4.922,0.96,0.46,-0.68,-2.00,3.89,1.70,1.57,-3.01,3.90,1008.72
4.922,0.83,0.28,-0.88,-2.00,3.89,1.70,1.57,-3.01,3.90,1008.72
4.922,0.83,0.28,-0.88,-2.00,3.89,1.70,0.67,-1.00,1.77,1008.72
4.922,0.83,0.28,-0.88,3.53,-0.30,-1.70,0.67,-1.00,1.77,1008.72
4.966,0.83,0.28,-0.88,3.53,-0.30,-1.70,0.67,-1.00,1.77,1008.68
4.978,0.58,0.23,-0.56,3.53,-0.30,-1.70,0.67,-1.00,1.77,1008.68
4.979,0.31,0.07,-0.30,3.53,-0.30,-1.70,0.67,-1.00,1.77,1008.68
4.98,-0.04,0.02,0.04,3.53,-0.30,-1.70,0.67,-1.00,1.77,1008.68
4.98,-0.04,0.02,0.04,3.53,-0.30,-1.70,-2.17,0.66,-1.14,1008.68
4.98,-0.04,0.02,0.04,-3.25,-5.21,1.69,-2.17,0.66,-1.14,1008.68
5.007,-0.04,0.02,0.04,-3.25,-5.21,1.69,-2.17,0.66,-1.14,1008.64
5.037,-0.20,-0.01,0.03,-3.25,-5.21,1.69,-2.17,0.66,-1.14,1008.64
5.038,-0.04,0.11,-0.25,-3.25,-5.21,1.69,-2.17,0.66,-1.14,1008.64
5.038,0.24,0.26,-0.50,-3.25,-5.21,1.69,-2.17,0.66,-1.14,1008.64
5.038,0.24,0.26,-0.50,-3.25,-5.21,1.69,-2.38,0.36,-3.02,1008.64
5.038,0.24,0.26,-0.50,-4.84,-6.48,0.89,-2.38,0.36,-3.02,1008.64
5.087,0.24,0.26,-0.50,-4.84,-6.48,0.89,-2.38,0.36,-3.02,1008.69
5.097,0.24,0.26,-0.50,1.93,-4.03,-1.83,-2.38,0.36,-3.02,1008.69
5.097,0.43,0.43,-0.60,1.93,-4.03,-1.83,-2.38,0.36,-3.02,1008.69
5.098,0.52,0.51,-0.37,1.93,-4.03,-1.83,-2.38,0.36,-3.02,1008.69
5.103,0.47,0.58,-0.16,1.93,-4.03,-1.83,-2.38,0.36,-3.02,1008.69
5.103,0.47,0.58,-0.16,1.93,-4.03,-1.83,-2.69,0.57,-4.49,1008.69
5.153,0.49,0.86,-0.31,1.93,-4.03,-1.83,-2.69,0.57,-4.49,1008.69
5.154,0.76,1.32,-0.57,1.93,-4.03,-1.83,-2.69,0.57,-4.49,1008.69
5.154,0.98,1.41,-0.78,1.93,-4.03,-1.83,-2.69,0.57,-4.49,1008.69
5.154,0.98,1.41,-0.78,1.93,-4.03,-1.83,-1.86,-0.69,-4.55,1008.69
5.155,0.98,1.41,-0.78,6.95,2.18,-4.46,-1.86,-0.69,-4.55,1008.69
5.166,0.98,1.41,-0.78,6.95,2.18,-4.46,-1.86,-0.69,-4.55,1008.71
5.21,0.98,1.41,-0.78,6.95,2.18,-4.46,-1.86,-0.69,-4.55,1008.72
5.214,1.09,1.27,-0.71,6.95,2.18,-4.46,-1.86,-0.69,-4.55,1008.72
5.214,1.07,1.07,-0.42,6.95,2.18,-4.46,-1.86,-0.69,-4.55,1008.72
5.215,0.84,0.87,-0.42,6.95,2.18,-4.46,-1.86,-0.69,-4.55,1008.72
5.215,0.84,0.87,-0.42,10.58,0.91,-4.88,-1.86,-0.69,-4.55,1008.72
5.216,0.84,0.87,-0.42,10.58,0.91,-4.88,-1.53,-0.89,-2.25,1008.72
5.27,0.57,0.99,-0.25,10.58,0.91,-4.88,-1.53,-0.89,-2.25,1008.72
5.27,1.03,1.12,-0.59,10.58,0.91,-4.88,-1.53,-0.89,-2.25,1008.72
5.27,0.56,1.85,-0.17,10.58,0.91,-4.88,-1.53,-0.89,-2.25,1008.72
5.271,0.56,1.85,-0.17,10.58,0.91,-4.88,-0.36,1.00,0.70,1008.72
5.271,0.56,1.85,-0.17,7.33,3.27,-3.23,-0.36,1.00,0.70,1008.72
5.286,0.56,1.85,-0.17,7.33,3.27,-3.23,-0.36,1.00,0.70,1008.70
5.329,-1.15,1.86,-0.45,7.33,3.27,-3.23,-0.36,1.00,0.70,1008.70
5.329,-1.21,0.90,-0.57,7.33,3.27,-3.23,-0.36,1.00,0.70,1008.70
5.33,-0.03,0.63,0.07,7.33,3.27,-3.23,-0.36,1.00,0.70,1008.70
5.33,-0.03,0.63,0.07,7.33,3.27,-3.23,0.50,0.82,0.34,1008.70
5.331,-0.03,0.63,0.07,-7.61,1.38,-2.73,0.50,0.82,0.34,1008.70
5.368,-0.03,0.63,0.07,-7.61,1.38,-2.73,0.50,0.82,0.34,1008.71
5.387,0.49,0.82,0.06,-7.61,1.38,-2.73,0.50,0.82,0.34,1008.71
5.389,0.51,0.97,-0.04,-7.61,1.38,-2.73,0.50,0.82,0.34,1008.71
5.39,0.30,1.09,-0.14,-7.61,1.38,-2.73,0.50,0.82,0.34,1008.71
5.391,0.30,1.09,-0.14,-7.61,1.38,-2.73,0.00,-0.66,1.28,1008.71
5.394,0.30,1.09,-0.14,3.70,-0.25,0.02,0.00,-0.66,1.28,1008.71
5.407,0.30,1.09,-0.14,3.70,-0.25,0.02,0.00,-0.66,1.28,1008.69
5.448,0.30,1.09,-0.14,1.27,0.31,-0.41,0.00,-0.66,1.28,1008.69
5.449,0.24,1.10,-0.11,1.27,0.31,-0.41,0.00,-0.66,1.28,1008.69
5.45,0.22,0.98,-0.08,1.27,0.31,-0.41,0.00,-0.66,1.28,1008.69
5.45,0.17,0.97,-0.05,1.27,0.31,-0.41,0.00,-0.66,1.28,1008.69
5.451,0.17,0.97,-0.05,1.27,0.31,-0.41,-0.04,-0.05,0.30,1008.69
5.489,0.17,0.97,-0.05,1.27,0.31,-0.41,-0.04,-0.05,0.30,1008.71
5.504,0.07,1.04,0.00,1.27,0.31,-0.41,-0.04,-0.05,0.30,1008.71
5.505,0.00,1.05,0.01,1.27,0.31,-0.41,-0.04,-0.05,0.30,1008.71
5.506,0.02,0.99,-0.01,1.27,0.31,-0.41,-0.04,-0.05,0.30,1008.71
5.506,0.02,0.99,-0.01,1.27,0.31,-0.41,0.02,0.12,-0.00,1008.71
5.506,0.02,0.99,-0.01,-0.46,0.42,0.41,0.02,0.12,-0.00,1008.71
5.563,0.09,0.96,0.01,-0.46,0.42,0.41,0.02,0.12,-0.00,1008.71
5.565,0.09,0.97,-0.03,-0.46,0.42,0.41,0.02,0.12,-0.00,1008.71
5.567,0.03,0.97,-0.00,-0.46,0.42,0.41,0.02,0.12,-0.00,1008.71
5.568,0.03,0.97,-0.00,-0.46,0.42,0.41,0.11,-0.19,0.05,1008.71
5.569,0.03,0.97,-0.00,-0.09,-0.16,0.39,0.11,-0.19,0.05,1008.71
5.57,0.03,0.97,-0.00,-0.09,-0.16,0.39,0.11,-0.19,0.05,1008.71
5.607,0.03,0.97,-0.00,-0.09,-0.16,0.39,0.11,-0.19,0.05,1008.71
5.62,-0.03,0.97,0.06,-0.09,-0.16,0.39,0.11,-0.19,0.05,1008.71
5.622,-0.00,0.97,0.03,-0.09,-0.16,0.39,0.11,-0.19,0.05,1008.71
5.623,0.08,0.97,-0.04,-0.09,-0.16,0.39,0.11,-0.19,0.05,1008.71
5.623,0.08,0.97,-0.04,-0.09,-0.16,0.39,0.25,-0.11,0.17,1008.71
5.624,0.08,0.97,-0.04,-0.73,-0.09,0.76,0.25,-0.11,0.17,1008.71
5.681,0.08,0.98,-0.05,-0.73,-0.09,0.76,0.25,-0.11,0.17,1008.71
5.682,0.05,1.00,-0.07,-0.73,-0.09,0.76,0.25,-0.11,0.17,1008.71
5.682,0.05,0.98,-0.08,-0.73,-0.09,0.76,0.25,-0.11,0.17,1008.71
5.683,0.05,0.98,-0.08,-0.73,-0.09,0.76,0.30,-0.26,0.27,1008.71
5.683,0.05,0.98,-0.08,-0.40,0.05,0.12,0.30,-0.26,0.27,1008.71
5.687,0.05,0.98,-0.08,-0.40,0.05,0.12,0.30,-0.26,0.27,1008.71
5.737,0.03,0.96,-0.01,-0.40,0.05,0.12,0.30,-0.26,0.27,1008.71
5.738,-0.00,0.99,-0.05,-0.40,0.05,0.12,0.30,-0.26,0.27,1008.71
5.738,0.19,1.02,-0.13,-0.40,0.05,0.12,0.30,-0.26,0.27,1008.71
5.739,0.19,1.02,-0.13,-0.40,0.05,0.12,0.37,-0.40,0.42,1008.71
5.739,0.19,1.02,-0.13,-0.49,0.15,0.39,0.37,-0.40,0.42,1008.71
5.767,0.19,1.02,-0.13,-0.49,0.15,0.39,0.37,-0.40,0.42,1008.71
5.806,0.28,1.01,-0.14,-0.49,0.15,0.39,0.37,-0.40,0.42,1008.71
5.808,0.18,1.01,-0.09,-0.49,0.15,0.39,0.37,-0.40,0.42,1008.71
5.809,0.06,1.05,-0.06,-0.49,0.15,0.39,0.37,-0.40,0.42,1008.71
5.809,0.06,1.05,-0.06,-0.49,0.15,0.39,0.42,-0.53,0.25,1008.71
5.81,0.06,1.05,-0.06,0.37,0.49,0.35,0.42,-0.53,0.25,1008.71
5.81,0.06,1.05,-0.06,0.37,0.49,0.35,0.42,-0.53,0.25,1008.72
5.855,-0.09,1.04,-0.02,0.37,0.49,0.35,0.42,-0.53,0.25,1008.72
5.856,-0.28,1.18,-0.02,0.37,0.49,0.35,0.42,-0.53,0.25,1008.72
5.856,-0.31,1.35,-0.04,0.37,0.49,0.35,0.42,-0.53,0.25,1008.72
5.857,-0.31,1.35,-0.04,0.37,0.49,0.35,0.67,-0.73,0.46,1008.72
5.857,-0.31,1.35,-0.04,-3.67,2.18,1.39,0.67,-0.73,0.46,1008.72
5.888,-0.31,1.35,-0.04,-3.67,2.18,1.39,0.67,-0.73,0.46,1008.72
5.924,-0.05,1.25,-0.11,-3.67,2.18,1.39,0.67,-0.73,0.46,1008.72
5.925,0.06,1.26,-0.23,-3.67,2.18,1.39,0.67,-0.73,0.46,1008.72
5.925,0.10,1.35,0.12,-3.67,2.18,1.39,0.67,-0.73,0.46,1008.72
5.926,0.10,1.35,0.12,-3.67,2.18,1.39,0.29,-2.02,1.24,1008.72
5.927,0.10,1.35,0.12,-1.52,3.22,1.30,0.29,-2.02,1.24,1008.72
5.968,0.10,1.35,0.12,-1.52,3.22,1.30,0.29,-2.02,1.24,1008.72
5.972,-0.03,1.02,-0.18,-1.52,3.22,1.30,0.29,-2.02,1.24,1008.72
5.972,-0.10,1.06,-0.27,-1.52,3.22,1.30,0.29,-2.02,1.24,1008.72
5.973,0.18,0.96,-0.14,-1.52,3.22,1.30,0.29,-2.02,1.24,1008.72
5.973,0.18,0.96,-0.14,-1.52,3.22,1.30,-1.16,-4.64,1.62,1008.72
5.974,0.18,0.96,-0.14,-2.01,0.60,0.02,-1.16,-4.64,1.62,1008.72
6.007,0.18,0.96,-0.14,-2.01,0.60,0.02,-1.16,-4.64,1.62,1008.71
6.032,0.18,0.96,-0.14,-3.22,-2.53,-5.66,-1.16,-4.64,1.62,1008.71
6.035,0.05,0.85,-0.48,-3.22,-2.53,-5.66,-1.16,-4.64,1.62,1008.71
6.037,-0.12,0.69,-0.85,-3.22,-2.53,-5.66,-1.16,-4.64,1.62,1008.71
6.037,-0.22,0.51,-1.05,-3.22,-2.53,-5.66,-1.16,-4.64,1.62,1008.71
6.039,-0.22,0.51,-1.05,-3.22,-2.53,-5.66,-1.70,-7.40,1.82,1008.71
6.079,-0.18,0.41,-1.18,-3.22,-2.53,-5.66,-1.70,-7.40,1.82,1008.71
6.08,0.01,0.53,-1.16,-3.22,-2.53,-5.66,-1.70,-7.40,1.82,1008.71
6.087,0.01,0.53,-1.16,-2.23,-4.06,-8.38,-1.70,-7.40,1.82,1008.71
6.088,0.01,0.53,-1.16,-2.23,-4.06,-8.38,-0.94,-6.86,1.62,1008.71
6.088,0.01,0.53,-1.16,-2.23,-4.06,-8.38,-0.94,-6.86,1.62,1008.70
6.145,0.15,0.59,-1.04,-2.23,-4.06,-8.38,-0.94,-6.86,1.62,1008.70
6.146,0.07,0.66,-0.92,-2.23,-4.06,-8.38,-0.94,-6.86,1.62,1008.70
6.147,-0.03,0.69,-0.78,-2.23,-4.06,-8.38,-0.94,-6.86,1.62,1008.70
6.147,-0.14,0.73,-0.73,-2.23,-4.06,-8.38,-0.94,-6.86,1.62,1008.70
6.148,-0.14,0.73,-0.73,-2.23,-4.06,-8.38,-1.13,-4.50,0.19,1008.70
6.15,-0.14,0.73,-0.73,-1.87,-2.41,-5.29,-1.13,-4.50,0.19,1008.70
6.167,-0.14,0.73,-0.73,-1.87,-2.41,-5.29,-1.13,-4.50,0.19,1008.68
6.205,-0.17,0.79,-0.64,-1.87,-2.41,-5.29,-1.13,-4.50,0.19,1008.68
6.206,-0.08,0.89,-0.55,-1.87,-2.41,-5.29,-1.13,-4.50,0.19,1008.68
6.207,-0.03,1.01,-0.50,-1.87,-2.41,-5.29,-1.13,-4.50,0.19,1008.68
6.208,-0.03,1.01,-0.50,-1.87,-2.41,-5.29,-0.71,-3.50,-0.87,1008.68
6.209,-0.03,1.01,-0.50,-1.44,-0.53,-2.97,-0.71,-3.50,-0.87,1008.68
6.21,-0.03,1.01,-0.50,-1.44,-0.53,-2.97,-0.71,-3.50,-0.87,1008.67
6.262,-0.04,1.06,-0.39,-1.44,-0.53,-2.97,-0.71,-3.50,-0.87,1008.67
6.263,-0.05,1.07,-0.30,-1.44,-0.53,-2.97,-0.71,-3.50,-0.87,1008.67
6.263,-0.10,1.08,-0.25,-1.44,-0.53,-2.97,-0.71,-3.50,-0.87,1008.67
6.264,-0.10,1.08,-0.25,-0.01,1.05,-0.80,-0.71,-3.50,-0.87,1008.67
6.264,-0.10,1.08,-0.25,-0.01,1.05,-0.80,-0.51,-3.45,-1.19,1008.67
6.286,-0.10,1.08,-0.25,-0.01,1.05,-0.80,-0.51,-3.45,-1.19,1008.68
6.322,-0.03,1.08,-0.28,-0.01,1.05,-0.80,-0.51,-3.45,-1.19,1008.68
6.323,0.01,1.01,-0.22,-0.01,1.05,-0.80,-0.51,-3.45,-1.19,1008.68
6.323,-0.06,0.92,-0.12,-0.01,1.05,-0.80,-0.51,-3.45,-1.19,1008.68
6.323,-0.06,0.92,-0.12,-0.01,1.05,-0.80,-0.59,-3.78,-0.84,1008.68
6.323,-0.06,0.92,-0.12,1.23,0.40,-0.28,-0.59,-3.78,-0.84,1008.68
6.366,-0.06,0.92,-0.12,1.23,0.40,-0.28,-0.59,-3.78,-0.84,1008.70
6.379,-0.05,0.93,-0.08,1.23,0.40,-0.28,-0.59,-3.78,-0.84,1008.70
6.38,0.11,1.02,-0.02,1.23,0.40,-0.28,-0.59,-3.78,-0.84,1008.70
6.38,0.29,1.03,-0.01,1.23,0.40,-0.28,-0.59,-3.78,-0.84,1008.70
6.381,0.29,1.03,-0.01,3.18,0.30,0.71,-0.59,-3.78,-0.84,1008.70
6.382,0.29,1.03,-0.01,3.18,0.30,0.71,-0.27,-4.35,-0.45,1008.70
6.407,0.29,1.03,-0.01,3.18,0.30,0.71,-0.27,-4.35,-0.45,1008.72
6.438,0.41,0.91,-0.05,3.18,0.30,0.71,-0.27,-4.35,-0.45,1008.72
6.439,0.56,0.79,-0.12,3.18,0.30,0.71,-0.27,-4.35,-0.45,1008.72
6.44,0.73,0.75,-0.16,3.18,0.30,0.71,-0.27,-4.35,-0.45,1008.72
6.44,0.73,0.75,-0.16,3.18,0.30,0.71,0.10,-2.97,0.61,1008.72
6.441,0.73,0.75,-0.16,7.31,-1.44,-0.28,0.10,-2.97,0.61,1008.72
6.487,0.73,0.75,-0.16,7.31,-1.44,-0.28,0.10,-2.97,0.61,1008.72
6.498,0.84,0.75,-0.26,7.31,-1.44,-0.28,0.10,-2.97,0.61,1008.72
6.5,0.13,1.06,0.05,7.31,-1.44,-0.28,0.10,-2.97,0.61,1008.72
6.501,-1.50,1.72,1.26,7.31,-1.44,-0.28,0.10,-2.97,0.61,1008.72
6.503,-1.50,1.72,1.26,7.31,-1.44,-0.28,-0.64,0.42,0.04,1008.72
6.504,-1.50,1.72,1.26,-0.02,2.03,3.85,-0.64,0.42,0.04,1008.72
6.554,-0.60,1.86,-0.13,-0.02,2.03,3.85,-0.64,0.42,0.04,1008.72
6.555,0.07,1.11,-0.95,-0.02,2.03,3.85,-0.64,0.42,0.04,1008.72
6.556,-0.20,0.76,-0.46,-0.02,2.03,3.85,-0.64,0.42,0.04,1008.72
6.556,-0.20,0.76,-0.46,-0.02,2.03,3.85,0.21,0.16,1.34,1008.72
6.557,-0.20,0.76,-0.46,-1.40,2.54,-4.41,0.21,0.16,1.34,1008.72
6.57,-0.20,0.76,-0.46,-1.40,2.54,-4.41,0.21,0.16,1.34,1008.73
6.607,-0.20,0.76,-0.46,-1.40,2.54,-4.41,0.21,0.16,1.34,1008.68
6.616,0.04,0.96,0.24,-1.40,2.54,-4.41,0.21,0.16,1.34,1008.68
6.617,0.26,1.05,0.23,-1.40,2.54,-4.41,0.21,0.16,1.34,1008.68
6.618,0.22,0.94,0.01,-1.40,2.54,-4.41,0.21,0.16,1.34,1008.68
6.619,0.22,0.94,0.01,-1.40,2.54,-4.41,-0.21,-0.16,1.38,1008.68
6.62,0.22,0.94,0.01,1.84,-0.04,2.05,-0.21,-0.16,1.38,1008.68
6.672,0.03,0.97,-0.01,1.84,-0.04,2.05,-0.21,-0.16,1.38,1008.68
6.674,-0.05,1.01,0.01,1.84,-0.04,2.05,-0.21,-0.16,1.38,1008.68
6.675,0.02,1.03,-0.06,1.84,-0.04,2.05,-0.21,-0.16,1.38,1008.68
6.676,0.02,1.03,-0.06,1.84,-0.04,2.05,0.02,-0.35,0.85,1008.68
6.677,0.02,1.03,-0.06,-0.31,0.15,0.29,0.02,-0.35,0.85,1008.68
6.687,0.02,1.03,-0.06,-0.31,0.15,0.29,0.02,-0.35,0.85,1008.72
6.731,0.12,1.01,-0.05,-0.31,0.15,0.29,0.02,-0.35,0.85,1008.72
6.733,0.11,0.97,0.03,-0.31,0.15,0.29,0.02,-0.35,0.85,1008.72
6.734,-0.01,0.99,0.08,-0.31,0.15,0.29,0.02,-0.35,0.85,1008.72
6.735,-0.01,0.99,0.08,-0.31,0.15,0.29,0.06,-0.32,0.70,1008.72
6.737,-0.01,0.99,0.08,0.02,0.03,0.74,0.06,-0.32,0.70,1008.72
6.767,-0.01,0.99,0.08,0.02,0.03,0.74,0.06,-0.32,0.70,1008.72
6.795,-0.06,0.99,0.10,0.02,0.03,0.74,0.06,-0.32,0.70,1008.72
6.797,-0.08,1.00,0.10,0.02,0.03,0.74,0.06,-0.32,0.70,1008.72
6.798,0.02,0.98,0.00,0.02,0.03,0.74,0.06,-0.32,0.70,1008.72
6.799,0.02,0.98,0.00,0.02,0.03,0.74,0.24,-0.34,0.85,1008.72
6.8,0.02,0.98,0.00,-1.50,0.07,1.32,0.24,-0.34,0.85,1008.72
6.809,0.02,0.98,0.00,-1.50,0.07,1.32,0.24,-0.34,0.85,1008.72
6.847,0.20,0.98,-0.09,-1.50,0.07,1.32,0.24,-0.34,0.85,1008.72
6.848,0.26,0.99,-0.13,-1.50,0.07,1.32,0.24,-0.34,0.85,1008.72
6.848,0.18,1.01,-0.08,-1.50,0.07,1.32,0.24,-0.34,0.85,1008.72
6.848,0.18,1.01,-0.08,-1.50,0.07,1.32,0.32,-0.32,0.99,1008.72
6.849,0.18,1.01,-0.08,0.38,0.20,-0.14,0.32,-0.32,0.99,1008.72
6.887,0.18,1.01,-0.08,0.38,0.20,-0.14,0.32,-0.32,0.99,1008.72
6.905,0.16,1.00,-0.06,0.38,0.20,-0.14,0.32,-0.32,0.99,1008.72
6.906,0.23,0.98,-0.06,0.38,0.20,-0.14,0.32,-0.32,0.99,1008.72
6.908,0.29,0.95,-0.06,0.38,0.20,-0.14,0.32,-0.32,0.99,1008.72
6.909,0.29,0.95,-0.06,0.09,0.12,0.43,0.32,-0.32,0.99,1008.72
6.91,0.29,0.95,-0.06,0.09,0.12,0.43,0.24,-0.34,0.85,1008.72
6.963,0.29,0.98,-0.08,0.09,0.12,0.43,0.24,-0.34,0.85,1008.72
6.967,0.25,1.03,-0.09,0.09,0.12,0.43,0.24,-0.34,0.85,1008.72
6.967,0.20,1.02,-0.10,0.09,0.12,0.43,0.24,-0.34,0.85,1008.72
6.968,0.20,1.02,-0.10,0.09,0.12,0.43,0.23,-0.30,0.65,1008.72
6.969,0.20,1.02,-0.10,-0.07,0.57,0.30,0.23,-0.30,0.65,1008.72
6.97,0.20,1.02,-0.10,-0.07,0.57,0.30,0.23,-0.30,0.65,1008.73
7.013,0.20,1.02,-0.10,-0.07,0.57,0.30,0.23,-0.30,0.65,1008.71
7.02,0.13,0.99,-0.06,-0.07,0.57,0.30,0.23,-0.30,0.65,1008.71
7.022,0.12,0.99,-0.00,-0.07,0.57,0.30,0.23,-0.30,0.65,1008.71
7.022,0.15,1.01,-0.01,-0.07,0.57,0.30,0.23,-0.30,0.65,1008.71
7.023,0.15,1.01,-0.01,-0.07,0.57,0.30,0.31,-0.24,0.74,1008.71
7.023,0.15,1.01,-0.01,-1.51,0.55,1.14,0.31,-0.24,0.74,1008.71
7.079,0.11,1.03,-0.07,-1.51,0.55,1.14,0.31,-0.24,0.74,1008.71
7.081,0.08,1.08,-0.10,-1.51,0.55,1.14,0.31,-0.24,0.74,1008.71
7.082,0.11,1.09,-0.17,-1.51,0.55,1.14,0.31,-0.24,0.74,1008.71
7.083,0.11,1.09,-0.17,-1.51,0.55,1.14,0.51,-0.22,1.16,1008.71
7.084,0.11,1.09,-0.17,-2.39,1.47,0.57,0.51,-0.22,1.16,1008.71
7.087,0.11,1.09,-0.17,-2.39,1.47,0.57,0.51,-0.22,1.16,1008.72
7.139,0.12,1.08,-0.19,-2.39,1.47,0.57,0.51,-0.22,1.16,1008.72
7.142,0.09,1.10,-0.15,-2.39,1.47,0.57,0.51,-0.22,1.16,1008.72
7.142,0.06,1.15,-0.13,-2.39,1.47,0.57,0.51,-0.22,1.16,1008.72
7.143,0.06,1.15,-0.13,-2.39,1.47,0.57,0.72,-0.44,1.69,1008.72
7.143,0.06,1.15,-0.13,-3.27,2.30,0.59,0.72,-0.44,1.69,1008.72
7.167,0.06,1.15,-0.13,-3.27,2.30,0.59,0.72,-0.44,1.69,1008.71
7.196,0.01,1.28,-0.14,-3.27,2.30,0.59,0.72,-0.44,1.69,1008.71
7.199,-0.19,1.63,0.04,-3.27,2.30,0.59,0.72,-0.44,1.69,1008.71
7.2,-0.69,1.84,-0.12,-3.27,2.30,0.59,0.72,-0.44,1.69,1008.71
7.201,-0.69,1.84,-0.12,-3.27,2.30,0.59,1.12,-0.87,2.06,1008.71
7.203,-0.69,1.84,-0.12,-7.72,7.54,2.16,1.12,-0.87,2.06,1008.71
7.207,-0.69,1.84,-0.12,-7.72,7.54,2.16,1.12,-0.87,2.06,1008.72
7.258,-0.90,1.71,-0.32,-7.72,7.54,2.16,1.12,-0.87,2.06,1008.72
7.26,-0.63,1.56,-0.13,-7.72,7.54,2.16,1.12,-0.87,2.06,1008.72
7.261,0.21,1.26,-0.05,-7.72,7.54,2.16,1.12,-0.87,2.06,1008.72
7.262,0.21,1.26,-0.05,-7.72,7.54,2.16,1.34,-1.48,3.05,1008.72
7.263,0.21,1.26,-0.05,-10.04,7.89,2.20,1.34,-1.48,3.05,1008.72
7.287,0.21,1.26,-0.05,-10.04,7.89,2.20,1.34,-1.48,3.05,1008.71
7.315,1.12,1.25,-0.28,-10.04,7.89,2.20,1.34,-1.48,3.05,1008.71
7.317,1.35,1.00,-0.35,-10.04,7.89,2.20,1.34,-1.48,3.05,1008.71
7.318,1.13,0.69,-0.46,-10.04,7.89,2.20,1.34,-1.48,3.05,1008.71
7.319,1.13,0.69,-0.46,-10.04,7.89,2.20,1.80,-1.07,3.53,1008.71
7.32,1.13,0.69,-0.46,4.99,4.36,1.27,1.80,-1.07,3.53,1008.71
7.367,1.13,0.69,-0.46,4.99,4.36,1.27,1.80,-1.07,3.53,1008.68
7.37,0.96,0.45,-0.66,4.99,4.36,1.27,1.80,-1.07,3.53,1008.68
7.371,0.71,0.43,-0.56,4.99,4.36,1.27,1.80,-1.07,3.53,1008.68
7.371,0.27,0.25,-0.08,4.99,4.36,1.27,1.80,-1.07,3.53,1008.68
7.372,0.27,0.25,-0.08,4.99,4.36,1.27,-0.07,1.37,-0.06,1008.68
7.372,0.27,0.25,-0.08,-0.76,-1.57,0.03,-0.07,1.37,-0.06,1008.68
7.407,0.27,0.25,-0.08,-0.76,-1.57,0.03,-0.07,1.37,-0.06,1008.63
7.429,0.01,0.07,0.29,-0.76,-1.57,0.03,-0.07,1.37,-0.06,1008.63
7.429,-0.21,0.02,0.22,-0.76,-1.57,0.03,-0.07,1.37,-0.06,1008.63
7.43,-0.14,0.18,-0.03,-0.76,-1.57,0.03,-0.07,1.37,-0.06,1008.63
7.43,-0.14,0.18,-0.03,-0.76,-1.57,0.03,-1.07,0.25,-2.79,1008.63
7.431,-0.14,0.18,-0.03,-7.22,-5.62,5.26,-1.07,0.25,-2.79,1008.63
7.487,0.10,0.42,-0.32,-7.22,-5.62,5.26,-1.07,0.25,-2.79,1008.63
7.488,0.33,0.59,-0.49,-7.22,-5.62,5.26,-1.07,0.25,-2.79,1008.63
7.489,0.39,0.60,-0.32,-7.22,-5.62,5.26,-1.07,0.25,-2.79,1008.63
7.489,0.39,0.60,-0.32,-7.22,-5.62,5.26,-1.37,-1.09,-3.65,1008.63
7.49,0.39,0.60,-0.32,-1.61,-2.58,-0.22,-1.37,-1.09,-3.65,1008.63
7.49,0.39,0.60,-0.32,-1.61,-2.58,-0.22,-1.37,-1.09,-3.65,1008.68
7.545,0.33,0.56,-0.19,-1.61,-2.58,-0.22,-1.37,-1.09,-3.65,1008.68
7.546,0.23,0.67,-0.22,-1.61,-2.58,-0.22,-1.37,-1.09,-3.65,1008.68
7.547,0.28,0.95,-0.36,-1.61,-2.58,-0.22,-1.37,-1.09,-3.65,1008.68
7.547,0.28,0.95,-0.36,-1.61,-2.58,-0.22,-2.45,-1.29,-5.07,1008.68
7.548,0.28,0.95,-0.36,1.20,-1.97,-0.06,-2.45,-1.29,-5.07,1008.68
7.567,0.28,0.95,-0.36,1.20,-1.97,-0.06,-2.45,-1.29,-5.07,1008.70
7.603,0.51,1.38,-0.51,1.20,-1.97,-0.06,-2.45,-1.29,-5.07,1008.70
7.604,0.77,1.61,-0.73,1.20,-1.97,-0.06,-2.45,-1.29,-5.07,1008.70
7.605,0.89,1.53,-0.71,1.20,-1.97,-0.06,-2.45,-1.29,-5.07,1008.70
7.605,0.89,1.53,-0.71,1.20,-1.97,-0.06,-2.38,-0.23,-5.26,1008.70
7.607,0.89,1.53,-0.71,1.20,-1.97,-0.06,-2.38,-0.23,-5.26,1008.69
7.607,0.89,1.53,-0.71,8.29,5.29,-5.12,-2.38,-0.23,-5.26,1008.69
7.662,1.10,1.37,-0.36,8.29,5.29,-5.12,-2.38,-0.23,-5.26,1008.69
7.664,1.18,1.20,-0.04,8.29,5.29,-5.12,-2.38,-0.23,-5.26,1008.69
7.665,0.92,1.17,-0.13,8.29,5.29,-5.12,-2.38,-0.23,-5.26,1008.69
7.666,0.92,1.17,-0.13,8.29,5.29,-5.12,-1.83,1.49,-3.71,1008.69
7.67,0.92,1.17,-0.13,13.37,3.06,-1.25,-1.83,1.49,-3.71,1008.69
7.688,0.92,1.17,-0.13,13.37,3.06,-1.25,-1.83,1.49,-3.71,1008.68
7.721,0.50,1.05,-0.18,13.37,3.06,-1.25,-1.83,1.49,-3.71,1008.68
7.723,0.36,0.92,-0.04,13.37,3.06,-1.25,-1.83,1.49,-3.71,1008.68
7.723,0.49,0.84,-0.15,13.37,3.06,-1.25,-1.83,1.49,-3.71,1008.68
7.724,0.49,0.84,-0.15,13.37,3.06,-1.25,-0.73,0.81,-0.16,1008.68
7.725,0.49,0.84,-0.15,7.31,0.03,-0.91,-0.73,0.81,-0.16,1008.68
7.767,0.49,0.84,-0.15,7.31,0.03,-0.91,-0.73,0.81,-0.16,1008.70
7.779,0.70,1.02,-1.04,7.31,0.03,-0.91,-0.73,0.81,-0.16,1008.70
7.781,-0.05,1.46,-0.93,7.31,0.03,-0.91,-0.73,0.81,-0.16,1008.70
7.782,-1.61,1.49,0.09,7.31,0.03,-0.91,-0.73,0.81,-0.16,1008.70
7.783,-1.61,1.49,0.09,7.31,0.03,-0.91,0.04,2.13,0.46,1008.70
7.784,-1.61,1.49,0.09,-0.56,3.68,-5.43,0.04,2.13,0.46,1008.70
7.807,-1.61,1.49,0.09,-0.56,3.68,-5.43,0.04,2.13,0.46,1008.72
7.837,-1.39,1.52,-0.38,-0.56,3.68,-5.43,0.04,2.13,0.46,1008.72
7.839,0.12,1.15,-0.50,-0.56,3.68,-5.43,0.04,2.13,0.46,1008.72
7.84,0.46,0.87,-0.02,-0.56,3.68,-5.43,0.04,2.13,0.46,1008.72
7.841,0.46,0.87,-0.02,-0.56,3.68,-5.43,0.08,2.53,1.94,1008.72
7.842,0.46,0.87,-0.02,-1.24,2.03,-1.84,0.08,2.53,1.94,1008.72
7.888,0.46,0.87,-0.02,-1.24,2.03,-1.84,0.08,2.53,1.94,1008.68
7.896,-0.00,0.65,0.69,-1.24,2.03,-1.84,0.08,2.53,1.94,1008.68
7.897,-0.36,0.92,0.06,-1.24,2.03,-1.84,0.08,2.53,1.94,1008.68
7.898,0.09,1.21,-0.38,-1.24,2.03,-1.84,0.08,2.53,1.94,1008.68
7.899,0.09,1.21,-0.38,-1.24,2.03,-1.84,0.01,-0.73,1.62,1008.68
7.9,0.09,1.21,-0.38,-0.32,-0.56,2.26,0.01,-0.73,1.62,1008.68
7.954,0.68,1.08,-0.19,-0.32,-0.56,2.26,0.01,-0.73,1.62,1008.68
7.956,0.51,0.91,-0.23,-0.32,-0.56,2.26,0.01,-0.73,1.62,1008.68
7.956,0.01,0.99,-0.15,-0.32,-0.56,2.26,0.01,-0.73,1.62,1008.68
7.957,0.01,0.99,-0.15,3.82,0.12,-0.79,0.01,-0.73,1.62,1008.68
7.958,0.01,0.99,-0.15,3.82,0.12,-0.79,0.03,0.38,1.04,1008.68
7.968,0.01,0.99,-0.15,3.82,0.12,-0.79,0.03,0.38,1.04,1008.70
8.008,0.01,0.99,-0.15,3.82,0.12,-0.79,0.03,0.38,1.04,1008.70
8.011,-0.42,1.07,0.02,3.82,0.12,-0.79,0.03,0.38,1.04,1008.70
8.012,-0.43,1.04,0.04,3.82,0.12,-0.79,0.03,0.38,1.04,1008.70
8.013,-0.17,0.99,-0.01,3.82,0.12,-0.79,0.03,0.38,1.04,1008.70
8.013,-0.17,0.99,-0.01,-3.85,0.52,1.26,0.03,0.38,1.04,1008.70
8.014,-0.17,0.99,-0.01,-3.85,0.52,1.26,0.09,0.54,0.79,1008.70
8.072,0.15,0.96,-0.02,-3.85,0.52,1.26,0.09,0.54,0.79,1008.70
8.073,0.23,0.95,-0.08,-3.85,0.52,1.26,0.09,0.54,0.79,1008.70
8.073,0.11,0.98,-0.07,-3.85,0.52,1.26,0.09,0.54,0.79,1008.70
8.073,0.11,0.98,-0.07,-3.85,0.52,1.26,0.29,-0.30,1.31,1008.70
8.074,0.11,0.98,-0.07,0.35,-0.08,0.69,0.29,-0.30,1.31,1008.70
8.087,0.11,0.98,-0.07,0.35,-0.08,0.69,0.29,-0.30,1.31,1008.71
8.129,-0.00,1.01,0.02,0.35,-0.08,0.69,0.29,-0.30,1.31,1008.71
8.132,0.05,1.01,-0.03,0.35,-0.08,0.69,0.29,-0.30,1.31,1008.71
8.133,0.17,0.96,-0.13,0.35,-0.08,0.69,0.29,-0.30,1.31,1008.71
8.134,0.17,0.96,-0.13,0.35,-0.08,0.69,0.46,0.03,1.34,1008.71
8.135,0.17,0.96,-0.13,-1.26,0.38,1.01,0.46,0.03,1.34,1008.71
8.168,0.17,0.96,-0.13,-1.26,0.38,1.01,0.46,0.03,1.34,1008.71
8.187,0.29,0.93,-0.18,-1.26,0.38,1.01,0.46,0.03,1.34,1008.71
8.188,0.34,0.98,-0.19,-1.26,0.38,1.01,0.46,0.03,1.34,1008.71
8.188,0.30,1.00,-0.21,-1.26,0.38,1.01,0.46,0.03,1.34,1008.71
8.188,0.30,1.00,-0.21,-1.26,0.38,1.01,0.45,-0.27,1.37,1008.71
8.189,0.30,1.00,-0.21,0.36,0.35,-0.12,0.45,-0.27,1.37,1008.71
8.207,0.30,1.00,-0.21,0.36,0.35,-0.12,0.45,-0.27,1.37,1008.72
8.245,0.26,0.98,-0.18,0.36,0.35,-0.12,0.45,-0.27,1.37,1008.72
8.246,0.21,1.01,-0.20,0.36,0.35,-0.12,0.45,-0.27,1.37,1008.72
8.247,0.16,1.06,-0.25,0.36,0.35,-0.12,0.45,-0.27,1.37,1008.72
8.247,0.16,1.06,-0.25,0.36,0.35,-0.12,0.44,-0.20,1.23,1008.72
8.248,0.16,1.06,-0.25,-1.24,1.08,-0.04,0.44,-0.20,1.23,1008.72
8.288,0.16,1.06,-0.25,-1.24,1.08,-0.04,0.44,-0.20,1.23,1008.73
8.313,0.14,1.09,-0.23,-1.24,1.08,-0.04,0.44,-0.20,1.23,1008.73
8.314,0.13,1.12,-0.17,-1.24,1.08,-0.04,0.44,-0.20,1.23,1008.73
8.316,0.09,1.17,-0.08,-1.24,1.08,-0.04,0.44,-0.20,1.23,1008.73
8.33,0.09,1.17,-0.08,-1.24,1.08,-0.04,0.72,0.06,1.57,1008.73
8.331,0.09,1.17,-0.08,-2.84,2.55,0.84,0.72,0.06,1.57,1008.73
8.362,0.05,1.31,-0.06,-2.84,2.55,0.84,0.72,0.06,1.57,1008.73
8.362,-0.06,1.67,0.01,-2.84,2.55,0.84,0.72,0.06,1.57,1008.73
8.363,-0.55,1.85,0.08,-2.84,2.55,0.84,0.72,0.06,1.57,1008.73
8.363,-0.55,1.85,0.08,-2.84,2.55,0.84,1.15,-0.50,1.93,1008.73
8.363,-0.55,1.85,0.08,-6.59,7.81,3.09,1.15,-0.50,1.93,1008.73
8.368,-0.55,1.85,0.08,-6.59,7.81,3.09,1.15,-0.50,1.93,1008.73
8.407,-0.55,1.85,0.08,-6.59,7.81,3.09,1.15,-0.50,1.93,1008.73
8.42,-0.99,1.84,-0.08,-6.59,7.81,3.09,1.15,-0.50,1.93,1008.73
8.421,-0.85,1.55,-0.09,-6.59,7.81,3.09,1.15,-0.50,1.93,1008.73
8.421,-0.06,1.14,-0.11,-6.59,7.81,3.09,1.15,-0.50,1.93,1008.73
8.422,-0.06,1.14,-0.11,-6.59,7.81,3.09,1.31,-1.90,2.79,1008.73
8.422,-0.06,1.14,-0.11,-11.59,7.83,3.17,1.31,-1.90,2.79,1008.73
8.479,0.70,1.00,-0.43,-11.59,7.83,3.17,1.31,-1.90,2.79,1008.73
8.48,1.11,0.95,-0.70,-11.59,7.83,3.17,1.31,-1.90,2.79,1008.73
8.48,1.23,0.74,-0.79,-11.59,7.83,3.17,1.31,-1.90,2.79,1008.73
8.481,1.23,0.74,-0.79,-11.59,7.83,3.17,1.55,-1.83,3.93,1008.73
8.482,1.23,0.74,-0.79,3.59,3.52,-0.98,1.55,-1.83,3.93,1008.73
8.489,1.23,0.74,-0.79,3.59,3.52,-0.98,1.55,-1.83,3.93,1008.73
8.537,0.90,0.44,-0.68,3.59,3.52,-0.98,1.55,-1.83,3.93,1008.73
8.539,0.58,0.36,-0.54,3.59,3.52,-0.98,1.55,-1.83,3.93,1008.73
8.54,0.28,0.22,-0.48,3.59,3.52,-0.98,1.55,-1.83,3.93,1008.73
8.54,0.28,0.22,-0.48,3.59,3.52,-0.98,-0.58,0.51,0.72,1008.73
8.541,0.28,0.22,-0.48,-0.95,-1.80,-0.60,-0.58,0.51,0.72,1008.73
8.568,0.28,0.22,-0.48,-0.95,-1.80,-0.60,-0.58,0.51,0.72,1008.70
8.596,-0.03,0.10,-0.31,-0.95,-1.80,-0.60,-0.58,0.51,0.72,1008.70
8.596,-0.16,0.10,-0.18,-0.95,-1.80,-0.60,-0.58,0.51,0.72,1008.70
8.597,-0.07,0.18,-0.25,-0.95,-1.80,-0.60,-0.58,0.51,0.72,1008.70
8.597,-0.07,0.18,-0.25,-6.87,-5.06,1.69,-0.58,0.51,0.72,1008.70
8.597,-0.07,0.18,-0.25,-6.87,-5.06,1.69,-1.81,0.55,-1.99,1008.70
8.607,-0.07,0.18,-0.25,-6.87,-5.06,1.69,-1.81,0.55,-1.99,1008.66
8.654,0.08,0.30,-0.38,-6.87,-5.06,1.69,-1.81,0.55,-1.99,1008.66
8.655,0.18,0.45,-0.43,-6.87,-5.06,1.69,-1.81,0.55,-1.99,1008.66
8.656,0.17,0.55,-0.41,-6.87,-5.06,1.69,-1.81,0.55,-1.99,1008.66
8.657,0.17,0.55,-0.41,-6.87,-5.06,1.69,-2.23,-0.82,-3.26,1008.66
8.657,0.17,0.55,-0.41,-3.07,-3.46,-0.53,-2.23,-0.82,-3.26,1008.66
8.687,0.17,0.55,-0.41,-3.07,-3.46,-0.53,-2.23,-0.82,-3.26,1008.68
8.712,0.15,0.57,-0.36,-3.07,-3.46,-0.53,-2.23,-0.82,-3.26,1008.68
8.713,0.15,0.66,-0.36,-3.07,-3.46,-0.53,-2.23,-0.82,-3.26,1008.68
8.713,0.23,0.89,-0.51,-3.07,-3.46,-0.53,-2.23,-0.82,-3.26,1008.68
8.714,0.23,0.89,-0.51,-3.07,-3.46,-0.53,-2.60,-1.71,-4.66,1008.68
8.714,0.23,0.89,-0.51,-0.14,-2.10,-1.54,-2.60,-1.71,-4.66,1008.68
8.769,0.23,0.89,-0.51,-0.14,-2.10,-1.54,-2.60,-1.71,-4.66,1008.70
8.771,0.48,1.20,-0.60,-0.14,-2.10,-1.54,-2.60,-1.71,-4.66,1008.70
8.772,0.69,1.48,-0.66,-0.14,-2.10,-1.54,-2.60,-1.71,-4.66,1008.70
8.772,0.72,1.65,-0.78,-0.14,-2.10,-1.54,-2.60,-1.71,-4.66,1008.70
8.773,0.72,1.65,-0.78,-0.14,-2.10,-1.54,-2.62,-0.28,-5.29,1008.70
8.773,0.72,1.65,-0.78,7.10,4.66,-5.47,-2.62,-0.28,-5.29,1008.70
8.809,0.72,1.65,-0.78,7.10,4.66,-5.47,-2.62,-0.28,-5.29,1008.70
8.829,0.70,1.47,-0.73,7.10,4.66,-5.47,-2.62,-0.28,-5.29,1008.70
8.831,0.88,1.07,-0.28,7.10,4.66,-5.47,-2.62,-0.28,-5.29,1008.70
8.833,0.89,1.03,0.04,7.10,4.66,-5.47,-2.62,-0.28,-5.29,1008.70
8.834,0.89,1.03,0.04,7.10,4.66,-5.47,-1.99,1.63,-4.41,1008.70
8.835,0.89,1.03,0.04,11.11,2.57,-2.81,-1.99,1.63,-4.41,1008.70
8.888,0.69,1.06,-0.20,11.11,2.57,-2.81,-1.99,1.63,-4.41,1008.70
8.889,0.59,0.97,-0.23,11.11,2.57,-2.81,-1.99,1.63,-4.41,1008.70
8.89,0.67,0.88,-0.08,11.11,2.57,-2.81,-1.99,1.63,-4.41,1008.70
8.891,0.67,0.88,-0.08,11.11,2.57,-2.81,-0.41,1.84,-0.48,1008.70
8.891,0.67,0.88,-0.08,9.49,0.51,-1.12,-0.41,1.84,-0.48,1008.70
8.892,0.67,0.88,-0.08,9.49,0.51,-1.12,-0.41,1.84,-0.48,1008.70
8.945,0.56,1.07,-0.61,9.49,0.51,-1.12,-0.41,1.84,-0.48,1008.70
8.946,-0.55,1.41,-0.25,9.49,0.51,-1.12,-0.41,1.84,-0.48,1008.70
8.946,-1.92,1.78,0.48,9.49,0.51,-1.12,-0.41,1.84,-0.48,1008.70
8.947,-1.92,1.78,0.48,9.49,0.51,-1.12,-0.38,1.32,0.26,1008.70
8.947,-1.92,1.78,0.48,-3.22,4.77,-0.65,-0.38,1.32,0.26,1008.70
8.968,-1.92,1.78,0.48,-3.22,4.77,-0.65,-0.38,1.32,0.26,1008.71
9.006,-0.84,1.73,-0.21,-3.22,4.77,-0.65,-0.38,1.32,0.26,1008.71
9.007,0.35,0.98,-0.93,-3.22,4.77,-0.65,-0.38,1.32,0.26,1008.71
9.007,0.53,0.60,-0.49,-3.22,4.77,-0.65,-0.38,1.32,0.26,1008.71
9.007,0.53,0.60,-0.49,-3.22,4.77,-0.65,0.56,0.70,2.54,1008.71
9.007,0.53,0.60,-0.49,1.66,1.33,-4.28,0.56,0.70,2.54,1008.71
9.008,0.53,0.60,-0.49,1.66,1.33,-4.28,0.56,0.70,2.54,1008.71
9.064,0.55,0.64,0.27,1.66,1.33,-4.28,0.56,0.70,2.54,1008.71
9.065,0.02,0.98,0.40,1.66,1.33,-4.28,0.56,0.70,2.54,1008.71
9.065,-0.31,1.16,0.06,1.66,1.33,-4.28,0.56,0.70,2.54,1008.71
9.065,-0.31,1.16,0.06,1.72,-0.52,3.23,0.56,0.70,2.54,1008.71
9.065,-0.31,1.16,0.06,1.72,-0.52,3.23,-0.30,0.34,1.13,1008.71
9.091,-0.31,1.16,0.06,1.72,-0.52,3.23,-0.30,0.34,1.13,1008.68
9.123,-0.15,1.09,-0.22,1.72,-0.52,3.23,-0.30,0.34,1.13,1008.68
9.124,0.06,1.03,-0.20,1.72,-0.52,3.23,-0.30,0.34,1.13,1008.68
9.124,0.09,1.01,-0.12,1.72,-0.52,3.23,-0.30,0.34,1.13,1008.68
9.125,0.09,1.01,-0.12,0.24,0.61,-0.82,-0.30,0.34,1.13,1008.68
9.125,0.09,1.01,-0.12,0.24,0.61,-0.82,0.08,-0.06,1.07,1008.68
9.167,0.09,1.01,-0.12,0.24,0.61,-0.82,0.08,-0.06,1.07,1008.70
9.179,0.02,0.98,0.00,0.24,0.61,-0.82,0.08,-0.06,1.07,1008.70
9.18,0.05,0.97,0.01,0.24,0.61,-0.82,0.08,-0.06,1.07,1008.70
9.18,0.06,0.97,-0.03,0.24,0.61,-0.82,0.08,-0.06,1.07,1008.70
9.181,0.06,0.97,-0.03,0.24,0.61,-0.82,0.11,0.37,0.85,1008.70
9.181,0.06,0.97,-0.03,0.19,-0.08,0.94,0.11,0.37,0.85,1008.70
9.208,0.06,0.97,-0.03,0.19,-0.08,0.94,0.11,0.37,0.85,1008.71
9.25,0.01,0.97,-0.08,0.19,-0.08,0.94,0.11,0.37,0.85,1008.71
9.252,-0.01,1.00,-0.08,0.19,-0.08,0.94,0.11,0.37,0.85,1008.71
9.254,0.04,1.01,-0.08,0.19,-0.08,0.94,0.11,0.37,0.85,1008.71
9.255,0.04,1.01,-0.08,0.19,-0.08,0.94,0.15,0.26,0.77,1008.71
9.256,0.04,1.01,-0.08,-0.56,0.18,0.24,0.15,0.26,0.77,1008.71
9.287,0.04,1.01,-0.08,-0.56,0.18,0.24,0.15,0.26,0.77,1008.71
9.296,0.08,0.99,-0.08,-0.56,0.18,0.24,0.15,0.26,0.77,1008.71
9.297,0.04,0.99,-0.05,-0.56,0.18,0.24,0.15,0.26,0.77,1008.71
9.297,0.01,0.99,-0.02,-0.56,0.18,0.24,0.15,0.26,0.77,1008.71
9.298,0.01,0.99,-0.02,-0.71,0.17,0.66,0.15,0.26,0.77,1008.71
9.298,0.01,0.99,-0.02,-0.71,0.17,0.66,0.19,0.11,0.86,1008.71
9.354,0.08,0.98,-0.06,-0.71,0.17,0.66,0.19,0.11,0.86,1008.71
9.355,0.13,0.99,-0.10,-0.71,0.17,0.66,0.19,0.11,0.86,1008.71
9.356,0.11,1.01,-0.12,-0.71,0.17,0.66,0.19,0.11,0.86,1008.71
9.356,0.11,1.01,-0.12,-0.71,0.17,0.66,0.35,-0.07,1.03,1008.71
9.357,0.11,1.01,-0.12,-0.66,0.32,0.42,0.35,-0.07,1.03,1008.71
9.369,0.11,1.01,-0.12,-0.66,0.32,0.42,0.35,-0.07,1.03,1008.71
9.409,0.11,1.01,-0.12,-0.66,0.32,0.42,0.35,-0.07,1.03,1008.72
9.413,0.04,1.01,-0.11,-0.66,0.32,0.42,0.35,-0.07,1.03,1008.72
9.414,0.05,1.01,-0.14,-0.66,0.32,0.42,0.35,-0.07,1.03,1008.72
9.414,0.12,1.03,-0.16,-0.66,0.32,0.42,0.35,-0.07,1.03,1008.72
9.415,0.12,1.03,-0.16,-0.66,0.32,0.42,0.52,-0.25,1.24,1008.72
9.415,0.12,1.03,-0.16,-1.63,0.74,0.30,0.52,-0.25,1.24,1008.72
9.471,0.14,1.05,-0.18,-1.63,0.74,0.30,0.52,-0.25,1.24,1008.72
9.472,0.21,1.02,-0.18,-1.63,0.74,0.30,0.52,-0.25,1.24,1008.72
9.473,0.31,1.00,-0.19,-1.63,0.74,0.30,0.52,-0.25,1.24,1008.72
9.473,0.31,1.00,-0.19,-0.96,1.07,0.28,0.52,-0.25,1.24,1008.72
9.474,0.31,1.00,-0.19,-0.96,1.07,0.28,0.75,-0.30,1.55,1008.72
9.488,0.31,1.00,-0.19,-0.96,1.07,0.28,0.75,-0.30,1.55,1008.72
9.53,0.26,1.06,-0.18,-0.96,1.07,0.28,0.75,-0.30,1.55,1008.72
9.531,0.15,1.11,-0.15,-0.96,1.07,0.28,0.75,-0.30,1.55,1008.72
9.531,0.10,1.16,-0.19,-0.96,1.07,0.28,0.75,-0.30,1.55,1008.72
9.532,0.10,1.16,-0.19,-0.96,1.07,0.28,1.00,-0.04,1.60,1008.72
9.532,0.10,1.16,-0.19,-2.21,2.36,0.87,1.00,-0.04,1.60,1008.72
9.569,0.10,1.16,-0.19,-2.21,2.36,0.87,1.00,-0.04,1.60,1008.72
9.588,0.09,1.31,-0.14,-2.21,2.36,0.87,1.00,-0.04,1.60,1008.72
9.589,-0.04,1.50,-0.18,-2.21,2.36,0.87,1.00,-0.04,1.60,1008.72
9.589,-0.33,1.69,-0.24,-2.21,2.36,0.87,1.00,-0.04,1.60,1008.72
9.59,-0.33,1.69,-0.24,-2.21,2.36,0.87,1.31,-0.28,1.87,1008.72
9.59,-0.33,1.69,-0.24,-5.53,6.75,1.42,1.31,-0.28,1.87,1008.72
9.607,-0.33,1.69,-0.24,-5.53,6.75,1.42,1.31,-0.28,1.87,1008.72
9.646,-0.76,1.82,-0.35,-5.53,6.75,1.42,1.31,-0.28,1.87,1008.72
9.646,-0.84,1.57,-0.23,-5.53,6.75,1.42,1.31,-0.28,1.87,1008.72
9.652,-0.04,1.05,0.00,-5.53,6.75,1.42,1.31,-0.28,1.87,1008.72
9.652,-0.04,1.05,0.00,-10.55,7.42,2.34,1.31,-0.28,1.87,1008.72
9.653,-0.04,1.05,0.00,-10.55,7.42,2.34,1.57,-1.06,2.21,1008.72
9.69,-0.04,1.05,0.00,-10.55,7.42,2.34,1.57,-1.06,2.21,1008.71
9.704,0.80,0.91,-0.25,-10.55,7.42,2.34,1.57,-1.06,2.21,1008.71
9.705,1.23,0.95,-0.44,-10.55,7.42,2.34,1.57,-1.06,2.21,1008.71
9.706,1.31,0.72,-0.56,-10.55,7.42,2.34,1.57,-1.06,2.21,1008.71
9.706,1.31,0.72,-0.56,-10.55,7.42,2.34,1.74,-0.85,3.19,1008.71
9.707,1.31,0.72,-0.56,4.70,2.85,1.01,1.74,-0.85,3.19,1008.71
9.763,1.13,0.41,-0.60,4.70,2.85,1.01,1.74,-0.85,3.19,1008.71
9.764,0.67,0.32,-0.49,4.70,2.85,1.01,1.74,-0.85,3.19,1008.71
9.764,0.28,0.24,-0.16,4.70,2.85,1.01,1.74,-0.85,3.19,1008.71
9.764,0.28,0.24,-0.16,0.13,-2.42,0.37,1.74,-0.85,3.19,1008.71
9.765,0.28,0.24,-0.16,0.13,-2.42,0.37,-0.06,1.64,-0.01,1008.71
9.768,0.28,0.24,-0.16,0.13,-2.42,0.37,-0.06,1.64,-0.01,1008.69
9.809,0.28,0.24,-0.16,0.13,-2.42,0.37,-0.06,1.64,-0.01,1008.65
9.822,0.02,0.16,0.07,0.13,-2.42,0.37,-0.06,1.64,-0.01,1008.65
9.823,-0.15,0.13,0.22,0.13,-2.42,0.37,-0.06,1.64,-0.01,1008.65
9.823,-0.11,0.26,0.05,0.13,-2.42,0.37,-0.06,1.64,-0.01,1008.65
9.824,-0.11,0.26,0.05,0.13,-2.42,0.37,-1.00,0.63,-2.50,1008.65
9.824,-0.11,0.26,0.05,-6.58,-4.87,4.93,-1.00,0.63,-2.50,1008.65
9.88,0.13,0.41,-0.17,-6.58,-4.87,4.93,-1.00,0.63,-2.50,1008.65
9.882,0.36,0.52,-0.28,-6.58,-4.87,4.93,-1.00,0.63,-2.50,1008.65
9.882,0.46,0.60,-0.28,-6.58,-4.87,4.93,-1.00,0.63,-2.50,1008.65
9.883,0.46,0.60,-0.28,-6.58,-4.87,4.93,-1.28,-0.95,-3.26,1008.65
9.883,0.46,0.60,-0.28,-1.06,-2.87,1.11,-1.28,-0.95,-3.26,1008.65
9.891,0.46,0.60,-0.28,-1.06,-2.87,1.11,-1.28,-0.95,-3.26,1008.69
9.938,0.42,0.65,-0.22,-1.06,-2.87,1.11,-1.28,-0.95,-3.26,1008.69
9.939,0.32,0.76,-0.20,-1.06,-2.87,1.11,-1.28,-0.95,-3.26,1008.69
9.94,0.34,0.97,-0.28,-1.06,-2.87,1.11,-1.28,-0.95,-3.26,1008.69
9.94,0.34,0.97,-0.28,-1.06,-2.87,1.11,-2.44,-1.27,-4.69,1008.69
9.941,0.34,0.97,-0.28,1.88,-1.29,0.22,-2.44,-1.27,-4.69,1008.69
9.967,0.34,0.97,-0.28,1.88,-1.29,0.22,-2.44,-1.27,-4.69,1008.69
9.995,0.54,1.37,-0.44,1.88,-1.29,0.22,-2.44,-1.27,-4.69,1008.69
9.996,0.55,1.66,-0.52,1.88,-1.29,0.22,-2.44,-1.27,-4.69,1008.69
9.996,0.49,1.51,-0.52,1.88,-1.29,0.22,-2.44,-1.27,-4.69,1008.69
9.996,0.49,1.51,-0.52,1.88,-1.29,0.22,-2.87,-1.00,-5.06,1008.69
9.996,0.49,1.51,-0.52,6.27,5.31,-3.83,-2.87,-1.00,-5.06,1008.69
10.007,0.49,1.51,-0.52,6.27,5.31,-3.83,-2.87,-1.00,-5.06,1008.68
10.054,0.51,1.37,-0.36,6.27,5.31,-3.83,-2.87,-1.00,-5.06,1008.68
10.054,0.61,1.29,-0.31,6.27,5.31,-3.83,-2.87,-1.00,-5.06,1008.68
10.055,0.87,1.11,-0.45,6.27,5.31,-3.83,-2.87,-1.00,-5.06,1008.68
10.055,0.87,1.11,-0.45,9.16,3.07,-3.92,-2.87,-1.00,-5.06,1008.68
10.056,0.87,1.11,-0.45,9.16,3.07,-3.92,-2.29,-0.94,-3.11,1008.68
10.087,0.87,1.11,-0.45,9.16,3.07,-3.92,-2.29,-0.94,-3.11,1008.68
10.113,0.94,0.86,-0.55,9.16,3.07,-3.92,-2.29,-0.94,-3.11,1008.68
10.115,0.74,0.69,-0.43,9.16,3.07,-3.92,-2.29,-0.94,-3.11,1008.68
10.116,0.47,0.78,-0.49,9.16,3.07,-3.92,-2.29,-0.94,-3.11,1008.68
10.117,0.47,0.78,-0.49,9.16,3.07,-3.92,-0.53,0.64,-0.05,1008.68
10.118,0.47,0.78,-0.49,9.53,-1.60,-5.17,-0.53,0.64,-0.05,1008.68
10.168,0.47,0.78,-0.49,9.53,-1.60,-5.17,-0.53,0.64,-0.05,1008.69
10.171,0.19,1.05,-0.94,9.53,-1.60,-5.17,-0.53,0.64,-0.05,1008.69
10.172,-1.02,1.44,0.14,9.53,-1.60,-5.17,-0.53,0.64,-0.05,1008.69
10.173,-1.83,1.83,0.55,9.53,-1.60,-5.17,-0.53,0.64,-0.05,1008.69
10.173,-1.83,1.83,0.55,9.53,-1.60,-5.17,-0.22,2.18,-0.28,1008.69
10.174,-1.83,1.83,0.55,-5.87,4.87,-0.96,-0.22,2.18,-0.28,1008.69
10.21,-1.83,1.83,0.55,-5.87,4.87,-0.96,-0.22,2.18,-0.28,1008.70
10.229,-0.38,1.60,-0.62,-5.87,4.87,-0.96,-0.22,2.18,-0.28,1008.70
10.231,0.31,1.00,-0.47,-5.87,4.87,-0.96,-0.22,2.18,-0.28,1008.70
10.232,0.18,0.59,0.14,-5.87,4.87,-0.96,-0.22,2.18,-0.28,1008.70
10.233,0.18,0.59,0.14,2.02,0.92,-2.72,-0.22,2.18,-0.28,1008.70
10.235,0.18,0.59,0.14,2.02,0.92,-2.72,0.69,0.80,2.06,1008.70
10.288,0.02,0.77,0.02,2.02,0.92,-2.72,0.69,0.80,2.06,1008.70
10.289,0.11,1.07,-0.00,2.02,0.92,-2.72,0.69,0.80,2.06,1008.70
10.289,0.15,1.05,-0.13,2.02,0.92,-2.72,0.69,0.80,2.06,1008.70
10.29,0.15,1.05,-0.13,2.02,0.92,-2.72,0.18,-0.13,1.07,1008.70
10.29,0.15,1.05,-0.13,1.97,-0.15,0.11,0.18,-0.13,1.07,1008.70
10.291,0.15,1.05,-0.13,1.97,-0.15,0.11,0.18,-0.13,1.07,1008.70
10.366,0.02,0.96,-0.05,1.97,-0.15,0.11,0.18,-0.13,1.07,1008.70
10.368,-0.18,1.02,-0.02,1.97,-0.15,0.11,0.18,-0.13,1.07,1008.70
10.368,-0.29,1.09,-0.03,1.97,-0.15,0.11,0.18,-0.13,1.07,1008.70
10.369,-0.29,1.09,-0.03,-0.73,0.37,0.20,0.18,-0.13,1.07,1008.70
10.369,-0.29,1.09,-0.03,-0.73,0.37,0.20,-0.02,0.38,0.52,1008.70
10.37,-0.29,1.09,-0.03,-0.73,0.37,0.20,-0.02,0.38,0.52,1008.71
10.405,-0.17,1.01,0.06,-0.73,0.37,0.20,-0.02,0.38,0.52,1008.71
10.406,-0.03,0.96,0.04,-0.73,0.37,0.20,-0.02,0.38,0.52,1008.71
10.406,0.00,1.00,0.04,-0.73,0.37,0.20,-0.02,0.38,0.52,1008.71
10.407,0.00,1.00,0.04,-0.73,0.37,0.20,0.13,-0.07,0.80,1008.71
10.407,0.00,1.00,0.04,-0.34,0.06,1.03,0.13,-0.07,0.80,1008.71
10.41,0.00,1.00,0.04,-0.34,0.06,1.03,0.13,-0.07,0.80,1008.72
10.463,0.04,1.00,-0.01,-0.34,0.06,1.03,0.13,-0.07,0.80,1008.72
10.464,0.07,0.98,-0.05,-0.34,0.06,1.03,0.13,-0.07,0.80,1008.72
10.464,0.07,0.99,-0.06,-0.34,0.06,1.03,0.13,-0.07,0.80,1008.72
10.464,0.07,0.99,-0.06,-0.34,0.06,1.03,0.29,0.01,0.72,1008.72
10.465,0.07,0.99,-0.06,0.47,0.11,0.30,0.29,0.01,0.72,1008.72
10.488,0.07,0.99,-0.06,0.47,0.11,0.30,0.29,0.01,0.72,1008.72
10.521,0.09,1.00,-0.08,0.47,0.11,0.30,0.29,0.01,0.72,1008.72
10.522,0.10,0.99,-0.08,0.47,0.11,0.30,0.29,0.01,0.72,1008.72
10.523,0.09,0.98,-0.07,0.47,0.11,0.30,0.29,0.01,0.72,1008.72
10.523,0.09,0.98,-0.07,0.47,0.11,0.30,0.27,-0.02,0.48,1008.72
10.524,0.09,0.98,-0.07,0.54,0.08,0.12,0.27,-0.02,0.48,1008.72
10.568,0.09,0.98,-0.07,0.54,0.08,0.12,0.27,-0.02,0.48,1008.72
10.586,0.05,0.99,-0.05,0.54,0.08,0.12,0.27,-0.02,0.48,1008.72
10.587,0.01,0.98,-0.05,0.54,0.08,0.12,0.27,-0.02,0.48,1008.72
10.588,-0.00,0.97,-0.07,0.54,0.08,0.12,0.27,-0.02,0.48,1008.72
10.588,-0.00,0.97,-0.07,0.54,0.08,0.12,0.29,-0.04,0.34,1008.72
10.589,-0.00,0.97,-0.07,-0.38,0.01,0.45,0.29,-0.04,0.34,1008.72
10.608,-0.00,0.97,-0.07,-0.38,0.01,0.45,0.29,-0.04,0.34,1008.72
10.638,0.06,0.97,-0.07,-0.38,0.01,0.45,0.29,-0.04,0.34,1008.72
10.638,0.07,0.97,-0.06,-0.38,0.01,0.45,0.29,-0.04,0.34,1008.72
10.638,0.07,0.99,-0.10,-0.38,0.01,0.45,0.29,-0.04,0.34,1008.72
10.638,0.07,0.99,-0.10,-0.38,0.01,0.45,0.32,-0.11,0.44,1008.72
10.639,0.07,0.99,-0.10,-0.16,-0.00,0.45,0.32,-0.11,0.44,1008.72
10.689,0.07,0.99,-0.10,-0.16,-0.00,0.45,0.32,-0.11,0.44,1008.72
10.697,0.08,1.00,-0.10,-0.16,-0.00,0.45,0.32,-0.11,0.44,1008.72
10.697,0.10,0.99,-0.14,-0.16,-0.00,0.45,0.32,-0.11,0.44,1008.72
10.698,0.14,0.99,-0.13,-0.16,-0.00,0.45,0.32,-0.11,0.44,1008.72
10.698,0.14,0.99,-0.13,-0.16,-0.00,0.45,0.37,-0.17,0.44,1008.72
10.698,0.14,0.99,-0.13,0.01,0.23,0.19,0.37,-0.17,0.44,1008.72
10.756,0.12,0.99,-0.11,0.01,0.23,0.19,0.37,-0.17,0.44,1008.72
10.757,0.05,1.00,-0.08,0.01,0.23,0.19,0.37,-0.17,0.44,1008.72
10.757,-0.08,1.05,-0.04,0.01,0.23,0.19,0.37,-0.17,0.44,1008.72
10.757,-0.08,1.05,-0.04,0.01,0.23,0.19,0.44,-0.62,0.38,1008.72
10.758,-0.08,1.05,-0.04,-0.89,0.49,0.93,0.44,-0.62,0.38,1008.72
10.768,-0.08,1.05,-0.04,-0.89,0.49,0.93,0.44,-0.62,0.38,1008.73
10.809,-0.08,1.05,-0.04,-0.89,0.49,0.93,0.44,-0.62,0.38,1008.73
10.814,-0.25,1.13,0.01,-0.89,0.49,0.93,0.44,-0.62,0.38,1008.73
10.815,-0.41,1.20,-0.00,-0.89,0.49,0.93,0.44,-0.62,0.38,1008.73
10.816,-0.37,1.28,-0.06,-0.89,0.49,0.93,0.44,-0.62,0.38,1008.73
10.816,-0.37,1.28,-0.06,-0.89,0.49,0.93,0.85,-0.99,1.03,1008.73
10.816,-0.37,1.28,-0.06,-4.90,2.48,2.01,0.85,-0.99,1.03,1008.73
10.871,-0.13,1.37,-0.19,-4.90,2.48,2.01,0.85,-0.99,1.03,1008.73
10.872,0.17,1.39,-0.37,-4.90,2.48,2.01,0.85,-0.99,1.03,1008.73
10.872,0.42,1.42,-0.17,-4.90,2.48,2.01,0.85,-0.99,1.03,1008.73
10.873,0.42,1.42,-0.17,-4.90,2.48,2.01,0.68,-1.94,1.95,1008.73
10.873,0.42,1.42,-0.17,-0.77,4.61,0.37,0.68,-1.94,1.95,1008.73
10.888,0.42,1.42,-0.17,-0.77,4.61,0.37,0.68,-1.94,1.95,1008.74
10.931,0.50,1.12,-0.06,-0.77,4.61,0.37,0.68,-1.94,1.95,1008.74
10.933,0.38,0.97,-0.31,-0.77,4.61,0.37,0.68,-1.94,1.95,1008.74
10.933,0.46,0.81,-0.26,-0.77,4.61,0.37,0.68,-1.94,1.95,1008.74
10.933,0.46,0.81,-0.26,1.51,0.59,0.81,0.68,-1.94,1.95,1008.74
10.934,0.46,0.81,-0.26,1.51,0.59,0.81,-0.60,-2.77,1.95,1008.74
10.968,0.46,0.81,-0.26,1.51,0.59,0.81,-0.60,-2.77,1.95,1008.73
10.987,0.45,0.75,-0.08,1.51,0.59,0.81,-0.60,-2.77,1.95,1008.73
10.988,0.25,0.70,-0.13,1.51,0.59,0.81,-0.60,-2.77,1.95,1008.73
10.988,-0.11,0.64,-0.30,1.51,0.59,0.81,-0.60,-2.77,1.95,1008.73
10.989,-0.11,0.64,-0.30,1.51,0.59,0.81,-2.45,-4.52,1.44,1008.73
10.989,-0.11,0.64,-0.30,-1.00,-2.15,0.70,-2.45,-4.52,1.44,1008.73
11.008,-0.11,0.64,-0.30,-1.00,-2.15,0.70,-2.45,-4.52,1.44,1008.69
11.047,-0.40,0.53,-0.65,-1.00,-2.15,0.70,-2.45,-4.52,1.44,1008.69
11.048,-0.46,0.47,-1.04,-1.00,-2.15,0.70,-2.45,-4.52,1.44,1008.69
11.048,-0.19,0.47,-1.24,-1.00,-2.15,0.70,-2.45,-4.52,1.44,1008.69
11.049,-0.19,0.47,-1.24,-1.00,-2.15,0.70,-2.02,-6.86,1.34,1008.69
11.049,-0.19,0.47,-1.24,-6.01,-4.15,-7.05,-2.02,-6.86,1.34,1008.69
11.088,-0.19,0.47,-1.24,-6.01,-4.15,-7.05,-2.02,-6.86,1.34,1008.70
11.105,0.04,0.48,-1.18,-6.01,-4.15,-7.05,-2.02,-6.86,1.34,1008.70
11.105,0.12,0.51,-0.98,-6.01,-4.15,-7.05,-2.02,-6.86,1.34,1008.70
11.106,0.02,0.59,-0.92,-6.01,-4.15,-7.05,-2.02,-6.86,1.34,1008.70
11.106,0.02,0.59,-0.92,-6.01,-4.15,-7.05,-1.49,-5.70,0.73,1008.70
11.106,0.02,0.59,-0.92,-1.51,-3.86,-7.41,-1.49,-5.70,0.73,1008.70
11.163,-0.11,0.68,-0.87,-1.51,-3.86,-7.41,-1.49,-5.70,0.73,1008.70
11.164,-0.15,0.80,-0.80,-1.51,-3.86,-7.41,-1.49,-5.70,0.73,1008.70
11.165,-0.13,0.88,-0.72,-1.51,-3.86,-7.41,-1.49,-5.70,0.73,1008.70
11.166,-0.13,0.88,-0.72,-1.51,-3.86,-7.41,-1.05,-4.01,-0.98,1008.70
11.166,-0.13,0.88,-0.72,-2.18,-1.51,-5.24,-1.05,-4.01,-0.98,1008.70
11.168,-0.13,0.88,-0.72,-2.18,-1.51,-5.24,-1.05,-4.01,-0.98,1008.67
11.209,-0.13,0.88,-0.72,-2.18,-1.51,-5.24,-1.05,-4.01,-0.98,1008.66
11.222,-0.14,0.96,-0.58,-2.18,-1.51,-5.24,-1.05,-4.01,-0.98,1008.66
11.223,-0.13,1.07,-0.51,-2.18,-1.51,-5.24,-1.05,-4.01,-0.98,1008.66
11.223,-0.11,1.15,-0.48,-2.18,-1.51,-5.24,-1.05,-4.01,-0.98,1008.66
11.223,-0.11,1.15,-0.48,-2.18,-1.51,-5.24,-0.53,-3.51,-1.83,1008.66
11.224,-0.11,1.15,-0.48,-0.65,1.08,-2.77,-0.53,-3.51,-1.83,1008.66
11.279,-0.09,1.15,-0.44,-0.65,1.08,-2.77,-0.53,-3.51,-1.83,1008.66
11.28,-0.03,1.12,-0.40,-0.65,1.08,-2.77,-0.53,-3.51,-1.83,1008.66
11.28,-0.01,1.10,-0.28,-0.65,1.08,-2.77,-0.53,-3.51,-1.83,1008.66
11.281,-0.01,1.10,-0.28,-0.65,1.08,-2.77,-0.38,-3.62,-1.95,1008.66
11.281,-0.01,1.10,-0.28,1.62,1.75,-1.73,-0.38,-3.62,-1.95,1008.66
11.288,-0.01,1.10,-0.28,1.62,1.75,-1.73,-0.38,-3.62,-1.95,1008.68
11.337,-0.11,1.10,-0.12,1.62,1.75,-1.73,-0.38,-3.62,-1.95,1008.68
11.338,-0.12,1.04,-0.10,1.62,1.75,-1.73,-0.38,-3.62,-1.95,1008.68
11.338,-0.08,1.03,-0.20,1.62,1.75,-1.73,-0.38,-3.62,-1.95,1008.68
11.339,-0.08,1.03,-0.20,1.62,1.75,-1.73,0.04,-3.38,-1.38,1008.68
11.34,-0.08,1.03,-0.20,2.08,1.27,0.05,0.04,-3.38,-1.38,1008.68
11.367,-0.08,1.03,-0.20,2.08,1.27,0.05,0.04,-3.38,-1.38,1008.69
11.396,-0.02,1.03,-0.14,2.08,1.27,0.05,0.04,-3.38,-1.38,1008.69
11.397,0.04,0.98,0.06,2.08,1.27,0.05,0.04,-3.38,-1.38,1008.69
11.397,0.01,0.98,0.15,2.08,1.27,0.05,0.04,-3.38,-1.38,1008.69
11.398,0.01,0.98,0.15,2.08,1.27,0.05,0.54,-2.83,-0.46,1008.69
11.398,0.01,0.98,0.15,3.56,0.77,1.36,0.54,-2.83,-0.46,1008.69
11.408,0.01,0.98,0.15,3.56,0.77,1.36,0.54,-2.83,-0.46,1008.71
11.459,0.01,0.98,0.15,3.13,0.04,2.38,0.54,-2.83,-0.46,1008.71
11.462,-0.01,0.98,0.15,3.13,0.04,2.38,0.54,-2.83,-0.46,1008.71
11.462,-0.00,0.94,0.14,3.13,0.04,2.38,0.54,-2.83,-0.46,1008.71
11.463,-0.02,0.86,0.18,3.13,0.04,2.38,0.54,-2.83,-0.46,1008.71
11.463,-0.02,0.86,0.18,3.13,0.04,2.38,0.40,-2.33,0.62,1008.71
11.488,-0.02,0.86,0.18,3.13,0.04,2.38,0.40,-2.33,0.62,1008.72
11.513,-0.02,0.86,0.18,3.63,-0.96,0.96,0.40,-2.33,0.62,1008.72
11.514,0.00,0.86,0.19,3.63,-0.96,0.96,0.40,-2.33,0.62,1008.72
11.514,0.14,0.85,0.08,3.63,-0.96,0.96,0.40,-2.33,0.62,1008.72
11.515,0.19,0.83,-0.17,3.63,-0.96,0.96,0.40,-2.33,0.62,1008.72
11.515,0.19,0.83,-0.17,3.63,-0.96,0.96,0.31,-1.98,1.31,1008.72
11.569,0.19,0.83,-0.17,3.63,-0.96,0.96,0.31,-1.98,1.31,1008.71
11.57,-0.16,0.92,-0.22,3.63,-0.96,0.96,0.31,-1.98,1.31,1008.71
11.57,-0.72,1.19,-0.01,3.63,-0.96,0.96,0.31,-1.98,1.31,1008.71
11.57,-0.87,1.49,0.09,3.63,-0.96,0.96,0.31,-1.98,1.31,1008.71
11.571,-0.87,1.49,0.09,-3.25,2.38,0.08,0.31,-1.98,1.31,1008.71
11.571,-0.87,1.49,0.09,-3.25,2.38,0.08,-0.34,0.73,0.27,1008.71
11.608,-0.87,1.49,0.09,-3.25,2.38,0.08,-0.34,0.73,0.27,1008.67
11.629,-0.45,1.40,-0.36,-3.25,2.38,0.08,-0.34,0.73,0.27,1008.67
11.63,-0.34,1.25,-0.59,-3.25,2.38,0.08,-0.34,0.73,0.27,1008.67
11.63,-0.42,0.97,0.08,-3.25,2.38,0.08,-0.34,0.73,0.27,1008.67
11.63,-0.42,0.97,0.08,-3.25,2.38,0.08,-0.25,1.42,1.23,1008.67
11.631,-0.42,0.97,0.08,-2.22,2.28,-2.20,-0.25,1.42,1.23,1008.67
11.687,-0.26,0.78,0.38,-2.22,2.28,-2.20,-0.25,1.42,1.23,1008.67
11.688,0.04,0.87,0.30,-2.22,2.28,-2.20,-0.25,1.42,1.23,1008.67
11.688,0.19,0.95,0.09,-2.22,2.28,-2.20,-0.25,1.42,1.23,1008.67
11.689,0.19,0.95,0.09,-2.22,2.28,-2.20,-0.20,-0.11,1.75,1008.67
11.69,0.19,0.95,0.09,0.68,-1.15,2.96,-0.20,-0.11,1.75,1008.67
11.69,0.19,0.95,0.09,0.68,-1.15,2.96,-0.20,-0.11,1.75,1008.68
11.747,0.17,1.00,-0.05,0.68,-1.15,2.96,-0.20,-0.11,1.75,1008.68
11.749,0.06,1.03,-0.02,0.68,-1.15,2.96,-0.20,-0.11,1.75,1008.68
11.749,0.05,1.06,-0.17,0.68,-1.15,2.96,-0.20,-0.11,1.75,1008.68
11.75,0.05,1.06,-0.17,0.68,-1.15,2.96,-0.08,-0.72,1.21,1008.68
11.75,0.05,1.06,-0.17,0.99,0.40,-0.41,-0.08,-0.72,1.21,1008.68
11.772,0.05,1.06,-0.17,0.99,0.40,-0.41,-0.08,-0.72,1.21,1008.70
11.805,0.23,1.04,-0.17,0.99,0.40,-0.41,-0.08,-0.72,1.21,1008.70
11.806,0.19,0.99,-0.04,0.99,0.40,-0.41,-0.08,-0.72,1.21,1008.70
11.807,-0.04,1.00,0.10,0.99,0.40,-0.41,-0.08,-0.72,1.21,1008.70
11.807,-0.04,1.00,0.10,0.99,0.40,-0.41,-0.09,0.25,0.77,1008.70
11.807,-0.04,1.00,0.10,0.89,0.20,-0.03,-0.09,0.25,0.77,1008.70
11.808,-0.04,1.00,0.10,0.89,0.20,-0.03,-0.09,0.25,0.77,1008.70
11.865,-0.21,1.02,0.08,0.89,0.20,-0.03,-0.09,0.25,0.77,1008.70
11.867,-0.10,1.02,0.03,0.89,0.20,-0.03,-0.09,0.25,0.77,1008.70
11.868,0.07,0.99,-0.04,0.89,0.20,-0.03,-0.09,0.25,0.77,1008.70
11.869,0.07,0.99,-0.04,-1.58,0.23,0.60,-0.09,0.25,0.77,1008.70
11.87,0.07,0.99,-0.04,-1.58,0.23,0.60,0.06,-0.09,0.78,1008.70
11.894,0.07,0.99,-0.04,-1.58,0.23,0.60,0.06,-0.09,0.78,1008.71
11.921,0.14,0.99,-0.07,-1.58,0.23,0.60,0.06,-0.09,0.78,1008.71
11.923,0.13,1.00,-0.03,-1.58,0.23,0.60,0.06,-0.09,0.78,1008.71
11.924,0.11,1.00,0.01,-1.58,0.23,0.60,0.06,-0.09,0.78,1008.71
11.924,0.11,1.00,0.01,-1.58,0.23,0.60,0.09,-0.32,0.89,1008.71
11.925,0.11,1.00,0.01,-0.07,0.12,0.15,0.09,-0.32,0.89,1008.71
11.968,0.11,1.00,0.01,-0.07,0.12,0.15,0.09,-0.32,0.89,1008.72
11.987,0.12,0.99,0.02,-0.07,0.12,0.15,0.09,-0.32,0.89,1008.72
11.988,0.08,0.99,-0.01,-0.07,0.12,0.15,0.09,-0.32,0.89,1008.72
11.989,0.11,1.00,-0.03,-0.07,0.12,0.15,0.09,-0.32,0.89,1008.72
11.989,0.11,1.00,-0.03,-0.07,0.12,0.15,0.14,-0.30,0.88,1008.72
11.99,0.11,1.00,-0.03,-0.77,0.17,0.46,0.14,-0.30,0.88,1008.72
12.008,0.11,1.00,-0.03,-0.77,0.17,0.46,0.14,-0.30,0.88,1008.73
12.037,0.19,1.00,-0.06,-0.77,0.17,0.46,0.14,-0.30,0.88,1008.73
12.037,0.21,1.01,-0.06,-0.77,0.17,0.46,0.14,-0.30,0.88,1008.73
12.038,0.13,1.00,-0.07,-0.77,0.17,0.46,0.14,-0.30,0.88,1008.73
12.038,0.13,1.00,-0.07,-0.77,0.17,0.46,0.19,-0.45,0.97,1008.73
12.038,0.13,1.00,-0.07,-0.55,0.38,0.07,0.19,-0.45,0.97,1008.73
12.089,0.13,1.00,-0.07,-0.55,0.38,0.07,0.19,-0.45,0.97,1008.73
12.096,0.14,1.00,-0.04,-0.55,0.38,0.07,0.19,-0.45,0.97,1008.73
12.096,0.23,1.02,-0.06,-0.55,0.38,0.07,0.19,-0.45,0.97,1008.73
12.097,0.25,1.01,-0.07,-0.55,0.38,0.07,0.19,-0.45,0.97,1008.73
12.097,0.25,1.01,-0.07,-0.55,0.38,0.07,0.22,-0.42,1.07,1008.73
12.098,0.25,1.01,-0.07,-0.77,0.62,0.29,0.22,-0.42,1.07,1008.73
12.155,0.17,0.99,-0.08,-0.77,0.62,0.29,0.22,-0.42,1.07,1008.73
12.156,0.20,0.99,-0.05,-0.77,0.62,0.29,0.22,-0.42,1.07,1008.73
12.156,0.30,0.98,-0.08,-0.77,0.62,0.29,0.22,-0.42,1.07,1008.73
12.157,0.30,0.98,-0.08,-0.77,0.62,0.29,0.27,-0.36,1.22,1008.73
12.157,0.30,0.98,-0.08,-1.23,0.64,0.40,0.27,-0.36,1.22,1008.73
12.168,0.30,0.98,-0.08,-1.23,0.64,0.40,0.27,-0.36,1.22,1008.74
12.209,0.30,0.98,-0.08,-1.23,0.64,0.40,0.27,-0.36,1.22,1008.74
12.212,0.33,1.00,-0.10,-1.23,0.64,0.40,0.27,-0.36,1.22,1008.74
12.212,0.25,1.05,-0.09,-1.23,0.64,0.40,0.27,-0.36,1.22,1008.74
12.213,0.25,1.06,-0.10,-1.23,0.64,0.40,0.27,-0.36,1.22,1008.74
12.213,0.25,1.06,-0.10,-1.23,0.64,0.40,0.32,-0.18,1.37,1008.74
12.213,0.25,1.06,-0.10,-1.39,1.43,0.32,0.32,-0.18,1.37,1008.74
12.271,0.24,1.06,-0.11,-1.39,1.43,0.32,0.32,-0.18,1.37,1008.74
12.272,0.23,1.05,-0.17,-1.39,1.43,0.32,0.32,-0.18,1.37,1008.74
12.272,0.20,1.09,-0.18,-1.39,1.43,0.32,0.32,-0.18,1.37,1008.74
12.272,0.20,1.09,-0.18,-1.39,1.43,0.32,0.35,-0.50,1.61,1008.74
12.273,0.20,1.09,-0.18,-2.60,2.11,0.09,0.35,-0.50,1.61,1008.74
12.295,0.20,1.09,-0.18,-2.60,2.11,0.09,0.35,-0.50,1.61,1008.73
12.329,0.13,1.25,-0.14,-2.60,2.11,0.09,0.35,-0.50,1.61,1008.73
12.33,-0.16,1.57,-0.07,-2.60,2.11,0.09,0.35,-0.50,1.61,1008.73
12.33,-0.66,1.86,-0.14,-2.60,2.11,0.09,0.35,-0.50,1.61,1008.73
12.331,-0.66,1.86,-0.14,-2.60,2.11,0.09,0.46,-1.00,1.79,1008.73
12.331,-0.66,1.86,-0.14,-7.67,7.41,0.95,0.46,-1.00,1.79,1008.73
12.367,-0.66,1.86,-0.14,-7.67,7.41,0.95,0.46,-1.00,1.79,1008.72
12.388,-1.08,1.75,-0.25,-7.67,7.41,0.95,0.46,-1.00,1.79,1008.72
12.388,-0.76,1.33,-0.13,-7.67,7.41,0.95,0.46,-1.00,1.79,1008.72
12.388,0.35,0.94,-0.34,-7.67,7.41,0.95,0.46,-1.00,1.79,1008.72
12.389,0.35,0.94,-0.34,-7.67,7.41,0.95,0.75,-2.63,3.09,1008.72
12.389,0.35,0.94,-0.34,-11.01,6.33,0.94,0.75,-2.63,3.09,1008.72
12.408,0.35,0.94,-0.34,-11.01,6.33,0.94,0.75,-2.63,3.09,1008.72
12.446,1.17,1.00,-0.69,-11.01,6.33,0.94,0.75,-2.63,3.09,1008.72
12.447,1.42,0.93,-0.74,-11.01,6.33,0.94,0.75,-2.63,3.09,1008.72
12.447,1.28,0.64,-0.55,-11.01,6.33,0.94,0.75,-2.63,3.09,1008.72
12.448,1.28,0.64,-0.55,-11.01,6.33,0.94,0.96,-1.89,3.84,1008.72
12.448,1.28,0.64,-0.55,5.51,3.26,-2.07,0.96,-1.89,3.84,1008.72
12.489,1.28,0.64,-0.55,5.51,3.26,-2.07,0.96,-1.89,3.84,1008.68
12.509,1.04,0.46,-0.58,5.51,3.26,-2.07,0.96,-1.89,3.84,1008.68
12.51,0.71,0.36,-0.45,5.51,3.26,-2.07,0.96,-1.89,3.84,1008.68
12.511,0.31,0.13,-0.23,5.51,3.26,-2.07,0.96,-1.89,3.84,1008.68
12.511,0.31,0.13,-0.23,5.51,3.26,-2.07,-1.23,0.73,0.38,1008.68
12.512,0.31,0.13,-0.23,-0.68,-2.16,-0.42,-1.23,0.73,0.38,1008.68
12.565,-0.11,0.03,0.03,-0.68,-2.16,-0.42,-1.23,0.73,0.38,1008.68
12.566,-0.26,0.09,-0.10,-0.68,-2.16,-0.42,-1.23,0.73,0.38,1008.68
12.566,-0.09,0.31,-0.37,-0.68,-2.16,-0.42,-1.23,0.73,0.38,1008.68
12.567,-0.09,0.31,-0.37,-0.68,-2.16,-0.42,-1.56,-0.32,-2.21,1008.68
12.567,-0.09,0.31,-0.37,-7.95,-4.96,1.82,-1.56,-0.32,-2.21,1008.68
12.568,-0.09,0.31,-0.37,-7.95,-4.96,1.82,-1.56,-0.32,-2.21,1008.64
12.608,-0.09,0.31,-0.37,-7.95,-4.96,1.82,-1.56,-0.32,-2.21,1008.68
12.621,0.15,0.48,-0.56,-7.95,-4.96,1.82,-1.56,-0.32,-2.21,1008.68
12.622,0.30,0.52,-0.51,-7.95,-4.96,1.82,-1.56,-0.32,-2.21,1008.68
12.622,0.35,0.52,-0.46,-7.95,-4.96,1.82,-1.56,-0.32,-2.21,1008.68
12.622,0.35,0.52,-0.46,-7.95,-4.96,1.82,-1.71,-1.62,-2.98,1008.68
12.623,0.35,0.52,-0.46,-2.26,-2.67,-1.82,-1.71,-1.62,-2.98,1008.68
12.679,0.34,0.56,-0.44,-2.26,-2.67,-1.82,-1.71,-1.62,-2.98,1008.68
12.68,0.32,0.65,-0.41,-2.26,-2.67,-1.82,-1.71,-1.62,-2.98,1008.68
12.68,0.32,0.79,-0.50,-2.26,-2.67,-1.82,-1.71,-1.62,-2.98,1008.68
12.681,0.32,0.79,-0.50,-2.26,-2.67,-1.82,-2.03,-1.18,-4.40,1008.68
12.681,0.32,0.79,-0.50,0.63,-2.37,-1.96,-2.03,-1.18,-4.40,1008.68
12.69,0.32,0.79,-0.50,0.63,-2.37,-1.96,-2.03,-1.18,-4.40,1008.70
12.738,0.37,0.95,-0.44,0.63,-2.37,-1.96,-2.03,-1.18,-4.40,1008.70
12.738,0.33,1.14,-0.40,0.63,-2.37,-1.96,-2.03,-1.18,-4.40,1008.70
12.738,0.16,1.38,-0.51,0.63,-2.37,-1.96,-2.03,-1.18,-4.40,1008.70
12.739,0.16,1.38,-0.51,0.63,-2.37,-1.96,-2.00,-0.41,-5.34,1008.70
12.739,0.16,1.38,-0.51,3.15,1.85,-2.94,-2.00,-0.41,-5.34,1008.70
12.77,0.16,1.38,-0.51,3.15,1.85,-2.94,-2.00,-0.41,-5.34,1008.69
12.797,0.16,1.56,-0.51,3.15,1.85,-2.94,-2.00,-0.41,-5.34,1008.69
12.798,0.55,1.51,-0.45,3.15,1.85,-2.94,-2.00,-0.41,-5.34,1008.69
12.798,0.95,1.30,-0.32,3.15,1.85,-2.94,-2.00,-0.41,-5.34,1008.69
12.798,0.95,1.30,-0.32,3.15,1.85,-2.94,-1.69,-0.97,-4.18,1008.69
12.799,0.95,1.30,-0.32,7.96,4.94,-3.67,-1.69,-0.97,-4.18,1008.69
12.809,0.95,1.30,-0.32,7.96,4.94,-3.67,-1.69,-0.97,-4.18,1008.68
12.855,1.00,1.13,-0.28,7.96,4.94,-3.67,-1.69,-0.97,-4.18,1008.68
12.856,0.76,0.98,-0.31,7.96,4.94,-3.67,-1.69,-0.97,-4.18,1008.68
12.856,0.55,0.90,-0.21,7.96,4.94,-3.67,-1.69,-0.97,-4.18,1008.68
12.857,0.55,0.90,-0.21,7.96,4.94,-3.67,-0.90,0.95,-1.69,1008.68
12.857,0.55,0.90,-0.21,10.80,0.79,-2.39,-0.90,0.95,-1.69,1008.68
12.888,0.55,0.90,-0.21,10.80,0.79,-2.39,-0.90,0.95,-1.69,1008.67
12.913,0.41,0.95,-0.06,10.80,0.79,-2.39,-0.90,0.95,-1.69,1008.67
12.914,0.46,1.12,-0.15,10.80,0.79,-2.39,-0.90,0.95,-1.69,1008.67
12.914,0.34,1.29,-0.48,10.80,0.79,-2.39,-0.90,0.95,-1.69,1008.67
12.914,0.34,1.29,-0.48,6.47,1.71,-1.57,-0.90,0.95,-1.69,1008.67
12.915,0.34,1.29,-0.48,6.47,1.71,-1.57,0.13,2.03,1.10,1008.67
12.968,0.34,1.29,-0.48,6.47,1.71,-1.57,0.13,2.03,1.10,1008.70
12.97,-0.93,1.34,0.18,6.47,1.71,-1.57,0.13,2.03,1.10,1008.70
12.971,-1.86,1.31,0.27,6.47,1.71,-1.57,0.13,2.03,1.10,1008.70
12.971,-0.72,1.28,-0.50,6.47,1.71,-1.57,0.13,2.03,1.10,1008.70
12.972,-0.72,1.28,-0.50,-8.91,3.50,0.67,0.13,2.03,1.10,1008.70
12.972,-0.72,1.28,-0.50,-8.91,3.50,0.67,-0.02,0.90,0.05,1008.70
13.009,-0.72,1.28,-0.50,-8.91,3.50,0.67,-0.02,0.90,0.05,1008.68
13.03,0.33,1.14,-0.84,-8.91,3.50,0.67,-0.02,0.90,0.05,1008.68
13.031,0.58,0.88,-0.51,-8.91,3.50,0.67,-0.02,0.90,0.05,1008.68
13.032,0.64,0.77,0.13,-8.91,3.50,0.67,-0.02,0.90,0.05,1008.68
13.033,0.64,0.77,0.13,-8.91,3.50,0.67,-0.01,0.32,2.62,1008.68
13.033,0.64,0.77,0.13,6.06,-0.52,-3.07,-0.01,0.32,2.62,1008.68
13.088,0.05,0.94,0.42,6.06,-0.52,-3.07,-0.01,0.32,2.62,1008.68
13.088,-0.40,1.08,0.08,6.06,-0.52,-3.07,-0.01,0.32,2.62,1008.68
13.089,-0.19,1.06,-0.07,6.06,-0.52,-3.07,-0.01,0.32,2.62,1008.68
13.089,-0.19,1.06,-0.07,6.06,-0.52,-3.07,-0.09,0.45,0.93,1008.68
13.089,-0.19,1.06,-0.07,-1.26,0.39,2.24,-0.09,0.45,0.93,1008.68
13.09,-0.19,1.06,-0.07,-1.26,0.39,2.24,-0.09,0.45,0.93,1008.71
13.147,0.16,1.01,-0.12,-1.26,0.39,2.24,-0.09,0.45,0.93,1008.71
13.148,0.21,0.97,-0.18,-1.26,0.39,2.24,-0.09,0.45,0.93,1008.71
13.149,0.07,0.99,-0.12,-1.26,0.39,2.24,-0.09,0.45,0.93,1008.71
13.149,0.07,0.99,-0.12,1.34,0.05,-0.51,-0.09,0.45,0.93,1008.71
13.149,0.07,0.99,-0.12,1.34,0.05,-0.51,0.02,-0.22,1.01,1008.71
13.168,0.07,0.99,-0.12,1.34,0.05,-0.51,0.02,-0.22,1.01,1008.73
13.205,-0.02,1.04,-0.04,1.34,0.05,-0.51,0.02,-0.22,1.01,1008.73
13.206,-0.02,1.03,-0.01,1.34,0.05,-0.51,0.02,-0.22,1.01,1008.73
13.206,-0.04,1.00,-0.00,1.34,0.05,-0.51,0.02,-0.22,1.01,1008.73
13.206,-0.04,1.00,-0.00,1.34,0.05,-0.51,0.03,0.13,0.69,1008.73
13.207,-0.04,1.00,-0.00,-0.69,0.36,0.67,0.03,0.13,0.69,1008.73
13.209,-0.04,1.00,-0.00,-0.69,0.36,0.67,0.03,0.13,0.69,1008.72
13.267,-0.02,0.99,-0.03,-0.69,0.36,0.67,0.03,0.13,0.69,1008.72
13.268,0.10,0.99,-0.01,-0.69,0.36,0.67,0.03,0.13,0.69,1008.72
13.268,0.12,0.96,-0.05,-0.69,0.36,0.67,0.03,0.13,0.69,1008.72
13.269,0.12,0.96,-0.05,-0.69,0.36,0.67,0.13,-0.08,0.82,1008.72
13.269,0.12,0.96,-0.05,-0.25,-0.01,0.62,0.13,-0.08,0.82,1008.72
13.294,0.12,0.96,-0.05,-0.25,-0.01,0.62,0.13,-0.08,0.82,1008.72
13.324,0.12,0.96,-0.05,-1.51,0.16,0.78,0.13,-0.08,0.82,1008.72
13.325,-0.02,1.00,-0.06,-1.51,0.16,0.78,0.13,-0.08,0.82,1008.72
13.325,-0.05,1.00,-0.03,-1.51,0.16,0.78,0.13,-0.08,0.82,1008.72
13.326,0.04,0.97,0.01,-1.51,0.16,0.78,0.13,-0.08,0.82,1008.72
13.326,0.04,0.97,0.01,-1.51,0.16,0.78,0.27,-0.14,0.91,1008.72
13.369,0.04,0.97,0.01,-1.51,0.16,0.78,0.27,-0.14,0.91,1008.73
13.396,0.08,0.97,-0.05,-1.51,0.16,0.78,0.27,-0.14,0.91,1008.73
13.397,0.11,0.99,-0.10,-1.51,0.16,0.78,0.27,-0.14,0.91,1008.73
13.398,0.20,0.99,-0.12,-1.51,0.16,0.78,0.27,-0.14,0.91,1008.73
13.398,0.20,0.99,-0.12,-1.51,0.16,0.78,0.45,-0.20,1.25,1008.73
13.398,0.20,0.99,-0.12,-0.77,0.26,0.45,0.45,-0.20,1.25,1008.73
13.409,0.20,0.99,-0.12,-0.77,0.26,0.45,0.45,-0.20,1.25,1008.73
13.439,0.28,0.96,-0.17,-0.77,0.26,0.45,0.45,-0.20,1.25,1008.73
13.44,0.28,0.98,-0.18,-0.77,0.26,0.45,0.45,-0.20,1.25,1008.73
13.44,0.22,1.01,-0.18,-0.77,0.26,0.45,0.45,-0.20,1.25,1008.73
13.44,0.22,1.01,-0.18,-0.77,0.26,0.45,0.46,-0.17,1.23,1008.73
13.44,0.22,1.01,-0.18,-0.19,0.47,-0.11,0.46,-0.17,1.23,1008.73
13.488,0.22,1.01,-0.18,-0.19,0.47,-0.11,0.46,-0.17,1.23,1008.74
13.498,0.21,1.00,-0.19,-0.19,0.47,-0.11,0.46,-0.17,1.23,1008.74
13.499,0.22,1.05,-0.15,-0.19,0.47,-0.11,0.46,-0.17,1.23,1008.74
13.499,0.16,1.09,-0.12,-0.19,0.47,-0.11,0.46,-0.17,1.23,1008.74
13.5,0.16,1.09,-0.12,-0.19,0.47,-0.11,0.57,-0.09,1.24,1008.74
13.5,0.16,1.09,-0.12,-1.41,1.35,0.41,0.57,-0.09,1.24,1008.74
13.555,0.10,1.14,-0.09,-1.41,1.35,0.41,0.57,-0.09,1.24,1008.74
13.556,0.09,1.19,-0.11,-1.41,1.35,0.41,0.57,-0.09,1.24,1008.74
13.557,0.11,1.30,-0.16,-1.41,1.35,0.41,0.57,-0.09,1.24,1008.74
13.557,0.11,1.30,-0.16,-1.41,1.35,0.41,0.89,-0.24,1.61,1008.74
13.558,0.11,1.30,-0.16,-3.08,3.33,1.23,0.89,-0.24,1.61,1008.74
13.568,0.11,1.30,-0.16,-3.08,3.33,1.23,0.89,-0.24,1.61,1008.74
13.609,0.11,1.30,-0.16,-3.08,3.33,1.23,0.89,-0.24,1.61,1008.73
13.612,-0.01,1.55,-0.11,-3.08,3.33,1.23,0.89,-0.24,1.61,1008.73
13.613,-0.42,1.76,-0.12,-3.08,3.33,1.23,0.89,-0.24,1.61,1008.73
13.614,-0.85,1.80,-0.28,-3.08,3.33,1.23,0.89,-0.24,1.61,1008.73
13.614,-0.85,1.80,-0.28,-3.08,3.33,1.23,1.38,-0.58,1.93,1008.73
13.614,-0.85,1.80,-0.28,-8.93,8.76,1.49,1.38,-0.58,1.93,1008.73
13.674,-1.04,1.65,-0.27,-8.93,8.76,1.49,1.38,-0.58,1.93,1008.73
13.676,-0.49,1.21,0.02,-8.93,8.76,1.49,1.38,-0.58,1.93,1008.73
13.676,0.51,0.97,-0.19,-8.93,8.76,1.49,1.38,-0.58,1.93,1008.73
13.677,0.51,0.97,-0.19,-8.93,8.76,1.49,1.51,-1.75,3.17,1008.73
13.677,0.51,0.97,-0.19,-8.90,5.81,2.87,1.51,-1.75,3.17,1008.73
13.7,0.51,0.97,-0.19,-8.90,5.81,2.87,1.51,-1.75,3.17,1008.73
13.729,1.24,0.93,-0.44,-8.90,5.81,2.87,1.51,-1.75,3.17,1008.73
13.73,1.38,0.77,-0.49,-8.90,5.81,2.87,1.51,-1.75,3.17,1008.73
13.73,1.10,0.52,-0.53,-8.90,5.81,2.87,1.51,-1.75,3.17,1008.73
13.73,1.10,0.52,-0.53,-8.90,5.81,2.87,1.47,-0.60,3.14,1008.73
13.731,1.10,0.52,-0.53,5.57,1.98,0.25,1.47,-0.60,3.14,1008.73
13.769,1.10,0.52,-0.53,5.57,1.98,0.25,1.47,-0.60,3.14,1008.72
13.794,0.75,0.39,-0.59,5.57,1.98,0.25,1.47,-0.60,3.14,1008.72
13.794,0.49,0.33,-0.27,5.57,1.98,0.25,1.47,-0.60,3.14,1008.72
13.794,0.29,0.19,-0.12,5.57,1.98,0.25,1.47,-0.60,3.14,1008.72
13.795,0.29,0.19,-0.12,5.57,1.98,0.25,-0.76,1.38,-0.54,1008.72
13.795,0.29,0.19,-0.12,-1.75,-2.64,1.04,-0.76,1.38,-0.54,1008.72
13.81,0.29,0.19,-0.12,-1.75,-2.64,1.04,-0.76,1.38,-0.54,1008.66
13.847,0.00,0.14,0.11,-1.75,-2.64,1.04,-0.76,1.38,-0.54,1008.66
13.848,-0.13,0.20,0.05,-1.75,-2.64,1.04,-0.76,1.38,-0.54,1008.66
13.848,-0.16,0.36,-0.07,-1.75,-2.64,1.04,-0.76,1.38,-0.54,1008.66
13.849,-0.16,0.36,-0.07,-1.75,-2.64,1.04,-1.46,0.81,-2.98,1008.66
13.849,-0.16,0.36,-0.07,-6.67,-4.67,3.61,-1.46,0.81,-2.98,1008.66
13.889,-0.16,0.36,-0.07,-6.67,-4.67,3.61,-1.46,0.81,-2.98,1008.66
13.915,0.08,0.50,-0.22,-6.67,-4.67,3.61,-1.46,0.81,-2.98,1008.66
13.916,0.31,0.58,-0.27,-6.67,-4.67,3.61,-1.46,0.81,-2.98,1008.66
13.917,0.30,0.62,-0.25,-6.67,-4.67,3.61,-1.46,0.81,-2.98,1008.66
13.917,0.30,0.62,-0.25,-6.67,-4.67,3.61,-1.69,-0.95,-3.89,1008.66
13.918,0.30,0.62,-0.25,-1.53,-2.78,0.41,-1.69,-0.95,-3.89,1008.66
13.964,0.14,0.74,-0.25,-1.53,-2.78,0.41,-1.69,-0.95,-3.89,1008.66
13.965,0.09,0.99,-0.30,-1.53,-2.78,0.41,-1.69,-0.95,-3.89,1008.66
13.965,0.34,1.32,-0.43,-1.53,-2.78,0.41,-1.69,-0.95,-3.89,1008.66
13.966,0.34,1.32,-0.43,0.91,0.62,-1.43,-1.69,-0.95,-3.89,1008.66
13.966,0.34,1.32,-0.43,0.91,0.62,-1.43,-2.46,-1.65,-5.05,1008.66
13.97,0.34,1.32,-0.43,0.91,0.62,-1.43,-2.46,-1.65,-5.05,1008.71
14.012,0.34,1.32,-0.43,0.91,0.62,-1.43,-2.46,-1.65,-5.05,1008.72
14.02,0.59,1.66,-0.57,0.91,0.62,-1.43,-2.46,-1.65,-5.05,1008.72
14.021,0.62,1.73,-0.75,0.91,0.62,-1.43,-2.46,-1.65,-5.05,1008.72
14.021,0.62,1.41,-0.75,0.91,0.62,-1.43,-2.46,-1.65,-5.05,1008.72
14.021,0.62,1.41,-0.75,0.91,0.62,-1.43,-2.71,-0.56,-4.99,1008.72
14.022,0.62,1.41,-0.75,7.71,6.20,-6.38,-2.71,-0.56,-4.99,1008.72
14.081,0.62,1.41,-0.75,11.31,1.79,-3.09,-2.71,-0.56,-4.99,1008.72
14.084,0.82,1.14,-0.39,11.31,1.79,-3.09,-2.71,-0.56,-4.99,1008.72
14.084,0.91,1.14,-0.13,11.31,1.79,-3.09,-2.71,-0.56,-4.99,1008.72
14.085,0.75,1.04,-0.34,11.31,1.79,-3.09,-2.71,-0.56,-4.99,1008.72
14.085,0.75,1.04,-0.34,11.31,1.79,-3.09,-1.67,1.32,-3.05,1008.72
14.09,0.75,1.04,-0.34,11.31,1.79,-3.09,-1.67,1.32,-3.05,1008.67
14.138,0.60,0.90,-0.31,11.31,1.79,-3.09,-1.67,1.32,-3.05,1008.67
14.139,0.60,0.93,-0.16,11.31,1.79,-3.09,-1.67,1.32,-3.05,1008.67
14.139,0.65,1.09,-0.36,11.31,1.79,-3.09,-1.67,1.32,-3.05,1008.67
14.14,0.65,1.09,-0.36,11.31,1.79,-3.09,-0.09,1.55,0.41,1008.67
14.14,0.65,1.09,-0.36,8.91,0.36,-2.65,-0.09,1.55,0.41,1008.67
14.169,0.65,1.09,-0.36,8.91,0.36,-2.65,-0.09,1.55,0.41,1008.69
14.196,0.36,1.29,-0.70,8.91,0.36,-2.65,-0.09,1.55,0.41,1008.69
14.197,-1.23,1.48,0.41,8.91,0.36,-2.65,-0.09,1.55,0.41,1008.69
14.197,-1.90,1.47,0.34,8.91,0.36,-2.65,-0.09,1.55,0.41,1008.69
14.198,-1.90,1.47,0.34,8.91,0.36,-2.65,-0.22,1.83,-0.00,1008.69
14.198,-1.90,1.47,0.34,-6.11,4.62,0.37,-0.22,1.83,-0.00,1008.69
14.213,-1.90,1.47,0.34,-6.11,4.62,0.37,-0.22,1.83,-0.00,1008.71
14.255,-0.31,1.11,-0.64,-6.11,4.62,0.37,-0.22,1.83,-0.00,1008.71
14.256,0.34,0.94,-0.91,-6.11,4.62,0.37,-0.22,1.83,-0.00,1008.71
14.256,0.57,0.87,-0.31,-6.11,4.62,0.37,-0.22,1.83,-0.00,1008.71
14.256,0.57,0.87,-0.31,-6.11,4.62,0.37,0.57,0.62,2.71,1008.71
14.257,0.57,0.87,-0.31,3.33,-0.02,-5.37,0.57,0.62,2.71,1008.71
14.289,0.57,0.87,-0.31,3.33,-0.02,-5.37,0.57,0.62,2.71,1008.67
14.314,0.44,0.86,0.27,3.33,-0.02,-5.37,0.57,0.62,2.71,1008.67
14.315,-0.13,1.01,0.29,3.33,-0.02,-5.37,0.57,0.62,2.71,1008.67
14.315,-0.33,1.06,0.04,3.33,-0.02,-5.37,0.57,0.62,2.71,1008.67
14.315,-0.33,1.06,0.04,0.65,-0.09,2.51,0.57,0.62,2.71,1008.67
14.315,-0.33,1.06,0.04,0.65,-0.09,2.51,-0.20,0.25,1.15,1008.67
14.369,-0.33,1.06,0.04,0.65,-0.09,2.51,-0.20,0.25,1.15,1008.67
14.371,-0.04,1.06,-0.12,0.65,-0.09,2.51,-0.20,0.25,1.15,1008.67
14.371,0.20,1.02,-0.09,0.65,-0.09,2.51,-0.20,0.25,1.15,1008.67
14.372,0.12,0.96,-0.12,0.65,-0.09,2.51,-0.20,0.25,1.15,1008.67
14.372,0.12,0.96,-0.12,0.65,-0.09,2.51,0.10,-0.11,1.16,1008.67
14.372,0.12,0.96,-0.12,0.96,0.25,-0.46,0.10,-0.11,1.16,1008.67
14.408,0.12,0.96,-0.12,0.96,0.25,-0.46,0.10,-0.11,1.16,1008.70
14.43,-0.01,1.00,-0.06,0.96,0.25,-0.46,0.10,-0.11,1.16,1008.70
14.432,0.02,1.04,-0.02,0.96,0.25,-0.46,0.10,-0.11,1.16,1008.70
14.432,-0.01,1.04,-0.01,0.96,0.25,-0.46,0.10,-0.11,1.16,1008.70
14.433,-0.01,1.04,-0.01,0.96,0.25,-0.46,0.07,0.10,0.78,1008.70
14.433,-0.01,1.04,-0.01,-0.42,0.40,0.35,0.07,0.10,0.78,1008.70
14.495,-0.03,0.99,-0.03,-0.42,0.40,0.35,0.07,0.10,0.78,1008.70
14.496,0.03,0.99,-0.07,-0.42,0.40,0.35,0.07,0.10,0.78,1008.70
14.498,0.11,0.99,-0.09,-0.42,0.40,0.35,0.07,0.10,0.78,1008.70
14.499,0.11,0.99,-0.09,-0.42,0.40,0.35,0.18,-0.08,0.85,1008.70
14.5,0.11,0.99,-0.09,-0.42,0.40,0.35,0.18,-0.08,0.85,1008.71
14.501,0.11,0.99,-0.09,-0.50,0.07,0.18,0.18,-0.08,0.85,1008.71
14.548,0.09,0.99,-0.03,-0.50,0.07,0.18,0.18,-0.08,0.85,1008.71
14.55,0.05,0.99,0.02,-0.50,0.07,0.18,0.18,-0.08,0.85,1008.71
14.551,0.01,0.97,0.01,-0.50,0.07,0.18,0.18,-0.08,0.85,1008.71
14.552,0.01,0.97,0.01,-0.50,0.07,0.18,0.24,-0.19,0.88,1008.71
14.554,0.01,0.97,0.01,-0.83,0.09,0.91,0.24,-0.19,0.88,1008.71
14.569,0.01,0.97,0.01,-0.83,0.09,0.91,0.24,-0.19,0.88,1008.71
14.604,0.01,0.98,-0.00,-0.83,0.09,0.91,0.24,-0.19,0.88,1008.71
14.605,0.10,0.99,-0.06,-0.83,0.09,0.91,0.24,-0.19,0.88,1008.71
14.605,0.22,0.99,-0.12,-0.83,0.09,0.91,0.24,-0.19,0.88,1008.71
14.606,0.22,0.99,-0.12,-0.83,0.09,0.91,0.43,-0.29,1.16,1008.71
14.606,0.22,0.99,-0.12,-0.83,0.22,0.54,0.43,-0.29,1.16,1008.71
14.608,0.22,0.99,-0.12,-0.83,0.22,0.54,0.43,-0.29,1.16,1008.72
14.663,0.24,0.98,-0.16,-0.83,0.22,0.54,0.43,-0.29,1.16,1008.72
14.664,0.21,0.99,-0.14,-0.83,0.22,0.54,0.43,-0.29,1.16,1008.72
14.665,0.18,1.03,-0.14,-0.83,0.22,0.54,0.43,-0.29,1.16,1008.72
14.665,0.18,1.03,-0.14,-0.83,0.22,0.54,0.45,-0.23,1.17,1008.72
14.665,0.18,1.03,-0.14,-0.49,0.55,-0.02,0.45,-0.23,1.17,1008.72
14.689,0.18,1.03,-0.14,-0.49,0.55,-0.02,0.45,-0.23,1.17,1008.72
14.723,0.18,1.03,-0.18,-0.49,0.55,-0.02,0.45,-0.23,1.17,1008.72
14.724,0.20,1.01,-0.16,-0.49,0.55,-0.02,0.45,-0.23,1.17,1008.72
14.724,0.16,1.07,-0.10,-0.49,0.55,-0.02,0.45,-0.23,1.17,1008.72
14.725,0.16,1.07,-0.10,-0.49,0.55,-0.02,0.54,-0.12,1.27,1008.72
14.725,0.16,1.07,-0.10,-1.43,1.16,0.30,0.54,-0.12,1.27,1008.72
14.769,0.16,1.07,-0.10,-1.43,1.16,0.30,0.54,-0.12,1.27,1008.73
14.78,0.12,1.13,-0.08,-1.43,1.16,0.30,0.54,-0.12,1.27,1008.73
14.781,0.11,1.14,-0.09,-1.43,1.16,0.30,0.54,-0.12,1.27,1008.73
14.781,0.12,1.15,-0.16,-1.43,1.16,0.30,0.54,-0.12,1.27,1008.73
14.781,0.12,1.15,-0.16,-1.43,1.16,0.30,0.79,-0.23,1.61,1008.73
14.782,0.12,1.15,-0.16,-2.82,2.53,1.08,0.79,-0.23,1.61,1008.73
14.809,0.12,1.15,-0.16,-2.82,2.53,1.08,0.79,-0.23,1.61,1008.73
14.837,0.08,1.28,-0.22,-2.82,2.53,1.08,0.79,-0.23,1.61,1008.73
14.838,-0.06,1.50,-0.19,-2.82,2.53,1.08,0.79,-0.23,1.61,1008.73
14.839,-0.43,1.78,-0.20,-2.82,2.53,1.08,0.79,-0.23,1.61,1008.73
14.839,-0.43,1.78,-0.20,-2.82,2.53,1.08,1.09,-0.68,1.89,1008.73
14.84,-0.43,1.78,-0.20,-5.99,6.80,0.87,1.09,-0.68,1.89,1008.73
14.896,-0.43,1.78,-0.20,-5.99,6.80,0.87,1.09,-0.68,1.89,1008.73
14.898,-0.89,1.90,-0.26,-5.99,6.80,0.87,1.09,-0.68,1.89,1008.73
14.902,-0.90,1.53,-0.09,-5.99,6.80,0.87,1.09,-0.68,1.89,1008.73
14.902,0.02,0.92,-0.00,-5.99,6.80,0.87,1.09,-0.68,1.89,1008.73
14.903,0.02,0.92,-0.00,-5.99,6.80,0.87,1.41,-1.71,2.47,1008.73
14.903,0.02,0.92,-0.00,-11.00,6.97,2.77,1.41,-1.71,2.47,1008.73
14.954,0.94,0.79,-0.46,-11.00,6.97,2.77,1.41,-1.71,2.47,1008.73
14.955,1.40,0.84,-0.53,-11.00,6.97,2.77,1.41,-1.71,2.47,1008.73
14.956,1.43,0.60,-0.50,-11.00,6.97,2.77,1.41,-1.71,2.47,1008.73
14.956,1.43,0.60,-0.50,-11.00,6.97,2.77,1.55,-1.41,3.50,1008.73
14.957,1.43,0.60,-0.50,6.03,1.64,0.11,1.55,-1.41,3.50,1008.73
14.969,1.43,0.60,-0.50,6.03,1.64,0.11,1.55,-1.41,3.50,1008.72
15.009,1.43,0.60,-0.50,6.03,1.64,0.11,1.55,-1.41,3.50,1008.68
15.014,1.15,0.33,-0.55,6.03,1.64,0.11,1.55,-1.41,3.50,1008.68
15.014,0.75,0.30,-0.55,6.03,1.64,0.11,1.55,-1.41,3.50,1008.68
15.015,0.42,0.22,-0.29,6.03,1.64,0.11,1.55,-1.41,3.50,1008.68
15.016,0.42,0.22,-0.29,6.03,1.64,0.11,-0.11,1.52,0.01,1008.68
15.017,0.42,0.22,-0.29,0.87,-2.84,-0.16,-0.11,1.52,0.01,1008.68
15.071,0.13,0.15,-0.03,0.87,-2.84,-0.16,-0.11,1.52,0.01,1008.68
15.072,-0.05,0.13,0.16,0.87,-2.84,-0.16,-0.11,1.52,0.01,1008.68
15.072,-0.01,0.20,0.06,0.87,-2.84,-0.16,-0.11,1.52,0.01,1008.68
15.073,-0.01,0.20,0.06,0.87,-2.84,-0.16,-1.10,1.14,-2.28,1008.68
15.073,-0.01,0.20,0.06,-5.83,-5.10,4.06,-1.10,1.14,-2.28,1008.68
15.089,-0.01,0.20,0.06,-5.83,-5.10,4.06,-1.10,1.14,-2.28,1008.67
15.129,0.16,0.31,-0.15,-5.83,-5.10,4.06,-1.10,1.14,-2.28,1008.67
15.13,0.32,0.43,-0.31,-5.83,-5.10,4.06,-1.10,1.14,-2.28,1008.67
15.131,0.36,0.56,-0.31,-5.83,-5.10,4.06,-1.10,1.14,-2.28,1008.67
15.131,0.36,0.56,-0.31,-5.83,-5.10,4.06,-1.06,-0.37,-3.07,1008.67
15.132,0.36,0.56,-0.31,-1.88,-3.50,0.59,-1.06,-0.37,-3.07,1008.67
15.17,0.36,0.56,-0.31,-1.88,-3.50,0.59,-1.06,-0.37,-3.07,1008.71
15.187,0.37,0.64,-0.25,-1.88,-3.50,0.59,-1.06,-0.37,-3.07,1008.71
15.188,0.36,0.71,-0.23,-1.88,-3.50,0.59,-1.06,-0.37,-3.07,1008.71
15.188,0.34,0.84,-0.26,-1.88,-3.50,0.59,-1.06,-0.37,-3.07,1008.71
15.189,0.34,0.84,-0.26,-1.88,-3.50,0.59,-1.84,-0.81,-4.15,1008.71
15.189,0.34,0.84,-0.26,0.97,-1.76,-0.01,-1.84,-0.81,-4.15,1008.71
15.208,0.34,0.84,-0.26,0.97,-1.76,-0.01,-1.84,-0.81,-4.15,1008.71
15.246,0.40,1.03,-0.33,0.97,-1.76,-0.01,-1.84,-0.81,-4.15,1008.71
15.247,0.56,1.25,-0.43,0.97,-1.76,-0.01,-1.84,-0.81,-4.15,1008.71
15.248,0.52,1.41,-0.40,0.97,-1.76,-0.01,-1.84,-0.81,-4.15,1008.71
15.248,0.52,1.41,-0.40,4.75,2.55,-2.48,-1.84,-0.81,-4.15,1008.71
15.249,0.52,1.41,-0.40,4.75,2.55,-2.48,-2.18,-0.39,-4.54,1008.71
15.288,0.52,1.41,-0.40,4.75,2.55,-2.48,-2.18,-0.39,-4.54,1008.69
15.313,0.52,1.41,-0.40,5.24,3.46,-2.31,-2.18,-0.39,-4.54,1008.69
15.314,0.31,1.43,-0.32,5.24,3.46,-2.31,-2.18,-0.39,-4.54,1008.69
15.314,0.31,1.31,-0.26,5.24,3.46,-2.31,-2.18,-0.39,-4.54,1008.69
15.315,0.38,1.20,-0.16,5.24,3.46,-2.31,-2.18,-0.39,-4.54,1008.69
15.315,0.38,1.20,-0.16,5.24,3.46,-2.31,-2.12,-0.55,-3.87,1008.69
15.364,0.38,1.20,-0.16,5.84,1.19,-2.78,-2.12,-0.55,-3.87,1008.69
15.365,0.28,1.18,-0.18,5.84,1.19,-2.78,-2.12,-0.55,-3.87,1008.69
15.366,0.31,1.09,-0.27,5.84,1.19,-2.78,-2.12,-0.55,-3.87,1008.69
15.366,0.39,0.93,-0.22,5.84,1.19,-2.78,-2.12,-0.55,-3.87,1008.69
15.367,0.39,0.93,-0.22,5.84,1.19,-2.78,-1.18,-1.03,-1.49,1008.69
15.369,0.39,0.93,-0.22,5.84,1.19,-2.78,-1.18,-1.03,-1.49,1008.67
15.413,0.39,0.93,-0.22,5.84,1.19,-2.78,-1.18,-1.03,-1.49,1008.68
15.44,0.29,0.89,-0.15,5.84,1.19,-2.78,-1.18,-1.03,-1.49,1008.68
15.441,0.28,0.92,-0.18,5.84,1.19,-2.78,-1.18,-1.03,-1.49,1008.68
15.442,0.43,0.94,-0.36,5.84,1.19,-2.78,-1.18,-1.03,-1.49,1008.68
15.442,0.43,0.94,-0.36,5.84,1.19,-2.78,0.06,-0.20,0.69,1008.68
15.442,0.43,0.94,-0.36,5.47,-0.34,-2.83,0.06,-0.20,0.69,1008.68
15.481,0.42,1.01,-0.81,5.47,-0.34,-2.83,0.06,-0.20,0.69,1008.68
15.482,-0.76,1.37,0.00,5.47,-0.34,-2.83,0.06,-0.20,0.69,1008.68
15.482,-1.50,1.75,0.41,5.47,-0.34,-2.83,0.06,-0.20,0.69,1008.68
15.482,-1.50,1.75,0.41,5.47,-0.34,-2.83,-0.07,2.23,-0.09,1008.68
15.483,-1.50,1.75,0.41,-3.65,4.13,-1.62,-0.07,2.23,-0.09,1008.68
15.489,-1.50,1.75,0.41,-3.65,4.13,-1.62,-0.07,2.23,-0.09,1008.71
15.538,-0.20,1.35,-0.10,-3.65,4.13,-1.62,-0.07,2.23,-0.09,1008.71
15.539,0.25,0.88,-0.57,-3.65,4.13,-1.62,-0.07,2.23,-0.09,1008.71
15.54,-0.02,0.76,0.31,-3.65,4.13,-1.62,-0.07,2.23,-0.09,1008.71
15.54,-0.02,0.76,0.31,-3.65,4.13,-1.62,0.54,1.62,1.93,1008.71
15.54,-0.02,0.76,0.31,1.41,0.13,-0.99,0.54,1.62,1.93,1008.71
15.571,-0.02,0.76,0.31,1.41,0.13,-0.99,0.54,1.62,1.93,1008.72
15.597,-0.17,0.84,0.30,1.41,0.13,-0.99,0.54,1.62,1.93,1008.72
15.598,-0.13,1.08,-0.29,1.41,0.13,-0.99,0.54,1.62,1.93,1008.72
15.598,0.26,1.11,-0.19,1.41,0.13,-0.99,0.54,1.62,1.93,1008.72
15.598,0.26,1.11,-0.19,1.41,0.13,-0.99,0.29,-0.34,1.47,1008.72
15.599,0.26,1.11,-0.19,0.33,0.22,-0.23,0.29,-0.34,1.47,1008.72
15.61,0.26,1.11,-0.19,0.33,0.22,-0.23,0.29,-0.34,1.47,1008.72
15.655,0.26,1.11,-0.19,0.85,0.10,-0.25,0.29,-0.34,1.47,1008.72
15.656,0.32,1.00,-0.09,0.85,0.10,-0.25,0.29,-0.34,1.47,1008.72
15.657,0.07,0.97,-0.07,0.85,0.10,-0.25,0.29,-0.34,1.47,1008.72
15.657,-0.11,1.02,-0.04,0.85,0.10,-0.25,0.29,-0.34,1.47,1008.72
15.658,-0.11,1.02,-0.04,0.85,0.10,-0.25,0.10,0.06,0.91,1008.72
15.691,-0.11,1.02,-0.04,0.85,0.10,-0.25,0.10,0.06,0.91,1008.74
15.723,-0.11,1.02,-0.04,1.13,-0.04,0.19,0.10,0.06,0.91,1008.74
15.724,-0.00,1.01,0.02,1.13,-0.04,0.19,0.10,0.06,0.91,1008.74
15.724,0.22,0.95,-0.05,1.13,-0.04,0.19,0.10,0.06,0.91,1008.74
15.724,0.28,0.99,-0.06,1.13,-0.04,0.19,0.10,0.06,0.91,1008.74
15.725,0.28,0.99,-0.06,1.13,-0.04,0.19,0.10,-0.06,0.73,1008.74
15.77,0.28,0.99,-0.06,1.13,-0.04,0.19,0.10,-0.06,0.73,1008.73
15.772,0.12,1.04,-0.05,1.13,-0.04,0.19,0.10,-0.06,0.73,1008.73
15.772,-0.03,1.00,-0.04,1.13,-0.04,0.19,0.10,-0.06,0.73,1008.73
15.773,0.04,0.98,-0.01,1.13,-0.04,0.19,0.10,-0.06,0.73,1008.73
15.773,0.04,0.98,-0.01,1.13,-0.04,0.19,0.12,0.08,0.32,1008.73
15.774,0.04,0.98,-0.01,-0.25,0.21,0.21,0.12,0.08,0.32,1008.73
15.814,0.04,0.98,-0.01,-0.25,0.21,0.21,0.12,0.08,0.32,1008.73
15.841,0.10,0.98,-0.00,-0.25,0.21,0.21,0.12,0.08,0.32,1008.73
15.842,0.11,0.98,-0.01,-0.25,0.21,0.21,0.12,0.08,0.32,1008.73
15.843,0.13,0.98,-0.05,-0.25,0.21,0.21,0.12,0.08,0.32,1008.73
15.843,0.13,0.98,-0.05,-0.25,0.21,0.21,0.19,-0.04,0.32,1008.73
15.844,0.13,0.98,-0.05,0.23,-0.03,0.43,0.19,-0.04,0.32,1008.73
15.899,0.09,0.98,-0.05,0.23,-0.03,0.43,0.19,-0.04,0.32,1008.73
15.9,0.02,1.00,-0.03,0.23,-0.03,0.43,0.19,-0.04,0.32,1008.73
15.903,0.03,1.00,-0.08,0.23,-0.03,0.43,0.19,-0.04,0.32,1008.73
15.904,0.03,1.00,-0.08,0.23,-0.03,0.43,0.20,-0.06,0.24,1008.73
15.905,0.03,1.00,-0.08,0.23,-0.03,0.43,0.20,-0.06,0.24,1008.72
15.906,0.03,1.00,-0.08,-0.53,0.09,0.21,0.20,-0.06,0.24,1008.72
15.947,0.08,1.00,-0.09,-0.53,0.09,0.21,0.20,-0.06,0.24,1008.72
15.948,0.13,1.01,-0.05,-0.53,0.09,0.21,0.20,-0.06,0.24,1008.72
15.948,0.12,1.02,-0.05,-0.53,0.09,0.21,0.20,-0.06,0.24,1008.72
15.949,0.12,1.02,-0.05,-0.53,0.09,0.21,0.17,-0.29,0.34,1008.72
15.949,0.12,1.02,-0.05,-0.09,0.30,0.25,0.17,-0.29,0.34,1008.72
15.97,0.12,1.02,-0.05,-0.09,0.30,0.25,0.17,-0.29,0.34,1008.71
16.016,0.12,1.02,-0.05,-1.34,0.42,1.00,0.17,-0.29,0.34,1008.71
16.018,0.07,1.02,-0.00,-1.34,0.42,1.00,0.17,-0.29,0.34,1008.71
16.02,0.01,1.01,0.01,-1.34,0.42,1.00,0.17,-0.29,0.34,1008.71
16.021,-0.08,1.02,-0.02,-1.34,0.42,1.00,0.17,-0.29,0.34,1008.71
16.022,-0.08,1.02,-0.02,-1.34,0.42,1.00,0.33,-0.40,0.40,1008.71
16.023,-0.08,1.02,-0.02,-1.34,0.42,1.00,0.33,-0.40,0.40,1008.70
16.062,-0.10,1.08,-0.01,-1.34,0.42,1.00,0.33,-0.40,0.40,1008.70
16.064,-0.17,1.17,-0.06,-1.34,0.42,1.00,0.33,-0.40,0.40,1008.70
16.064,-0.31,1.27,-0.05,-1.34,0.42,1.00,0.33,-0.40,0.40,1008.70
16.065,-0.31,1.27,-0.05,-1.34,0.42,1.00,0.64,-0.87,0.93,1008.70
16.065,-0.31,1.27,-0.05,-3.61,2.06,1.09,0.64,-0.87,0.93,1008.70
16.098,-0.31,1.27,-0.05,-3.61,2.06,1.09,0.64,-0.87,0.93,1008.71
16.127,-0.21,1.34,-0.09,-3.61,2.06,1.09,0.64,-0.87,0.93,1008.71
16.128,-0.05,1.57,-0.28,-3.61,2.06,1.09,0.64,-0.87,0.93,1008.71
16.129,-0.06,1.48,-0.10,-3.61,2.06,1.09,0.64,-0.87,0.93,1008.71
16.129,-0.06,1.48,-0.10,-3.61,2.06,1.09,0.29,-2.26,1.76,1008.71
16.129,-0.06,1.48,-0.10,-3.45,5.04,0.38,0.29,-2.26,1.76,1008.71
16.17,-0.06,1.48,-0.10,-3.45,5.04,0.38,0.29,-2.26,1.76,1008.72
16.18,-0.05,1.05,-0.51,-3.45,5.04,0.38,0.29,-2.26,1.76,1008.72
16.181,0.40,0.80,-0.70,-3.45,5.04,0.38,0.29,-2.26,1.76,1008.72
16.181,0.75,0.70,-0.25,-3.45,5.04,0.38,0.29,-2.26,1.76,1008.72
16.182,0.75,0.70,-0.25,-3.45,5.04,0.38,-0.94,-4.07,2.40,1008.72
16.183,0.75,0.70,-0.25,0.39,-0.65,-2.67,-0.94,-4.07,2.40,1008.72
16.213,0.75,0.70,-0.25,0.39,-0.65,-2.67,-0.94,-4.07,2.40,1008.71
16.248,0.65,0.60,-0.29,0.39,-0.65,-2.67,-0.94,-4.07,2.40,1008.71
16.249,0.27,0.63,-0.46,0.39,-0.65,-2.67,-0.94,-4.07,2.40,1008.71
16.249,0.11,0.65,-0.47,0.39,-0.65,-2.67,-0.94,-4.07,2.40,1008.71
16.249,0.11,0.65,-0.47,0.39,-0.65,-2.67,-2.08,-4.70,1.59,1008.71
16.25,0.11,0.65,-0.47,-0.12,-2.76,-1.99,-2.08,-4.70,1.59,1008.71
16.29,0.11,0.65,-0.47,-0.12,-2.76,-1.99,-2.08,-4.70,1.59,1008.69
16.297,0.09,0.61,-0.61,-0.12,-2.76,-1.99,-2.08,-4.70,1.59,1008.69
16.298,0.09,0.54,-0.85,-0.12,-2.76,-1.99,-2.08,-4.70,1.59,1008.69
16.298,0.07,0.51,-0.84,-0.12,-2.76,-1.99,-2.08,-4.70,1.59,1008.69
16.298,0.07,0.51,-0.84,-0.12,-2.76,-1.99,-1.95,-5.89,1.44,1008.69
16.299,0.07,0.51,-0.84,-2.64,-3.35,-5.23,-1.95,-5.89,1.44,1008.69
16.356,0.12,0.52,-0.85,-2.64,-3.35,-5.23,-1.95,-5.89,1.44,1008.69
16.357,0.12,0.51,-0.87,-2.64,-3.35,-5.23,-1.95,-5.89,1.44,1008.69
16.357,0.12,0.54,-0.93,-2.64,-3.35,-5.23,-1.95,-5.89,1.44,1008.69
16.357,0.12,0.54,-0.93,-2.64,-3.35,-5.23,-1.70,-5.82,0.66,1008.69
16.357,0.12,0.54,-0.93,-1.77,-3.68,-6.03,-1.70,-5.82,0.66,1008.69
16.37,0.12,0.54,-0.93,-1.77,-3.68,-6.03,-1.70,-5.82,0.66,1008.68
16.41,0.12,0.54,-0.93,-1.77,-3.68,-6.03,-1.70,-5.82,0.66,1008.67
16.415,0.17,0.62,-0.93,-1.77,-3.68,-6.03,-1.70,-5.82,0.66,1008.67
16.416,0.19,0.66,-0.81,-1.77,-3.68,-6.03,-1.70,-5.82,0.66,1008.67
16.417,0.15,0.72,-0.66,-1.77,-3.68,-6.03,-1.70,-5.82,0.66,1008.67
16.418,0.15,0.72,-0.66,-1.77,-3.68,-6.03,-1.17,-4.19,-0.77,1008.67
16.419,0.15,0.72,-0.66,-0.24,-2.55,-5.15,-1.17,-4.19,-0.77,1008.67
16.472,0.08,0.85,-0.56,-0.24,-2.55,-5.15,-1.17,-4.19,-0.77,1008.67
16.473,0.05,1.00,-0.53,-0.24,-2.55,-5.15,-1.17,-4.19,-0.77,1008.67
16.474,0.05,1.10,-0.50,-0.24,-2.55,-5.15,-1.17,-4.19,-0.77,1008.67
16.474,0.05,1.10,-0.50,-0.24,-2.55,-5.15,-0.55,-3.24,-1.90,1008.67
16.474,0.05,1.10,-0.50,0.19,0.34,-2.53,-0.55,-3.24,-1.90,1008.67
16.489,0.05,1.10,-0.50,0.19,0.34,-2.53,-0.55,-3.24,-1.90,1008.67
16.529,0.10,1.14,-0.40,0.19,0.34,-2.53,-0.55,-3.24,-1.90,1008.67
16.531,0.12,1.11,-0.33,0.19,0.34,-2.53,-0.55,-3.24,-1.90,1008.67
16.531,0.09,1.07,-0.32,0.19,0.34,-2.53,-0.55,-3.24,-1.90,1008.67
16.532,0.09,1.07,-0.32,0.19,0.34,-2.53,-0.30,-3.33,-1.69,1008.67
16.532,0.09,1.07,-0.32,1.98,1.53,-0.96,-0.30,-3.33,-1.69,1008.67
16.569,0.09,1.07,-0.32,1.98,1.53,-0.96,-0.30,-3.33,-1.69,1008.68
16.59,0.08,1.07,-0.29,1.98,1.53,-0.96,-0.30,-3.33,-1.69,1008.68
16.591,0.11,1.06,-0.24,1.98,1.53,-0.96,-0.30,-3.33,-1.69,1008.68
16.592,0.23,1.01,-0.18,1.98,1.53,-0.96,-0.30,-3.33,-1.69,1008.68
16.593,0.23,1.01,-0.18,1.98,1.53,-0.96,-0.06,-3.23,-0.89,1008.68
16.594,0.23,1.01,-0.18,3.24,0.99,-0.15,-0.06,-3.23,-0.89,1008.68
16.609,0.23,1.01,-0.18,3.24,0.99,-0.15,-0.06,-3.23,-0.89,1008.71
16.646,0.29,0.98,-0.04,3.24,0.99,-0.15,-0.06,-3.23,-0.89,1008.71
16.647,0.22,0.98,0.09,3.24,0.99,-0.15,-0.06,-3.23,-0.89,1008.71
16.648,0.19,0.95,0.14,3.24,0.99,-0.15,-0.06,-3.23,-0.89,1008.71
16.648,0.19,0.95,0.14,3.24,0.99,-0.15,-0.09,-2.82,0.14,1008.71
16.649,0.19,0.95,0.14,4.32,0.21,2.37,-0.09,-2.82,0.14,1008.71
16.689,0.19,0.95,0.14,4.32,0.21,2.37,-0.09,-2.82,0.14,1008.73
16.705,0.21,0.92,0.17,4.32,0.21,2.37,-0.09,-2.82,0.14,1008.73
16.705,0.30,0.93,0.13,4.32,0.21,2.37,-0.09,-2.82,0.14,1008.73
16.706,0.30,0.86,0.02,4.32,0.21,2.37,-0.09,-2.82,0.14,1008.73
16.706,0.30,0.86,0.02,4.32,0.21,2.37,-0.10,-2.46,0.96,1008.73
16.707,0.30,0.86,0.02,4.31,-0.58,2.42,-0.10,-2.46,0.96,1008.73
16.764,-0.04,0.71,-0.12,4.31,-0.58,2.42,-0.10,-2.46,0.96,1008.73
16.765,-0.94,1.31,-0.03,4.31,-0.58,2.42,-0.10,-2.46,0.96,1008.73
16.765,-0.92,2.19,0.40,4.31,-0.58,2.42,-0.10,-2.46,0.96,1008.73
16.765,-0.92,2.19,0.40,4.31,-0.58,2.42,-0.63,-0.48,-0.11,1008.73
16.766,-0.92,2.19,0.40,-4.34,4.23,1.76,-0.63,-0.48,-0.11,1008.73
16.77,-0.92,2.19,0.40,-4.34,4.23,1.76,-0.63,-0.48,-0.11,1008.73
16.812,-0.92,2.19,0.40,-4.34,4.23,1.76,-0.63,-0.48,-0.11,1008.70
16.821,0.22,1.38,-0.40,-4.34,4.23,1.76,-0.63,-0.48,-0.11,1008.70
16.822,0.15,0.65,-0.85,-4.34,4.23,1.76,-0.63,-0.48,-0.11,1008.70
16.822,-0.08,0.74,-0.17,-4.34,4.23,1.76,-0.63,-0.48,-0.11,1008.70
16.822,-0.08,0.74,-0.17,-4.34,4.23,1.76,-0.12,0.61,1.38,1008.70
16.823,-0.08,0.74,-0.17,1.95,-0.59,-3.63,-0.12,0.61,1.38,1008.70
16.88,-0.16,1.03,0.43,1.95,-0.59,-3.63,-0.12,0.61,1.38,1008.70
16.881,-0.16,1.12,0.23,1.95,-0.59,-3.63,-0.12,0.61,1.38,1008.70
16.881,-0.13,0.98,0.11,1.95,-0.59,-3.63,-0.12,0.61,1.38,1008.70
16.882,-0.13,0.98,0.11,1.95,-0.59,-3.63,-0.60,0.36,0.99,1008.70
16.882,-0.13,0.98,0.11,-1.03,0.54,3.10,-0.60,0.36,0.99,1008.70
16.889,-0.13,0.98,0.11,-1.03,0.54,3.10,-0.60,0.36,0.99,1008.69
16.937,-0.00,0.92,0.05,-1.03,0.54,3.10,-0.60,0.36,0.99,1008.69
16.938,0.09,1.01,-0.06,-1.03,0.54,3.10,-0.60,0.36,0.99,1008.69
16.939,0.17,1.09,-0.14,-1.03,0.54,3.10,-0.60,0.36,0.99,1008.69
16.939,0.17,1.09,-0.14,0.74,0.15,0.00,-0.60,0.36,0.99,1008.69
16.94,0.17,1.09,-0.14,0.74,0.15,0.00,-0.22,-0.82,1.01,1008.69
16.97,0.17,1.09,-0.14,0.74,0.15,0.00,-0.22,-0.82,1.01,1008.71
16.997,0.14,1.06,0.02,0.74,0.15,0.00,-0.22,-0.82,1.01,1008.71
16.998,0.13,0.93,-0.02,0.74,0.15,0.00,-0.22,-0.82,1.01,1008.71
16.998,0.06,0.97,0.03,0.74,0.15,0.00,-0.22,-0.82,1.01,1008.71
16.999,0.06,0.97,0.03,0.74,0.15,0.00,-0.18,0.13,0.55,1008.71
16.999,0.06,0.97,0.03,0.63,-0.02,0.50,-0.18,0.13,0.55,1008.71
17.011,0.06,0.97,0.03,0.63,-0.02,0.50,-0.18,0.13,0.55,1008.70
17.054,-0.09,1.00,0.04,0.63,-0.02,0.50,-0.18,0.13,0.55,1008.70
17.055,-0.09,1.02,-0.07,0.63,-0.02,0.50,-0.18,0.13,0.55,1008.70
17.056,0.00,1.06,-0.14,0.63,-0.02,0.50,-0.18,0.13,0.55,1008.70
17.056,0.00,1.06,-0.14,0.63,-0.02,0.50,-0.10,-0.09,0.53,1008.70
17.057,0.00,1.06,-0.14,-1.30,0.36,-0.27,-0.10,-0.09,0.53,1008.70
17.089,0.00,1.06,-0.14,-1.30,0.36,-0.27,-0.10,-0.09,0.53,1008.72
17.113,0.07,1.03,-0.07,-1.30,0.36,-0.27,-0.10,-0.09,0.53,1008.72
17.114,0.02,0.99,0.02,-1.30,0.36,-0.27,-0.10,-0.09,0.53,1008.72
17.114,-0.09,1.02,0.11,-1.30,0.36,-0.27,-0.10,-0.09,0.53,1008.72
17.115,-0.09,1.02,0.11,-1.30,0.36,-0.27,-0.04,-0.37,0.69,1008.72
17.115,-0.09,1.02,0.11,-1.09,0.29,0.49,-0.04,-0.37,0.69,1008.72
17.17,-0.09,1.02,0.11,-1.09,0.29,0.49,-0.04,-0.37,0.69,1008.72
17.171,-0.09,1.01,0.14,-1.09,0.29,0.49,-0.04,-0.37,0.69,1008.72
17.172,-0.00,0.97,0.10,-1.09,0.29,0.49,-0.04,-0.37,0.69,1008.72
17.172,0.17,0.96,0.01,-1.09,0.29,0.49,-0.04,-0.37,0.69,1008.72
17.173,0.17,0.96,0.01,-1.09,0.29,0.49,0.14,-0.72,1.09,1008.72
17.173,0.17,0.96,0.01,-1.40,0.00,1.21,0.14,-0.72,1.09,1008.72
17.209,0.17,0.96,0.01,-1.40,0.00,1.21,0.14,-0.72,1.09,1008.73
17.234,0.31,0.96,-0.05,-1.40,0.00,1.21,0.14,-0.72,1.09,1008.73
17.234,0.33,0.96,-0.10,-1.40,0.00,1.21,0.14,-0.72,1.09,1008.73
17.235,0.26,0.99,-0.03,-1.40,0.00,1.21,0.14,-0.72,1.09,1008.73
17.235,0.26,0.99,-0.03,-1.40,0.00,1.21,0.15,-0.61,1.09,1008.73
17.236,0.26,0.99,-0.03,0.68,0.05,-0.01,0.15,-0.61,1.09,1008.73
17.29,0.26,0.99,-0.03,-1.34,0.71,0.27,0.15,-0.61,1.09,1008.73
17.291,0.15,1.02,-0.01,-1.34,0.71,0.27,0.15,-0.61,1.09,1008.73
17.291,0.13,1.03,-0.04,-1.34,0.71,0.27,0.15,-0.61,1.09,1008.73
17.292,0.15,1.02,-0.08,-1.34,0.71,0.27,0.15,-0.61,1.09,1008.73
17.292,0.15,1.02,-0.08,-1.34,0.71,0.27,0.13,-0.46,0.95,1008.73
17.293,0.15,1.02,-0.08,-1.34,0.71,0.27,0.13,-0.46,0.95,1008.73
17.346,0.20,1.00,-0.09,-1.34,0.71,0.27,0.13,-0.46,0.95,1008.73
17.347,0.28,0.99,-0.09,-1.34,0.71,0.27,0.13,-0.46,0.95,1008.73
17.348,0.25,1.04,-0.10,-1.34,0.71,0.27,0.13,-0.46,0.95,1008.73
17.349,0.25,1.04,-0.10,-1.34,0.71,0.27,0.19,-0.59,1.20,1008.73
17.349,0.25,1.04,-0.10,-0.94,0.77,0.00,0.19,-0.59,1.20,1008.73
17.369,0.25,1.04,-0.10,-0.94,0.77,0.00,0.19,-0.59,1.20,1008.73
17.405,0.18,1.10,-0.12,-0.94,0.77,0.00,0.19,-0.59,1.20,1008.73
17.407,0.13,1.10,-0.13,-0.94,0.77,0.00,0.19,-0.59,1.20,1008.73
17.408,0.14,1.08,-0.11,-0.94,0.77,0.00,0.19,-0.59,1.20,1008.73
17.409,0.14,1.08,-0.11,-0.94,0.77,0.00,0.31,-0.41,1.41,1008.73
17.41,0.14,1.08,-0.11,-2.58,1.89,-0.04,0.31,-0.41,1.41,1008.73
17.411,0.14,1.08,-0.11,-2.58,1.89,-0.04,0.31,-0.41,1.41,1008.73
17.462,0.20,1.10,-0.08,-2.58,1.89,-0.04,0.31,-0.41,1.41,1008.73
17.463,0.15,1.17,-0.11,-2.58,1.89,-0.04,0.31,-0.41,1.41,1008.73
17.463,-0.02,1.45,-0.13,-2.58,1.89,-0.04,0.31,-0.41,1.41,1008.73
17.463,-0.02,1.45,-0.13,-2.58,1.89,-0.04,0.38,-0.77,1.84,1008.73
17.463,-0.02,1.45,-0.13,-3.71,3.75,0.46,0.38,-0.77,1.84,1008.73
17.489,-0.02,1.45,-0.13,-3.71,3.75,0.46,0.38,-0.77,1.84,1008.72
17.521,-0.37,1.81,-0.10,-3.71,3.75,0.46,0.38,-0.77,1.84,1008.72
17.522,-0.89,1.80,-0.19,-3.71,3.75,0.46,0.38,-0.77,1.84,1008.72
17.522,-1.10,1.69,-0.28,-3.71,3.75,0.46,0.38,-0.77,1.84,1008.72
17.522,-1.10,1.69,-0.28,-3.71,3.75,0.46,0.60,-1.35,2.26,1008.72
17.523,-1.10,1.69,-0.28,-13.20,9.51,0.37,0.60,-1.35,2.26,1008.72
17.57,-1.10,1.69,-0.28,-13.20,9.51,0.37,0.60,-1.35,2.26,1008.71
17.58,-0.43,1.30,-0.12,-13.20,9.51,0.37,0.60,-1.35,2.26,1008.71
17.58,0.60,1.07,-0.29,-13.20,9.51,0.37,0.60,-1.35,2.26,1008.71
17.58,1.22,1.10,-0.53,-13.20,9.51,0.37,0.60,-1.35,2.26,1008.71
17.58,1.22,1.10,-0.53,-13.20,9.51,0.37,1.06,-2.77,4.31,1008.71
17.581,1.22,1.10,-0.53,-2.18,5.18,0.58,1.06,-2.77,4.31,1008.71
17.61,1.22,1.10,-0.53,-2.18,5.18,0.58,1.06,-2.77,4.31,1008.70
17.637,1.24,0.93,-0.59,-2.18,5.18,0.58,1.06,-2.77,4.31,1008.70
17.638,1.02,0.63,-0.45,-2.18,5.18,0.58,1.06,-2.77,4.31,1008.70
17.638,0.91,0.55,-0.44,-2.18,5.18,0.58,1.06,-2.77,4.31,1008.70
17.639,0.91,0.55,-0.44,-2.18,5.18,0.58,0.43,-0.63,2.09,1008.70
17.639,0.91,0.55,-0.44,3.01,1.65,-0.78,0.43,-0.63,2.09,1008.70
17.69,0.91,0.55,-0.44,3.01,1.65,-0.78,0.43,-0.63,2.09,1008.65
17.696,0.60,0.22,-0.10,3.01,1.65,-0.78,0.43,-0.63,2.09,1008.65
17.696,0.19,0.00,0.08,3.01,1.65,-0.78,0.43,-0.63,2.09,1008.65
17.696,-0.22,0.03,0.09,3.01,1.65,-0.78,0.43,-0.63,2.09,1008.65
17.697,-0.22,0.03,0.09,3.01,1.65,-0.78,-1.34,0.50,-1.41,1008.65
17.697,-0.22,0.03,0.09,-5.04,-5.21,3.61,-1.34,0.50,-1.41,1008.65
17.754,-0.21,0.19,-0.11,-5.04,-5.21,3.61,-1.34,0.50,-1.41,1008.65
17.754,-0.03,0.43,-0.26,-5.04,-5.21,3.61,-1.34,0.50,-1.41,1008.65
17.754,0.26,0.52,-0.22,-5.04,-5.21,3.61,-1.34,0.50,-1.41,1008.65
17.755,0.26,0.52,-0.22,-5.04,-5.21,3.61,-0.99,-1.04,-2.88,1008.65
17.755,0.26,0.52,-0.22,-5.40,-3.48,1.41,-0.99,-1.04,-2.88,1008.65
17.77,0.26,0.52,-0.22,-5.40,-3.48,1.41,-0.99,-1.04,-2.88,1008.65
17.812,0.26,0.52,-0.22,-5.40,-3.48,1.41,-0.99,-1.04,-2.88,1008.71
17.812,0.34,0.51,-0.29,-5.40,-3.48,1.41,-0.99,-1.04,-2.88,1008.71
17.813,0.34,0.60,-0.32,-5.40,-3.48,1.41,-0.99,-1.04,-2.88,1008.71
17.813,0.38,0.74,-0.19,-5.40,-3.48,1.41,-0.99,-1.04,-2.88,1008.71
17.814,0.38,0.74,-0.19,-5.40,-3.48,1.41,-1.82,-1.84,-4.11,1008.71
17.814,0.38,0.74,-0.19,0.24,-2.46,0.34,-1.82,-1.84,-4.11,1008.71
17.872,0.40,0.84,-0.17,0.24,-2.46,0.34,-1.82,-1.84,-4.11,1008.71
17.873,0.47,0.99,-0.28,0.24,-2.46,0.34,-1.82,-1.84,-4.11,1008.71
17.873,0.60,1.33,-0.40,0.24,-2.46,0.34,-1.82,-1.84,-4.11,1008.71
17.874,0.60,1.33,-0.40,0.24,-2.46,0.34,-2.79,-0.88,-5.11,1008.71
17.874,0.60,1.33,-0.40,4.34,0.88,-1.20,-2.79,-0.88,-5.11,1008.71
17.89,0.60,1.33,-0.40,4.34,0.88,-1.20,-2.79,-0.88,-5.11,1008.71
17.93,0.58,1.69,-0.44,4.34,0.88,-1.20,-2.79,-0.88,-5.11,1008.71
17.933,0.44,1.70,-0.47,4.34,0.88,-1.20,-2.79,-0.88,-5.11,1008.71
17.934,0.42,1.52,-0.30,4.34,0.88,-1.20,-2.79,-0.88,-5.11,1008.71
17.935,0.42,1.52,-0.30,7.13,6.68,-3.87,-2.79,-0.88,-5.11,1008.71
17.936,0.42,1.52,-0.30,7.13,6.68,-3.87,-2.91,0.37,-5.49,1008.71
17.969,0.42,1.52,-0.30,7.13,6.68,-3.87,-2.91,0.37,-5.49,1008.69
17.988,0.81,1.35,-0.05,7.13,6.68,-3.87,-2.91,0.37,-5.49,1008.69
17.989,1.06,1.16,-0.13,7.13,6.68,-3.87,-2.91,0.37,-5.49,1008.69
17.99,0.96,0.85,-0.48,7.13,6.68,-3.87,-2.91,0.37,-5.49,1008.69
17.99,0.96,0.85,-0.48,7.13,6.68,-3.87,-1.72,0.63,-2.13,1008.69
17.992,0.96,0.85,-0.48,12.63,1.97,-2.83,-1.72,0.63,-2.13,1008.69
18.02,0.96,0.85,-0.48,12.63,1.97,-2.83,-1.72,0.63,-2.13,1008.66
18.06,0.93,0.70,-0.39,12.63,1.97,-2.83,-1.72,0.63,-2.13,1008.66
18.061,0.73,0.82,-0.45,12.63,1.97,-2.83,-1.72,0.63,-2.13,1008.66
18.061,0.37,1.27,-1.08,12.63,1.97,-2.83,-1.72,0.63,-2.13,1008.66
18.062,0.37,1.27,-1.08,12.63,1.97,-2.83,0.08,2.53,1.17,1008.66
18.062,0.37,1.27,-1.08,9.29,-0.05,-6.32,0.08,2.53,1.17,1008.66
18.095,0.37,1.27,-1.08,9.29,-0.05,-6.32,0.08,2.53,1.17,1008.67
18.105,-1.04,1.52,-0.02,9.29,-0.05,-6.32,0.08,2.53,1.17,1008.67
18.106,-2.24,1.54,0.18,9.29,-0.05,-6.32,0.08,2.53,1.17,1008.67
18.107,-1.17,1.64,-0.38,9.29,-0.05,-6.32,0.08,2.53,1.17,1008.67
18.107,-1.17,1.64,-0.38,9.29,-0.05,-6.32,-0.10,2.02,-0.67,1008.67
18.107,-1.17,1.64,-0.38,-11.30,6.16,-0.50,-0.10,2.02,-0.67,1008.67
18.163,0.19,1.13,-0.80,-11.30,6.16,-0.50,-0.10,2.02,-0.67,1008.67
18.164,0.66,0.64,-0.15,-11.30,6.16,-0.50,-0.10,2.02,-0.67,1008.67
18.165,0.74,0.50,0.54,-11.30,6.16,-0.50,-0.10,2.02,-0.67,1008.67
18.166,0.74,0.50,0.54,-11.30,6.16,-0.50,0.07,0.30,3.26,1008.67
18.166,0.74,0.50,0.54,6.53,-2.18,-0.98,0.07,0.30,3.26,1008.67
18.17,0.74,0.50,0.54,6.53,-2.18,-0.98,0.07,0.30,3.26,1008.69
18.22,0.74,0.50,0.54,6.53,-2.18,-0.98,0.07,0.30,3.26,1008.69
18.222,-0.07,0.99,0.22,6.53,-2.18,-0.98,0.07,0.30,3.26,1008.69
18.222,-0.30,1.26,-0.26,6.53,-2.18,-0.98,0.07,0.30,3.26,1008.69
18.223,0.04,1.12,-0.08,6.53,-2.18,-0.98,0.07,0.30,3.26,1008.69
18.223,0.04,1.12,-0.08,6.53,-2.18,-0.98,0.08,-0.26,1.10,1008.69
18.224,0.04,1.12,-0.08,-0.40,1.33,-0.02,0.08,-0.26,1.10,1008.69
18.281,0.14,0.96,-0.04,-0.40,1.33,-0.02,0.08,-0.26,1.10,1008.69
18.282,-0.00,0.96,-0.04,-0.40,1.33,-0.02,0.08,-0.26,1.10,1008.69
18.282,-0.05,0.98,0.11,-0.40,1.33,-0.02,0.08,-0.26,1.10,1008.69
18.283,-0.05,0.98,0.11,-0.40,1.33,-0.02,0.09,0.19,0.89,1008.69
18.283,-0.05,0.98,0.11,0.47,-0.22,0.53,0.09,0.19,0.89,1008.69
18.29,-0.05,0.98,0.11,0.47,-0.22,0.53,0.09,0.19,0.89,1008.71
18.337,-0.06,1.00,0.05,0.47,-0.22,0.53,0.09,0.19,0.89,1008.71
18.338,-0.06,0.99,0.03,0.47,-0.22,0.53,0.09,0.19,0.89,1008.71
18.339,-0.05,0.99,-0.03,0.47,-0.22,0.53,0.09,0.19,0.89,1008.71
18.339,-0.05,0.99,-0.03,0.47,-0.22,0.53,0.15,0.15,0.84,1008.71
18.34,-0.05,0.99,-0.03,-0.81,0.05,0.68,0.15,0.15,0.84,1008.71
18.372,-0.05,0.99,-0.03,-0.81,0.05,0.68,0.15,0.15,0.84,1008.72
18.397,0.02,1.00,-0.05,-0.81,0.05,0.68,0.15,0.15,0.84,1008.72
18.398,0.09,0.99,-0.00,-0.81,0.05,0.68,0.15,0.15,0.84,1008.72
18.399,0.07,0.99,-0.02,-0.81,0.05,0.68,0.15,0.15,0.84,1008.72
18.4,0.07,0.99,-0.02,-0.81,0.05,0.68,0.23,-0.03,0.97,1008.72
18.402,0.07,0.99,-0.02,-0.24,0.07,0.40,0.23,-0.03,0.97,1008.72
18.412,0.07,0.99,-0.02,-0.24,0.07,0.40,0.23,-0.03,0.97,1008.73
18.454,0.04,1.00,-0.02,-0.24,0.07,0.40,0.23,-0.03,0.97,1008.73
18.456,0.02,0.99,-0.05,-0.24,0.07,0.40,0.23,-0.03,0.97,1008.73
18.457,0.05,0.98,-0.06,-0.24,0.07,0.40,0.23,-0.03,0.97,1008.73
18.458,0.05,0.98,-0.06,-0.24,0.07,0.40,0.30,-0.03,1.01,1008.73
18.458,0.05,0.98,-0.06,-1.03,0.15,0.34,0.30,-0.03,1.01,1008.73
18.49,0.05,0.98,-0.06,-1.03,0.15,0.34,0.30,-0.03,1.01,1008.72
18.513,0.08,0.98,-0.04,-1.03,0.15,0.34,0.30,-0.03,1.01,1008.72
18.513,0.09,0.98,-0.02,-1.03,0.15,0.34,0.30,-0.03,1.01,1008.72
18.514,0.14,1.02,-0.08,-1.03,0.15,0.34,0.30,-0.03,1.01,1008.72
18.514,0.14,1.02,-0.08,-1.04,0.27,0.55,0.30,-0.03,1.01,1008.72
18.515,0.14,1.02,-0.08,-1.04,0.27,0.55,0.39,-0.15,1.25,1008.72
18.57,0.14,1.02,-0.08,-1.04,0.27,0.55,0.39,-0.15,1.25,1008.72
18.571,0.18,1.04,-0.12,-1.04,0.27,0.55,0.39,-0.15,1.25,1008.72
18.571,0.17,1.06,-0.15,-1.04,0.27,0.55,0.39,-0.15,1.25,1008.72
18.571,0.15,1.07,-0.11,-1.04,0.27,0.55,0.39,-0.15,1.25,1008.72
18.572,0.15,1.07,-0.11,-1.04,0.27,0.55,0.53,-0.01,1.39,1008.72
18.572,0.15,1.07,-0.11,-1.14,1.14,0.07,0.53,-0.01,1.39,1008.72
18.611,0.15,1.07,-0.11,-1.14,1.14,0.07,0.53,-0.01,1.39,1008.74
18.632,0.16,1.07,-0.07,-1.14,1.14,0.07,0.53,-0.01,1.39,1008.74
18.632,0.17,1.11,-0.02,-1.14,1.14,0.07,0.53,-0.01,1.39,1008.74
18.633,0.13,1.15,-0.05,-1.14,1.14,0.07,0.53,-0.01,1.39,1008.74
18.633,0.13,1.15,-0.05,-1.14,1.14,0.07,0.75,-0.11,1.62,1008.74
18.634,0.13,1.15,-0.05,-2.10,1.97,1.25,0.75,-0.11,1.62,1008.74
18.688,0.10,1.23,-0.09,-2.10,1.97,1.25,0.75,-0.11,1.62,1008.74
18.689,-0.00,1.46,-0.05,-2.10,1.97,1.25,0.75,-0.11,1.62,1008.74
18.689,-0.21,1.54,-0.17,-2.10,1.97,1.25,0.75,-0.11,1.62,1008.74
18.69,-0.21,1.54,-0.17,-2.10,1.97,1.25,1.04,-0.62,1.94,1008.74
18.69,-0.21,1.54,-0.17,-4.77,5.45,1.34,1.04,-0.62,1.94,1008.74
18.691,-0.21,1.54,-0.17,-4.77,5.45,1.34,1.04,-0.62,1.94,1008.75
18.747,-0.42,1.56,-0.27,-4.77,5.45,1.34,1.04,-0.62,1.94,1008.75
18.749,-0.74,1.62,-0.26,-4.77,5.45,1.34,1.04,-0.62,1.94,1008.75
18.75,-0.81,1.42,-0.17,-4.77,5.45,1.34,1.04,-0.62,1.94,1008.75
18.75,-0.81,1.42,-0.17,-4.77,5.45,1.34,1.24,-1.40,2.32,1008.75
18.751,-0.81,1.42,-0.17,-11.48,7.35,1.01,1.24,-1.40,2.32,1008.75
18.769,-0.81,1.42,-0.17,-11.48,7.35,1.01,1.24,-1.40,2.32,1008.74
18.806,-0.81,1.42,-0.17,-0.92,4.12,1.59,1.24,-1.40,2.32,1008.74
18.807,-0.16,1.06,-0.07,-0.92,4.12,1.59,1.24,-1.40,2.32,1008.74
18.807,0.66,1.05,-0.38,-0.92,4.12,1.59,1.24,-1.40,2.32,1008.74
18.807,1.04,1.04,-0.50,-0.92,4.12,1.59,1.24,-1.40,2.32,1008.74
18.808,1.04,1.04,-0.50,-0.92,4.12,1.59,1.46,-2.54,3.77,1008.74
