
time,gFx,gFy,gFz,ax,ay,az,wx,wy,wz,
0.060957,0.0525,1.0174,0.0591,0.0000,0.0000,0.0000,0.0000,0.0000,0.0000,
0.061479,0.0525,1.0174,0.0591,0.0000,0.0000,0.0000,0.0000,0.0000,0.0000,
0.061784,0.0525,1.0174,0.0591,0.0000,0.0000,0.0000,0.0000,0.0000,0.0000,
0.062111,0.0525,1.0174,0.0591,0.0000,0.0000,0.0000,0.0299,0.0330,0.0277,
0.062621,0.0525,1.0174,0.0591,0.0128,0.1331,-0.0004,0.0299,0.0330,0.0277,
0.119000,0.0366,0.9818,0.0461,0.0128,0.1331,-0.0004,0.0299,0.0330,0.0277,
0.119847,0.0366,0.9942,0.0623,0.0128,0.1331,-0.0004,0.0299,0.0330,0.0277,
0.120285,0.0505,1.0123,0.0679,0.0128,0.1331,-0.0004,0.0299,0.0330,0.0277,
0.120764,0.0505,1.0123,0.0679,0.0128,0.1331,-0.0004,0.0389,-0.0774,-0.0016,
0.121188,0.0505,1.0123,0.0679,-0.0659,-0.0515,0.0140,0.0389,-0.0774,-0.0016,
0.177846,0.0620,1.0084,0.0574,-0.0659,-0.0515,0.0140,0.0389,-0.0774,-0.0016,
0.178544,0.0508,0.9896,0.0313,-0.0659,-0.0515,0.0140,0.0389,-0.0774,-0.0016,
0.178911,0.0283,0.9562,0.0000,-0.0659,-0.0515,0.0140,0.0389,-0.0774,-0.0016,
0.179275,0.0283,0.9562,0.0000,-0.0659,-0.0515,0.0140,0.0423,-0.0503,-0.0167,
0.179618,0.0283,0.9562,0.0000,-0.0010,-0.1237,-0.1850,0.0423,-0.0503,-0.0167,
0.237012,0.0112,0.9386,0.0007,-0.0010,-0.1237,-0.1850,0.0423,-0.0503,-0.0167,
0.237950,0.0339,1.0128,0.0571,-0.0010,-0.1237,-0.1850,0.0423,-0.0503,-0.0167,
0.238452,0.0613,1.0912,0.1028,-0.0010,-0.1237,-0.1850,0.0423,-0.0503,-0.0167,
0.239003,0.0613,1.0912,0.1028,-0.0010,-0.1237,-0.1850,0.0656,-0.2319,-0.0743,
0.239545,0.0613,1.0912,0.1028,-0.0624,0.1291,0.0749,0.0656,-0.2319,-0.0743,
0.295316,0.0613,1.0912,0.1028,0.2225,-0.0007,-0.1470,0.0656,-0.2319,-0.0743,
0.296252,0.0947,1.0677,0.0737,0.2225,-0.0007,-0.1470,0.0656,-0.2319,-0.0743,
0.296926,0.0816,0.9916,0.0161,0.2225,-0.0007,-0.1470,0.0656,-0.2319,-0.0743,
0.297422,0.0237,0.9442,-0.0156,0.2225,-0.0007,-0.1470,0.0656,-0.2319,-0.0743,
0.298009,0.0237,0.9442,-0.0156,0.2225,-0.0007,-0.1470,0.0509,-0.0810,-0.0454,
0.353834,0.0237,0.9442,-0.0156,-0.8902,-0.3089,-0.0056,0.0509,-0.0810,-0.0454,
0.354664,-0.0254,0.9386,0.0120,-0.8902,-0.3089,-0.0056,0.0509,-0.0810,-0.0454,
0.355184,-0.0806,0.9752,0.0278,-0.8902,-0.3089,-0.0056,0.0509,-0.0810,-0.0454,
0.355578,-0.0950,0.9818,0.0271,-0.8902,-0.3089,-0.0056,0.0509,-0.0810,-0.0454,
0.355959,-0.0950,0.9818,0.0271,-0.8902,-0.3089,-0.0056,0.2743,-0.3115,-0.0947,
0.415459,-0.0364,0.9266,0.0090,-0.8902,-0.3089,-0.0056,0.2743,-0.3115,-0.0947,
0.416116,0.0020,0.8155,0.0525,-0.8902,-0.3089,-0.0056,0.2743,-0.3115,-0.0947,
0.416368,-0.0303,0.7569,0.0950,-0.8902,-0.3089,-0.0056,0.2743,-0.3115,-0.0947,
0.416714,-0.0303,0.7569,0.0950,-0.3536,-1.4067,0.4845,0.2743,-0.3115,-0.0947,
0.417124,-0.0303,0.7569,0.0950,-0.3536,-1.4067,0.4845,0.4555,-0.5669,-0.0771,
0.471725,-0.0303,0.7569,0.0950,0.9019,0.6617,1.0782,0.4555,-0.5669,-0.0771,
0.472811,-0.0061,0.8988,0.2425,0.9019,0.6617,1.0782,0.4555,-0.5669,-0.0771,
0.473307,0.1206,1.0301,0.2212,0.9019,0.6617,1.0782,0.4555,-0.5669,-0.0771,
0.473836,0.2141,1.2289,-0.0796,0.9019,0.6617,1.0782,0.4555,-0.5669,-0.0771,
0.474326,0.2141,1.2289,-0.0796,0.9019,0.6617,1.0782,-0.0289,-0.1794,-0.1494,
0.528166,0.2195,1.4323,-0.1611,0.9019,0.6617,1.0782,-0.0289,-0.1794,-0.1494,
0.529638,0.0625,1.2233,-0.0640,0.9019,0.6617,1.0782,-0.0289,-0.1794,-0.1494,
0.530599,-0.0740,0.9300,0.0273,0.9019,0.6617,1.0782,-0.0289,-0.1794,-0.1494,
0.531480,-0.0740,0.9300,0.0273,0.9019,0.6617,1.0782,0.2333,0.3350,-0.2323,
0.532257,-0.0740,0.9300,0.0273,0.5768,1.8506,-0.6236,0.2333,0.3350,-0.2323,
0.588413,-0.0359,0.8438,0.0906,0.5768,1.8506,-0.6236,0.2333,0.3350,-0.2323,
0.590509,0.1453,0.9461,0.1165,0.5768,1.8506,-0.6236,0.2333,0.3350,-0.2323,
0.592669,0.2544,0.9989,0.0410,0.5768,1.8506,-0.6236,0.2333,0.3350,-0.2323,
0.594198,0.2544,0.9989,0.0410,1.0817,-0.6835,0.8443,0.2333,0.3350,-0.2323,
0.595562,0.2544,0.9989,0.0410,1.0817,-0.6835,0.8443,0.1659,-0.2441,-0.1790,
0.645025,0.1345,0.9847,0.0271,1.0817,-0.6835,0.8443,0.1659,-0.2441,-0.1790,
0.646242,-0.0728,0.9864,-0.0098,1.0817,-0.6835,0.8443,0.1659,-0.2441,-0.1790,
0.647130,-0.1172,1.0296,0.0061,1.0817,-0.6835,0.8443,0.1659,-0.2441,-0.1790,
0.648195,-0.1172,1.0296,0.0061,1.0817,-0.6835,0.8443,0.4064,0.2704,-0.4754,
0.649797,-0.1172,1.0296,0.0061,-0.0173,0.0120,0.3150,0.4064,0.2704,-0.4754,
0.705545,-0.0669,0.9730,0.0913,-0.0173,0.0120,0.3150,0.4064,0.2704,-0.4754,
0.708776,-0.1179,0.9640,0.0396,-0.0173,0.0120,0.3150,0.4064,0.2704,-0.4754,
0.710060,-0.0894,0.9972,-0.0342,-0.0173,0.0120,0.3150,0.4064,0.2704,-0.4754,
0.711317,-0.0894,0.9972,-0.0342,-0.0173,0.0120,0.3150,0.4801,-0.0957,-0.2679,
0.713090,-0.0894,0.9972,-0.0342,-0.5322,-0.1767,0.7630,0.4801,-0.0957,-0.2679,
0.761682,-0.0630,1.0123,-0.0925,-0.5322,-0.1767,0.7630,0.4801,-0.0957,-0.2679,
0.763162,-0.0921,0.9989,-0.1572,-0.5322,-0.1767,0.7630,0.4801,-0.0957,-0.2679,
0.763937,-0.1150,0.9950,-0.1763,-0.5322,-0.1767,0.7630,0.4801,-0.0957,-0.2679,
0.764641,-0.1150,0.9950,-0.1763,-0.5322,-0.1767,0.7630,0.6664,-0.0603,-0.2091,
0.765525,-0.1150,0.9950,-0.1763,-0.3692,0.0821,-0.5268,0.6664,-0.0603,-0.2091,
0.820322,-0.1279,1.0116,-0.1624,-0.3692,0.0821,-0.5268,0.6664,-0.0603,-0.2091,
0.821943,-0.1113,1.0184,-0.1575,-0.3692,0.0821,-0.5268,0.6664,-0.0603,-0.2091,
0.823826,-0.1072,1.0377,-0.1834,-0.3692,0.0821,-0.5268,0.6664,-0.0603,-0.2091,
0.825025,-0.1072,1.0377,-0.1834,-0.3692,0.0821,-0.5268,0.5866,-0.0352,-0.0558,
0.825994,-0.1072,1.0377,-0.1834,-0.5461,0.2988,-0.4174,0.5866,-0.0352,-0.0558,
0.878154,-0.1008,1.0621,-0.1284,-0.5461,0.2988,-0.4174,0.5866,-0.0352,-0.0558,
0.879658,0.0454,1.0509,-0.0647,-0.5461,0.2988,-0.4174,0.5866,-0.0352,-0.0558,
0.880596,0.0984,1.0572,-0.0356,-0.5461,0.2988,-0.4174,0.5866,-0.0352,-0.0558,
0.881315,0.0984,1.0572,-0.0356,-0.5461,0.2988,-0.4174,0.7505,-0.4691,0.1195,
0.882176,0.0984,1.0572,-0.0356,0.6547,0.6492,0.8322,0.7505,-0.4691,0.1195,
0.937284,0.0606,1.1381,0.0208,0.6547,0.6492,0.8322,0.7505,-0.4691,0.1195,
0.939801,-0.0278,1.2719,-0.0151,0.6547,0.6492,0.8322,0.7505,-0.4691,0.1195,
0.941169,-0.1448,1.3886,-0.1592,0.6547,0.6492,0.8322,0.7505,-0.4691,0.1195,
0.950267,-0.1448,1.3886,-0.1592,0.6547,0.6492,0.8322,1.1682,-0.5827,0.0589,
0.952213,-0.1448,1.3886,-0.1592,0.1688,2.6627,1.6165,1.1682,-0.5827,0.0589,
0.994994,-0.0493,1.2999,-0.0972,0.1688,2.6627,1.6165,1.1682,-0.5827,0.0589,
0.996153,-0.0505,1.2799,-0.1904,0.1688,2.6627,1.6165,1.1682,-0.5827,0.0589,
0.997010,-0.2678,1.3920,0.0635,0.1688,2.6627,1.6165,1.1682,-0.5827,0.0589,
0.997772,-0.2678,1.3920,0.0635,0.1688,2.6627,1.6165,1.6805,-1.1109,0.0601,
0.998580,-0.2678,1.3920,0.0635,-0.5028,3.2859,2.1637,1.6805,-1.1109,0.0601,
1.054369,-0.4187,1.2975,-0.0068,-0.5028,3.2859,2.1637,1.6805,-1.1109,0.0601,
1.064406,-0.3821,1.4101,-0.2110,-0.5028,3.2859,2.1637,1.6805,-1.1109,0.0601,
1.066323,-0.2088,1.4743,-0.2942,-0.5028,3.2859,2.1637,1.6805,-1.1109,0.0601,
1.067654,-0.2088,1.4743,-0.2942,-0.5028,3.2859,2.1637,1.4091,-3.2123,-0.3769,
1.068638,-0.2088,1.4743,-0.2942,-1.6868,4.0366,1.7091,1.4091,-3.2123,-0.3769,
1.111258,0.2334,1.1205,-0.0378,-1.6868,4.0366,1.7091,1.4091,-3.2123,-0.3769,
1.112551,0.6751,0.7686,0.0684,-1.6868,4.0366,1.7091,1.4091,-3.2123,-0.3769,
1.113236,0.7733,0.5677,0.0608,-1.6868,4.0366,1.7091,1.4091,-3.2123,-0.3769,
1.113760,0.7733,0.5677,0.0608,-1.6868,4.0366,1.7091,0.1781,-4.2089,0.2666,
1.114382,0.7733,0.5677,0.0608,7.3693,-1.5150,3.1306,0.1781,-4.2089,0.2666,
1.172368,0.5452,0.5362,0.0220,7.3693,-1.5150,3.1306,0.1781,-4.2089,0.2666,
1.174403,0.3431,0.5630,-0.0559,7.3693,-1.5150,3.1306,0.1781,-4.2089,0.2666,
1.175928,0.3206,0.5792,-0.0969,7.3693,-1.5150,3.1306,0.1781,-4.2089,0.2666,
1.177633,0.3206,0.5792,-0.0969,7.3693,-1.5150,3.1306,-0.3399,-2.7163,1.1690,
1.179389,0.3206,0.5792,-0.0969,5.3175,-4.0298,1.8316,-0.3399,-2.7163,1.1690,
1.228653,0.2837,0.5694,-0.0903,5.3175,-4.0298,1.8316,-0.3399,-2.7163,1.1690,
1.230451,0.2144,0.6329,-0.1016,5.3175,-4.0298,1.8316,-0.3399,-2.7163,1.1690,
1.231462,0.1795,0.7454,-0.1199,5.3175,-4.0298,1.8316,-0.3399,-2.7163,1.1690,
1.232333,0.1795,0.7454,-0.1199,5.3175,-4.0298,1.8316,-0.4771,-2.2740,3.0094,
1.234194,0.1795,0.7454,-0.1199,2.0679,-3.1764,0.8296,-0.4771,-2.2740,3.0094,
1.286092,0.1133,0.8714,-0.1636,2.0679,-3.1764,0.8296,-0.4771,-2.2740,3.0094,
1.289039,0.0222,1.0187,-0.2229,2.0679,-3.1764,0.8296,-0.4771,-2.2740,3.0094,
1.292502,-0.0315,1.1290,-0.2110,2.0679,-3.1764,0.8296,-0.4771,-2.2740,3.0094,
1.294822,-0.0315,1.1290,-0.2110,2.0679,-3.1764,0.8296,-0.4117,-1.8132,3.9397,
1.297282,-0.0315,1.1290,-0.2110,-1.7157,0.5181,-0.2102,-0.4117,-1.8132,3.9397,
1.351404,-0.0315,1.1290,-0.2110,-5.0601,2.7363,0.6630,-0.4117,-1.8132,3.9397,
1.354740,-0.0593,1.1425,-0.1641,-5.0601,2.7363,0.6630,-0.4117,-1.8132,3.9397,
1.357552,-0.1494,1.1725,-0.1006,-5.0601,2.7363,0.6630,-0.4117,-1.8132,3.9397,
1.360842,-0.2337,1.2404,-0.0671,-5.0601,2.7363,0.6630,-0.4117,-1.8132,3.9397,
1.363170,-0.2337,1.2404,-0.0671,-5.0601,2.7363,0.6630,-0.5178,-1.7823,3.7021,
1.402933,-0.3391,1.2015,-0.1030,-5.0601,2.7363,0.6630,-0.5178,-1.7823,3.7021,
1.404685,-0.5372,0.9696,-0.0256,-5.0601,2.7363,0.6630,-0.5178,-1.7823,3.7021,
1.405719,-0.7826,1.0582,-0.0645,-5.0601,2.7363,0.6630,-0.5178,-1.7823,3.7021,
1.408851,-0.7826,1.0582,-0.0645,-9.4376,1.9545,1.0549,-0.5178,-1.7823,3.7021,
1.411603,-0.7826,1.0582,-0.0645,-9.4376,1.9545,1.0549,-0.5913,-1.1897,1.8100,
1.461214,-0.8009,1.0106,-0.2168,-9.4376,1.9545,1.0549,-0.5913,-1.1897,1.8100,
1.462687,-0.9403,1.5329,-1.2406,-9.4376,1.9545,1.0549,-0.5913,-1.1897,1.8100,
1.463600,0.2359,2.4163,0.0823,-9.4376,1.9545,1.0549,-0.5913,-1.1897,1.8100,
1.464493,0.2359,2.4163,0.0823,-9.4376,1.9545,1.0549,-0.6968,-1.0945,-2.1563,
1.465381,0.2359,2.4163,0.0823,-7.4193,6.8398,-2.8216,-0.6968,-1.0945,-2.1563,
1.519378,1.6530,1.6015,-0.1922,-7.4193,6.8398,-2.8216,-0.6968,-1.0945,-2.1563,
1.521260,-0.1514,0.2246,-0.8307,-7.4193,6.8398,-2.8216,-0.6968,-1.0945,-2.1563,
1.522639,-0.9032,0.5818,0.0378,-7.4193,6.8398,-2.8216,-0.6968,-1.0945,-2.1563,
1.524179,-0.9032,0.5818,0.0378,-7.4193,6.8398,-2.8216,-0.2474,-1.3276,-2.6438,
1.525606,-0.9032,0.5818,0.0378,1.0116,-1.7170,-1.4941,-0.2474,-1.3276,-2.6438,
1.579865,-0.9032,0.5818,0.0378,-3.2781,1.4687,1.7610,-0.2474,-1.3276,-2.6438,
1.583179,-0.4097,1.1522,0.0708,-3.2781,1.4687,1.7610,-0.2474,-1.3276,-2.6438,
1.585949,-0.3399,1.2216,0.0557,-3.2781,1.4687,1.7610,-0.2474,-1.3276,-2.6438,
1.588651,-0.2898,1.0465,-0.0588,-3.2781,1.4687,1.7610,-0.2474,-1.3276,-2.6438,
1.591084,-0.2898,1.0465,-0.0588,-3.2781,1.4687,1.7610,-0.2175,0.1067,-1.6904,
1.636965,-0.1235,0.9579,-0.1372,-3.2781,1.4687,1.7610,-0.2175,0.1067,-1.6904,
1.638933,-0.2166,0.9671,-0.1333,-3.2781,1.4687,1.7610,-0.2175,0.1067,-1.6904,
1.640480,-0.2210,1.0389,-0.1909,-3.2781,1.4687,1.7610,-0.2175,0.1067,-1.6904,
1.645935,-0.2210,1.0389,-0.1909,-1.0657,0.0070,0.0471,-0.2175,0.1067,-1.6904,
1.648397,-0.2210,1.0389,-0.1909,-1.0657,0.0070,0.0471,0.0464,-0.3315,-1.0295,
1.696581,-0.1336,0.9930,-0.1741,-1.0657,0.0070,0.0471,0.0464,-0.3315,-1.0295,
1.698240,-0.1900,0.9991,-0.1607,-1.0657,0.0070,0.0471,0.0464,-0.3315,-1.0295,
1.699003,-0.2185,1.0255,-0.1648,-1.0657,0.0070,0.0471,0.0464,-0.3315,-1.0295,
1.699708,-0.2185,1.0255,-0.1648,-1.0657,0.0070,0.0471,0.0910,-0.1916,-0.7540,
1.700584,-0.2185,1.0255,-0.1648,-0.5426,0.2266,-0.0358,0.0910,-0.1916,-0.7540,
1.753542,-0.0830,1.0233,-0.1778,-0.5426,0.2266,-0.0358,0.0910,-0.1916,-0.7540,
1.755596,0.0137,1.0467,-0.1734,-0.5426,0.2266,-0.0358,0.0910,-0.1916,-0.7540,
1.757167,-0.0239,1.0021,-0.1763,-0.5426,0.2266,-0.0358,0.0910,-0.1916,-0.7540,
1.758234,-0.0239,1.0021,-0.1763,-0.5426,0.2266,-0.0358,0.0918,-0.2995,-0.7517,
1.760090,-0.0239,1.0021,-0.1763,1.3282,0.4614,-0.0977,0.0918,-0.2995,-0.7517,
1.813089,-0.2149,0.9852,-0.1375,1.3282,0.4614,-0.0977,0.0918,-0.2995,-0.7517,
1.815113,-0.3228,1.0013,-0.1162,1.3282,0.4614,-0.0977,0.0918,-0.2995,-0.7517,
1.817301,-0.2984,1.0123,-0.0984,1.3282,0.4614,-0.0977,0.0918,-0.2995,-0.7517,
1.819131,-0.2984,1.0123,-0.0984,1.3282,0.4614,-0.0977,0.2001,-0.1331,-1.0700,
1.821039,-0.2984,1.0123,-0.0984,-0.4766,0.3512,0.5536,0.2001,-0.1331,-1.0700,
1.870224,-0.2378,1.0209,-0.1174,-0.4766,0.3512,0.5536,0.2001,-0.1331,-1.0700,
1.872441,-0.1148,0.9811,-0.1714,-0.4766,0.3512,0.5536,0.2001,-0.1331,-1.0700,
1.873989,0.0559,0.9405,-0.1934,-0.4766,0.3512,0.5536,0.2001,-0.1331,-1.0700,
1.875149,0.0559,0.9405,-0.1934,-0.4766,0.3512,0.5536,0.2732,0.1904,-0.9177,
1.883899,0.0559,0.9405,-0.1934,1.7130,0.3193,0.2970,0.2732,0.1904,-0.9177,
1.929282,0.0608,1.0467,-0.1809,1.7130,0.3193,0.2970,0.2732,0.1904,-0.9177,
1.930294,-0.1013,1.2430,-0.1809,1.7130,0.3193,0.2970,0.2732,0.1904,-0.9177,
1.931156,-0.1018,1.3285,-0.1487,1.7130,0.3193,0.2970,0.2732,0.1904,-0.9177,
1.931770,-0.1018,1.3285,-0.1487,1.7130,0.3193,0.2970,0.6107,-0.1967,-1.5573,
1.932450,-0.1018,1.3285,-0.1487,2.9790,2.7965,0.4778,0.6107,-0.1967,-1.5573,
1.986076,0.0982,1.3410,-0.1021,2.9790,2.7965,0.4778,0.6107,-0.1967,-1.5573,
1.987567,0.3186,1.3834,-0.1001,2.9790,2.7965,0.4778,0.6107,-0.1967,-1.5573,
1.988176,0.5503,1.6523,-0.0591,2.9790,2.7965,0.4778,0.6107,-0.1967,-1.5573,
1.988843,0.5503,1.6523,-0.0591,2.9790,2.7965,0.4778,1.1107,0.0583,-1.8354,
1.992478,0.5503,1.6523,-0.0591,7.3163,5.6839,1.8193,1.1107,0.0583,-1.8354,
2.044149,1.1007,1.8666,0.2039,7.3163,5.6839,1.8193,1.1107,0.0583,-1.8354,
2.045257,0.9198,1.4188,0.3113,7.3163,5.6839,1.8193,1.1107,0.0583,-1.8354,
2.045884,-0.0652,1.3007,0.0989,7.3163,5.6839,1.8193,1.1107,0.0583,-1.8354,
2.046798,-0.0652,1.3007,0.0989,7.3163,5.6839,1.8193,1.1600,0.7367,-2.5760,
2.047636,-0.0652,1.3007,0.0989,11.3158,7.0819,5.2875,1.1600,0.7367,-2.5760,
2.102609,-0.6043,1.6139,-0.1233,11.3158,7.0819,5.2875,1.1600,0.7367,-2.5760,
2.103867,-0.7718,1.5844,-0.0442,11.3158,7.0819,5.2875,1.1600,0.7367,-2.5760,
2.104598,-0.8897,1.1000,-0.2527,11.3158,7.0819,5.2875,1.1600,0.7367,-2.5760,
2.105654,-0.8897,1.1000,-0.2527,11.3158,7.0819,5.2875,1.4237,1.2515,-3.5799,
2.108563,-0.8897,1.1000,-0.2527,-1.2164,7.4133,2.8355,1.4237,1.2515,-3.5799,
2.161690,-0.8463,0.8570,-0.4878,-1.2164,7.4133,2.8355,1.4237,1.2515,-3.5799,
2.163254,-0.5608,0.6722,-0.4610,-1.2164,7.4133,2.8355,1.4237,1.2515,-3.5799,
2.164200,-0.2776,0.4163,-0.3296,-1.2164,7.4133,2.8355,1.4237,1.2515,-3.5799,
2.164721,-0.2776,0.4163,-0.3296,-1.2164,7.4133,2.8355,0.1044,-0.9792,-0.7412,
2.165515,-0.2776,0.4163,-0.3296,1.1634,0.0277,-0.2955,0.1044,-0.9792,-0.7412,
2.219556,-0.2302,0.2307,-0.1104,1.1634,0.0277,-0.2955,0.1044,-0.9792,-0.7412,
2.221264,-0.1836,0.2173,-0.0400,1.1634,0.0277,-0.2955,0.1044,-0.9792,-0.7412,
2.222111,-0.1768,0.2813,-0.1680,1.1634,0.0277,-0.2955,0.1044,-0.9792,-0.7412,
2.223378,-0.1768,0.2813,-0.1680,1.1634,0.0277,-0.2955,-1.2800,-0.8530,2.5919,
2.225227,-0.1768,0.2813,-0.1680,3.7630,-5.0171,1.9549,-1.2800,-0.8530,2.5919,
2.279233,-0.1497,0.4554,-0.4595,3.7630,-5.0171,1.9549,-1.2800,-0.8530,2.5919,
2.280951,-0.1372,0.5667,-0.4051,3.7630,-5.0171,1.9549,-1.2800,-0.8530,2.5919,
2.282196,-0.2732,0.5587,-0.2407,3.7630,-5.0171,1.9549,-1.2800,-0.8530,2.5919,
2.283607,-0.2732,0.5587,-0.2407,1.7146,-3.6167,-1.4479,-1.2800,-0.8530,2.5919,
2.284712,-0.2732,0.5587,-0.2407,1.7146,-3.6167,-1.4479,-1.5091,-0.5329,4.5728,
2.335887,-0.2798,0.6536,-0.2691,1.7146,-3.6167,-1.4479,-1.5091,-0.5329,4.5728,
2.338252,-0.1594,0.8248,-0.3521,1.7146,-3.6167,-1.4479,-1.5091,-0.5329,4.5728,
2.339512,-0.2708,1.1048,-0.4649,1.7146,-3.6167,-1.4479,-1.5091,-0.5329,4.5728,
2.340618,-0.2708,1.1048,-0.4649,1.7146,-3.6167,-1.4479,-1.3993,0.1629,5.8285,
2.341877,-0.2708,1.1048,-0.4649,-1.9028,-1.1348,-2.0814,-1.3993,0.1629,5.8285,
2.398323,-0.6468,1.4208,-0.5174,-1.9028,-1.1348,-2.0814,-1.3993,0.1629,5.8285,
2.403125,-0.8429,1.4413,-0.5623,-1.9028,-1.1348,-2.0814,-1.3993,0.1629,5.8285,
2.405909,-0.8983,1.3041,-0.3374,-1.9028,-1.1348,-2.0814,-1.3993,0.1629,5.8285,
2.408620,-0.8983,1.3041,-0.3374,-1.9028,-1.1348,-2.0814,-1.6239,-0.0515,6.1645,
2.410902,-0.8983,1.3041,-0.3374,-10.5384,4.3028,-3.9580,-1.6239,-0.0515,6.1645,
2.454109,-0.8287,1.3915,-0.2757,-10.5384,4.3028,-3.9580,-1.6239,-0.0515,6.1645,
2.456631,-0.8289,1.3212,-0.2874,-10.5384,4.3028,-3.9580,-1.6239,-0.0515,6.1645,
2.458405,-1.0665,1.1041,-0.2205,-10.5384,4.3028,-3.9580,-1.6239,-0.0515,6.1645,
2.461894,-1.0665,1.1041,-0.2205,-10.5384,4.3028,-3.9580,-0.9406,0.1870,3.9416,
2.463983,-1.0665,1.1041,-0.2205,-13.3734,3.9150,-2.3667,-0.9406,0.1870,3.9416,
2.514137,-1.0665,1.1041,-0.2205,-15.6628,1.7900,-4.2112,-0.9406,0.1870,3.9416,
2.518110,-1.2577,0.9151,-0.2588,-15.6628,1.7900,-4.2112,-0.9406,0.1870,3.9416,
2.520815,-1.3002,0.8490,-0.3355,-15.6628,1.7900,-4.2112,-0.9406,0.1870,3.9416,
2.524205,-1.1278,1.4882,-0.7557,-15.6628,1.7900,-4.2112,-0.9406,0.1870,3.9416,
2.527437,-1.1278,1.4882,-0.7557,-15.6628,1.7900,-4.2112,-0.0982,0.1694,-0.9654,
2.570479,1.0404,2.1799,0.4964,-15.6628,1.7900,-4.2112,-0.0982,0.1694,-0.9654,
2.573402,2.5130,2.0312,0.6863,-15.6628,1.7900,-4.2112,-0.0982,0.1694,-0.9654,
2.575777,0.0142,1.1842,-1.4208,-15.6628,1.7900,-4.2112,-0.0982,0.1694,-0.9654,
2.578560,0.0142,1.1842,-1.4208,-15.6628,1.7900,-4.2112,-0.6479,-2.2201,-1.8289,
2.581383,0.0142,1.1842,-1.4208,8.8221,8.2600,-0.5093,-0.6479,-2.2201,-1.8289,
2.635641,-0.8621,0.7725,-0.3157,8.8221,8.2600,-0.5093,-0.6479,-2.2201,-1.8289,
2.639545,-0.7481,0.6212,0.5865,8.8221,8.2600,-0.5093,-0.6479,-2.2201,-1.8289,
2.641592,-0.4856,0.9102,0.3150,8.8221,8.2600,-0.5093,-0.6479,-2.2201,-1.8289,
2.643257,-0.4856,0.9102,0.3150,8.8221,8.2600,-0.5093,-0.0554,0.5121,-3.1574,
2.647101,-0.4856,0.9102,0.3150,-7.7474,-2.1521,2.0690,-0.0554,0.5121,-3.1574,
2.687216,-0.2849,1.1185,-0.0886,-7.7474,-2.1521,2.0690,-0.0554,0.5121,-3.1574,
2.689678,-0.2173,1.1549,-0.2095,-7.7474,-2.1521,2.0690,-0.0554,0.5121,-3.1574,
2.691435,0.0154,1.1144,-0.1721,-7.7474,-2.1521,2.0690,-0.0554,0.5121,-3.1574,
2.692928,0.0154,1.1144,-0.1721,-7.7474,-2.1521,2.0690,0.1281,-0.4337,-1.2508,
2.694392,0.0154,1.1144,-0.1721,-1.7404,1.3214,-1.2722,0.1281,-0.4337,-1.2508,
2.746345,0.0845,1.0394,-0.1301,-1.7404,1.3214,-1.2722,0.1281,-0.4337,-1.2508,
2.747871,-0.0857,1.0050,-0.0061,-1.7404,1.3214,-1.2722,0.1281,-0.4337,-1.2508,
2.748548,-0.1526,0.9938,0.0310,-1.7404,1.3214,-1.2722,0.1281,-0.4337,-1.2508,
2.750265,-0.1526,0.9938,0.0310,-1.7404,1.3214,-1.2722,0.0780,-0.2755,-1.0403,
2.751311,-0.1526,0.9938,0.0310,-0.0556,0.1856,-0.0368,0.0780,-0.2755,-1.0403,
2.803531,-0.1016,0.9750,-0.0244,-0.0556,0.1856,-0.0368,0.0780,-0.2755,-1.0403,
2.806260,-0.0427,0.9845,-0.0391,-0.0556,0.1856,-0.0368,0.0780,-0.2755,-1.0403,
2.808854,-0.0264,1.0106,-0.0310,-0.0556,0.1856,-0.0368,0.0780,-0.2755,-1.0403,
2.810422,-0.0264,1.0106,-0.0310,-0.0556,0.1856,-0.0368,0.1059,0.0359,-0.9397,
2.814544,-0.0264,1.0106,-0.0310,0.4127,0.0041,0.0593,0.1059,0.0359,-0.9397,
2.867707,-0.0264,1.0106,-0.0310,0.6922,0.4115,0.1683,0.1059,0.0359,-0.9397,
2.880084,-0.0562,1.0123,-0.0125,0.6922,0.4115,0.1683,0.1059,0.0359,-0.9397,
2.881326,-0.0881,1.0191,-0.0317,0.6922,0.4115,0.1683,0.1059,0.0359,-0.9397,
2.882093,-0.1323,1.0382,-0.0498,0.6922,0.4115,0.1683,0.1059,0.0359,-0.9397,
2.882974,-0.1323,1.0382,-0.0498,0.6922,0.4115,0.1683,0.1680,0.2093,-1.1454,
2.919784,-0.1455,0.9930,-0.0425,0.6922,0.4115,0.1683,0.1680,0.2093,-1.1454,
2.920719,-0.0867,0.9701,-0.0261,0.6922,0.4115,0.1683,0.1680,0.2093,-1.1454,
2.921504,-0.0271,1.0038,-0.0977,0.6922,0.4115,0.1683,0.1680,0.2093,-1.1454,
2.922221,-0.0271,1.0038,-0.0977,0.6922,0.4115,0.1683,0.2360,0.2474,-1.3457,
2.922934,-0.0271,1.0038,-0.0977,1.4611,0.2333,0.0902,0.2360,0.2474,-1.3457,
2.979424,-0.0686,1.0148,-0.1565,1.4611,0.2333,0.0902,0.2360,0.2474,-1.3457,
2.981779,-0.2051,1.0702,-0.1487,1.4611,0.2333,0.0902,0.2360,0.2474,-1.3457,
2.983447,-0.3404,1.0980,-0.1360,1.4611,0.2333,0.0902,0.2360,0.2474,-1.3457,
2.985171,-0.3404,1.0980,-0.1360,1.2605,1.2292,-0.5698,0.2360,0.2474,-1.3457,
2.987180,-0.3404,1.0980,-0.1360,1.2605,1.2292,-0.5698,0.3388,0.2643,-1.8316,
3.036402,-0.2774,1.1271,-0.0752,1.2605,1.2292,-0.5698,0.3388,0.2643,-1.8316,
3.038519,-0.0772,1.2177,0.0159,1.2605,1.2292,-0.5698,0.3388,0.2643,-1.8316,
3.039838,0.0134,1.2252,-0.0237,1.2605,1.2292,-0.5698,0.3388,0.2643,-1.8316,
3.041783,0.0134,1.2252,-0.0237,1.2605,1.2292,-0.5698,0.5388,-0.1207,-1.9043,
3.043552,0.0134,1.2252,-0.0237,3.0947,2.8881,0.8367,0.5388,-0.1207,-1.9043,
3.097267,0.0349,1.2098,-0.1145,3.0947,2.8881,0.8367,0.5388,-0.1207,-1.9043,
3.099939,0.2002,1.4833,-0.1138,3.0947,2.8881,0.8367,0.5388,-0.1207,-1.9043,
3.101742,0.6783,1.9209,-0.0266,3.0947,2.8881,0.8367,0.5388,-0.1207,-1.9043,
3.103646,0.6783,1.9209,-0.0266,3.0947,2.8881,0.8367,0.7387,0.9348,-2.1702,
3.105447,0.6783,1.9209,-0.0266,8.0329,6.8277,0.8845,0.7387,0.9348,-2.1702,
3.153695,1.3869,1.6618,-0.0857,8.0329,6.8277,0.8845,0.7387,0.9348,-2.1702,
3.155812,0.5594,1.1149,-0.0523,8.0329,6.8277,0.8845,0.7387,0.9348,-2.1702,
3.157242,-0.7418,1.1615,-0.1506,8.0329,6.8277,0.8845,0.7387,0.9348,-2.1702,
3.158804,-0.7418,1.1615,-0.1506,8.0329,6.8277,0.8845,0.8255,2.5109,-3.1439,
3.160352,-0.7418,1.1615,-0.1506,9.8711,5.6560,1.9377,0.8255,2.5109,-3.1439,
3.211727,-1.1964,1.5314,-0.1704,9.8711,5.6560,1.9377,0.8255,2.5109,-3.1439,
3.214015,-0.9400,1.2597,-0.1328,9.8711,5.6560,1.9377,0.8255,2.5109,-3.1439,
3.215226,-0.7896,0.7132,-0.2603,9.8711,5.6560,1.9377,0.8255,2.5109,-3.1439,
3.216168,-0.7896,0.7132,-0.2603,-2.8811,5.3878,2.1295,0.8255,2.5109,-3.1439,
3.217406,-0.7896,0.7132,-0.2603,-2.8811,5.3878,2.1295,1.2152,1.8070,-2.7186,
3.271059,-0.9056,0.5862,-0.3916,-2.8811,5.3878,2.1295,1.2152,1.8070,-2.7186,
3.272541,-0.7352,0.4603,-0.4979,-2.8811,5.3878,2.1295,1.2152,1.8070,-2.7186,
3.273650,-0.3899,0.3050,-0.0701,-2.8811,5.3878,2.1295,1.2152,1.8070,-2.7186,
3.274523,-0.3899,0.3050,-0.0701,-2.8811,5.3878,2.1295,-0.2556,-0.8574,0.5296,
3.275942,-0.3899,0.3050,-0.0701,0.0405,-1.8739,0.4001,-0.2556,-0.8574,0.5296,
3.328627,-0.1074,0.0083,0.1414,0.0405,-1.8739,0.4001,-0.2556,-0.8574,0.5296,
3.331752,-0.0044,-0.0356,0.2173,0.0405,-1.8739,0.4001,-0.2556,-0.8574,0.5296,
3.333938,-0.1477,0.2959,-0.2009,0.0405,-1.8739,0.4001,-0.2556,-0.8574,0.5296,
3.337430,-0.1477,0.2959,-0.2009,4.4381,-6.7389,3.2849,-0.2556,-0.8574,0.5296,
3.339656,-0.1477,0.2959,-0.2009,4.4381,-6.7389,3.2849,-0.6211,-1.2714,3.7664,
3.387263,-0.2071,0.7281,-0.2842,4.4381,-6.7389,3.2849,-0.6211,-1.2714,3.7664,
3.390833,-0.3069,0.7589,-0.2627,4.4381,-6.7389,3.2849,-0.6211,-1.2714,3.7664,
3.392996,-0.7010,0.7447,-0.1934,4.4381,-6.7389,3.2849,-0.6211,-1.2714,3.7664,
3.395046,-0.7010,0.7447,-0.1934,4.4381,-6.7389,3.2849,-0.0918,-0.9613,4.9811,
3.397436,-0.7010,0.7447,-0.1934,-0.9306,-1.5320,0.0680,-0.0918,-0.9613,4.9811,
3.445756,-0.7083,0.8458,-0.2920,-0.9306,-1.5320,0.0680,-0.0918,-0.9613,4.9811,
3.450172,-0.8722,1.0870,-0.3096,-0.9306,-1.5320,0.0680,-0.0918,-0.9613,4.9811,
3.452872,-1.1437,1.1935,-0.3750,-0.9306,-1.5320,0.0680,-0.0918,-0.9613,4.9811,
3.455593,-1.1437,1.1935,-0.3750,-8.5024,0.8383,-0.8171,-0.0918,-0.9613,4.9811,
3.458996,-1.1437,1.1935,-0.3750,-8.5024,0.8383,-0.8171,0.0930,-1.9391,5.7151,
3.502571,-1.0472,1.0646,-0.5604,-8.5024,0.8383,-0.8171,0.0930,-1.9391,5.7151,
3.503863,-0.6744,0.9806,-0.5679,-8.5024,0.8383,-0.8171,0.0930,-1.9391,5.7151,
3.504462,-0.3973,1.0279,-0.5232,-8.5024,0.8383,-0.8171,0.0930,-1.9391,5.7151,
3.505136,-0.3973,1.0279,-0.5232,-8.5024,0.8383,-0.8171,0.7833,-6.7576,6.1533,
3.505867,-0.3973,1.0279,-0.5232,-8.6356,1.0685,-2.1902,0.7833,-6.7576,6.1533,
3.562369,-0.2129,1.1229,-0.3155,-8.6356,1.0685,-2.1902,0.7833,-6.7576,6.1533,
3.565214,-0.0632,1.2308,-0.1326,-8.6356,1.0685,-2.1902,0.7833,-6.7576,6.1533,
3.567774,0.0295,1.1998,0.1243,-8.6356,1.0685,-2.1902,0.7833,-6.7576,6.1533,
3.569898,0.0295,1.1998,0.1243,-8.6356,1.0685,-2.1902,0.6652,-9.0166,4.2411,
3.571952,0.0295,1.1998,0.1243,-2.5691,3.2180,3.4521,0.6652,-9.0166,4.2411,
3.619779,0.1050,1.0655,0.3181,-2.5691,3.2180,3.4521,0.6652,-9.0166,4.2411,
3.621937,0.1265,0.9361,0.3982,-2.5691,3.2180,3.4521,0.6652,-9.0166,4.2411,
3.622762,-0.0671,0.7572,0.4051,-2.5691,3.2180,3.4521,0.6652,-9.0166,4.2411,
3.623509,-0.0671,0.7572,0.4051,-2.5691,3.2180,3.4521,-0.3270,-4.8391,1.3669,
3.624856,-0.0671,0.7572,0.4051,-0.5521,0.6450,8.2989,-0.3270,-4.8391,1.3669,
3.680846,-0.7347,1.3417,-0.0364,-0.5521,0.6450,8.2989,-0.3270,-4.8391,1.3669,
3.685477,-0.7955,1.5463,0.8961,-0.5521,0.6450,8.2989,-0.3270,-4.8391,1.3669,
3.689018,-0.3052,1.1437,0.4991,-0.5521,0.6450,8.2989,-0.3270,-4.8391,1.3669,
3.691759,-0.3052,1.1437,0.4991,-6.2553,4.4575,8.5311,-0.3270,-4.8391,1.3669,
3.695967,-0.3052,1.1437,0.4991,-6.2553,4.4575,8.5311,-0.8868,-0.6174,-1.1116,
3.736993,0.1035,0.9601,-0.2476,-6.2553,4.4575,8.5311,-0.8868,-0.6174,-1.1116,
3.740447,0.3565,1.3012,-0.9452,-6.2553,4.4575,8.5311,-0.8868,-0.6174,-1.1116,
3.742054,0.2510,1.9040,-0.7349,-6.2553,4.4575,8.5311,-0.8868,-0.6174,-1.1116,
3.744379,0.2510,1.9040,-0.7349,-6.2553,4.4575,8.5311,-0.9475,-0.2293,-0.8136,
3.746413,0.2510,1.9040,-0.7349,2.4915,4.6022,-2.6464,-0.9475,-0.2293,-0.8136,
3.795753,-0.0190,1.4525,-0.4485,2.4915,4.6022,-2.6464,-0.9475,-0.2293,-0.8136,
3.799942,-0.1055,0.8148,-0.2095,2.4915,4.6022,-2.6464,-0.9475,-0.2293,-0.8136,
3.802183,-0.4026,0.6783,0.0579,2.4915,4.6022,-2.6464,-0.9475,-0.2293,-0.8136,
3.804282,-0.4026,0.6783,0.0579,2.4915,4.6022,-2.6464,-0.7504,-1.7041,-0.5506,
3.807006,-0.4026,0.6783,0.0579,-0.9085,0.4740,1.2202,-0.7504,-1.7041,-0.5506,
3.853820,-0.2613,0.9217,-0.0059,-0.9085,0.4740,1.2202,-0.7504,-1.7041,-0.5506,
3.858553,-0.1025,1.0619,-0.2478,-0.9085,0.4740,1.2202,-0.7504,-1.7041,-0.5506,
3.861197,-0.2124,1.0287,-0.3150,-0.9085,0.4740,1.2202,-0.7504,-1.7041,-0.5506,
3.863675,-0.2124,1.0287,-0.3150,-0.9085,0.4740,1.2202,-0.2659,-0.2297,0.0212,
3.865825,-0.2124,1.0287,-0.3150,-1.0207,0.6318,1.1499,-0.2659,-0.2297,0.0212,
3.912675,-0.2705,0.9857,-0.3484,-1.0207,0.6318,1.1499,-0.2659,-0.2297,0.0212,
3.917701,-0.2981,0.9122,-0.3611,-1.0207,0.6318,1.1499,-0.2659,-0.2297,0.0212,
3.920738,-0.2483,0.9310,-0.2681,-1.0207,0.6318,1.1499,-0.2659,-0.2297,0.0212,
3.923001,-0.2483,0.9310,-0.2681,-1.0207,0.6318,1.1499,-0.1089,-0.3068,0.3767,
3.925413,-0.2483,0.9310,-0.2681,-1.9243,-0.0034,-0.2547,-0.1089,-0.3068,0.3767,
3.970500,-0.0523,0.9124,-0.1814,-1.9243,-0.0034,-0.2547,-0.1089,-0.3068,0.3767,
3.974166,0.1563,0.8788,-0.2046,-1.9243,-0.0034,-0.2547,-0.1089,-0.3068,0.3767,
3.977651,0.1538,0.9369,-0.2610,-1.9243,-0.0034,-0.2547,-0.1089,-0.3068,0.3767,
3.981024,0.1538,0.9369,-0.2610,-1.9243,-0.0034,-0.2547,-0.1169,-0.3781,0.6137,
3.983494,0.1538,0.9369,-0.2610,1.2970,-0.3683,0.7360,-0.1169,-0.3781,0.6137,
4.029873,-0.0437,0.9791,-0.2532,1.2970,-0.3683,0.7360,-0.1169,-0.3781,0.6137,
4.033992,-0.1323,0.9654,-0.2366,1.2970,-0.3683,0.7360,-0.1169,-0.3781,0.6137,
4.036987,-0.0750,0.9618,-0.1824,1.2970,-0.3683,0.7360,-0.1169,-0.3781,0.6137,
4.039861,-0.0750,0.9618,-0.1824,1.2970,-0.3683,0.7360,0.0191,-0.3398,0.1487,
4.042287,-0.0750,0.9618,-0.1824,-0.3828,0.2099,0.6449,0.0191,-0.3398,0.1487,
4.086764,0.0259,0.9835,-0.1880,-0.3828,0.2099,0.6449,0.0191,-0.3398,0.1487,
4.088791,0.0972,0.9601,-0.2486,-0.3828,0.2099,0.6449,0.0191,-0.3398,0.1487,
4.089859,-0.0273,0.9574,-0.2329,-0.3828,0.2099,0.6449,0.0191,-0.3398,0.1487,
4.090649,-0.0273,0.9574,-0.2329,-0.3828,0.2099,0.6449,0.2690,-0.4921,0.0937,
4.091807,-0.0273,0.9574,-0.2329,0.7694,0.2316,0.7731,0.2690,-0.4921,0.0937,
4.144381,-0.1323,0.9652,-0.1944,0.7694,0.2316,0.7731,0.2690,-0.4921,0.0937,
4.146219,-0.1301,0.9767,-0.2219,0.7694,0.2316,0.7731,0.2690,-0.4921,0.0937,
4.148118,0.0103,1.0074,-0.1914,0.7694,0.2316,0.7731,0.2690,-0.4921,0.0937,
4.149934,0.0103,1.0074,-0.1914,0.7694,0.2316,0.7731,0.5575,-0.2808,-0.0364,
4.151745,0.0103,1.0074,-0.1914,-0.2924,0.4834,1.2449,0.5575,-0.2808,-0.0364,
4.202782,0.1511,1.0304,-0.2459,-0.2924,0.4834,1.2449,0.5575,-0.2808,-0.0364,
4.204376,0.0413,1.0055,-0.3348,-0.2924,0.4834,1.2449,0.5575,-0.2808,-0.0364,
4.205171,-0.1174,1.0741,-0.2840,-0.2924,0.4834,1.2449,0.5575,-0.2808,-0.0364,
4.205876,-0.1174,1.0741,-0.2840,-0.2924,0.4834,1.2449,0.9943,-0.0584,-0.1350,
4.206563,-0.1174,1.0741,-0.2840,0.8445,1.1950,0.9132,0.9943,-0.0584,-0.1350,
4.261336,-0.0007,1.0934,-0.3286,0.8445,1.1950,0.9132,0.9943,-0.0584,-0.1350,
4.263289,0.1699,1.1378,-0.2908,0.8445,1.1950,0.9132,0.9943,-0.0584,-0.1350,
4.264265,0.3206,1.3224,-0.2539,0.8445,1.1950,0.9132,0.9943,-0.0584,-0.1350,
4.265189,0.3206,1.3224,-0.2539,0.8445,1.1950,0.9132,1.5339,-0.7595,-0.1594,
4.266036,0.3206,1.3224,-0.2539,2.4243,2.9691,1.6103,1.5339,-0.7595,-0.1594,
4.320258,0.5127,1.4892,-0.1004,2.4243,2.9691,1.6103,1.5339,-0.7595,-0.1594,
4.321835,0.6512,1.6191,0.0808,2.4243,2.9691,1.6103,1.5339,-0.7595,-0.1594,
4.322598,0.3897,1.5575,0.1760,2.4243,2.9691,1.6103,1.5339,-0.7595,-0.1594,
4.323229,0.3897,1.5575,0.1760,2.4243,2.9691,1.6103,2.2600,-1.7479,-0.6465,
4.324044,0.3897,1.5575,0.1760,6.6082,7.1819,5.8456,2.2600,-1.7479,-0.6465,
4.379423,-0.1533,1.4474,0.3863,6.6082,7.1819,5.8456,2.2600,-1.7479,-0.6465,
4.382105,-0.6422,1.4057,0.4720,6.6082,7.1819,5.8456,2.2600,-1.7479,-0.6465,
4.384010,-1.0355,1.4718,0.0908,6.6082,7.1819,5.8456,2.2600,-1.7479,-0.6465,
4.386172,-1.0355,1.4718,0.0908,6.6082,7.1819,5.8456,2.2708,-2.6463,-1.4909,
4.388662,-1.0355,1.4718,0.0908,-2.8585,6.9086,8.9378,2.2708,-2.6463,-1.4909,
4.436342,-1.1930,1.4037,-0.0896,-2.8585,6.9086,8.9378,2.2708,-2.6463,-1.4909,
4.438118,-0.7757,1.2430,-0.4952,-2.8585,6.9086,8.9378,2.2708,-2.6463,-1.4909,
4.438769,-0.2337,1.1742,-0.4349,-2.8585,6.9086,8.9378,2.2708,-2.6463,-1.4909,
4.439397,-0.2337,1.1742,-0.4349,-2.8585,6.9086,8.9378,1.7554,-4.9843,-0.7420,
4.440127,-0.2337,1.1742,-0.4349,-2.0870,5.9162,1.9670,1.7554,-4.9843,-0.7420,
4.496087,0.2005,0.8868,-0.0129,-2.0870,5.9162,1.9670,1.7554,-4.9843,-0.7420,
4.499879,0.1445,0.5818,0.3333,-2.0870,5.9162,1.9670,1.7554,-4.9843,-0.7420,
4.501617,-0.0830,0.5020,0.2427,-2.0870,5.9162,1.9670,1.7554,-4.9843,-0.7420,
4.503456,-0.0830,0.5020,0.2427,-2.0870,5.9162,1.9670,0.4600,-5.3832,1.2802,
4.505630,-0.0830,0.5020,0.2427,6.7827,-0.4210,5.4372,0.4600,-5.3832,1.2802,
4.553554,-0.1873,0.5142,0.1829,6.7827,-0.4210,5.4372,0.4600,-5.3832,1.2802,
4.556745,-0.1511,0.5477,0.1658,6.7827,-0.4210,5.4372,0.4600,-5.3832,1.2802,
4.558698,-0.1621,0.6185,0.1799,6.7827,-0.4210,5.4372,0.4600,-5.3832,1.2802,
4.560664,-0.1621,0.6185,0.1799,6.7827,-0.4210,5.4372,0.3042,-2.9444,3.2340,
4.563094,-0.1621,0.6185,0.1799,3.3873,-2.3296,4.4009,0.3042,-2.9444,3.2340,
4.612511,-0.1836,0.6632,0.1370,3.3873,-2.3296,4.4009,0.3042,-2.9444,3.2340,
4.615479,-0.2132,0.7005,0.0874,3.3873,-2.3296,4.4009,0.3042,-2.9444,3.2340,
4.617725,-0.2676,0.8495,0.0671,3.3873,-2.3296,4.4009,0.3042,-2.9444,3.2340,
4.619742,-0.2676,0.8495,0.0671,3.3873,-2.3296,4.4009,-0.0346,-0.9696,5.1083,
4.622347,-0.2676,0.8495,0.0671,0.4678,-1.7250,3.3043,-0.0346,-0.9696,5.1083,
4.670359,-0.3018,1.0465,0.0615,0.4678,-1.7250,3.3043,-0.0346,-0.9696,5.1083,
4.673996,-0.3838,1.2992,0.0322,0.4678,-1.7250,3.3043,-0.0346,-0.9696,5.1083,
4.676214,-0.5040,1.6366,-0.0879,0.4678,-1.7250,3.3043,-0.0346,-0.9696,5.1083,
4.679300,-0.5040,1.6366,-0.0879,0.4678,-1.7250,3.3043,-0.9304,-0.8621,6.3242,
4.681639,-0.5040,1.6366,-0.0879,-4.4941,3.5158,1.7804,-0.9304,-0.8621,6.3242,
4.728456,-0.5350,1.6899,-0.0857,-4.4941,3.5158,1.7804,-0.9304,-0.8621,6.3242,
4.731422,-0.7777,1.5929,0.0208,-4.4941,3.5158,1.7804,-0.9304,-0.8621,6.3242,
4.733656,-1.2704,1.5277,0.0173,-4.4941,3.5158,1.7804,-0.9304,-0.8621,6.3242,
4.736025,-1.2704,1.5277,0.0173,-11.9216,6.7095,0.8065,-0.9304,-0.8621,6.3242,
4.738875,-1.2704,1.5277,0.0173,-11.9216,6.7095,0.8065,-1.4231,0.0314,5.6897,
4.785873,-1.5548,1.2233,-0.3406,-11.9216,6.7095,0.8065,-1.4231,0.0314,5.6897,
4.788037,-1.7104,0.7496,-0.5215,-11.9216,6.7095,0.8065,-1.4231,0.0314,5.6897,
4.788837,-1.7563,0.5696,-0.9298,-11.9216,6.7095,0.8065,-1.4231,0.0314,5.6897,
4.789633,-1.7563,0.5696,-0.9298,-11.9216,6.7095,0.8065,-0.7025,0.6315,0.7149,
4.790454,-1.7563,0.5696,-0.9298,-19.9455,-0.5669,-5.3098,-0.7025,0.6315,0.7149,
4.845915,-1.2159,1.8583,-1.5636,-19.9455,-0.5669,-5.3098,-0.7025,0.6315,0.7149,
4.849273,1.6618,2.5584,0.4427,-19.9455,-0.5669,-5.3098,-0.7025,0.6315,0.7149,
4.850661,2.2822,1.5888,-0.0286,-19.9455,-0.5669,-5.3098,-0.7025,0.6315,0.7149,
4.852159,2.2822,1.5888,-0.0286,-19.9455,-0.5669,-5.3098,-0.7076,-3.1244,-1.3111,
4.853603,2.2822,1.5888,-0.0286,6.0695,10.3057,-2.9550,-0.7076,-3.1244,-1.3111,
4.906085,-0.3545,0.8197,-1.1039,6.0695,10.3057,-2.9550,-0.7076,-3.1244,-1.3111,
4.909236,-0.7589,0.3492,0.7420,6.0695,10.3057,-2.9550,-0.7076,-3.1244,-1.3111,
4.911063,-0.5499,0.6546,0.2166,6.0695,10.3057,-2.9550,-0.7076,-3.1244,-1.3111,
4.913045,-0.5499,0.6546,0.2166,6.0695,10.3057,-2.9550,0.0269,-0.5899,-3.3864,
4.914711,-0.5499,0.6546,0.2166,-6.2577,-3.6636,0.4262,0.0269,-0.5899,-3.3864,
4.961146,-0.2908,1.1852,-0.0737,-6.2577,-3.6636,0.4262,0.0269,-0.5899,-3.3864,
4.963160,-0.3995,1.3405,-0.2486,-6.2577,-3.6636,0.4262,0.0269,-0.5899,-3.3864,
4.964353,-0.2005,1.1407,-0.2227,-6.2577,-3.6636,0.4262,0.0269,-0.5899,-3.3864,
4.966425,-0.2005,1.1407,-0.2227,-6.2577,-3.6636,0.4262,-0.0126,0.2395,-1.3730,
4.968590,-0.2005,1.1407,-0.2227,-2.9245,2.2822,-0.8735,-0.0126,0.2395,-1.3730,
5.019582,0.1431,1.0585,-0.1592,-2.9245,2.2822,-0.8735,-0.0126,0.2395,-1.3730,
5.021816,0.1177,0.9859,-0.0171,-2.9245,2.2822,-0.8735,-0.0126,0.2395,-1.3730,
5.023301,-0.0713,1.0104,0.1148,-2.9245,2.2822,-0.8735,-0.0126,0.2395,-1.3730,
5.024546,-0.0713,1.0104,0.1148,-2.9245,2.2822,-0.8735,-0.0324,-0.3260,-0.8481,
5.025560,-0.0713,1.0104,0.1148,1.0821,0.2890,0.6698,-0.0324,-0.3260,-0.8481,
5.079244,0.0398,1.0213,0.0264,1.0821,0.2890,0.6698,-0.0324,-0.3260,-0.8481,
5.083155,0.0549,0.9923,-0.0354,1.0821,0.2890,0.6698,-0.0324,-0.3260,-0.8481,
5.085586,-0.0183,1.0165,-0.0435,1.0821,0.2890,0.6698,-0.0324,-0.3260,-0.8481,
5.087899,-0.0183,1.0165,-0.0435,1.2701,0.2568,0.7671,-0.0324,-0.3260,-0.8481,
5.089294,-0.0183,1.0165,-0.0435,1.2701,0.2568,0.7671,0.1309,0.1307,-1.0393,
5.137149,-0.0801,1.0355,-0.0315,1.2701,0.2568,0.7671,0.1309,0.1307,-1.0393,
5.138479,-0.0908,0.9977,-0.0281,1.2701,0.2568,0.7671,0.1309,0.1307,-1.0393,
5.139317,-0.1406,1.0057,-0.0393,1.2701,0.2568,0.7671,0.1309,0.1307,-1.0393,
5.140012,-0.1406,1.0057,-0.0393,1.2701,0.2568,0.7671,0.2225,0.0788,-1.3003,
5.140675,-0.1406,1.0057,-0.0393,0.7131,0.3966,0.7336,0.2225,0.0788,-1.3003,
5.196410,-0.2569,1.0238,-0.0708,0.7131,0.3966,0.7336,0.2225,0.0788,-1.3003,
5.197872,-0.2337,0.9928,-0.1184,0.7131,0.3966,0.7336,0.2225,0.0788,-1.3003,
5.198779,-0.1414,0.9505,-0.1277,0.7131,0.3966,0.7336,0.2225,0.0788,-1.3003,
5.201511,-0.1414,0.9505,-0.1277,0.3492,0.3287,0.1903,0.2225,0.0788,-1.3003,
5.203376,-0.1414,0.9505,-0.1277,0.3492,0.3287,0.1903,0.2366,0.3374,-1.2897,
5.253816,-0.0691,0.9688,-0.1414,0.3492,0.3287,0.1903,0.2366,0.3374,-1.2897,
5.256161,-0.0386,1.0025,-0.1277,0.3492,0.3287,0.1903,0.2366,0.3374,-1.2897,
5.257530,-0.0608,1.0997,-0.0652,0.3492,0.3287,0.1903,0.2366,0.3374,-1.2897,
5.258654,-0.0608,1.0997,-0.0652,0.3492,0.3287,0.1903,0.2794,0.1713,-1.5159,
5.259830,-0.0608,1.0997,-0.0652,2.6225,0.9234,0.3064,0.2794,0.1713,-1.5159,
5.312007,-0.0889,1.2181,-0.0620,2.6225,0.9234,0.3064,0.2794,0.1713,-1.5159,
5.315216,-0.0332,1.2611,-0.0571,2.6225,0.9234,0.3064,0.2794,0.1713,-1.5159,
5.317954,0.1575,1.2579,-0.0488,2.6225,0.9234,0.3064,0.2794,0.1713,-1.5159,
5.320187,0.1575,1.2579,-0.0488,2.6225,0.9234,0.3064,0.5933,-0.3241,-2.0083,
5.322265,0.1575,1.2579,-0.0488,4.2848,3.5266,1.0661,0.5933,-0.3241,-2.0083,
5.368995,0.3496,1.5114,0.0232,4.2848,3.5266,1.0661,0.5933,-0.3241,-2.0083,
5.370414,0.8788,1.9904,0.3123,4.2848,3.5266,1.0661,0.5933,-0.3241,-2.0083,
5.371068,1.3659,1.8984,0.1558,4.2848,3.5266,1.0661,0.5933,-0.3241,-2.0083,
5.371724,1.3659,1.8984,0.1558,4.2848,3.5266,1.0661,0.8711,0.4675,-2.3528,
5.372308,1.3659,1.8984,0.1558,13.5043,9.5419,3.7119,0.8711,0.4675,-2.3528,
5.427863,0.7552,1.3412,0.1389,13.5043,9.5419,3.7119,0.8711,0.4675,-2.3528,
5.429099,-0.3843,1.2089,-0.1692,13.5043,9.5419,3.7119,0.8711,0.4675,-2.3528,
5.429586,-0.9718,1.4784,-0.3421,13.5043,9.5419,3.7119,0.8711,0.4675,-2.3528,
5.430183,-0.9718,1.4784,-0.3421,13.5043,9.5419,3.7119,0.8674,3.1488,-4.0006,
5.430782,-0.9718,1.4784,-0.3421,4.1985,6.4204,2.2833,0.8674,3.1488,-4.0006,
5.486230,-0.7869,1.3170,-0.2708,4.1985,6.4204,2.2833,0.8674,3.1488,-4.0006,
5.487547,-0.6483,0.8399,-0.3128,4.1985,6.4204,2.2833,0.8674,3.1488,-4.0006,
5.488119,-0.7918,0.6319,-0.3579,4.1985,6.4204,2.2833,0.8674,3.1488,-4.0006,
5.488665,-0.7918,0.6319,-0.3579,4.1985,6.4204,2.2833,0.7699,1.8740,-2.3539,
5.489175,-0.7918,0.6319,-0.3579,-0.6814,3.3725,1.3774,0.7699,1.8740,-2.3539,
5.544240,-0.6634,0.3948,-0.7501,-0.6814,3.3725,1.3774,0.7699,1.8740,-2.3539,
5.545518,-0.3345,0.3059,-0.5223,-0.6814,3.3725,1.3774,0.7699,1.8740,-2.3539,
5.546036,-0.1282,0.1460,-0.2486,-0.6814,3.3725,1.3774,0.7699,1.8740,-2.3539,
5.547247,-0.1282,0.1460,-0.2486,-0.6814,3.3725,1.3774,-1.3376,0.1232,0.9548,
5.548346,-0.1282,0.1460,-0.2486,2.4956,-3.6013,-0.9208,-1.3376,0.1232,0.9548,
5.602707,-0.0701,0.1309,-0.1946,2.4956,-3.6013,-0.9208,-1.3376,0.1232,0.9548,
5.604294,-0.0896,0.2669,-0.3863,2.4956,-3.6013,-0.9208,-1.3376,0.1232,0.9548,
5.605184,-0.0654,0.4014,-0.4859,2.4956,-3.6013,-0.9208,-1.3376,0.1232,0.9548,
5.605909,-0.0654,0.4014,-0.4859,2.4956,-3.6013,-0.9208,-2.1682,-0.9250,3.6339,
5.606732,-0.0654,0.4014,-0.4859,4.0234,-5.2784,-0.6297,-2.1682,-0.9250,3.6339,
5.661034,-0.0745,0.5482,-0.4588,4.0234,-5.2784,-0.6297,-2.1682,-0.9250,3.6339,
5.662811,-0.1065,0.5745,-0.3543,4.0234,-5.2784,-0.6297,-2.1682,-0.9250,3.6339,
5.663591,-0.0554,0.6253,-0.2273,4.0234,-5.2784,-0.6297,-2.1682,-0.9250,3.6339,
5.664482,-0.0554,0.6253,-0.2273,4.0234,-5.2784,-0.6297,-2.1444,-0.2971,5.5634,
5.665165,-0.0554,0.6253,-0.2273,1.1929,-3.5137,-1.6648,-2.1444,-0.2971,5.5634,
5.719186,-0.0188,0.9400,-0.2913,1.1929,-3.5137,-1.6648,-2.1444,-0.2971,5.5634,
5.720589,-0.1487,1.4203,-0.4935,1.1929,-3.5137,-1.6648,-2.1444,-0.2971,5.5634,
5.721441,-0.5865,1.8789,-0.5762,1.1929,-3.5137,-1.6648,-2.1444,-0.2971,5.5634,
5.724268,-0.5865,1.8789,-0.5762,-3.9532,4.3480,-3.5725,-2.1444,-0.2971,5.5634,
5.725440,-0.5865,1.8789,-0.5762,-3.9532,4.3480,-3.5725,-1.6602,0.8053,6.2965,
5.777567,-0.9813,1.9958,-0.4786,-3.9532,4.3480,-3.5725,-1.6602,0.8053,6.2965,
5.779099,-1.1415,1.7131,-0.2913,-3.9532,4.3480,-3.5725,-1.6602,0.8053,6.2965,
5.779823,-0.9764,1.2164,-0.0933,-3.9532,4.3480,-3.5725,-1.6602,0.8053,6.2965,
5.780689,-0.9764,1.2164,-0.0933,-3.9532,4.3480,-3.5725,-1.7394,0.5962,5.5258,
5.781688,-0.9764,1.2164,-0.0933,-14.3261,7.3936,-2.9234,-1.7394,0.5962,5.5258,
5.835731,-0.8219,1.0008,-0.2908,-14.3261,7.3936,-2.9234,-1.7394,0.5962,5.5258,
5.837767,-1.1017,0.8780,-0.3838,-14.3261,7.3936,-2.9234,-1.7394,0.5962,5.5258,
5.838660,-1.2032,0.7945,-0.2107,-14.3261,7.3936,-2.9234,-1.7394,0.5962,5.5258,
5.839388,-1.2032,0.7945,-0.2107,-14.3261,7.3936,-2.9234,-0.5445,-0.7569,0.5598,
5.840230,-1.2032,0.7945,-0.2107,-14.4630,0.1825,-3.0132,-0.5445,-0.7569,0.5598,
5.894350,-0.6900,1.3034,-0.5455,-14.4630,0.1825,-3.0132,-0.5445,-0.7569,0.5598,
5.896007,1.5236,1.6020,0.4302,-14.4630,0.1825,-3.0132,-0.5445,-0.7569,0.5598,
5.896831,3.2459,1.5829,0.3118,-14.4630,0.1825,-3.0132,-0.5445,-0.7569,0.5598,
5.897564,3.2459,1.5829,0.3118,-14.4630,0.1825,-3.0132,-0.5382,-1.9981,-1.2427,
5.899937,3.2459,1.5829,0.3118,9.5423,5.7298,0.7014,-0.5382,-1.9981,-1.2427,
5.953141,0.3570,1.6791,-0.5901,9.5423,5.7298,0.7014,-0.5382,-1.9981,-1.2427,
5.955131,-1.2086,1.2091,-0.9513,9.5423,5.7298,0.7014,-0.5382,-1.9981,-1.2427,
5.956007,-0.8485,0.4837,0.3953,9.5423,5.7298,0.7014,-0.5382,-1.9981,-1.2427,
5.956963,-0.8485,0.4837,0.3953,9.5423,5.7298,0.7014,0.1022,0.4671,-3.8067,
5.957690,-0.8485,0.4837,0.3953,-7.1585,1.4449,-3.6202,0.1022,0.4671,-3.8067,
6.011494,-0.3645,0.8380,0.1983,-7.1585,1.4449,-3.6202,0.1022,0.4671,-3.8067,
6.013275,-0.1113,1.0978,0.2266,-7.1585,1.4449,-3.6202,0.1022,0.4671,-3.8067,
6.014327,-0.1277,1.0751,0.0520,-7.1585,1.4449,-3.6202,0.1022,0.4671,-3.8067,
6.015327,-0.1277,1.0751,0.0520,-7.1585,1.4449,-3.6202,0.0719,-0.4750,-1.6514,
6.016254,-0.1277,1.0751,0.0520,-2.6001,0.1534,1.7173,0.0719,-0.4750,-1.6514,
6.070740,-0.0884,0.9957,-0.1148,-2.6001,0.1534,1.7173,0.0719,-0.4750,-1.6514,
6.073173,0.0547,1.0336,-0.1489,-2.6001,0.1534,1.7173,0.0719,-0.4750,-1.6514,
6.075272,0.1201,1.0646,-0.0671,-2.6001,0.1534,1.7173,0.0719,-0.4750,-1.6514,
6.078592,0.1201,1.0646,-0.0671,-2.6001,0.1534,1.7173,0.1203,-0.1370,-1.0415,
6.080783,0.1201,1.0646,-0.0671,0.2404,0.3990,-0.8355,0.1203,-0.1370,-1.0415,
6.129869,-0.0403,1.0543,0.0693,0.2404,0.3990,-0.8355,0.1203,-0.1370,-1.0415,
6.132992,-0.1052,0.9969,0.0620,0.2404,0.3990,-0.8355,0.1203,-0.1370,-1.0415,
6.134347,-0.0581,0.9708,0.0288,0.2404,0.3990,-0.8355,0.1203,-0.1370,-1.0415,
6.135885,-0.0581,0.9708,0.0288,0.2404,0.3990,-0.8355,0.1629,-0.1046,-1.0429,
6.138733,-0.0581,0.9708,0.0288,-0.1131,0.1797,0.8449,0.1629,-0.1046,-1.0429,
6.188267,0.0225,0.9803,0.0015,-0.1131,0.1797,0.8449,0.1629,-0.1046,-1.0429,
6.190779,0.0513,1.0089,-0.0195,-0.1131,0.1797,0.8449,0.1629,-0.1046,-1.0429,
6.192804,-0.0278,1.0106,-0.0178,-0.1131,0.1797,0.8449,0.1629,-0.1046,-1.0429,
6.194508,-0.0278,1.0106,-0.0178,-0.1131,0.1797,0.8449,0.2289,0.1314,-1.0354,
6.196767,-0.0278,1.0106,-0.0178,1.2613,0.1605,0.3349,0.2289,0.1314,-1.0354,
6.244347,-0.1160,1.0082,-0.0134,1.2613,0.1605,0.3349,0.2289,0.1314,-1.0354,
6.246004,-0.1306,1.0104,-0.0132,1.2613,0.1605,0.3349,0.2289,0.1314,-1.0354,
6.246933,-0.1497,0.9840,-0.0132,1.2613,0.1605,0.3349,0.2289,0.1314,-1.0354,
6.247496,-0.1497,0.9840,-0.0132,1.2613,0.1605,0.3349,0.2912,0.3000,-1.2299,
6.248438,-0.1497,0.9840,-0.0132,0.4866,0.2779,0.5022,0.2912,0.3000,-1.2299,
6.302896,-0.1704,0.9400,-0.0098,0.4866,0.2779,0.5022,0.2912,0.3000,-1.2299,
6.304498,-0.1787,0.9535,-0.0339,0.4866,0.2779,0.5022,0.2912,0.3000,-1.2299,
6.306022,-0.1179,0.9974,-0.0745,0.4866,0.2779,0.5022,0.2912,0.3000,-1.2299,
6.307232,-0.1179,0.9974,-0.0745,0.4866,0.2779,0.5022,0.3101,0.2827,-1.3144,
6.309173,-0.1179,0.9974,-0.0745,0.9512,0.0891,0.4446,0.3101,0.2827,-1.3144,
6.361404,-0.0315,1.0331,-0.1233,0.9512,0.0891,0.4446,0.3101,0.2827,-1.3144,
6.363154,-0.0300,1.0580,-0.1670,0.9512,0.0891,0.4446,0.3101,0.2827,-1.3144,
6.364369,-0.1228,1.1761,-0.1135,0.9512,0.0891,0.4446,0.3101,0.2827,-1.3144,
6.365422,-0.1228,1.1761,-0.1135,0.9512,0.0891,0.4446,0.3879,0.1782,-1.7389,
6.366569,-0.1228,1.1761,-0.1135,2.7522,1.6109,-0.2462,0.3879,0.1782,-1.7389,
6.422830,-0.0769,1.3078,-0.0505,2.7522,1.6109,-0.2462,0.3879,0.1782,-1.7389,
6.424269,0.1011,1.4328,-0.0444,2.7522,1.6109,-0.2462,0.3879,0.1782,-1.7389,
6.425057,0.4637,1.6901,0.0273,2.7522,1.6109,-0.2462,0.3879,0.1782,-1.7389,
6.425672,0.4637,1.6901,0.0273,2.7522,1.6109,-0.2462,0.6428,-0.0629,-2.3284,
6.426817,0.4637,1.6901,0.0273,6.0440,5.8958,1.1461,0.6428,-0.0629,-2.3284,
6.477221,0.9295,1.8430,-0.2500,6.0440,5.8958,1.1461,0.6428,-0.0629,-2.3284,
6.478588,0.9737,1.8110,-0.4129,6.0440,5.8958,1.1461,0.6428,-0.0629,-2.3284,
6.479269,0.3614,1.3119,-0.2317,6.0440,5.8958,1.1461,0.6428,-0.0629,-2.3284,
6.480597,0.3614,1.3119,-0.2317,12.9467,8.5640,-0.5598,0.6428,-0.0629,-2.3284,
6.481618,0.3614,1.3119,-0.2317,12.9467,8.5640,-0.5598,0.9153,1.8210,-3.2245,
6.535886,-0.8231,0.8412,-0.1155,12.9467,8.5640,-0.5598,0.9153,1.8210,-3.2245,
6.537796,-1.6891,0.9457,-0.2849,12.9467,8.5640,-0.5598,0.9153,1.8210,-3.2245,
6.538795,-1.7582,0.9867,-0.2913,12.9467,8.5640,-0.5598,0.9153,1.8210,-3.2245,
6.539543,-1.7582,0.9867,-0.2913,12.9467,8.5640,-0.5598,1.7212,1.7392,-3.8582,
6.540417,-1.7582,0.9867,-0.2913,-7.0444,3.0528,1.3897,1.7212,1.7392,-3.8582,
6.594922,-1.1163,0.5010,-0.1883,-7.0444,3.0528,1.3897,1.7212,1.7392,-3.8582,
6.597822,-0.7247,0.2617,-0.1738,-7.0444,3.0528,1.3897,1.7212,1.7392,-3.8582,
6.599224,-0.3299,0.1301,-0.0935,-7.0444,3.0528,1.3897,1.7212,1.7392,-3.8582,
6.600655,-0.3299,0.1301,-0.0935,-7.0444,3.0528,1.3897,0.6314,-1.7758,0.4052,
6.602011,-0.3299,0.1301,-0.0935,0.0325,-3.0770,1.6118,0.6314,-1.7758,0.4052,
6.653816,0.1206,-0.1516,0.2249,0.0325,-3.0770,1.6118,0.6314,-1.7758,0.4052,
6.657298,0.3172,-0.3833,0.1448,0.0325,-3.0770,1.6118,0.6314,-1.7758,0.4052,
6.659074,0.0676,-0.1004,-0.1287,0.0325,-3.0770,1.6118,0.6314,-1.7758,0.4052,
6.660508,0.0676,-0.1004,-0.1287,0.0325,-3.0770,1.6118,0.6821,-1.9096,3.0892,
6.662610,0.0676,-0.1004,-0.1287,7.7792,-9.0172,3.3319,0.6821,-1.9096,3.0892,
6.710955,-0.3365,0.2617,-0.2249,7.7792,-9.0172,3.3319,0.6821,-1.9096,3.0892,
6.712576,-0.5875,0.4561,-0.2488,7.7792,-9.0172,3.3319,0.6821,-1.9096,3.0892,
6.713489,-0.5875,0.4759,-0.0715,7.7792,-9.0172,3.3319,0.6821,-1.9096,3.0892,
6.714006,-0.5875,0.4759,-0.0715,7.7792,-9.0172,3.3319,1.5414,-1.7754,4.2682,
6.714746,-0.5875,0.4759,-0.0715,-0.4133,-4.0759,0.8693,1.5414,-1.7754,4.2682,
6.770929,-0.5479,0.5064,-0.2022,-0.4133,-4.0759,0.8693,1.5414,-1.7754,4.2682,
6.774326,-0.5945,0.7833,-0.3921,-0.4133,-4.0759,0.8693,1.5414,-1.7754,4.2682,
6.775878,-0.6575,1.1412,-0.3763,-0.4133,-4.0759,0.8693,1.5414,-1.7754,4.2682,
6.778006,-0.6575,1.1412,-0.3763,-0.4133,-4.0759,0.8693,1.8631,-4.8114,6.5913,
6.779844,-0.6575,1.1412,-0.3763,-3.8354,-0.9864,-0.4857,1.8631,-4.8114,6.5913,
6.828182,-0.5630,1.3876,-0.3753,-3.8354,-0.9864,-0.4857,1.8631,-4.8114,6.5913,
6.829739,-0.3518,1.7365,-0.3189,-3.8354,-0.9864,-0.4857,1.8631,-4.8114,6.5913,
6.830447,-0.4961,1.8859,0.0813,-3.8354,-0.9864,-0.4857,1.8631,-4.8114,6.5913,
6.831319,-0.4961,1.8859,0.0813,-3.8354,-0.9864,-0.4857,2.2663,-8.6841,6.5129,
6.832084,-0.4961,1.8859,0.0813,-4.3917,7.3302,1.3734,2.2663,-8.6841,6.5129,
6.886154,-0.4461,1.5414,0.4603,-4.3917,7.3302,1.3734,2.2663,-8.6841,6.5129,
6.888069,-0.0940,1.0484,0.8895,-4.3917,7.3302,1.3734,2.2663,-8.6841,6.5129,
6.889014,-0.8004,1.3900,0.2715,-4.3917,7.3302,1.3734,2.2663,-8.6841,6.5129,
6.889952,-0.8004,1.3900,0.2715,-4.3917,7.3302,1.3734,0.2386,-7.2636,2.7161,
6.890754,-0.8004,1.3900,0.2715,-4.0321,3.9318,8.6075,0.2386,-7.2636,2.7161,
6.945559,0.1384,1.1964,1.4528,-4.0321,3.9318,8.6075,0.2386,-7.2636,2.7161,
6.949801,1.5573,0.5557,0.6509,-4.0321,3.9318,8.6075,0.2386,-7.2636,2.7161,
6.952072,0.3826,1.3651,-0.3619,-4.0321,3.9318,8.6075,0.2386,-7.2636,2.7161,
6.954224,0.3826,1.3651,-0.3619,-4.0321,3.9318,8.6075,-0.6052,0.5270,-0.3799,
6.957425,0.3826,1.3651,-0.3619,7.1327,0.9961,8.5503,-0.6052,0.5270,-0.3799,
7.003609,-0.5855,1.7429,-1.0223,7.1327,0.9961,8.5503,-0.6052,0.5270,-0.3799,
7.009681,-0.9647,1.1725,-0.8333,7.1327,0.9961,8.5503,-0.6052,0.5270,-0.3799,
7.012436,-0.4065,1.0162,-0.3433,7.1327,0.9961,8.5503,-0.6052,0.5270,-0.3799,
7.015152,-0.4065,1.0162,-0.3433,7.1327,0.9961,8.5503,-0.3993,0.1682,-0.9191,
7.018658,-0.4065,1.0162,-0.3433,-5.4891,3.5621,-4.4575,-0.3993,0.1682,-0.9191,
7.061759,0.3533,0.9667,-0.3216,-5.4891,3.5621,-4.4575,-0.3993,0.1682,-0.9191,
7.065219,0.2859,0.8780,-0.0894,-5.4891,3.5621,-4.4575,-0.3993,0.1682,-0.9191,
7.067718,-0.1397,0.9374,0.1116,-5.4891,3.5621,-4.4575,-0.3993,0.1682,-0.9191,
7.070832,-0.1397,0.9374,0.1116,-5.4891,3.5621,-4.4575,-0.5188,-1.5276,0.1530,
7.073482,-0.1397,0.9374,0.1116,2.6312,-0.2752,1.3521,-0.5188,-1.5276,0.1530,
7.119614,-0.2710,1.0011,-0.0242,2.6312,-0.2752,1.3521,-0.5188,-1.5276,0.1530,
7.122318,-0.2517,1.0294,-0.2415,2.6312,-0.2752,1.3521,-0.5188,-1.5276,0.1530,
7.123422,-0.1604,0.9483,-0.3433,2.6312,-0.2752,1.3521,-0.5188,-1.5276,0.1530,
7.124261,-0.1604,0.9483,-0.3433,2.6312,-0.2752,1.3521,-0.0851,0.3706,-0.0627,
7.124931,-0.1604,0.9483,-0.3433,-1.2265,0.3539,0.3106,-0.0851,0.3706,-0.0627,
7.178285,-0.2766,0.9378,-0.3152,-1.2265,0.3539,0.3106,-0.0851,0.3706,-0.0627,
7.181230,-0.3543,1.0062,-0.2310,-1.2265,0.3539,0.3106,-0.0851,0.3706,-0.0627,
7.182474,-0.1218,0.9725,-0.1760,-1.2265,0.3539,0.3106,-0.0851,0.3706,-0.0627,
7.183652,-0.1218,0.9725,-0.1760,-1.2265,0.3539,0.3106,-0.1578,-0.4724,0.3494,
7.184672,-0.1218,0.9725,-0.1760,-1.5575,0.1089,-0.1688,-0.1578,-0.4724,0.3494,
7.235772,0.1587,0.9151,-0.1414,-1.5575,0.1089,-0.1688,-0.1578,-0.4724,0.3494,
7.237821,0.2627,0.9227,-0.1528,-1.5575,0.1089,-0.1688,-0.1578,-0.4724,0.3494,
7.238887,0.0383,0.9615,-0.1858,-1.5575,0.1089,-0.1688,-0.1578,-0.4724,0.3494,
7.239701,0.0383,0.9615,-0.1858,2.2348,-0.2907,0.5690,-0.1578,-0.4724,0.3494,
7.240530,0.0383,0.9615,-0.1858,2.2348,-0.2907,0.5690,-0.0448,-0.3907,0.3273,
7.294112,-0.2239,1.0118,-0.2224,2.2348,-0.2907,0.5690,-0.0448,-0.3907,0.3273,
7.296246,-0.1629,1.0238,-0.1423,2.2348,-0.2907,0.5690,-0.0448,-0.3907,0.3273,
7.297524,0.0488,0.9906,-0.0991,2.2348,-0.2907,0.5690,-0.0448,-0.3907,0.3273,
7.298656,0.0488,0.9906,-0.0991,2.2348,-0.2907,0.5690,0.0820,-0.3176,-0.0651,
7.299570,0.0488,0.9906,-0.0991,-0.2904,0.4559,0.6420,0.0820,-0.3176,-0.0651,
7.353584,0.0847,0.9540,-0.0960,-0.2904,0.4559,0.6420,0.0820,-0.3176,-0.0651,
7.356402,-0.0278,0.9525,-0.1316,-0.2904,0.4559,0.6420,0.0820,-0.3176,-0.0651,
7.357602,-0.1587,0.9547,-0.1616,-0.2904,0.4559,0.6420,0.0820,-0.3176,-0.0651,
7.358858,-0.1587,0.9547,-0.1616,-0.2904,0.4559,0.6420,0.4042,-0.3979,-0.2409,
7.360240,-0.1587,0.9547,-0.1616,0.6539,-0.0170,1.0686,0.4042,-0.3979,-0.2409,
7.412097,-0.1929,0.9877,-0.2017,0.6539,-0.0170,1.0686,0.4042,-0.3979,-0.2409,
7.415051,-0.1714,0.9908,-0.2354,0.6539,-0.0170,1.0686,0.4042,-0.3979,-0.2409,
7.416295,-0.1035,0.9798,-0.2031,0.6539,-0.0170,1.0686,0.4042,-0.3979,-0.2409,
7.419769,-0.1035,0.9798,-0.2031,0.6539,-0.0170,1.0686,0.7438,-0.3518,-0.2315,
7.421584,-0.1035,0.9798,-0.2031,-0.3584,0.4176,0.6196,0.7438,-0.3518,-0.2315,
7.470409,-0.0117,0.9962,-0.2305,-0.3584,0.4176,0.6196,0.7438,-0.3518,-0.2315,
7.473196,0.0063,1.0499,-0.3052,-0.3584,0.4176,0.6196,0.7438,-0.3518,-0.2315,
7.475721,-0.0110,1.0626,-0.3255,-0.3584,0.4176,0.6196,0.7438,-0.3518,-0.2315,
7.478470,-0.0110,1.0626,-0.3255,1.2820,1.1008,0.4541,0.7438,-0.3518,-0.2315,
7.480762,-0.0110,1.0626,-0.3255,1.2820,1.1008,0.4541,1.1030,-0.3329,-0.2427,
7.529749,-0.0364,1.1019,-0.3465,1.2820,1.1008,0.4541,1.1030,-0.3329,-0.2427,
7.533185,-0.0142,1.2216,-0.2910,1.2820,1.1008,0.4541,1.1030,-0.3329,-0.2427,
7.535565,0.1734,1.3305,-0.1895,1.2820,1.1008,0.4541,1.1030,-0.3329,-0.2427,
7.538265,0.1734,1.3305,-0.1895,1.2820,1.1008,0.4541,1.6249,-0.6705,-0.3891,
7.540491,0.1734,1.3305,-0.1895,2.0469,3.2088,1.3249,1.6249,-0.6705,-0.3891,
7.585817,0.3960,1.5080,-0.0335,2.0469,3.2088,1.3249,1.6249,-0.6705,-0.3891,
7.588647,0.5694,1.6440,-0.0168,2.0469,3.2088,1.3249,1.6249,-0.6705,-0.3891,
7.590081,0.4864,1.6047,0.1223,2.0469,3.2088,1.3249,1.6249,-0.6705,-0.3891,
7.591490,0.4864,1.6047,0.1223,7.0581,7.3749,5.1030,1.6249,-0.6705,-0.3891,
7.592940,0.4864,1.6047,0.1223,7.0581,7.3749,5.1030,2.3193,-1.7475,-0.6691,
7.644354,0.1091,1.3898,0.3055,7.0581,7.3749,5.1030,2.3193,-1.7475,-0.6691,
7.645928,-0.5865,1.2933,0.2283,7.0581,7.3749,5.1030,2.3193,-1.7475,-0.6691,
7.646993,-1.3014,1.4083,0.0186,7.0581,7.3749,5.1030,2.3193,-1.7475,-0.6691,
7.647832,-1.3014,1.4083,0.0186,7.0581,7.3749,5.1030,2.4659,-2.1765,-1.8248,
7.649349,-1.3014,1.4083,0.0186,-1.9825,6.1823,7.2661,2.4659,-2.1765,-1.8248,
7.703878,-1.3749,1.2460,-0.1619,-1.9825,6.1823,7.2661,2.4659,-2.1765,-1.8248,
7.708105,-0.9444,1.0226,-0.3829,-1.9825,6.1823,7.2661,2.4659,-2.1765,-1.8248,
7.710307,-0.4246,1.0282,-0.5284,-1.9825,6.1823,7.2661,2.4659,-2.1765,-1.8248,
7.712351,-0.4246,1.0282,-0.5284,-1.9825,6.1823,7.2661,1.9566,-4.7301,-0.7682,
7.714508,-0.4246,1.0282,-0.5284,-3.3142,4.3217,1.3872,1.9566,-4.7301,-0.7682,
7.761515,0.0662,0.7183,-0.0442,-3.3142,4.3217,1.3872,1.9566,-4.7301,-0.7682,
7.763993,0.0403,0.5272,0.2788,-3.3142,4.3217,1.3872,1.9566,-4.7301,-0.7682,
7.765039,0.0081,0.4515,0.2622,-3.3142,4.3217,1.3872,1.9566,-4.7301,-0.7682,
7.766046,0.0081,0.4515,0.2622,-3.3142,4.3217,1.3872,0.6939,-5.0961,1.5708,
7.767488,0.0081,0.4515,0.2622,6.5508,-1.2679,4.8870,0.6939,-5.0961,1.5708,
7.820220,-0.1087,0.4832,0.2810,6.5508,-1.2679,4.8870,0.6939,-5.0961,1.5708,
7.823591,-0.2031,0.5047,0.2444,6.5508,-1.2679,4.8870,0.6939,-5.0961,1.5708,
7.825490,-0.2007,0.5469,0.1912,6.5508,-1.2679,4.8870,0.6939,-5.0961,1.5708,
7.828033,-0.2007,0.5469,0.1912,6.5508,-1.2679,4.8870,0.6929,-2.5312,3.0595,
7.830157,-0.2007,0.5469,0.1912,3.5764,-2.6739,4.9388,0.6929,-2.5312,3.0595,
7.879184,-0.1939,0.6131,0.1819,3.5764,-2.6739,4.9388,0.6929,-2.5312,3.0595,
7.882864,-0.2144,0.7552,0.1235,3.5764,-2.6739,4.9388,0.6929,-2.5312,3.0595,
7.884596,-0.2608,0.8993,0.1057,3.5764,-2.6739,4.9388,0.6929,-2.5312,3.0595,
7.887391,-0.2608,0.8993,0.1057,3.5764,-2.6739,4.9388,0.2855,-0.5811,4.8587,
7.888444,-0.2608,0.8993,0.1057,0.7854,-1.3960,3.8460,0.2855,-0.5811,4.8587,
7.936186,-0.3145,1.0599,0.1150,0.7854,-1.3960,3.8460,0.2855,-0.5811,4.8587,
7.938463,-0.3311,1.2125,0.0752,0.7854,-1.3960,3.8460,0.2855,-0.5811,4.8587,
7.939687,-0.3853,1.4032,0.0679,0.7854,-1.3960,3.8460,0.2855,-0.5811,4.8587,
7.940769,-0.3853,1.4032,0.0679,0.7854,-1.3960,3.8460,-0.9334,-0.6658,5.9057,
7.942396,-0.3853,1.4032,0.0679,-3.4184,2.5406,2.7387,-0.9334,-0.6658,5.9057,
7.994178,-0.5008,1.7138,0.0188,-3.4184,2.5406,2.7387,-0.9334,-0.6658,5.9057,
7.995986,-0.5267,1.7599,-0.0449,-3.4184,2.5406,2.7387,-0.9334,-0.6658,5.9057,
7.997403,-0.4190,1.4980,0.1231,-3.4184,2.5406,2.7387,-0.9334,-0.6658,5.9057,
7.998660,-0.4190,1.4980,0.1231,-3.4184,2.5406,2.7387,-1.9322,-0.9588,6.2376,
8.000033,-0.4190,1.4980,0.1231,-7.9573,7.1215,1.2415,-1.9322,-0.9588,6.2376,
8.052294,-0.6173,1.5631,0.1548,-7.9573,7.1215,1.2415,-1.9322,-0.9588,6.2376,
8.053851,-0.8856,1.3983,-0.0977,-7.9573,7.1215,1.2415,-1.9322,-0.9588,6.2376,
8.054560,-1.1888,1.0248,-0.2564,-7.9573,7.1215,1.2415,-1.9322,-0.9588,6.2376,
8.055161,-1.1888,1.0248,-0.2564,-7.9573,7.1215,1.2415,-1.3954,1.1006,3.1165,
8.055890,-1.1888,1.0248,-0.2564,-13.4169,4.5234,-0.7127,-1.3954,1.1006,3.1165,
8.111437,-1.4435,0.7340,-0.4056,-13.4169,4.5234,-0.7127,-1.3954,1.1006,3.1165,
8.113658,-1.4447,0.6199,-0.6849,-13.4169,4.5234,-0.7127,-1.3954,1.1006,3.1165,
8.115001,-1.0274,1.2343,-1.2340,-13.4169,4.5234,-0.7127,-1.3954,1.1006,3.1165,
8.116151,-1.0274,1.2343,-1.2340,-13.4169,4.5234,-0.7127,-0.3616,-0.6467,-1.3860,
8.117811,-1.0274,1.2343,-1.2340,-16.4413,-0.3801,-7.5438,-0.3616,-0.6467,-1.3860,
8.169702,1.0001,1.6520,-0.4307,-16.4413,-0.3801,-7.5438,-0.3616,-0.6467,-1.3860,
8.172514,2.9722,1.5036,-0.4700,-16.4413,-0.3801,-7.5438,-0.3616,-0.6467,-1.3860,
8.173789,1.2440,1.7856,-0.4405,-16.4413,-0.3801,-7.5438,-0.3616,-0.6467,-1.3860,
8.174936,1.2440,1.7856,-0.4405,-16.4413,-0.3801,-7.5438,-0.7465,-4.3803,-0.6058,
8.176098,1.2440,1.7856,-0.4405,13.5486,7.0520,-3.7848,-0.7465,-4.3803,-0.6058,
8.227531,-0.9903,1.5080,-0.3389,13.5486,7.0520,-3.7848,-0.7465,-4.3803,-0.6058,
8.229304,-0.5272,0.4832,0.3528,13.5486,7.0520,-3.7848,-0.7465,-4.3803,-0.6058,
8.230098,0.1548,0.4341,0.6033,13.5486,7.0520,-3.7848,-0.7465,-4.3803,-0.6058,
8.230779,0.1548,0.4341,0.6033,13.5486,7.0520,-3.7848,-0.4009,0.0874,-3.2360,
8.231523,0.1548,0.4341,0.6033,-6.0684,-1.6432,2.3793,-0.4009,0.0874,-3.2360,
8.285653,0.0186,0.9649,0.0251,-6.0684,-1.6432,2.3793,-0.4009,0.0874,-3.2360,
8.288215,-0.4258,1.2655,-0.2049,-6.0684,-1.6432,2.3793,-0.4009,0.0874,-3.2360,
8.289440,-0.5203,1.1534,-0.1944,-6.0684,-1.6432,2.3793,-0.4009,0.0874,-3.2360,
8.290465,-0.5203,1.1534,-0.1944,-6.0684,-1.6432,2.3793,-0.0114,0.4962,-1.6424,
8.291462,-0.5203,1.1534,-0.1944,-3.6718,1.3539,-0.8799,-0.0114,0.4962,-1.6424,
8.344366,-0.0620,1.0567,-0.1807,-3.6718,1.3539,-0.8799,-0.0114,0.4962,-1.6424,
8.346632,0.2920,1.0521,-0.0620,-3.6718,1.3539,-0.8799,-0.0114,0.4962,-1.6424,
8.349011,0.1594,1.0094,0.1565,-3.6718,1.3539,-0.8799,-0.0114,0.4962,-1.6424,
8.351429,0.1594,1.0094,0.1565,-3.6718,1.3539,-0.8799,-0.1409,-0.2337,-0.6428,
8.353861,0.1594,1.0094,0.1565,0.9820,0.4586,-0.0148,-0.1409,-0.2337,-0.6428,
8.403173,-0.0396,0.9598,0.1436,0.9820,0.4586,-0.0148,-0.1409,-0.2337,-0.6428,
8.406224,0.0388,0.9547,0.0762,0.9820,0.4586,-0.0148,-0.1409,-0.2337,-0.6428,
8.408243,0.1214,0.9701,0.0300,0.9820,0.4586,-0.0148,-0.1409,-0.2337,-0.6428,
8.410539,0.1214,0.9701,0.0300,0.9820,0.4586,-0.0148,0.0342,-0.0930,-0.8937,
8.412391,0.1214,0.9701,0.0300,0.6022,-0.3009,1.0843,0.0342,-0.0930,-0.8937,
8.461166,0.0173,1.0091,0.0259,0.6022,-0.3009,1.0843,0.0342,-0.0930,-0.8937,
8.462706,-0.0247,1.0253,0.0237,0.6022,-0.3009,1.0843,0.0342,-0.0930,-0.8937,
8.463283,0.0557,1.0309,0.0188,0.6022,-0.3009,1.0843,0.0342,-0.0930,-0.8937,
8.463789,0.0557,1.0309,0.0188,0.6022,-0.3009,1.0843,0.1358,-0.0171,-1.1464,
8.464384,0.0557,1.0309,0.0188,0.9985,0.3219,0.5588,0.1358,-0.0171,-1.1464,
8.520411,-0.0349,1.0431,0.0278,0.9985,0.3219,0.5588,0.1358,-0.0171,-1.1464,
8.527156,-0.1262,1.0262,-0.0044,0.9985,0.3219,0.5588,0.1358,-0.0171,-1.1464,
8.529218,-0.1138,0.9625,-0.0347,0.9985,0.3219,0.5588,0.1358,-0.0171,-1.1464,
8.530888,-0.1138,0.9625,-0.0347,0.9985,0.3219,0.5588,0.2751,0.3126,-1.3915,
8.533181,-0.1138,0.9625,-0.0347,0.7057,0.3140,0.4691,0.2751,0.3126,-1.3915,
8.578048,-0.1716,0.9417,-0.0747,0.7057,0.3140,0.4691,0.2751,0.3126,-1.3915,
8.579848,-0.1531,0.9842,-0.1211,0.7057,0.3140,0.4691,0.2751,0.3126,-1.3915,
8.580583,-0.1524,1.0504,-0.1216,0.7057,0.3140,0.4691,0.2751,0.3126,-1.3915,
8.581439,-0.1524,1.0504,-0.1216,0.7057,0.3140,0.4691,0.2724,0.5828,-1.5015,
8.582217,-0.1524,1.0504,-0.1216,0.8421,0.3135,-0.3057,0.2724,0.5828,-1.5015,
8.635924,-0.1726,1.1193,-0.0955,0.8421,0.3135,-0.3057,0.2724,0.5828,-1.5015,
8.639860,-0.0776,1.1876,-0.0664,0.8421,0.3135,-0.3057,0.2724,0.5828,-1.5015,
8.641053,-0.0051,1.2057,-0.0439,0.8421,0.3135,-0.3057,0.2724,0.5828,-1.5015,
8.641829,-0.0051,1.2057,-0.0439,0.8421,0.3135,-0.3057,0.4117,0.0354,-1.7336,
8.642504,-0.0051,1.2057,-0.0439,2.4605,2.3361,0.2799,0.4117,0.0354,-1.7336,
8.694498,0.0188,1.2174,-0.0337,2.4605,2.3361,0.2799,0.4117,0.0354,-1.7336,
8.696305,0.0825,1.3273,-0.0474,2.4605,2.3361,0.2799,0.4117,0.0354,-1.7336,
8.697765,0.3521,1.6584,0.1370,2.4605,2.3361,0.2799,0.4117,0.0354,-1.7336,
8.698995,0.3521,1.6584,0.1370,2.4605,2.3361,0.2799,0.7430,0.2798,-2.2374,
8.700242,0.3521,1.6584,0.1370,5.8160,5.0620,1.5569,0.7430,0.2798,-2.2374,
8.753404,0.8101,1.8246,-0.0005,5.8160,5.0620,1.5569,0.7430,0.2798,-2.2374,
8.758464,1.0389,1.6774,-0.1130,5.8160,5.0620,1.5569,0.7430,0.2798,-2.2374,
8.762236,0.6727,1.3368,-0.0215,5.8160,5.0620,1.5569,0.7430,0.2798,-2.2374,
8.764622,0.6727,1.3368,-0.0215,13.5846,7.9057,1.6235,0.7430,0.2798,-2.2374,
8.773860,0.6727,1.3368,-0.0215,13.5846,7.9057,1.6235,0.6962,1.3024,-2.8637,
8.810976,-0.4087,1.2052,-0.0772,13.5846,7.9057,1.6235,0.6962,1.3024,-2.8637,
8.812857,-1.0790,1.3578,-0.2222,13.5846,7.9057,1.6235,0.6962,1.3024,-2.8637,
8.813539,-0.8219,1.3146,-0.1697,13.5846,7.9057,1.6235,0.6962,1.3024,-2.8637,
8.814176,-0.8219,1.3146,-0.1697,13.5846,7.9057,1.6235,0.8949,2.7736,-4.0961,
8.814764,-0.8219,1.3146,-0.1697,-0.9194,6.2437,1.8550,0.8949,2.7736,-4.0961,
8.868823,-0.4751,0.8082,-0.0972,-0.9194,6.2437,1.8550,0.8949,2.7736,-4.0961,
8.870168,-0.6146,0.4073,-0.1709,-0.9194,6.2437,1.8550,0.8949,2.7736,-4.0961,
8.870800,-0.7547,0.4471,-0.5853,-0.9194,6.2437,1.8550,0.8949,2.7736,-4.0961,
8.871464,-0.7547,0.4471,-0.5853,-0.9194,6.2437,1.8550,0.3647,0.8774,-1.2117,
8.872030,-0.7547,0.4471,-0.5853,0.8356,-0.4298,1.0577,0.3647,0.8774,-1.2117,
8.927712,-0.5247,0.3943,-0.4549,0.8356,-0.4298,1.0577,0.3647,0.8774,-1.2117,
8.929546,-0.3106,0.2451,-0.1477,0.8356,-0.4298,1.0577,0.3647,0.8774,-1.2117,
8.930386,-0.1802,0.1069,-0.1033,0.8356,-0.4298,1.0577,0.3647,0.8774,-1.2117,
8.931090,-0.1802,0.1069,-0.1033,2.9035,-4.2841,0.9521,0.3647,0.8774,-1.2117,
8.932894,-0.1802,0.1069,-0.1033,2.9035,-4.2841,0.9521,-1.3999,-0.1511,1.6742,
8.985857,-0.1580,0.1485,-0.0725,2.9035,-4.2841,0.9521,-1.3999,-0.1511,1.6742,
8.989236,-0.1887,0.3169,-0.1631,2.9035,-4.2841,0.9521,-1.3999,-0.1511,1.6742,
8.991699,-0.1460,0.5206,-0.3011,2.9035,-4.2841,0.9521,-1.3999,-0.1511,1.6742,
8.993749,-0.1460,0.5206,-0.3011,2.9035,-4.2841,0.9521,-1.6976,-0.7717,4.0796,
8.995995,-0.1460,0.5206,-0.3011,2.8877,-4.9814,0.5112,-1.6976,-0.7717,4.0796,
9.044865,-0.0742,0.6556,-0.2073,2.8877,-4.9814,0.5112,-1.6976,-0.7717,4.0796,
9.048263,-0.1038,0.7086,-0.1018,2.8877,-4.9814,0.5112,-1.6976,-0.7717,4.0796,
9.050550,-0.1482,0.8270,-0.1038,2.8877,-4.9814,0.5112,-1.6976,-0.7717,4.0796,
9.052708,-0.1482,0.8270,-0.1038,2.8877,-4.9814,0.5112,-1.8597,-0.0883,5.8208,
9.055622,-0.1482,0.8270,-0.1038,0.4127,-2.2276,-0.0732,-1.8597,-0.0883,5.8208,
9.102327,-0.1326,1.1591,-0.2420,0.4127,-2.2276,-0.0732,-1.8597,-0.0883,5.8208,
9.103884,-0.1196,1.7016,-0.4087,0.4127,-2.2276,-0.0732,-1.8597,-0.0883,5.8208,
9.104924,-0.3074,2.1899,-0.3306,0.4127,-2.2276,-0.0732,-1.8597,-0.0883,5.8208,
9.105938,-0.3074,2.1899,-0.3306,0.4127,-2.2276,-0.0732,-1.7414,0.7997,6.4308,
9.107076,-0.3074,2.1899,-0.3306,-3.8762,7.0334,-2.8743,-1.7414,0.7997,6.4308,
9.163133,-0.8328,2.0026,-0.2940,-3.8762,7.0334,-2.8743,-1.7414,0.7997,6.4308,
9.167545,-1.1144,1.4508,-0.1497,-3.8762,7.0334,-2.8743,-1.7414,0.7997,6.4308,
9.169132,-0.9474,1.1019,-0.2583,-3.8762,7.0334,-2.8743,-1.7414,0.7997,6.4308,
9.170559,-0.9474,1.1019,-0.2583,-13.7539,6.2385,-2.9376,-1.7414,0.7997,6.4308,
9.172931,-0.9474,1.1019,-0.2583,-13.7539,6.2385,-2.9376,-1.6463,0.7960,4.7129,
9.219012,-1.0331,0.9261,-0.4248,-13.7539,6.2385,-2.9376,-1.6463,0.7960,4.7129,
9.220812,-1.2741,0.7376,-0.2947,-13.7539,6.2385,-2.9376,-1.6463,0.7960,4.7129,
9.221669,-1.3820,0.8836,-0.4234,-13.7539,6.2385,-2.9376,-1.6463,0.7960,4.7129,
9.222851,-1.3820,0.8836,-0.4234,-13.7539,6.2385,-2.9376,-0.3686,-1.1574,-0.4019,
9.224072,-1.3820,0.8836,-0.4234,-15.9212,-0.3989,-4.1932,-0.3686,-1.1574,-0.4019,
9.278010,-0.4710,1.7006,-0.6863,-15.9212,-0.3989,-4.1932,-0.3686,-1.1574,-0.4019,
9.280174,2.3142,1.6510,0.3592,-15.9212,-0.3989,-4.1932,-0.3686,-1.1574,-0.4019,
9.281279,3.0755,1.3449,-0.5008,-15.9212,-0.3989,-4.1932,-0.3686,-1.1574,-0.4019,
9.282235,3.0755,1.3449,-0.5008,-15.9212,-0.3989,-4.1932,-0.5651,-3.9295,-0.7961,
9.283868,3.0755,1.3449,-0.5008,12.3551,6.3490,-2.5651,-0.5651,-3.9295,-0.7961,
9.335807,-0.1355,1.5373,-0.6656,12.3551,6.3490,-2.5651,-0.5651,-3.9295,-0.7961,
9.338196,-1.1989,1.0973,-0.0779,12.3551,6.3490,-2.5651,-0.5651,-3.9295,-0.7961,
9.339253,-0.6243,0.5945,0.3838,12.3551,6.3490,-2.5651,-0.5651,-3.9295,-0.7961,
9.340115,-0.6243,0.5945,0.3838,12.3551,6.3490,-2.5651,-0.3284,0.2684,-3.8092,
9.340835,-0.6243,0.5945,0.3838,-7.9013,0.9409,-1.1942,-0.3284,0.2684,-3.8092,
9.395179,-0.0652,0.8748,0.1646,-7.9013,0.9409,-1.1942,-0.3284,0.2684,-3.8092,
9.398056,-0.2273,1.0614,0.0527,-7.9013,0.9409,-1.1942,-0.3284,0.2684,-3.8092,
9.399583,-0.2102,1.1034,-0.0159,-7.9013,0.9409,-1.1942,-0.3284,0.2684,-3.8092,
9.400948,-0.2102,1.1034,-0.0159,-7.9013,0.9409,-1.1942,0.0645,-0.1963,-1.7495,
9.402128,-0.2102,1.1034,-0.0159,-2.1224,0.2152,0.6722,0.0645,-0.1963,-1.7495,
9.453273,0.0337,1.0348,-0.0364,-2.1224,0.2152,0.6722,0.0645,-0.1963,-1.7495,
9.455718,0.2185,1.0209,-0.0664,-2.1224,0.2152,0.6722,0.0645,-0.1963,-1.7495,
9.456978,0.0584,1.0279,0.0054,-2.1224,0.2152,0.6722,0.0645,-0.1963,-1.7495,
9.459075,0.0584,1.0279,0.0054,-2.1224,0.2152,0.6722,0.1091,-0.0075,-1.1851,
9.461900,0.0584,1.0279,0.0054,1.1862,0.3433,-0.2375,0.1091,-0.0075,-1.1851,
9.510925,-0.2805,0.9994,0.0679,1.1862,0.3433,-0.2375,0.1091,-0.0075,-1.1851,
9.512545,-0.2820,0.9757,0.0071,1.1862,0.3433,-0.2375,0.1091,-0.0075,-1.1851,
9.513065,-0.0164,0.9920,-0.0200,1.1862,0.3433,-0.2375,0.1091,-0.0075,-1.1851,
9.513837,-0.0164,0.9920,-0.0200,-1.0572,-0.0034,0.3306,0.1091,-0.0075,-1.1851,
9.514520,-0.0164,0.9920,-0.0200,-1.0572,-0.0034,0.3306,0.1342,-0.0020,-1.1364,
9.570612,0.0674,0.9984,-0.0020,-1.0572,-0.0034,0.3306,0.1342,-0.0020,-1.1364,
9.573698,-0.0911,1.0123,0.0007,-1.0572,-0.0034,0.3306,0.1342,-0.0020,-1.1364,
9.575171,-0.0791,1.0113,0.0068,-1.0572,-0.0034,0.3306,0.1342,-0.0020,-1.1364,
9.577686,-0.0791,1.0113,0.0068,-1.0572,-0.0034,0.3306,0.1348,0.1843,-1.0653,
9.579849,-0.0791,1.0113,0.0068,1.0780,0.2439,0.2539,0.1348,0.1843,-1.0653,
9.628706,-0.0071,1.0365,0.0232,1.0780,0.2439,0.2539,0.1348,0.1843,-1.0653,
9.631745,-0.1008,1.0831,0.0205,1.0780,0.2439,0.2539,0.1348,0.1843,-1.0653,
9.633724,-0.1309,1.0580,-0.0095,1.0780,0.2439,0.2539,0.1348,0.1843,-1.0653,
9.635388,-0.1309,1.0580,-0.0095,1.0780,0.2439,0.2539,0.2073,0.3105,-1.3062,
9.639083,-0.1309,1.0580,-0.0095,1.3340,0.8761,0.4869,0.2073,0.3105,-1.3062,
9.685913,-0.1082,0.9093,-0.0576,1.3340,0.8761,0.4869,0.2073,0.3105,-1.3062,
9.688689,-0.2244,0.7957,-0.0698,1.3340,0.8761,0.4869,0.2073,0.3105,-1.3062,
9.690135,-0.3597,0.8831,-0.0681,1.3340,0.8761,0.4869,0.2073,0.3105,-1.3062,
9.691075,-0.3597,0.8831,-0.0681,1.3340,0.8761,0.4869,0.2486,0.3784,-1.6080,
9.692161,-0.3597,0.8831,-0.0681,0.7113,-0.7897,-0.0699,0.2486,0.3784,-1.6080,
9.744272,-0.3870,1.0802,-0.1170,0.7113,-0.7897,-0.0699,0.2486,0.3784,-1.6080,
9.746137,-0.2163,1.1569,-0.1245,0.7113,-0.7897,-0.0699,0.2486,0.3784,-1.6080,
9.748016,-0.0693,1.1798,-0.0628,0.7113,-0.7897,-0.0699,0.2486,0.3784,-1.6080,
9.749954,-0.0693,1.1798,-0.0628,0.7113,-0.7897,-0.0699,0.2266,0.0560,-1.5593,
9.752998,-0.0693,1.1798,-0.0628,1.5734,2.1966,-0.2900,0.2266,0.0560,-1.5593,
9.804310,-0.0398,1.2225,-0.0205,1.5734,2.1966,-0.2900,0.2266,0.0560,-1.5593,
9.810006,0.0151,1.1908,-0.0149,1.5734,2.1966,-0.2900,0.2266,0.0560,-1.5593,
9.811922,0.0649,1.2347,-0.0784,1.5734,2.1966,-0.2900,0.2266,0.0560,-1.5593,
9.814759,0.0649,1.2347,-0.0784,1.5734,2.1966,-0.2900,0.4628,-0.0045,-2.0602,
9.818406,0.0649,1.2347,-0.0784,4.8669,3.4328,0.5561,0.4628,-0.0045,-2.0602,
9.860619,0.2476,1.5790,-0.0034,4.8669,3.4328,0.5561,0.4628,-0.0045,-2.0602,
9.861910,0.9049,1.9025,-0.0801,4.8669,3.4328,0.5561,0.4628,-0.0045,-2.0602,
9.862650,1.2450,1.7326,-0.3274,4.8669,3.4328,0.5561,0.4628,-0.0045,-2.0602,
9.863449,1.2450,1.7326,-0.3274,4.8669,3.4328,0.5561,0.5836,1.7186,-2.5111,
9.864156,1.2450,1.7326,-0.3274,13.3899,9.2106,0.3911,0.5836,1.7186,-2.5111,
9.919176,0.2996,1.1171,-0.1111,13.3899,9.2106,0.3911,0.5836,1.7186,-2.5111,
9.921002,-0.9417,0.9957,-0.1853,13.3899,9.2106,0.3911,0.5836,1.7186,-2.5111,
9.921854,-1.4967,1.2955,-0.2910,13.3899,9.2106,0.3911,0.5836,1.7186,-2.5111,
9.922682,-1.4967,1.2955,-0.2910,13.3899,9.2106,0.3911,1.0234,3.4704,-3.9224,
9.923564,-1.4967,1.2955,-0.2910,-0.3246,4.7943,1.4628,1.0234,3.4704,-3.9224,
9.977358,-1.3278,1.1615,-0.2486,-0.3246,4.7943,1.4628,1.0234,3.4704,-3.9224,
9.979099,-0.9835,0.6224,-0.1192,-0.3246,4.7943,1.4628,1.0234,3.4704,-3.9224,
9.979857,-0.8905,0.3069,-0.3626,-0.3246,4.7943,1.4628,1.0234,3.4704,-3.9224,
9.980553,-0.8905,0.3069,-0.3626,-0.3246,4.7943,1.4628,0.9285,0.2297,-1.0979,
9.981192,-0.8905,0.3069,-0.3626,-3.3935,1.1070,1.3810,0.9285,0.2297,-1.0979,
10.037257,-0.6844,0.2593,-0.4200,-3.3935,1.1070,1.3810,0.9285,0.2297,-1.0979,
10.040102,-0.1978,0.0320,0.0183,-3.3935,1.1070,1.3810,0.9285,0.2297,-1.0979,
10.042010,0.0349,-0.2766,0.1843,-3.3935,1.1070,1.3810,0.9285,0.2297,-1.0979,
10.043294,0.0349,-0.2766,0.1843,-3.3935,1.1070,1.3810,-0.5093,-1.4659,2.4545,
10.047590,0.0349,-0.2766,0.1843,3.6320,-6.6323,2.2477,-0.5093,-1.4659,2.4545,
10.094601,-0.0283,-0.1824,0.0588,3.6320,-6.6323,2.2477,-0.5093,-1.4659,2.4545,
10.096663,-0.2190,0.1558,-0.3245,3.6320,-6.6323,2.2477,-0.5093,-1.4659,2.4545,
10.097712,-0.4036,0.4908,-0.4346,3.6320,-6.6323,2.2477,-0.5093,-1.4659,2.4545,
10.099652,-0.4036,0.4908,-0.4346,2.5344,-6.4609,0.3163,-0.5093,-1.4659,2.4545,
10.100936,-0.4036,0.4908,-0.4346,2.5344,-6.4609,0.3163,0.2791,-1.4351,4.4423,
10.152175,-0.4143,0.5252,-0.1231,2.5344,-6.4609,0.3163,0.2791,-1.4351,4.4423,
10.153661,-0.5655,0.5599,-0.3079,2.5344,-6.4609,0.3163,0.2791,-1.4351,4.4423,
10.154556,-0.8714,0.8397,-0.4490,2.5344,-6.4609,0.3163,0.2791,-1.4351,4.4423,
10.155555,-0.8714,0.8397,-0.4490,2.5344,-6.4609,0.3163,0.9004,-3.4677,6.0967,
10.156529,-0.8714,0.8397,-0.4490,-3.8835,-2.7246,-0.4836,0.9004,-3.4677,6.0967,
10.211213,-1.1539,1.2660,-0.3794,-3.8835,-2.7246,-0.4836,0.9004,-3.4677,6.0967,
10.213746,-1.0687,1.3593,-0.5247,-3.8835,-2.7246,-0.4836,0.9004,-3.4677,6.0967,
10.214565,-0.6119,1.4696,-0.4339,-3.8835,-2.7246,-0.4836,0.9004,-3.4677,6.0967,
10.215608,-0.6119,1.4696,-0.4339,-3.8835,-2.7246,-0.4836,1.9250,-8.7411,6.8725,
10.216800,-0.6119,1.4696,-0.4339,-9.2750,4.2219,-1.3521,1.9250,-8.7411,6.8725,
10.271190,-0.6119,1.4696,-0.4339,0.1997,4.7045,6.3275,1.9250,-8.7411,6.8725,
10.274201,-0.2556,1.5871,-0.0977,0.1997,4.7045,6.3275,1.9250,-8.7411,6.8725,
10.275987,0.0530,1.4940,0.2613,0.1997,4.7045,6.3275,1.9250,-8.7411,6.8725,
10.278478,0.2693,1.1132,0.6893,0.1997,4.7045,6.3275,1.9250,-8.7411,6.8725,
10.280341,0.2693,1.1132,0.6893,0.1997,4.7045,6.3275,0.9607,-10.2883,3.8510,
10.328326,0.0957,0.8111,0.7486,0.1997,4.7045,6.3275,0.9607,-10.2883,3.8510,
10.330700,-0.4632,1.3888,0.3221,0.1997,4.7045,6.3275,0.9607,-10.2883,3.8510,
10.332902,-0.0161,1.2570,1.3485,0.1997,4.7045,6.3275,0.9607,-10.2883,3.8510,
10.335079,-0.0161,1.2570,1.3485,-0.7163,2.1639,10.9642,0.9607,-10.2883,3.8510,
10.337402,-0.0161,1.2570,1.3485,-0.7163,2.1639,10.9642,-0.5302,-2.6628,0.0159,
10.385957,0.3311,0.9459,0.5567,-0.7163,2.1639,10.9642,-0.5302,-2.6628,0.0159,
10.387906,-0.0376,1.0668,-0.4339,-0.7163,2.1639,10.9642,-0.5302,-2.6628,0.0159,
10.388835,-0.5413,1.2374,-0.9405,-0.7163,2.1639,10.9642,-0.5302,-2.6628,0.0159,
10.389717,-0.5413,1.2374,-0.9405,-0.7163,2.1639,10.9642,-0.6040,0.7265,-0.8456,
10.391438,-0.5413,1.2374,-0.9405,0.0601,1.3988,0.1013,-0.6040,0.7265,-0.8456,
10.444464,-0.6307,1.3649,-0.6566,0.0601,1.3988,0.1013,-0.6040,0.7265,-0.8456,
10.446566,-0.1206,1.1739,-0.4939,0.0601,1.3988,0.1013,-0.6040,0.7265,-0.8456,
10.447703,0.2190,0.9898,-0.2766,0.0601,1.3988,0.1013,-0.6040,0.7265,-0.8456,
10.448535,0.2190,0.9898,-0.2766,0.0601,1.3988,0.1013,-0.5201,-1.4819,0.0277,
10.449269,0.2190,0.9898,-0.2766,-0.6529,2.1903,-2.2201,-0.5201,-1.4819,0.0277,
10.503274,0.1321,0.9349,0.0698,-0.6529,2.1903,-2.2201,-0.5201,-1.4819,0.0277,
10.506344,-0.0955,0.9532,0.1143,-0.6529,2.1903,-2.2201,-0.5201,-1.4819,0.0277,
10.509554,-0.2415,0.9757,-0.0762,-0.6529,2.1903,-2.2201,-0.5201,-1.4819,0.0277,
10.511255,-0.2415,0.9757,-0.0762,-0.6529,2.1903,-2.2201,-0.2745,-0.8884,-0.1126,
10.513540,-0.2415,0.9757,-0.0762,0.5892,-0.0109,2.5412,-0.2745,-0.8884,-0.1126,
10.561152,-0.3272,1.0025,-0.2632,0.5892,-0.0109,2.5412,-0.2745,-0.8884,-0.1126,
10.563283,-0.3418,0.9667,-0.3338,0.5892,-0.0109,2.5412,-0.2745,-0.8884,-0.1126,
10.564046,-0.3531,0.9439,-0.3243,0.5892,-0.0109,2.5412,-0.2745,-0.8884,-0.1126,
10.564922,-0.3531,0.9439,-0.3243,0.5892,-0.0109,2.5412,0.0623,0.0010,0.0788,
10.565582,-0.3531,0.9439,-0.3243,-2.0884,0.1499,-0.7737,0.0623,0.0010,0.0788,
10.619502,-0.3025,0.9962,-0.2376,-2.0884,0.1499,-0.7737,0.0623,0.0010,0.0788,
10.621466,-0.1445,1.0126,-0.1773,-2.0884,0.1499,-0.7737,0.0623,0.0010,0.0788,
10.622301,0.0830,0.8990,-0.1748,-2.0884,0.1499,-0.7737,0.0623,0.0010,0.0788,
10.622968,0.0830,0.8990,-0.1748,-2.0884,0.1499,-0.7737,-0.0163,-0.5349,0.6514,
10.624236,0.0830,0.8990,-0.1748,-0.2228,0.0867,0.2616,-0.0163,-0.5349,0.6514,
10.679451,0.1743,0.8753,-0.1992,-0.2228,0.0867,0.2616,-0.0163,-0.5349,0.6514,
10.681601,0.0642,0.9752,-0.1785,-0.2228,0.0867,0.2616,-0.0163,-0.5349,0.6514,
10.682633,-0.1143,0.9818,-0.1944,-0.2228,0.0867,0.2616,-0.0163,-0.5349,0.6514,
10.683483,-0.1143,0.9818,-0.1944,-0.2228,0.0867,0.2616,0.0765,-0.3048,0.1988,
10.684372,-0.1143,0.9818,-0.1944,1.2806,-0.1580,0.3390,0.0765,-0.3048,0.1988,
10.737696,-0.1257,0.9776,-0.1477,1.2806,-0.1580,0.3390,0.0765,-0.3048,0.1988,
10.741075,-0.0254,0.9967,-0.0933,1.2806,-0.1580,0.3390,0.0765,-0.3048,0.1988,
10.743337,0.0664,0.9642,-0.1218,1.2806,-0.1580,0.3390,0.0765,-0.3048,0.1988,
10.746062,0.0664,0.9642,-0.1218,1.2806,-0.1580,0.3390,0.3115,-0.5791,-0.0814,
10.749046,0.0664,0.9642,-0.1218,0.7072,0.2310,1.1426,0.3115,-0.5791,-0.0814,
10.795461,-0.0515,0.9444,-0.1856,0.7072,0.2310,1.1426,0.3115,-0.5791,-0.0814,
10.799614,-0.2476,0.9623,-0.1846,0.7072,0.2310,1.1426,0.3115,-0.5791,-0.0814,
10.801897,-0.2876,0.9652,-0.2161,0.7072,0.2310,1.1426,0.3115,-0.5791,-0.0814,
10.803743,-0.2876,0.9652,-0.2161,0.7072,0.2310,1.1426,0.5777,-0.3364,-0.3221,
10.805417,-0.2876,0.9652,-0.2161,-0.6979,0.1153,0.6939,0.5777,-0.3364,-0.3221,
10.852719,-0.2490,0.9715,-0.2451,-0.6979,0.1153,0.6939,0.5777,-0.3364,-0.3221,
10.854671,-0.1814,0.9955,-0.2603,-0.6979,0.1153,0.6939,0.5777,-0.3364,-0.3221,
10.855209,-0.0732,1.0030,-0.2642,-0.6979,0.1153,0.6939,0.5777,-0.3364,-0.3221,
10.855854,-0.0732,1.0030,-0.2642,-0.6979,0.1153,0.6939,0.7489,-0.0861,0.0338,
10.856614,-0.0732,1.0030,-0.2642,-0.4239,0.5468,0.4827,0.7489,-0.0861,0.0338,
10.911799,-0.0083,1.0240,-0.2871,-0.4239,0.5468,0.4827,0.7489,-0.0861,0.0338,
10.914352,0.0210,1.0792,-0.2898,-0.4239,0.5468,0.4827,0.7489,-0.0861,0.0338,
10.915538,0.0164,1.0668,-0.3286,-0.4239,0.5468,0.4827,0.7489,-0.0861,0.0338,
10.916820,0.0164,1.0668,-0.3286,-0.4239,0.5468,0.4827,1.0983,0.0253,-0.0020,
10.918389,0.0164,1.0668,-0.3286,1.2904,1.3874,0.6101,1.0983,0.0253,-0.0020,
10.969724,0.0269,1.0594,-0.2991,1.2904,1.3874,0.6101,1.0983,0.0253,-0.0020,
10.971925,0.1538,1.1774,-0.2285,1.2904,1.3874,0.6101,1.0983,0.0253,-0.0020,
10.973134,0.2891,1.4828,-0.1380,1.2904,1.3874,0.6101,1.0983,0.0253,-0.0020,
10.974203,0.2891,1.4828,-0.1380,2.9546,3.5448,2.1923,1.0983,0.0253,-0.0020,
10.975700,0.2891,1.4828,-0.1380,2.9546,3.5448,2.1923,1.7196,-0.5632,-0.2781,
11.027323,0.4334,1.7050,-0.0295,2.9546,3.5448,2.1923,1.7196,-0.5632,-0.2781,
11.028637,0.3716,1.5966,0.0361,2.9546,3.5448,2.1923,1.7196,-0.5632,-0.2781,
11.029354,0.0483,1.4752,0.3111,2.9546,3.5448,2.1923,1.7196,-0.5632,-0.2781,
11.030065,0.0483,1.4752,0.3111,4.9524,7.6186,6.2573,1.7196,-0.5632,-0.2781,
11.030768,0.0483,1.4752,0.3111,4.9524,7.6186,6.2573,2.3744,-1.7137,-0.7067,
11.085772,-0.3684,1.3605,0.4444,4.9524,7.6186,6.2573,2.3744,-1.7137,-0.7067,
11.087517,-0.9027,1.4252,0.2053,4.9524,7.6186,6.2573,2.3744,-1.7137,-0.7067,
11.088104,-1.0863,1.3988,-0.0286,4.9524,7.6186,6.2573,2.3744,-1.7137,-0.7067,
11.088606,-1.0863,1.3988,-0.0286,4.9524,7.6186,6.2573,2.1680,-3.1620,-1.3956,
11.089198,-1.0863,1.3988,-0.0286,-3.8462,6.5090,7.5264,2.1680,-3.1620,-1.3956,
11.144025,-0.7901,1.1605,-0.3599,-3.8462,6.5090,7.5264,2.1680,-3.1620,-1.3956,
11.146764,-0.4971,1.1290,-0.4859,-3.8462,6.5090,7.5264,2.1680,-3.1620,-1.3956,
11.147523,-0.1419,1.0143,-0.3052,-3.8462,6.5090,7.5264,2.1680,-3.1620,-1.3956,
11.148172,-0.1419,1.0143,-0.3052,0.7809,4.0381,0.8949,2.1680,-3.1620,-1.3956,
11.148662,-0.1419,1.0143,-0.3052,0.7809,4.0381,0.8949,1.3559,-4.9861,-0.2545,
11.201951,0.1638,0.6480,0.0806,0.7809,4.0381,0.8949,1.3559,-4.9861,-0.2545,
11.203141,0.0772,0.4856,0.2710,0.7809,4.0381,0.8949,1.3559,-4.9861,-0.2545,
11.203701,-0.0496,0.4778,0.1614,0.7809,4.0381,0.8949,1.3559,-4.9861,-0.2545,
11.204125,-0.0496,0.4778,0.1614,0.7809,4.0381,0.8949,0.0959,-4.0598,1.5915,
11.204744,-0.0496,0.4778,0.1614,6.2784,-1.9602,4.9296,0.0959,-4.0598,1.5915,
11.260428,-0.1155,0.5477,0.1143,6.2784,-1.9602,4.9296,0.0959,-4.0598,1.5915,
11.261451,-0.1116,0.5767,0.0327,6.2784,-1.9602,4.9296,0.0959,-4.0598,1.5915,
11.262136,-0.1111,0.5823,-0.0439,6.2784,-1.9602,4.9296,0.0959,-4.0598,1.5915,
11.262627,-0.1111,0.5823,-0.0439,6.2784,-1.9602,4.9296,-0.2751,-1.4394,3.4132,
11.263488,-0.1111,0.5823,-0.0439,3.1985,-2.6600,2.9668,-0.2751,-1.4394,3.4132,
11.319152,-0.1179,0.6514,-0.1004,3.1985,-2.6600,2.9668,-0.2751,-1.4394,3.4132,
11.320227,-0.1919,0.7711,-0.1358,3.1985,-2.6600,2.9668,-0.2751,-1.4394,3.4132,
11.320983,-0.2454,0.9449,-0.1199,3.1985,-2.6600,2.9668,-0.2751,-1.4394,3.4132,
11.321551,-0.2454,0.9449,-0.1199,3.1985,-2.6600,2.9668,-0.8129,0.1497,4.9737,
11.322596,-0.2454,0.9449,-0.1199,-0.0789,-1.4785,1.0387,-0.8129,0.1497,4.9737,
11.377873,-0.3089,1.1232,-0.1179,-0.0789,-1.4785,1.0387,-0.8129,0.1497,4.9737,
11.379120,-0.5003,1.3793,-0.2215,-0.0789,-1.4785,1.0387,-0.8129,0.1497,4.9737,
11.379832,-0.7281,1.6047,-0.3050,-0.0789,-1.4785,1.0387,-0.8129,0.1497,4.9737,
11.380399,-0.7281,1.6047,-0.3050,-0.0789,-1.4785,1.0387,-1.6569,-0.3748,6.0456,
11.381851,-0.7281,1.6047,-0.3050,-6.4589,3.9349,-0.7946,-1.6569,-0.3748,6.0456,
11.435630,-0.8311,1.6007,-0.2517,-6.4589,3.9349,-0.7946,-1.6569,-0.3748,6.0456,
11.437497,-0.8951,1.5561,-0.0518,-6.4589,3.9349,-0.7946,-1.6569,-0.3748,6.0456,
11.438599,-0.9330,1.4643,0.0662,-6.4589,3.9349,-0.7946,-1.6569,-0.3748,6.0456,
11.439568,-0.9330,1.4643,0.0662,-6.4589,3.9349,-0.7946,-1.5720,-0.9709,5.5062,
11.440453,-0.9330,1.4643,0.0662,-12.7906,6.3510,-0.1266,-1.5720,-0.9709,5.5062,
11.493977,-1.0941,1.1810,-0.1546,-12.7906,6.3510,-0.1266,-1.5720,-0.9709,5.5062,
11.495602,-1.2626,0.8045,-0.3572,-12.7906,6.3510,-0.1266,-1.5720,-0.9709,5.5062,
11.496524,-1.3668,0.7447,-0.4751,-12.7906,6.3510,-0.1266,-1.5720,-0.9709,5.5062,
11.497311,-1.3668,0.7447,-0.4751,-12.7906,6.3510,-0.1266,-0.8395,-0.7705,0.6873,
11.498185,-1.3668,0.7447,-0.4751,-16.3152,0.3148,-2.7488,-0.8395,-0.7705,0.6873,
11.552185,-0.7686,1.4936,-1.1896,-16.3152,0.3148,-2.7488,-0.8395,-0.7705,0.6873,
11.553825,1.7367,1.8757,-0.0845,-16.3152,0.3148,-2.7488,-0.8395,-0.7705,0.6873,
11.554582,2.8531,1.6545,-0.3416,-16.3152,0.3148,-2.7488,-0.8395,-0.7705,0.6873,
11.555356,2.8531,1.6545,-0.3416,-16.3152,0.3148,-2.7488,-0.5842,-2.6797,-0.8326,
11.556165,2.8531,1.6545,-0.3416,8.7024,7.4714,-4.4083,-0.5842,-2.6797,-0.8326,
11.610790,-0.3098,1.3624,-0.5208,8.7024,7.4714,-4.4083,-0.5842,-2.6797,-0.8326,
11.612481,-1.1268,0.8868,-0.3855,8.7024,7.4714,-4.4083,-0.5842,-2.6797,-0.8326,
11.613231,-0.7135,0.5184,0.6883,8.7024,7.4714,-4.4083,-0.5842,-2.6797,-0.8326,
11.613867,-0.7135,0.5184,0.6883,8.7024,7.4714,-4.4083,-0.5068,-0.7656,-3.6037,
11.614578,-0.7135,0.5184,0.6883,-8.6675,-0.5003,0.0323,-0.5068,-0.7656,-3.6037,
11.668869,0.0198,0.7191,0.5787,-8.6675,-0.5003,0.0323,-0.5068,-0.7656,-3.6037,
11.670309,0.3792,1.0836,-0.0767,-8.6675,-0.5003,0.0323,-0.5068,-0.7656,-3.6037,
11.671011,-0.1306,1.2294,-0.3072,-8.6675,-0.5003,0.0323,-0.5068,-0.7656,-3.6037,
11.671725,-0.1306,1.2294,-0.3072,-8.6675,-0.5003,0.0323,-0.0835,0.1607,-1.4040,
11.673183,-0.1306,1.2294,-0.3072,0.0123,0.2533,1.3050,-0.0835,0.1607,-1.4040,
11.727286,-0.3081,1.1322,-0.1765,0.0123,0.2533,1.3050,-0.0835,0.1607,-1.4040,
11.728732,0.0173,1.0040,-0.1082,0.0123,0.2533,1.3050,-0.0835,0.1607,-1.4040,
11.729274,0.1572,0.9625,0.0076,0.0123,0.2533,1.3050,-0.0835,0.1607,-1.4040,
11.730537,0.1572,0.9625,0.0076,0.0123,0.2533,1.3050,-0.0324,-0.1873,-1.0926,
11.731518,0.1572,0.9625,0.0076,-0.6657,0.4273,-0.2460,-0.0324,-0.1873,-1.0926,
11.785477,0.0884,1.0077,0.0930,-0.6657,0.4273,-0.2460,-0.0324,-0.1873,-1.0926,
11.787050,0.0393,0.9840,0.0291,-0.6657,0.4273,-0.2460,-0.0324,-0.1873,-1.0926,
11.787835,-0.0261,0.9728,-0.0427,-0.6657,0.4273,-0.2460,-0.0324,-0.1873,-1.0926,
11.789135,-0.0261,0.9728,-0.0427,-0.6657,0.4273,-0.2460,0.1004,-0.2205,-1.1586,
11.789855,-0.0261,0.9728,-0.0427,0.7541,-0.0004,0.9577,0.1004,-0.2205,-1.1586,
11.844401,-0.0261,0.9728,-0.0427,-0.2014,0.2812,-0.0306,0.1004,-0.2205,-1.1586,
11.845622,-0.1018,0.9879,-0.0901,-0.2014,0.2812,-0.0306,0.1004,-0.2205,-1.1586,
11.846196,-0.1524,1.0150,-0.0925,-0.2014,0.2812,-0.0306,0.1004,-0.2205,-1.1586,
11.846729,-0.1453,1.0306,-0.0693,-0.2014,0.2812,-0.0306,0.1004,-0.2205,-1.1586,
11.847247,-0.1453,1.0306,-0.0693,-0.2014,0.2812,-0.0306,0.1460,0.2218,-1.2207,
11.902044,-0.1052,1.0387,-0.0286,-0.2014,0.2812,-0.0306,0.1460,0.2218,-1.2207,
11.902990,-0.0908,1.0067,-0.0217,-0.2014,0.2812,-0.0306,0.1460,0.2218,-1.2207,
11.903646,-0.1040,0.9620,-0.0193,-0.2014,0.2812,-0.0306,0.1460,0.2218,-1.2207,
11.904170,-0.1040,0.9620,-0.0193,-0.2014,0.2812,-0.0306,0.2368,0.2028,-1.1887,
11.905553,-0.1040,0.9620,-0.0193,0.7640,0.3019,0.7024,0.2368,0.2028,-1.1887,
11.961194,-0.1616,0.9532,-0.0322,0.7640,0.3019,0.7024,0.2368,0.2028,-1.1887,
11.962796,-0.1782,0.9786,-0.0679,0.7640,0.3019,0.7024,0.2368,0.2028,-1.1887,
11.964074,-0.1919,1.0184,-0.1321,0.7640,0.3019,0.7024,0.2368,0.2028,-1.1887,
11.964827,-0.1919,1.0184,-0.1321,0.7640,0.3019,0.7024,0.2830,0.3529,-1.3807,
11.965678,-0.1919,1.0184,-0.1321,0.7331,0.2975,0.3646,0.2830,0.3529,-1.3807,
12.019194,-0.1814,1.0714,-0.1963,0.7331,0.2975,0.3646,0.2830,0.3529,-1.3807,
12.020936,-0.1375,1.1608,-0.1392,0.7331,0.2975,0.3646,0.2830,0.3529,-1.3807,
12.021595,-0.1235,1.2174,-0.1233,0.7331,0.2975,0.3646,0.2830,0.3529,-1.3807,
12.022123,-0.1235,1.2174,-0.1233,0.7331,0.2975,0.3646,0.3899,0.0023,-1.5831,
12.023906,-0.1235,1.2174,-0.1233,1.8433,2.1869,-0.1648,0.3899,0.0023,-1.5831,
12.078202,-0.1133,1.2159,-0.1294,1.8433,2.1869,-0.1648,0.3899,0.0023,-1.5831,
12.080706,-0.0461,1.1866,-0.1624,1.8433,2.1869,-0.1648,0.3899,0.0023,-1.5831,
12.082053,0.0371,1.2577,-0.1751,1.8433,2.1869,-0.1648,0.3899,0.0023,-1.5831,
12.083543,0.0371,1.2577,-0.1751,3.8248,3.2967,0.0975,0.3899,0.0023,-1.5831,
12.085421,0.0371,1.2577,-0.1751,3.8248,3.2967,0.0975,0.6373,-0.1724,-1.9067,
12.135423,0.2022,1.5758,-0.1218,3.8248,3.2967,0.0975,0.6373,-0.1724,-1.9067,
12.137044,0.6600,1.8996,0.0242,3.8248,3.2967,0.0975,0.6373,-0.1724,-1.9067,
12.137928,1.1801,1.7177,0.0481,3.8248,3.2967,0.0975,0.6373,-0.1724,-1.9067,
12.138838,1.1801,1.7177,0.0481,3.8248,3.2967,0.0975,0.8426,0.2319,-2.0097,
12.139908,1.1801,1.7177,0.0481,11.6511,8.7982,1.9038,0.8426,0.2319,-2.0097,
12.193975,0.6712,1.2609,0.1751,11.6511,8.7982,1.9038,0.8426,0.2319,-2.0097,
12.195431,-0.4466,1.2465,0.0146,11.6511,8.7982,1.9038,0.8426,0.2319,-2.0097,
12.196150,-0.9972,1.4682,-0.1636,11.6511,8.7982,1.9038,0.8426,0.2319,-2.0097,
12.196943,-0.9972,1.4682,-0.1636,11.6511,8.7982,1.9038,0.6233,1.6838,-3.7218,
12.197745,-0.9972,1.4682,-0.1636,3.7790,6.0460,2.9434,0.6233,1.6838,-3.7218,
12.253136,-0.8304,1.3554,-0.0967,3.7790,6.0460,2.9434,0.6233,1.6838,-3.7218,
12.255393,-0.6654,0.8961,-0.1961,3.7790,6.0460,2.9434,0.6233,1.6838,-3.7218,
12.256399,-0.5965,0.6805,-0.1760,3.7790,6.0460,2.9434,0.6233,1.6838,-3.7218,
12.257454,-0.5965,0.6805,-0.1760,3.7790,6.0460,2.9434,0.7638,0.7939,-2.2461,
12.259286,-0.5965,0.6805,-0.1760,0.1658,3.5907,1.8861,0.7638,0.7939,-2.2461,
12.312092,-0.4478,0.4634,-0.2805,0.1658,3.5907,1.8861,0.7638,0.7939,-2.2461,
12.315112,-0.3357,0.3653,-0.0427,0.1658,3.5907,1.8861,0.7638,0.7939,-2.2461,
12.317289,-0.3169,0.2110,0.0701,0.1658,3.5907,1.8861,0.7638,0.7939,-2.2461,
12.319420,-0.3169,0.2110,0.0701,0.1658,3.5907,1.8861,-0.4710,-0.1761,0.9391,
12.322140,-0.3169,0.2110,0.0701,3.0464,-3.0057,2.3112,-0.4710,-0.1761,0.9391,
12.373355,-0.2744,0.2080,0.0027,3.0464,-3.0057,2.3112,-0.4710,-0.1761,0.9391,
12.378765,-0.2395,0.2478,-0.0762,3.0464,-3.0057,2.3112,-0.4710,-0.1761,0.9391,
12.381744,-0.2056,0.3528,-0.1768,3.0464,-3.0057,2.3112,-0.4710,-0.1761,0.9391,
12.384258,-0.2056,0.3528,-0.1768,3.0464,-3.0057,2.3112,-0.7318,-0.6587,3.4582,
12.388840,-0.2056,0.3528,-0.1768,2.9184,-5.0105,1.7586,-0.7318,-0.6587,3.4582,
12.432087,-0.2056,0.3528,-0.1768,0.3983,-3.2882,0.6837,-0.7318,-0.6587,3.4582,
12.435391,-0.1875,0.4983,-0.2415,0.3983,-3.2882,0.6837,-0.7318,-0.6587,3.4582,
12.437013,-0.2415,0.5789,-0.0908,0.3983,-3.2882,0.6837,-0.7318,-0.6587,3.4582,
12.437930,-0.2832,0.6759,-0.0034,0.3983,-3.2882,0.6837,-0.7318,-0.6587,3.4582,
12.438921,-0.2832,0.6759,-0.0034,0.3983,-3.2882,0.6837,-1.3101,-0.5756,5.3123,
12.485589,-0.2298,0.8614,-0.0742,0.3983,-3.2882,0.6837,-1.3101,-0.5756,5.3123,
12.487734,-0.1843,1.1881,-0.1277,0.3983,-3.2882,0.6837,-1.3101,-0.5756,5.3123,
12.488531,-0.2578,1.7331,-0.2212,0.3983,-3.2882,0.6837,-1.3101,-0.5756,5.3123,
12.489215,-0.2578,1.7331,-0.2212,0.3983,-3.2882,0.6837,-1.4832,-0.2738,6.5903,
12.490016,-0.2578,1.7331,-0.2212,-3.0001,2.8100,-0.4268,-1.4832,-0.2738,6.5903,
12.544319,-0.4939,2.0664,-0.2910,-3.0001,2.8100,-0.4268,-1.4832,-0.2738,6.5903,
12.546234,-0.7364,1.9482,-0.0942,-3.0001,2.8100,-0.4268,-1.4832,-0.2738,6.5903,
12.547296,-0.8700,1.5849,0.0044,-3.0001,2.8100,-0.4268,-1.4832,-0.2738,6.5903,
12.548176,-0.8700,1.5849,0.0044,-3.0001,2.8100,-0.4268,-1.4999,1.0424,5.9065,
12.548949,-0.8700,1.5849,0.0044,-10.6938,9.3814,-1.2462,-1.4999,1.0424,5.9065,
12.602355,-0.9996,1.3241,-0.4676,-10.6938,9.3814,-1.2462,-1.4999,1.0424,5.9065,
12.604319,-1.2387,0.8331,-0.4781,-10.6938,9.3814,-1.2462,-1.4999,1.0424,5.9065,
12.605268,-1.4684,0.5584,-0.4949,-10.6938,9.3814,-1.2462,-1.4999,1.0424,5.9065,
12.608008,-1.4684,0.5584,-0.4949,-16.1926,0.2200,-5.1748,-1.4999,1.0424,5.9065,
12.609399,-1.4684,0.5584,-0.4949,-16.1926,0.2200,-5.1748,-0.6512,0.8923,1.0574,
12.660762,-1.3852,1.0885,-0.8546,-16.1926,0.2200,-5.1748,-0.6512,0.8923,1.0574,
12.663516,0.5071,1.7367,-0.0935,-16.1926,0.2200,-5.1748,-0.6512,0.8923,1.0574,
12.664432,2.8526,1.7975,0.4627,-16.1926,0.2200,-5.1748,-0.6512,0.8923,1.0574,
12.665449,2.8526,1.7975,0.4627,-16.1926,0.2200,-5.1748,-0.4740,-1.8027,-1.4657,
12.667137,2.8526,1.7975,0.4627,3.0239,6.0406,-1.8707,-0.4740,-1.8027,-1.4657,
12.721043,1.0067,1.7067,-0.1406,3.0239,6.0406,-1.8707,-0.4740,-1.8027,-1.4657,
12.724156,-1.1649,1.2887,-1.0897,3.0239,6.0406,-1.8707,-0.4740,-1.8027,-1.4657,
12.726374,-0.4922,0.4090,0.5911,3.0239,6.0406,-1.8707,-0.4740,-1.8027,-1.4657,
12.728449,-0.4922,0.4090,0.5911,3.0239,6.0406,-1.8707,0.1008,-0.8697,-3.4029,
12.731285,-0.4922,0.4090,0.5911,-3.6464,1.5348,-2.1404,0.1008,-0.8697,-3.4029,
12.777485,-0.1057,0.6336,0.2288,-3.6464,1.5348,-2.1404,0.1008,-0.8697,-3.4029,
12.779990,-0.1580,1.0787,0.1533,-3.6464,1.5348,-2.1404,0.1008,-0.8697,-3.4029,
12.781287,-0.4361,1.2262,-0.0637,-3.6464,1.5348,-2.1404,0.1008,-0.8697,-3.4029,
12.783418,-0.4361,1.2262,-0.0637,-3.6464,1.5348,-2.1404,0.0672,0.0157,-2.0625,
12.784134,-0.4361,1.2262,-0.0637,-2.6022,-0.0988,1.0127,0.0672,0.0157,-2.0625,
12.835658,-0.3411,1.0675,-0.1348,-2.6022,-0.0988,1.0127,0.0672,0.0157,-2.0625,
12.837518,-0.0706,1.0206,-0.1021,-2.6022,-0.0988,1.0127,0.0672,0.0157,-2.0625,
12.838259,0.0618,1.0143,-0.0354,-2.6022,-0.0988,1.0127,0.0672,0.0157,-2.0625,
12.838876,0.0618,1.0143,-0.0354,-2.6022,-0.0988,1.0127,0.0869,-0.0896,-1.0625,
12.839517,0.0618,1.0143,-0.0354,-0.8438,0.4281,-0.8535,0.0869,-0.0896,-1.0625,
12.894906,-0.0122,1.0218,0.1218,-0.8438,0.4281,-0.8535,0.0869,-0.0896,-1.0625,
12.897654,-0.0757,1.0116,0.1255,-0.8438,0.4281,-0.8535,0.0869,-0.0896,-1.0625,
12.898844,-0.0549,1.0008,0.0249,-0.8438,0.4281,-0.8535,0.0869,-0.0896,-1.0625,
12.900009,-0.0549,1.0008,0.0249,-0.8438,0.4281,-0.8535,0.0951,-0.0983,-0.9721,
12.901287,-0.0549,1.0008,0.0249,0.3760,0.2345,0.9593,0.0951,-0.0983,-0.9721,
12.952171,-0.0347,0.9945,-0.0557,0.3760,0.2345,0.9593,0.0951,-0.0983,-0.9721,
12.953743,-0.0518,1.0150,-0.0247,0.3760,0.2345,0.9593,0.0951,-0.0983,-0.9721,
12.954200,-0.1192,1.0011,0.0298,0.3760,0.2345,0.9593,0.0951,-0.0983,-0.9721,
12.954632,-0.1192,1.0011,0.0298,0.3760,0.2345,0.9593,0.1535,0.2484,-1.0617,
12.955317,-0.1192,1.0011,0.0298,0.7541,0.2252,0.0086,0.1535,0.2484,-1.0617,
13.011510,-0.1619,1.0082,0.0501,0.7541,0.2252,0.0086,0.1535,0.2484,-1.0617,
13.012635,-0.2078,1.0152,0.0173,0.7541,0.2252,0.0086,0.1535,0.2484,-1.0617,
13.013114,-0.2237,0.9835,-0.0107,0.7541,0.2252,0.0086,0.1535,0.2484,-1.0617,
13.013627,-0.2237,0.9835,-0.0107,0.1279,0.3289,0.4940,0.1535,0.2484,-1.0617,
13.014641,-0.2237,0.9835,-0.0107,0.1279,0.3289,0.4940,0.2052,0.2865,-1.1606,
13.069026,-0.1770,0.9496,-0.0112,0.1279,0.3289,0.4940,0.2052,0.2865,-1.1606,
13.071189,-0.1238,0.9608,-0.0544,0.1279,0.3289,0.4940,0.2052,0.2865,-1.1606,
13.072128,-0.0645,0.9815,-0.0925,0.1279,0.3289,0.4940,0.2052,0.2865,-1.1606,
13.072837,-0.0645,0.9815,-0.0925,1.5020,0.1233,-0.0662,0.2052,0.2865,-1.1606,
13.073698,-0.0645,0.9815,-0.0925,1.5020,0.1233,-0.0662,0.1525,0.4048,-1.2091,
13.130390,-0.0718,1.0148,-0.1035,1.5020,0.1233,-0.0662,0.1525,0.4048,-1.2091,
13.132932,-0.1450,1.1097,-0.0828,1.5020,0.1233,-0.0662,0.1525,0.4048,-1.2091,
13.135258,-0.1611,1.2282,-0.0161,1.5020,0.1233,-0.0662,0.1525,0.4048,-1.2091,
13.137481,-0.1611,1.2282,-0.0161,1.5020,0.1233,-0.0662,0.2364,0.1529,-1.7682,
13.139655,-0.1611,1.2282,-0.0161,2.3611,1.9297,-0.0564,0.2364,0.1529,-1.7682,
13.185314,0.0066,1.2894,0.0122,2.3611,1.9297,-0.0564,0.2364,0.1529,-1.7682,
13.186958,0.1880,1.4232,0.0134,2.3611,1.9297,-0.0564,0.2364,0.1529,-1.7682,
13.187824,0.3514,1.6952,0.0078,2.3611,1.9297,-0.0564,0.2364,0.1529,-1.7682,
13.188688,0.3514,1.6952,0.0078,2.3611,1.9297,-0.0564,0.4433,-0.0004,-2.3433,
13.189384,0.3514,1.6952,0.0078,6.4643,5.8700,0.9231,0.4433,-0.0004,-2.3433,
13.244002,0.7139,1.9541,-0.1196,6.4643,5.8700,0.9231,0.4433,-0.0004,-2.3433,
13.245312,1.1493,1.9685,-0.2559,6.4643,5.8700,0.9231,0.4433,-0.0004,-2.3433,
13.246051,0.6900,1.3187,-0.1997,6.4643,5.8700,0.9231,0.4433,-0.0004,-2.3433,
13.247256,0.6900,1.3187,-0.1997,6.4643,5.8700,0.9231,0.4378,2.0081,-3.0476,
13.248054,0.6900,1.3187,-0.1997,14.0709,9.4156,-0.2175,0.4378,2.0081,-3.0476,
13.302175,-0.7247,0.8094,-0.1995,14.0709,9.4156,-0.2175,0.4378,2.0081,-3.0476,
13.303357,-1.6332,0.9522,-0.4637,14.0709,9.4156,-0.2175,0.4378,2.0081,-3.0476,
13.303962,-1.5990,1.0311,-0.2950,14.0709,9.4156,-0.2175,0.4378,2.0081,-3.0476,
13.304433,-1.5990,1.0311,-0.2950,14.0709,9.4156,-0.2175,1.0631,2.8976,-4.3805,
13.305580,-1.5990,1.0311,-0.2950,-5.7550,3.1652,0.0447,1.0631,2.8976,-4.3805,
13.360664,-0.9415,0.5362,-0.1699,-5.7550,3.1652,0.0447,1.0631,2.8976,-4.3805,
13.361841,-0.7081,0.2119,-0.3684,-5.7550,3.1652,0.0447,1.0631,2.8976,-4.3805,
13.362415,-0.3565,0.1116,-0.2349,-5.7550,3.1652,0.0447,1.0631,2.8976,-4.3805,
13.362961,-0.3565,0.1116,-0.2349,-5.7550,3.1652,0.0447,-0.0082,0.2279,-0.2934,
13.363963,-0.3565,0.1116,-0.2349,0.6639,-2.9777,0.7299,-0.0082,0.2279,-0.2934,
13.418583,0.0437,-0.1128,0.0374,0.6639,-2.9777,0.7299,-0.0082,0.2279,-0.2934,
13.420167,0.0886,-0.2222,-0.1719,0.6639,-2.9777,0.7299,-0.0082,0.2279,-0.2934,
13.420797,-0.1109,-0.0430,-0.3160,0.6639,-2.9777,0.7299,-0.0082,0.2279,-0.2934,
13.421449,-0.1109,-0.0430,-0.3160,0.6639,-2.9777,0.7299,-0.0965,-0.8360,2.8960,
13.422919,-0.1109,-0.0430,-0.3160,6.2534,-8.0450,1.3955,-0.0965,-0.8360,2.8960,
13.477006,-0.3948,0.1458,-0.4131,6.2534,-8.0450,1.3955,-0.0965,-0.8360,2.8960,
13.479181,-0.4686,0.2759,-0.4649,6.2534,-8.0450,1.3955,-0.0965,-0.8360,2.8960,
13.479846,-0.3411,0.2407,-0.2727,6.2534,-8.0450,1.3955,-0.0965,-0.8360,2.8960,
13.480446,-0.3411,0.2407,-0.2727,6.2534,-8.0450,1.3955,0.4378,-2.1979,4.8501,
13.488006,-0.3411,0.2407,-0.2727,0.4304,-5.9822,-1.3500,0.4378,-2.1979,4.8501,
13.535470,-0.3667,0.2725,-0.3013,0.4304,-5.9822,-1.3500,0.4378,-2.1979,4.8501,
13.537098,-0.4700,0.6009,-0.4900,0.4304,-5.9822,-1.3500,0.4378,-2.1979,4.8501,
13.537860,-0.6671,1.1710,-0.4769,0.4304,-5.9822,-1.3500,0.4378,-2.1979,4.8501,
13.538646,-0.6671,1.1710,-0.4769,0.4304,-5.9822,-1.3500,1.7153,-5.0672,6.9155,
13.539344,-0.6671,1.1710,-0.4769,-3.3251,-2.3889,-1.6858,1.7153,-5.0672,6.9155,
13.593851,-0.9015,1.7170,-0.4583,-3.3251,-2.3889,-1.6858,1.7153,-5.0672,6.9155,
13.595180,-0.8824,1.9074,-0.2676,-3.3251,-2.3889,-1.6858,1.7153,-5.0672,6.9155,
13.595753,-0.6956,1.6210,0.0635,-3.3251,-2.3889,-1.6858,1.7153,-5.0672,6.9155,
13.596290,-0.6956,1.6210,0.0635,-8.1674,8.1605,1.3556,1.7153,-5.0672,6.9155,
13.597154,-0.6956,1.6210,0.0635,-8.1674,8.1605,1.3556,2.5508,-8.9026,6.2997,
13.651987,-0.7003,1.4367,0.3326,-8.1674,8.1605,1.3556,2.5508,-8.9026,6.2997,
13.653302,-0.6634,1.5378,0.8324,-8.1674,8.1605,1.3556,2.5508,-8.9026,6.2997,
13.653864,0.7867,0.8485,1.6078,-8.1674,8.1605,1.3556,2.5508,-8.9026,6.2997,
13.654356,0.7867,0.8485,1.6078,-8.1674,8.1605,1.3556,0.0075,-7.4695,1.8842,
13.654940,0.7867,0.8485,1.6078,-1.3244,3.4626,12.3455,0.0075,-7.4695,1.8842,
13.710374,2.0664,0.4971,0.9437,-1.3244,3.4626,12.3455,0.0075,-7.4695,1.8842,
13.711568,0.6722,1.4709,0.0947,-1.3244,3.4626,12.3455,0.0075,-7.4695,1.8842,
13.712136,-0.1883,2.0232,-1.0326,-1.3244,3.4626,12.3455,0.0075,-7.4695,1.8842,
13.712673,-0.1883,2.0232,-1.0326,-1.3244,3.4626,12.3455,-0.7414,1.3826,-0.8707,
13.713595,-0.1883,2.0232,-1.0326,8.9639,3.8504,2.9287,-0.7414,1.3826,-0.8707,
13.768704,-0.8104,1.6725,-0.9801,8.9639,3.8504,2.9287,-0.7414,1.3826,-0.8707,
13.770023,-0.8565,0.8958,-0.3311,8.9639,3.8504,2.9287,-0.7414,1.3826,-0.8707,
13.770734,-0.3208,0.7965,-0.1702,8.9639,3.8504,2.9287,-0.7414,1.3826,-0.8707,
13.771386,-0.3208,0.7965,-0.1702,8.9639,3.8504,2.9287,-0.4103,-0.6306,-1.1421,
13.772061,-0.3208,0.7965,-0.1702,-5.0620,1.7720,-2.1552,-0.4103,-0.6306,-1.1421,
13.827691,0.0418,0.7733,-0.0310,-5.0620,1.7720,-2.1552,-0.4103,-0.6306,-1.1421,
13.828864,-0.0452,0.8978,0.0994,-5.0620,1.7720,-2.1552,-0.4103,-0.6306,-1.1421,
13.829632,-0.2915,0.9579,-0.0584,-5.0620,1.7720,-2.1552,-0.4103,-0.6306,-1.1421,
13.830295,-0.2915,0.9579,-0.0584,-5.0620,1.7720,-2.1552,-0.2959,-1.0356,-0.0602,
13.831085,-0.2915,0.9579,-0.0584,0.6431,-0.6605,2.4210,-0.2959,-1.0356,-0.0602,
13.885394,-0.4708,0.9898,-0.3033,0.6431,-0.6605,2.4210,-0.2959,-1.0356,-0.0602,
13.887197,-0.4625,1.0067,-0.3767,0.6431,-0.6605,2.4210,-0.2959,-1.0356,-0.0602,
13.888023,-0.3636,0.9833,-0.2547,0.6431,-0.6605,2.4210,-0.2959,-1.0356,-0.0602,
13.888698,-0.3636,0.9833,-0.2547,0.6431,-0.6605,2.4210,0.0128,-0.1527,0.1908,
13.889214,-0.3636,0.9833,-0.2547,-2.6662,0.4620,-0.6613,0.0128,-0.1527,0.1908,
13.943880,-0.2942,0.9342,-0.2154,-2.6662,0.4620,-0.6613,0.0128,-0.1527,0.1908,
13.945133,-0.1946,0.9366,-0.2075,-2.6662,0.4620,-0.6613,0.0128,-0.1527,0.1908,
13.945631,-0.0017,0.9510,-0.2288,-2.6662,0.4620,-0.6613,0.0128,-0.1527,0.1908,
13.946243,-0.0017,0.9510,-0.2288,-2.6662,0.4620,-0.6613,-0.0165,-0.8310,0.8550,
13.947477,-0.0017,0.9510,-0.2288,-0.3763,-0.1238,0.1835,-0.0165,-0.8310,0.8550,
14.002177,0.1306,0.9554,-0.2405,-0.3763,-0.1238,0.1835,-0.0165,-0.8310,0.8550,
14.003712,0.0281,0.9752,-0.2017,-0.3763,-0.1238,0.1835,-0.0165,-0.8310,0.8550,
14.004253,-0.1548,0.9903,-0.2322,-0.3763,-0.1238,0.1835,-0.0165,-0.8310,0.8550,
14.005036,-0.1548,0.9903,-0.2322,-0.3763,-0.1238,0.1835,0.0047,-0.2250,0.5500,
14.005672,-0.1548,0.9903,-0.2322,0.9527,0.1627,0.0952,0.0047,-0.2250,0.5500,
14.060451,-0.1541,1.0167,-0.2342,0.9527,0.1627,0.0952,0.0047,-0.2250,0.5500,
14.061769,0.0139,0.9686,-0.1814,0.9527,0.1627,0.0952,0.0047,-0.2250,0.5500,
14.062301,0.0447,0.9369,-0.1753,0.9527,0.1627,0.0952,0.0047,-0.2250,0.5500,
14.062703,0.0447,0.9369,-0.1753,0.9527,0.1627,0.0952,0.0562,-0.3759,0.4048,
14.063214,0.0447,0.9369,-0.1753,0.4492,0.1516,0.3740,0.0562,-0.3759,0.4048,
14.119031,-0.0286,0.9745,-0.1338,0.4492,0.1516,0.3740,0.0562,-0.3759,0.4048,
14.120739,-0.0620,0.9640,-0.1170,0.4492,0.1516,0.3740,0.0562,-0.3759,0.4048,
14.121327,-0.0662,0.9400,-0.1514,0.4492,0.1516,0.3740,0.0562,-0.3759,0.4048,
14.121888,-0.0662,0.9400,-0.1514,0.4492,0.1516,0.3740,0.2602,-0.3573,0.1332,
14.122775,-0.0662,0.9400,-0.1514,0.2215,0.0384,1.0990,0.2602,-0.3573,0.1332,
14.178102,-0.0496,0.9957,-0.1738,0.2215,0.0384,1.0990,0.2602,-0.3573,0.1332,
14.179824,-0.0120,1.0177,-0.2090,0.2215,0.0384,1.0990,0.2602,-0.3573,0.1332,
14.180783,-0.0122,1.0318,-0.1865,0.2215,0.0384,1.0990,0.2602,-0.3573,0.1332,
14.181385,-0.0122,1.0318,-0.1865,0.2215,0.0384,1.0990,0.5426,-0.1521,0.0721,
14.182229,-0.0122,1.0318,-0.1865,0.4677,0.6500,0.8274,0.5426,-0.1521,0.0721,
14.235657,0.0374,1.0121,-0.1680,0.4677,0.6500,0.8274,0.5426,-0.1521,0.0721,
14.237324,0.0322,1.0184,-0.1726,0.4677,0.6500,0.8274,0.5426,-0.1521,0.0721,
14.237909,0.0120,1.0858,-0.2158,0.4677,0.6500,0.8274,0.5426,-0.1521,0.0721,
14.238684,0.0120,1.0858,-0.2158,0.4677,0.6500,0.8274,0.9965,-0.1421,-0.1116,
14.239362,0.0120,1.0858,-0.2158,1.0415,1.0409,1.3756,0.9965,-0.1421,-0.1116,
14.295099,0.0391,1.1005,-0.2307,1.0415,1.0409,1.3756,0.9965,-0.1421,-0.1116,
14.300084,0.0017,1.1486,-0.2276,1.0415,1.0409,1.3756,0.9965,-0.1421,-0.1116,
14.302745,0.0647,1.3319,-0.2246,1.0415,1.0409,1.3756,0.9965,-0.1421,-0.1116,
14.305059,0.0647,1.3319,-0.2246,1.3308,2.8403,1.7022,0.9965,-0.1421,-0.1116,
14.307838,0.0647,1.3319,-0.2246,1.3308,2.8403,1.7022,1.5131,-0.4577,-0.2628,
14.353325,0.3355,1.4215,-0.1306,1.3308,2.8403,1.7022,1.5131,-0.4577,-0.2628,
14.355919,0.5210,1.4882,-0.0579,1.3308,2.8403,1.7022,1.5131,-0.4577,-0.2628,
14.357493,0.4874,1.5326,0.0127,1.3308,2.8403,1.7022,1.5131,-0.4577,-0.2628,
14.359110,0.4874,1.5326,0.0127,1.3308,2.8403,1.7022,2.2079,-1.7261,-0.4970,
14.360995,0.4874,1.5326,0.0127,5.9733,6.1594,4.2558,2.2079,-1.7261,-0.4970,
14.411383,0.4278,1.4528,0.2661,5.9733,6.1594,4.2558,2.2079,-1.7261,-0.4970,
14.413066,0.1082,1.3764,0.2476,5.9733,6.1594,4.2558,2.2079,-1.7261,-0.4970,
14.413817,-0.5804,1.4533,0.2657,5.9733,6.1594,4.2558,2.2079,-1.7261,-0.4970,
14.414705,-0.5804,1.4533,0.2657,5.9733,6.1594,4.2558,2.2749,-1.7377,-1.4044,
14.415583,-0.5804,1.4533,0.2657,2.5746,6.4075,8.0758,2.2749,-1.7377,-1.4044,
14.469813,-1.2111,1.3988,0.1001,2.5746,6.4075,8.0758,2.2749,-1.7377,-1.4044,
14.472260,-1.2638,1.0748,-0.1951,2.5746,6.4075,8.0758,2.2749,-1.7377,-1.4044,
14.473639,-0.9730,1.1293,-0.4461,2.5746,6.4075,8.0758,2.2749,-1.7377,-1.4044,
14.474830,-0.9730,1.1293,-0.4461,2.5746,6.4075,8.0758,1.8240,-3.5542,-1.5312,
14.476087,-0.9730,1.1293,-0.4461,-6.6295,5.0210,3.7030,1.8240,-3.5542,-1.5312,
14.528142,-0.9730,1.1293,-0.4461,4.3430,0.0162,3.8642,1.8240,-3.5542,-1.5312,
14.529754,-0.3885,1.0663,-0.3833,4.3430,0.0162,3.8642,1.8240,-3.5542,-1.5312,
14.530441,0.0122,0.6321,0.1155,4.3430,0.0162,3.8642,1.8240,-3.5542,-1.5312,
14.531082,0.0042,0.4400,0.2217,4.3430,0.0162,3.8642,1.8240,-3.5542,-1.5312,
14.531748,0.0042,0.4400,0.2217,4.3430,0.0162,3.8642,0.6666,-5.3925,1.3279,
14.586212,-0.0493,0.4590,0.1887,4.3430,0.0162,3.8642,0.6666,-5.3925,1.3279,
14.589488,-0.1174,0.5103,0.2593,4.3430,0.0162,3.8642,0.6666,-5.3925,1.3279,
14.590868,-0.1753,0.5127,0.2290,4.3430,0.0162,3.8642,0.6666,-5.3925,1.3279,
14.592226,-0.1753,0.5127,0.2290,3.8126,-2.9834,5.0615,0.6666,-5.3925,1.3279,
14.595293,-0.1753,0.5127,0.2290,3.8126,-2.9834,5.0615,0.1541,-3.6161,2.9994,
14.644603,-0.2041,0.5340,0.1760,3.8126,-2.9834,5.0615,0.1541,-3.6161,2.9994,
14.646436,-0.1922,0.6309,0.1692,3.8126,-2.9834,5.0615,0.1541,-3.6161,2.9994,
14.647794,-0.2657,0.7974,0.1399,3.8126,-2.9834,5.0615,0.1541,-3.6161,2.9994,
14.648620,-0.2657,0.7974,0.1399,3.8126,-2.9834,5.0615,0.1513,-1.3341,4.6498,
14.650057,-0.2657,0.7974,0.1399,0.6880,-2.4236,4.1031,0.1513,-1.3341,4.6498,
14.702945,-0.3211,0.9964,0.0903,0.6880,-2.4236,4.1031,0.1513,-1.3341,4.6498,
14.704587,-0.3619,1.1551,0.0527,0.6880,-2.4236,4.1031,0.1513,-1.3341,4.6498,
14.705073,-0.3995,1.3097,0.0264,0.6880,-2.4236,4.1031,0.1513,-1.3341,4.6498,
14.705566,-0.3995,1.3097,0.0264,-3.6972,1.8584,2.4542,0.1513,-1.3341,4.6498,
14.708060,-0.3995,1.3097,0.0264,-3.6972,1.8584,2.4542,-0.9332,-0.7910,5.9236,
14.760569,-0.4637,1.5873,-0.0571,-3.6972,1.8584,2.4542,-0.9332,-0.7910,5.9236,
14.762068,-0.5064,1.8300,-0.2141,-3.6972,1.8584,2.4542,-0.9332,-0.7910,5.9236,
14.762891,-0.4981,1.7111,-0.0354,-3.6972,1.8584,2.4542,-0.9332,-0.7910,5.9236,
14.763612,-0.4981,1.7111,-0.0354,-3.6972,1.8584,2.4542,-2.1089,-1.2828,6.3573,
14.764386,-0.4981,1.7111,-0.0354,-8.1631,7.6894,-0.0962,-2.1089,-1.2828,6.3573,
14.819608,-0.7750,1.6283,0.0825,-8.1631,7.6894,-0.0962,-2.1089,-1.2828,6.3573,
14.822271,-1.0597,1.2955,-0.0225,-8.1631,7.6894,-0.0962,-2.1089,-1.2828,6.3573,
14.823886,-1.2145,0.9437,-0.2747,-8.1631,7.6894,-0.0962,-2.1089,-1.2828,6.3573,
14.825677,-1.2145,0.9437,-0.2747,-8.1631,7.6894,-0.0962,-1.4637,-0.1608,3.1731,
14.827440,-1.2145,0.9437,-0.2747,-14.6850,4.2239,-0.4976,-1.4637,-0.1608,3.1731,
14.877425,-1.3346,0.7078,-0.3528,-14.6850,4.2239,-0.4976,-1.4637,-0.1608,3.1731,
14.879709,-1.3065,0.7476,-0.4610,-14.6850,4.2239,-0.4976,-1.4637,-0.1608,3.1731,
14.880848,-0.6580,1.4135,-0.9564,-14.6850,4.2239,-0.4976,-1.4637,-0.1608,3.1731,
14.883539,-0.6580,1.4135,-0.9564,-14.3279,0.5012,-5.2874,-1.4637,-0.1608,3.1731,
14.885281,-0.6580,1.4135,-0.9564,-14.3279,0.5012,-5.2874,-0.4844,-1.7177,-1.7957,
14.936437,1.3305,1.6083,-0.3934,-14.3279,0.5012,-5.2874,-0.4844,-1.7177,-1.7957,
14.939827,2.9344,1.3192,-0.6592,-14.3279,0.5012,-5.2874,-0.4844,-1.7177,-1.7957,
14.942460,0.6400,1.7118,-0.6531,-14.3279,0.5012,-5.2874,-0.4844,-1.7177,-1.7957,
14.945207,0.6400,1.7118,-0.6531,-14.3279,0.5012,-5.2874,-0.6976,-3.8519,-0.8851,
14.947426,0.6400,1.7118,-0.6531,12.8685,5.9871,-4.6471,-0.6976,-3.8519,-0.8851,
14.994340,-1.1578,1.5019,-0.1973,12.8685,5.9871,-4.6471,-0.6976,-3.8519,-0.8851,
14.996724,-0.4046,0.4949,0.4371,12.8685,5.9871,-4.6471,-0.6976,-3.8519,-0.8851,
14.998451,0.2393,0.6241,0.5325,12.8685,5.9871,-4.6471,-0.6976,-3.8519,-0.8851,
15.002515,0.2393,0.6241,0.5325,12.8685,5.9871,-4.6471,-0.4926,-0.0470,-3.1307,
15.007785,0.2393,0.6241,0.5325,-5.6536,-1.0304,3.1633,-0.4926,-0.0470,-3.1307,
15.053464,0.0979,0.9996,0.0139,-5.6536,-1.0304,3.1633,-0.4926,-0.0470,-3.1307,
15.057010,-0.3821,1.1173,-0.0676,-5.6536,-1.0304,3.1633,-0.4926,-0.0470,-3.1307,
15.059308,-0.2945,1.0690,-0.1470,-5.6536,-1.0304,3.1633,-0.4926,-0.0470,-3.1307,
15.061519,-0.2945,1.0690,-0.1470,-5.6536,-1.0304,3.1633,0.0299,0.2248,-1.8633,
15.063486,-0.2945,1.0690,-0.1470,-2.1446,0.7161,-0.0065,0.0299,0.2248,-1.8633,
15.111401,-0.0356,1.0384,-0.1438,-2.1446,0.7161,-0.0065,0.0299,0.2248,-1.8633,
15.113331,-0.0869,1.0431,-0.1069,-2.1446,0.7161,-0.0065,0.0299,0.2248,-1.8633,
15.114427,-0.1655,1.0253,-0.0237,-2.1446,0.7161,-0.0065,0.0299,0.2248,-1.8633,
15.115278,-0.1655,1.0253,-0.0237,-2.1446,0.7161,-0.0065,-0.0031,-0.3353,-1.1209,
15.117931,-0.1655,1.0253,-0.0237,-0.5400,0.4542,-0.2487,-0.0031,-0.3353,-1.1209,
15.169482,-0.0540,0.9991,-0.0388,-0.5400,0.4542,-0.2487,-0.0031,-0.3353,-1.1209,
15.173450,-0.0034,0.9938,-0.0425,-0.5400,0.4542,-0.2487,-0.0031,-0.3353,-1.1209,
15.175054,-0.0950,0.9806,-0.0337,-0.5400,0.4542,-0.2487,-0.0031,-0.3353,-1.1209,
15.177067,-0.0950,0.9806,-0.0337,-0.5400,0.4542,-0.2487,-0.0014,-0.1101,-0.9401,
15.179175,-0.0950,0.9806,-0.0337,0.4309,0.0544,0.2631,-0.0014,-0.1101,-0.9401,
15.227826,-0.1555,1.0067,-0.0291,0.4309,0.0544,0.2631,-0.0014,-0.1101,-0.9401,
15.229539,-0.0444,1.0377,-0.0220,0.4309,0.0544,0.2631,-0.0014,-0.1101,-0.9401,
15.230285,0.0156,1.0387,0.0051,0.4309,0.0544,0.2631,-0.0014,-0.1101,-0.9401,
15.231205,0.0156,1.0387,0.0051,0.4309,0.0544,0.2631,0.0307,-0.0173,-0.9800,
15.232524,0.0156,1.0387,0.0051,0.8629,0.4745,0.4967,0.0307,-0.0173,-0.9800,
15.285495,-0.0366,1.0138,0.0083,0.8629,0.4745,0.4967,0.0307,-0.0173,-0.9800,
15.287528,-0.0933,0.9916,-0.0115,0.8629,0.4745,0.4967,0.0307,-0.0173,-0.9800,
15.289179,-0.1609,0.9813,-0.0686,0.8629,0.4745,0.4967,0.0307,-0.0173,-0.9800,
15.290825,-0.1609,0.9813,-0.0686,0.8629,0.4745,0.4967,0.1914,0.1028,-1.3017,
15.292673,-0.1609,0.9813,-0.0686,1.2137,0.3009,0.5209,0.1914,0.1028,-1.3017,
15.344106,-0.2185,0.9718,-0.1084,1.2137,0.3009,0.5209,0.1914,0.1028,-1.3017,
15.345542,-0.2486,0.9911,-0.1001,1.2137,0.3009,0.5209,0.1914,0.1028,-1.3017,
15.346174,-0.2051,1.0340,-0.0759,1.2137,0.3009,0.5209,0.1914,0.1028,-1.3017,
15.347136,-0.2051,1.0340,-0.0759,1.2137,0.3009,0.5209,0.2246,0.4508,-1.4516,
15.348567,-0.2051,1.0340,-0.0759,0.7248,0.5522,0.0166,0.2246,0.4508,-1.4516,
15.403375,-0.1695,1.1046,-0.0562,0.7248,0.5522,0.0166,0.2246,0.4508,-1.4516,
15.406252,-0.1216,1.1249,-0.0811,0.7248,0.5522,0.0166,0.2246,0.4508,-1.4516,
15.408314,-0.0774,1.1456,-0.0747,0.7248,0.5522,0.0166,0.2246,0.4508,-1.4516,
15.409913,-0.0774,1.1456,-0.0747,0.7248,0.5522,0.0166,0.3950,-0.1205,-1.6487,
15.411721,-0.0774,1.1456,-0.0747,2.5539,2.0994,0.4290,0.3950,-0.1205,-1.6487,
15.461271,0.0195,1.2125,-0.0601,2.5539,2.0994,0.4290,0.3950,-0.1205,-1.6487,
15.463265,0.1423,1.3532,-0.0676,2.5539,2.0994,0.4290,0.3950,-0.1205,-1.6487,
15.464137,0.4461,1.7326,0.1130,2.5539,2.0994,0.4290,0.3950,-0.1205,-1.6487,
15.464860,0.4461,1.7326,0.1130,2.5539,2.0994,0.4290,0.7035,0.3443,-2.1366,
15.465624,0.4461,1.7326,0.1130,6.6799,5.6096,1.4906,0.7035,0.3443,-2.1366,
15.520912,1.0387,2.0415,-0.0098,6.6799,5.6096,1.4906,0.7035,0.3443,-2.1366,
15.523800,1.3478,1.7614,-0.1079,6.6799,5.6096,1.4906,0.7035,0.3443,-2.1366,
15.525850,0.4722,1.2474,0.0400,6.6799,5.6096,1.4906,0.7035,0.3443,-2.1366,
15.527479,0.4722,1.2474,0.0400,6.6799,5.6096,1.4906,0.7481,1.6541,-2.9993,
15.528462,0.4722,1.2474,0.0400,14.9767,8.9308,2.1151,0.7481,1.6541,-2.9993,
15.579156,-0.7635,1.1656,-0.1643,14.9767,8.9308,2.1151,0.7481,1.6541,-2.9993,
15.582623,-1.2313,1.4069,-0.2771,14.9767,8.9308,2.1151,0.7481,1.6541,-2.9993,
15.584734,-0.8893,1.1996,-0.2493,14.9767,8.9308,2.1151,0.7481,1.6541,-2.9993,
15.587197,-0.8893,1.1996,-0.2493,14.9767,8.9308,2.1151,0.9957,2.7947,-4.1519,
15.588210,-0.8893,1.1996,-0.2493,-2.6059,6.3419,1.5018,0.9957,2.7947,-4.1519,
15.636291,-0.6776,0.6514,-0.2171,-2.6059,6.3419,1.5018,0.9957,2.7947,-4.1519,
15.639275,-0.7308,0.4463,-0.4024,-2.6059,6.3419,1.5018,0.9957,2.7947,-4.1519,
15.641337,-0.5926,0.3601,-0.5723,-2.6059,6.3419,1.5018,0.9957,2.7947,-4.1519,
15.643789,-0.5926,0.3601,-0.5723,-2.6059,6.3419,1.5018,-0.0230,0.4855,-0.8473,
15.646221,-0.5926,0.3601,-0.5723,0.4479,-0.8684,0.0533,-0.0230,0.4855,-0.8473,
15.695538,-0.3885,0.2661,-0.2730,0.4479,-0.8684,0.0533,-0.0230,0.4855,-0.8473,
15.699215,-0.1348,0.0388,-0.1587,0.4479,-0.8684,0.0533,-0.0230,0.4855,-0.8473,
15.700902,-0.0461,0.0356,-0.1519,0.4479,-0.8684,0.0533,-0.0230,0.4855,-0.8473,
15.703358,-0.0461,0.0356,-0.1519,0.4479,-0.8684,0.0533,-1.6217,-0.3691,2.4466,
15.705901,-0.0461,0.0356,-0.1519,4.2300,-5.7018,1.2862,-1.6217,-0.3691,2.4466,
15.753546,-0.1340,0.1841,-0.2178,4.2300,-5.7018,1.2862,-1.6217,-0.3691,2.4466,
15.757860,-0.1790,0.4275,-0.3492,4.2300,-5.7018,1.2862,-1.6217,-0.3691,2.4466,
15.760422,-0.0894,0.5689,-0.3269,4.2300,-5.7018,1.2862,-1.6217,-0.3691,2.4466,
15.762461,-0.0894,0.5689,-0.3269,4.2300,-5.7018,1.2862,-1.7654,-0.9994,4.5498,
15.765195,-0.0894,0.5689,-0.3269,2.8371,-4.5314,-0.8019,-1.7654,-0.9994,4.5498,
15.810897,-0.0503,0.6309,-0.2740,2.8371,-4.5314,-0.8019,-1.7654,-0.9994,4.5498,
15.812991,-0.0486,0.7142,-0.1858,2.8371,-4.5314,-0.8019,-1.7654,-0.9994,4.5498,
15.814109,-0.0029,0.9798,-0.2556,2.8371,-4.5314,-0.8019,-1.7654,-0.9994,4.5498,
15.815014,-0.0029,0.9798,-0.2556,2.8371,-4.5314,-0.8019,-1.5954,0.1104,6.3191,
15.816021,-0.0029,0.9798,-0.2556,0.4696,-1.8492,-1.0412,-1.5954,0.1104,6.3191,
15.870442,-0.0183,1.4569,-0.3980,0.4696,-1.8492,-1.0412,-1.5954,0.1104,6.3191,
15.872800,-0.3611,2.1601,-0.5086,0.4696,-1.8492,-1.0412,-1.5954,0.1104,6.3191,
15.873828,-0.9332,2.2974,-0.4905,0.4696,-1.8492,-1.0412,-1.5954,0.1104,6.3191,
15.874753,-0.9332,2.2974,-0.4905,0.4696,-1.8492,-1.0412,-1.5176,0.4979,6.4769,
15.875828,-0.9332,2.2974,-0.4905,-6.9467,10.0066,-4.0679,-1.5176,0.4979,6.4769,
15.927095,-1.1422,1.6559,-0.0718,-6.9467,10.0066,-4.0679,-1.5176,0.4979,6.4769,
15.928763,-0.9442,1.0648,0.0620,-6.9467,10.0066,-4.0679,-1.5176,0.4979,6.4769,
15.929764,-0.7552,1.0555,-0.3018,-6.9467,10.0066,-4.0679,-1.5176,0.4979,6.4769,
15.930658,-0.7552,1.0555,-0.3018,-6.9467,10.0066,-4.0679,-1.4649,-0.3419,4.4042,
15.931596,-0.7552,1.0555,-0.3018,-13.9868,3.9257,-1.1708,-1.4649,-0.3419,4.4042,
15.986011,-0.9688,0.8983,-0.1670,-13.9868,3.9257,-1.1708,-1.4649,-0.3419,4.4042,
15.990268,-0.9891,0.7862,-0.0706,-13.9868,3.9257,-1.1708,-1.4649,-0.3419,4.4042,
15.993051,-0.7923,1.2521,-0.4043,-13.9868,3.9257,-1.1708,-1.4649,-0.3419,4.4042,
15.995813,-0.7923,1.2521,-0.4043,-13.9868,3.9257,-1.1708,-0.1428,-1.0794,-1.4034,
15.999417,-0.7923,1.2521,-0.4043,-12.7750,0.8143,-1.9971,-0.1428,-1.0794,-1.4034,
16.044832,0.7662,1.7126,-0.0085,-12.7750,0.8143,-1.9971,-0.1428,-1.0794,-1.4034,
16.048837,3.0323,1.4455,0.3736,-12.7750,0.8143,-1.9971,-0.1428,-1.0794,-1.4034,
16.051778,0.9708,1.4525,-0.3833,-12.7750,0.8143,-1.9971,-0.1428,-1.0794,-1.4034,
16.054387,0.9708,1.4525,-0.3833,-12.7750,0.8143,-1.9971,-0.4069,-1.5876,-1.1350,
16.057991,0.9708,1.4525,-0.3833,12.1867,5.9468,0.1466,-0.4069,-1.5876,-1.1350,
16.102851,-1.1766,1.3161,-0.9571,12.1867,5.9468,0.1466,-0.4069,-1.5876,-1.1350,
16.105449,-1.2741,0.8551,-0.2007,12.1867,5.9468,0.1466,-0.4069,-1.5876,-1.1350,
16.108515,-0.2027,0.7503,0.4932,12.1867,5.9468,0.1466,-0.4069,-1.5876,-1.1350,
16.110087,-0.2027,0.7503,0.4932,12.1867,5.9468,0.1466,-0.2014,0.4861,-3.5477,
16.111844,-0.2027,0.7503,0.4932,-9.9481,-0.0744,-2.0913,-0.2014,0.4861,-3.5477,
16.161698,0.1172,0.9464,0.2720,-9.9481,-0.0744,-2.0913,-0.2014,0.4861,-3.5477,
16.165626,0.1328,1.0489,0.0889,-9.9481,-0.0744,-2.0913,-0.2014,0.4861,-3.5477,
16.167826,-0.0918,1.0567,-0.1294,-9.9481,-0.0744,-2.0913,-0.2014,0.4861,-3.5477,
16.168721,-0.0918,1.0567,-0.1294,-9.9481,-0.0744,-2.0913,0.0197,-0.4801,-1.4194,
16.170066,-0.0918,1.0567,-0.1294,0.0378,0.2749,0.8508,0.0197,-0.4801,-1.4194,
16.218871,-0.1453,1.0487,-0.0430,0.0378,0.2749,0.8508,0.0197,-0.4801,-1.4194,
16.220288,-0.0037,1.0336,-0.0723,0.0378,0.2749,0.8508,0.0197,-0.4801,-1.4194,
16.221110,-0.0059,1.0340,-0.0276,0.0378,0.2749,0.8508,0.0197,-0.4801,-1.4194,
16.221786,-0.0059,1.0340,-0.0276,0.0378,0.2749,0.8508,0.0692,0.0831,-1.1140,
16.223197,-0.0059,1.0340,-0.0276,-0.3487,0.4666,-0.3262,0.0692,0.0831,-1.1140,
16.277768,-0.0571,1.0296,0.0466,-0.3487,0.4666,-0.3262,0.0692,0.0831,-1.1140,
16.279816,0.0095,1.0055,0.0073,-0.3487,0.4666,-0.3262,0.0692,0.0831,-1.1140,
16.280888,0.0791,0.9845,0.0278,-0.3487,0.4666,-0.3262,0.0692,0.0831,-1.1140,
16.281885,0.0791,0.9845,0.0278,0.8094,0.1741,0.4526,0.0692,0.0831,-1.1140,
16.282906,0.0791,0.9845,0.0278,0.8094,0.1741,0.4526,0.1018,-0.1608,-0.9924,
16.335742,0.0435,0.9781,0.0144,0.8094,0.1741,0.4526,0.1018,-0.1608,-0.9924,
16.338018,-0.0879,0.9808,0.0020,0.8094,0.1741,0.4526,0.1018,-0.1608,-0.9924,
16.338654,-0.1250,0.9952,0.0000,0.8094,0.1741,0.4526,0.1018,-0.1608,-0.9924,
16.339254,-0.1250,0.9952,0.0000,0.8094,0.1741,0.4526,0.1596,0.3262,-1.2079,
16.339948,-0.1250,0.9952,0.0000,0.8146,0.0356,0.3442,0.1596,0.3262,-1.2079,
16.394820,-0.1179,1.0084,0.0093,0.8146,0.0356,0.3442,0.1596,0.3262,-1.2079,
16.396342,-0.1944,0.9945,-0.0020,0.8146,0.0356,0.3442,0.1596,0.3262,-1.2079,
16.397464,-0.2024,0.9664,-0.0537,0.8146,0.0356,0.3442,0.1596,0.3262,-1.2079,
16.398866,-0.2024,0.9664,-0.0537,0.8146,0.0356,0.3442,0.2348,0.2478,-1.2655,
16.399913,-0.2024,0.9664,-0.0537,0.3805,0.2134,0.2897,0.2348,0.2478,-1.2655,
16.452556,-0.1377,0.9584,-0.0474,0.3805,0.2134,0.2897,0.2348,0.2478,-1.2655,
16.454067,-0.1809,0.9588,-0.0952,0.3805,0.2134,0.2897,0.2348,0.2478,-1.2655,
16.454524,-0.2036,1.0196,-0.1187,0.3805,0.2134,0.2897,0.2348,0.2478,-1.2655,
16.455210,-0.2036,1.0196,-0.1187,0.3805,0.2134,0.2897,0.2213,0.3352,-1.3390,
16.455799,-0.2036,1.0196,-0.1187,1.0610,0.2984,-0.2392,0.2213,0.3352,-1.3390,
16.512202,-0.1372,1.0826,-0.1394,1.0610,0.2984,-0.2392,0.2213,0.3352,-1.3390,
16.515517,-0.1599,1.1503,-0.0921,1.0610,0.2984,-0.2392,0.2213,0.3352,-1.3390,
16.517459,-0.1162,1.1862,-0.0430,1.0610,0.2984,-0.2392,0.2213,0.3352,-1.3390,
16.518896,-0.1162,1.1862,-0.0430,1.0610,0.2984,-0.2392,0.3549,-0.0069,-1.6367,
16.521342,-0.1162,1.1862,-0.0430,2.2522,2.1580,-0.0942,0.3549,-0.0069,-1.6367,
16.568577,0.0227,1.2238,-0.0054,2.2522,2.1580,-0.0942,0.3549,-0.0069,-1.6367,
16.570014,0.1067,1.3197,0.0061,2.2522,2.1580,-0.0942,0.3549,-0.0069,-1.6367,
16.570635,0.1550,1.5021,-0.0376,2.2522,2.1580,-0.0942,0.3549,-0.0069,-1.6367,
16.571857,0.1550,1.5021,-0.0376,2.2522,2.1580,-0.0942,0.6180,0.0982,-2.2309,
16.572776,0.1550,1.5021,-0.0376,5.5683,4.7031,1.0037,0.6180,0.0982,-2.2309,
16.627815,0.3557,1.7184,-0.1255,5.5683,4.7031,1.0037,0.6180,0.0982,-2.2309,
16.629142,0.7843,1.8061,-0.2747,5.5683,4.7031,1.0037,0.6180,0.0982,-2.2309,
16.629669,0.9432,1.5605,-0.2639,5.5683,4.7031,1.0037,0.6180,0.0982,-2.2309,
16.630285,0.9432,1.5605,-0.2639,5.5683,4.7031,1.0037,0.7707,1.5091,-2.7245,
16.630860,0.9432,1.5605,-0.2639,12.3819,8.8492,-0.2108,0.7707,1.5091,-2.7245,
16.685513,0.0078,0.9967,-0.0208,12.3819,8.8492,-0.2108,0.7707,1.5091,-2.7245,
16.686695,-1.1361,0.9608,-0.1655,12.3819,8.8492,-0.2108,0.7707,1.5091,-2.7245,
16.687393,-1.4110,1.2565,-0.2373,12.3819,8.8492,-0.2108,0.7707,1.5091,-2.7245,
16.688072,-1.4110,1.2565,-0.2373,12.3819,8.8492,-0.2108,1.0841,2.6903,-3.8609,
16.688667,-1.4110,1.2565,-0.2373,-1.5330,4.2310,1.9611,1.0841,2.6903,-3.8609,
16.743528,-1.0592,1.0045,-0.1531,-1.5330,4.2310,1.9611,1.0841,2.6903,-3.8609,
16.744775,-0.8507,0.5022,-0.0974,-1.5330,4.2310,1.9611,1.0841,2.6903,-3.8609,
16.745365,-0.7940,0.3160,-0.2871,-1.5330,4.2310,1.9611,1.0841,2.6903,-3.8609,
16.745904,-0.7940,0.3160,-0.2871,-1.5330,4.2310,1.9611,0.8884,-0.2710,-0.9865,
16.746531,-0.7940,0.3160,-0.2871,-1.6375,0.2627,1.7478,0.8884,-0.2710,-0.9865,
16.801959,-0.5247,0.2820,-0.2014,-1.6375,0.2627,1.7478,0.8884,-0.2710,-0.9865,
16.803308,-0.1392,0.0693,0.1758,-1.6375,0.2627,1.7478,0.8884,-0.2710,-0.9865,
16.803985,-0.0398,-0.1367,0.1861,-1.6375,0.2627,1.7478,0.8884,-0.2710,-0.9865,
16.804670,-0.0398,-0.1367,0.1861,-1.6375,0.2627,1.7478,-0.2501,-1.5555,2.3405,
16.805700,-0.0398,-0.1367,0.1861,4.2671,-5.8824,3.2461,-0.2501,-1.5555,2.3405,
16.860827,-0.1231,-0.0259,0.0132,4.2671,-5.8824,3.2461,-0.2501,-1.5555,2.3405,
16.862952,-0.3435,0.2190,-0.1990,4.2671,-5.8824,3.2461,-0.2501,-1.5555,2.3405,
16.863908,-0.4910,0.4527,-0.3379,4.2671,-5.8824,3.2461,-0.2501,-1.5555,2.3405,
16.864912,-0.4910,0.4527,-0.3379,4.2671,-5.8824,3.2461,0.7556,-1.7748,4.2217,
16.865815,-0.4910,0.4527,-0.3379,1.8740,-5.7039,0.7161,0.7556,-1.7748,4.2217,
16.920356,-0.4827,0.4593,-0.0349,1.8740,-5.7039,0.7161,0.7556,-1.7748,4.2217,
16.923456,-0.5311,0.4983,-0.0901,1.8740,-5.7039,0.7161,0.7556,-1.7748,4.2217,
16.924999,-0.6661,0.7852,-0.3448,1.8740,-5.7039,0.7161,0.7556,-1.7748,4.2217,
16.927611,-0.6661,0.7852,-0.3448,1.8740,-5.7039,0.7161,1.2512,-4.1115,6.1466,
16.930207,-0.6661,0.7852,-0.3448,-2.9399,-3.2560,0.6079,1.2512,-4.1115,6.1466,
16.977358,-0.8106,1.2614,-0.3301,-2.9399,-3.2560,0.6079,1.2512,-4.1115,6.1466,
16.979072,-0.8206,1.4672,-0.3479,-2.9399,-3.2560,0.6079,1.2512,-4.1115,6.1466,
16.980020,-0.6854,1.6449,-0.2390,-2.9399,-3.2560,0.6079,1.2512,-4.1115,6.1466,
16.981169,-0.6854,1.6449,-0.2390,-2.9399,-3.2560,0.6079,2.3445,-7.9824,6.8354,
16.982092,-0.6854,1.6449,-0.2390,-7.4144,5.0933,-0.1385,2.3445,-7.9824,6.8354,
17.035617,-0.5811,1.7111,-0.0335,-7.4144,5.0933,-0.1385,2.3445,-7.9824,6.8354,
17.036851,-0.3111,1.4857,0.3194,-7.4144,5.0933,-0.1385,2.3445,-7.9824,6.8354,
17.037652,0.1865,1.0589,0.6890,-7.4144,5.0933,-0.1385,2.3445,-7.9824,6.8354,
17.038461,0.1865,1.0589,0.6890,-7.4144,5.0933,-0.1385,1.2411,-9.7688,4.1566,
17.039094,0.1865,1.0589,0.6890,-2.4339,4.9058,6.6978,1.2411,-9.7688,4.1566,
17.093987,0.2268,0.7852,0.3848,-2.4339,4.9058,6.6978,1.2411,-9.7688,4.1566,
17.095251,-0.6361,1.3783,0.2190,-2.4339,4.9058,6.6978,1.2411,-9.7688,4.1566,
17.095808,-0.3321,1.2164,1.2858,-2.4339,4.9058,6.6978,1.2411,-9.7688,4.1566,
17.096350,-0.3321,1.2164,1.2858,-2.1380,1.9306,9.3049,1.2411,-9.7688,4.1566,
17.097120,-0.3321,1.2164,1.2858,-2.1380,1.9306,9.3049,-0.4435,-2.4667,0.2564,
17.151995,0.1646,0.9852,0.7323,-2.1380,1.9306,9.3049,-0.4435,-2.4667,0.2564,
17.153726,-0.0628,1.1539,-0.0447,-2.1380,1.9306,9.3049,-0.4435,-2.4667,0.2564,
17.154493,-0.2552,1.2655,-0.9095,-2.1380,1.9306,9.3049,-0.4435,-2.4667,0.2564,
17.155537,-0.2552,1.2655,-0.9095,-2.1380,1.9306,9.3049,-0.5793,0.7819,-0.4266,
17.156406,-0.2552,1.2655,-0.9095,-0.1188,1.8874,2.0798,-0.5793,0.7819,-0.4266,
17.210276,-0.2735,1.3392,-0.9476,-0.1188,1.8874,2.0798,-0.5793,0.7819,-0.4266,
17.212266,0.0562,1.1393,-0.5489,-0.1188,1.8874,2.0798,-0.5793,0.7819,-0.4266,
17.212992,0.1360,0.9952,-0.3128,-0.1188,1.8874,2.0798,-0.5793,0.7819,-0.4266,
17.213579,0.1360,0.9952,-0.3128,-0.1188,1.8874,2.0798,-0.6247,-0.9399,0.1124,
17.214243,0.1360,0.9952,-0.3128,0.1933,1.9808,-3.4101,-0.6247,-0.9399,0.1124,
17.269136,-0.0210,1.0121,0.0427,0.1933,1.9808,-3.4101,-0.6247,-0.9399,0.1124,
17.271725,-0.0017,0.9960,0.1633,0.1933,1.9808,-3.4101,-0.6247,-0.9399,0.1124,
17.272918,0.1128,0.9264,-0.0366,0.1933,1.9808,-3.4101,-0.6247,-0.9399,0.1124,
17.273936,0.1128,0.9264,-0.0366,0.1933,1.9808,-3.4101,-0.4875,-1.0558,0.1629,
17.274897,0.1128,0.9264,-0.0366,0.7946,0.1448,2.7103,-0.4875,-1.0558,0.1629,
17.328733,-0.0173,0.9671,-0.2481,0.7946,0.1448,2.7103,-0.4875,-1.0558,0.1629,
17.332904,-0.1944,0.9894,-0.3072,0.7946,0.1448,2.7103,-0.4875,-1.0558,0.1629,
17.335274,-0.2766,1.0470,-0.3274,0.7946,0.1448,2.7103,-0.4875,-1.0558,0.1629,
17.338210,-0.2766,1.0470,-0.3274,-1.0556,0.3467,-0.7986,-0.4875,-1.0558,0.1629,
17.341444,-0.2766,1.0470,-0.3274,-1.0556,0.3467,-0.7986,-0.1633,0.1442,-0.0698,
17.385653,-0.1321,1.0577,-0.2219,-1.0556,0.3467,-0.7986,-0.1633,0.1442,-0.0698,
17.387608,0.0418,0.9146,-0.1233,-1.0556,0.3467,-0.7986,-0.1633,0.1442,-0.0698,
17.388612,0.0693,0.8375,0.0034,-1.0556,0.3467,-0.7986,-0.1633,0.1442,-0.0698,
17.389718,0.0693,0.8375,0.0034,-1.0556,0.3467,-0.7986,-0.1263,-0.4594,0.2106,
17.390577,0.0693,0.8375,0.0034,0.4022,-0.3020,0.8699,-0.1263,-0.4594,0.2106,
17.445466,0.1289,0.9569,-0.0332,0.4022,-0.3020,0.8699,-0.1263,-0.4594,0.2106,
17.450127,0.0422,1.0006,-0.1834,0.4022,-0.3020,0.8699,-0.1263,-0.4594,0.2106,
17.452633,-0.2078,0.9747,-0.2642,0.4022,-0.3020,0.8699,-0.1263,-0.4594,0.2106,
17.454714,-0.2078,0.9747,-0.2642,0.4022,-0.3020,0.8699,0.0863,-0.3484,-0.2174,
17.457076,-0.2078,0.9747,-0.2642,0.5033,0.1129,0.4455,0.0863,-0.3484,-0.2174,
17.502987,-0.2959,0.9933,-0.2090,0.5033,0.1129,0.4455,0.0863,-0.3484,-0.2174,
17.504308,-0.1511,0.9842,-0.1489,0.5033,0.1129,0.4455,0.0863,-0.3484,-0.2174,
17.504862,-0.1145,0.9708,-0.1594,0.5033,0.1129,0.4455,0.0863,-0.3484,-0.2174,
17.505420,-0.1145,0.9708,-0.1594,0.5033,0.1129,0.4455,0.1843,-0.6408,-0.0649,
17.506888,-0.1145,0.9708,-0.1594,-1.0806,0.1869,0.3951,0.1843,-0.6408,-0.0649,
17.562738,-0.1528,0.9962,-0.2241,-1.0806,0.1869,0.3951,0.1843,-0.6408,-0.0649,
17.565780,-0.0679,0.9818,-0.2962,-1.0806,0.1869,0.3951,0.1843,-0.6408,-0.0649,
17.568147,-0.0608,1.0199,-0.1773,-1.0806,0.1869,0.3951,0.1843,-0.6408,-0.0649,
17.569851,-0.0608,1.0199,-0.1773,-1.0806,0.1869,0.3951,0.2692,-0.4657,0.1059,
17.571745,-0.0608,1.0199,-0.1773,-0.1631,0.3715,-0.0652,0.2692,-0.4657,0.1059,
17.619827,-0.0408,0.9962,-0.1599,-0.1631,0.3715,-0.0652,0.2692,-0.4657,0.1059,
17.622629,-0.0396,0.9496,-0.1223,-0.1631,0.3715,-0.0652,0.2692,-0.4657,0.1059,
17.624063,0.0425,0.9649,-0.0884,-0.1631,0.3715,-0.0652,0.2692,-0.4657,0.1059,
17.625821,0.0425,0.9649,-0.0884,-0.1631,0.3715,-0.0652,0.5490,-0.3227,0.0169,
17.628736,0.0425,0.9649,-0.0884,0.6564,0.1588,1.2673,0.5490,-0.3227,0.0169,
17.678289,0.1231,0.9908,-0.1387,0.6564,0.1588,1.2673,0.5490,-0.3227,0.0169,
17.681056,-0.0349,0.9920,-0.2718,0.6564,0.1588,1.2673,0.5490,-0.3227,0.0169,
17.682806,-0.2427,1.0043,-0.3174,0.6564,0.1588,1.2673,0.5490,-0.3227,0.0169,
17.684626,-0.2427,1.0043,-0.3174,0.6564,0.1588,1.2673,0.9926,0.0226,-0.3268,
17.686895,-0.2427,1.0043,-0.3174,0.4396,0.5743,0.6276,0.9926,0.0226,-0.3268,
17.736916,-0.0991,0.9913,-0.3238,0.4396,0.5743,0.6276,0.9926,0.0226,-0.3268,
17.740741,0.0186,1.0843,-0.3406,0.4396,0.5743,0.6276,0.9926,0.0226,-0.3268,
17.742932,0.0452,1.2794,-0.2683,0.4396,0.5743,0.6276,0.9926,0.0226,-0.3268,
17.745069,0.0452,1.2794,-0.2683,0.4396,0.5743,0.6276,1.4665,-0.6139,-0.2922,
17.747849,0.0452,1.2794,-0.2683,1.0872,2.0488,0.6807,1.4665,-0.6139,-0.2922,
17.793941,0.2263,1.4071,-0.1436,1.0872,2.0488,0.6807,1.4665,-0.6139,-0.2922,
17.795543,0.4375,1.4882,0.0383,1.0872,2.0488,0.6807,1.4665,-0.6139,-0.2922,
17.796353,0.4588,1.5243,0.0278,1.0872,2.0488,0.6807,1.4665,-0.6139,-0.2922,
17.797437,0.4588,1.5243,0.0278,1.0872,2.0488,0.6807,2.1633,-1.6074,-0.5518,
17.798442,0.4588,1.5243,0.0278,5.4530,6.0059,4.3465,2.1633,-1.6074,-0.5518,
17.852953,0.2158,1.4953,0.1257,5.4530,6.0059,4.3465,2.1633,-1.6074,-0.5518,
17.855892,0.0796,1.4518,0.3728,5.4530,6.0059,4.3465,2.1633,-1.6074,-0.5518,
17.858073,-0.3355,1.4018,0.3118,5.4530,6.0059,4.3465,2.1633,-1.6074,-0.5518,
17.859713,-0.3355,1.4018,0.3118,5.4530,6.0059,4.3465,2.3056,-1.9271,-1.3129,
17.861738,-0.3355,1.4018,0.3118,2.7854,6.5235,7.9272,2.3056,-1.9271,-1.3129,
17.912267,-0.9098,1.4743,0.1704,2.7854,6.5235,7.9272,2.3056,-1.9271,-1.3129,
17.915575,-1.1019,1.3139,-0.1055,2.7854,6.5235,7.9272,2.3056,-1.9271,-1.3129,
17.917880,-0.8145,1.1351,-0.4297,2.7854,6.5235,7.9272,2.3056,-1.9271,-1.3129,
17.919969,-0.8145,1.1351,-0.4297,2.7854,6.5235,7.9272,1.8866,-3.7961,-1.5699,
17.922223,-0.8145,1.1351,-0.4297,-4.3993,5.9691,3.9622,1.8866,-3.7961,-1.5699,
17.969118,-0.4786,1.1678,-0.4295,-4.3993,5.9691,3.9622,1.8866,-3.7961,-1.5699,
17.970783,0.0020,0.9754,-0.2527,-4.3993,5.9691,3.9622,1.8866,-3.7961,-1.5699,
17.971456,0.3084,0.5794,0.1663,-4.3993,5.9691,3.9622,1.8866,-3.7961,-1.5699,
17.972247,0.3084,0.5794,0.1663,-4.3993,5.9691,3.9622,0.7167,-5.0608,0.6482,
17.973023,0.3084,0.5794,0.1663,5.2834,1.9948,2.0985,0.7167,-5.0608,0.6482,
18.027805,0.1221,0.4932,0.3118,5.2834,1.9948,2.0985,0.7167,-5.0608,0.6482,
18.030891,-0.1118,0.5318,0.1506,5.2834,1.9948,2.0985,0.7167,-5.0608,0.6482,
18.032934,-0.1113,0.5574,0.0779,5.2834,1.9948,2.0985,0.7167,-5.0608,0.6482,
18.034936,-0.1113,0.5574,0.0779,5.2834,1.9948,2.0985,-0.0633,-2.9649,2.3999,
