
time,gFx,gFy,gFz,ax,ay,az,wx,wy,wz,
0.063149,0.0000,0.0000,0.0000,-0.0421,0.0264,-0.0391,0.0000,0.0000,0.0000,
0.063788,0.0000,1.0138,0.0571,-0.0421,0.0264,-0.0391,0.0000,0.0000,0.0000,
0.064136,0.0000,1.0138,0.0571,-0.0421,0.0264,-0.0391,0.0000,0.0000,0.0000,
0.064369,0.0000,1.0138,0.0571,-0.0421,0.0264,-0.0391,0.0000,0.0000,0.0000,
0.064623,0.0000,1.0138,0.0571,-0.0421,0.0264,-0.0391,-0.2022,0.1992,0.1053,
0.121223,0.0313,1.0074,0.0889,-0.0421,0.0264,-0.0391,-0.2022,0.1992,0.1053,
0.122342,0.0317,1.0279,0.0903,-0.0421,0.0264,-0.0391,-0.2022,0.1992,0.1053,
0.123074,0.0168,1.0106,0.0515,-0.0421,0.0264,-0.0391,-0.2022,0.1992,0.1053,
0.123757,0.0168,1.0106,0.0515,-0.0421,0.0264,-0.0391,0.0368,0.0137,-0.0568,
0.124343,0.0168,1.0106,0.0515,0.1681,0.0268,0.1173,0.0368,0.0137,-0.0568,
0.179303,-0.0112,0.9847,0.0332,0.1681,0.0268,0.1173,0.0368,0.0137,-0.0568,
0.180195,-0.0310,0.9945,0.0525,0.1681,0.0268,0.1173,0.0368,0.0137,-0.0568,
0.180843,-0.0349,0.9989,0.0652,0.1681,0.0268,0.1173,0.0368,0.0137,-0.0568,
0.181428,-0.0349,0.9989,0.0652,0.1681,0.0268,0.1173,0.1069,0.0434,-0.1193,
0.182014,-0.0349,0.9989,0.0652,-0.2056,-0.1493,-0.0613,0.1069,0.0434,-0.1193,
0.237671,-0.0623,0.9693,0.0679,-0.2056,-0.1493,-0.0613,0.1069,0.0434,-0.1193,
0.238347,-0.0830,0.9518,0.0606,-0.2056,-0.1493,-0.0613,0.1069,0.0434,-0.1193,
0.238656,-0.0513,0.9527,0.0703,-0.2056,-0.1493,-0.0613,0.1069,0.0434,-0.1193,
0.239040,-0.0513,0.9527,0.0703,-0.2056,-0.1493,-0.0613,0.0562,0.0857,-0.0582,
0.239363,-0.0513,0.9527,0.0703,-0.4476,-0.3932,0.1022,0.0562,0.0857,-0.0582,
0.295893,-0.0032,0.9840,0.0723,-0.4476,-0.3932,0.1022,0.0562,0.0857,-0.0582,
0.296924,0.0044,1.0062,0.0571,-0.4476,-0.3932,0.1022,0.0562,0.0857,-0.0582,
0.297417,-0.0364,1.0238,0.0427,-0.4476,-0.3932,0.1022,0.0562,0.0857,-0.0582,
0.297944,-0.0364,1.0238,0.0427,-0.4476,-0.3932,0.1022,0.0323,0.1757,-0.0095,
0.298592,-0.0364,1.0238,0.0427,0.0755,0.0531,0.0298,0.0323,0.1757,-0.0095,
0.354392,-0.0188,1.0250,0.0681,0.0755,0.0531,0.0298,0.0323,0.1757,-0.0095,
0.355348,0.0002,1.0121,0.0913,0.0755,0.0531,0.0298,0.0323,0.1757,-0.0095,
0.356002,0.0227,1.0057,0.0916,0.0755,0.0531,0.0298,0.0323,0.1757,-0.0095,
0.356441,0.0227,1.0057,0.0916,0.0755,0.0531,0.0298,0.0114,0.1709,-0.0134,
0.357021,0.0227,1.0057,0.0916,0.1859,0.1260,0.2536,0.0114,0.1709,-0.0134,
0.412815,0.0540,1.0128,0.0837,0.1859,0.1260,0.2536,0.0114,0.1709,-0.0134,
0.413482,0.0945,1.0096,0.1240,0.1859,0.1260,0.2536,0.0114,0.1709,-0.0134,
0.414174,0.1140,1.0189,0.1765,0.1859,0.1260,0.2536,0.0114,0.1709,-0.0134,
0.414707,0.1140,1.0189,0.1765,0.1859,0.1260,0.2536,0.1625,0.2853,-0.1002,
0.415253,0.1140,1.0189,0.1765,0.9588,0.1028,0.6874,0.1625,0.2853,-0.1002,
0.472253,0.0601,0.9842,0.1436,0.9588,0.1028,0.6874,0.1625,0.2853,-0.1002,
0.475258,-0.0383,0.9227,0.0823,0.9588,0.1028,0.6874,0.1625,0.2853,-0.1002,
0.477158,-0.1025,0.9352,0.1021,0.9588,0.1028,0.6874,0.1625,0.2853,-0.1002,
0.480660,-0.1025,0.9352,0.1021,0.9588,0.1028,0.6874,0.4451,0.3022,-0.3475,
0.483576,-0.1025,0.9352,0.1021,0.0397,-0.4935,0.6772,0.4451,0.3022,-0.3475,
0.532017,-0.1397,1.0025,0.0891,0.0397,-0.4935,0.6772,0.4451,0.3022,-0.3475,
0.534078,-0.1323,1.0643,0.0591,0.0397,-0.4935,0.6772,0.4451,0.3022,-0.3475,
0.535649,-0.0823,1.0575,0.0794,0.0397,-0.4935,0.6772,0.4451,0.3022,-0.3475,
0.537090,-0.0823,1.0575,0.0794,0.0397,-0.4935,0.6772,0.7000,0.1442,-0.2582,
0.539575,-0.0823,1.0575,0.0794,-0.6339,0.3837,0.6766,0.7000,0.1442,-0.2582,
0.589196,0.0095,1.0050,0.1416,-0.6339,0.3837,0.6766,0.7000,0.1442,-0.2582,
0.591853,-0.0083,0.9259,0.0816,-0.6339,0.3837,0.6766,0.7000,0.1442,-0.2582,
0.594151,-0.1143,0.9442,-0.0701,-0.6339,0.3837,0.6766,0.7000,0.1442,-0.2582,
0.596275,-0.1143,0.9442,-0.0701,0.2424,-0.3765,0.8578,0.7000,0.1442,-0.2582,
0.599770,-0.1143,0.9442,-0.0701,0.2424,-0.3765,0.8578,0.8990,-0.1331,-0.1928,
0.647446,-0.1348,1.0025,-0.0728,0.2424,-0.3765,0.8578,0.8990,-0.1331,-0.1928,
0.649105,-0.1194,1.0323,0.0239,0.2424,-0.3765,0.8578,0.8990,-0.1331,-0.1928,
0.650242,-0.0120,1.0348,0.1414,0.2424,-0.3765,0.8578,0.8990,-0.1331,-0.1928,
0.651108,-0.0120,1.0348,0.1414,0.2424,-0.3765,0.8578,1.0554,-0.3905,-0.1354,
0.652115,-0.0120,1.0348,0.1414,-0.1515,0.2790,1.1411,1.0554,-0.3905,-0.1354,
0.704516,0.1052,1.0436,0.2119,-0.1515,0.2790,1.1411,1.0554,-0.3905,-0.1354,
0.705989,0.1074,1.2064,0.1091,-0.1515,0.2790,1.1411,1.0554,-0.3905,-0.1354,
0.706714,-0.0420,1.5817,-0.1358,-0.1515,0.2790,1.1411,1.0554,-0.3905,-0.1354,
0.707875,-0.0420,1.5817,-0.1358,-0.1515,0.2790,1.1411,1.8758,-0.7577,-0.1097,
0.710052,-0.0420,1.5817,-0.1358,1.2900,2.6967,2.2794,1.8758,-0.7577,-0.1097,
0.765426,-0.3977,1.6073,0.2014,1.2900,2.6967,2.2794,1.8758,-0.7577,-0.1097,
0.769611,-0.5919,1.3197,0.1831,1.2900,2.6967,2.2794,1.8758,-0.7577,-0.1097,
0.770754,-0.6717,1.1600,0.1179,1.2900,2.6967,2.2794,1.8758,-0.7577,-0.1097,
0.773249,-0.6717,1.1600,0.1179,1.2900,2.6967,2.2794,2.1095,-0.2783,-0.0203,
0.774298,-0.6717,1.1600,0.1179,-4.3170,3.5384,4.1745,2.1095,-0.2783,-0.0203,
0.821398,-0.6021,1.1029,-0.0068,-4.3170,3.5384,4.1745,2.1095,-0.2783,-0.0203,
0.822681,-0.3648,1.2577,-0.2886,-4.3170,3.5384,4.1745,2.1095,-0.2783,-0.0203,
0.823198,-0.1587,1.3034,-0.4341,-4.3170,3.5384,4.1745,2.1095,-0.2783,-0.0203,
0.823766,-0.1587,1.3034,-0.4341,-4.3170,3.5384,4.1745,1.6693,-3.0329,0.5675,
0.824532,-0.1587,1.3034,-0.4341,-2.2000,2.2407,0.8211,1.6693,-3.0329,0.5675,
0.881598,-0.0266,1.1346,-0.2786,-2.2000,2.2407,0.8211,1.6693,-3.0329,0.5675,
0.884114,0.1995,0.8819,-0.1004,-2.2000,2.2407,0.8211,1.6693,-3.0329,0.5675,
0.885660,0.6019,0.6932,-0.0796,-2.2000,2.2407,0.8211,1.6693,-3.0329,0.5675,
0.887159,0.6019,0.6932,-0.0796,-2.2000,2.2407,0.8211,0.2201,-5.0995,1.2226,
0.889579,0.6019,0.6932,-0.0796,3.9724,-0.8894,1.2679,0.2201,-5.0995,1.2226,
0.938048,0.8719,0.4913,-0.0676,3.9724,-0.8894,1.2679,0.2201,-5.0995,1.2226,
0.939777,0.7071,0.4563,-0.0911,3.9724,-0.8894,1.2679,0.2201,-5.0995,1.2226,
0.940526,0.4764,0.5811,-0.1648,3.9724,-0.8894,1.2679,0.2201,-5.0995,1.2226,
0.941365,0.4764,0.5811,-0.1648,6.8417,-4.6989,1.0199,0.2201,-5.0995,1.2226,
0.942292,0.4764,0.5811,-0.1648,6.8417,-4.6989,1.0199,-0.6597,-3.7631,2.4899,
0.997286,0.4764,0.5811,-0.1648,0.7095,-1.8348,-0.8267,-0.6597,-3.7631,2.4899,
1.001978,0.3216,0.6964,-0.2344,0.7095,-1.8348,-0.8267,-0.6597,-3.7631,2.4899,
1.004721,0.2241,0.7826,-0.2840,0.7095,-1.8348,-0.8267,-0.6597,-3.7631,2.4899,
1.007355,0.2088,0.8680,-0.2801,0.7095,-1.8348,-0.8267,-0.6597,-3.7631,2.4899,
1.010284,0.2088,0.8680,-0.2801,0.7095,-1.8348,-0.8267,-0.7245,-1.9507,3.6441,
1.054583,0.0972,0.9693,-0.3240,0.7095,-1.8348,-0.8267,-0.7245,-1.9507,3.6441,
1.056437,-0.1397,1.0651,-0.3970,0.7095,-1.8348,-0.8267,-0.7245,-1.9507,3.6441,
1.057390,-0.4385,1.1490,-0.3311,0.7095,-1.8348,-0.8267,-0.7245,-1.9507,3.6441,
1.058110,-0.4385,1.1490,-0.3311,0.7095,-1.8348,-0.8267,-0.7903,-1.1747,4.0365,
1.059249,-0.4385,1.1490,-0.3311,-5.1062,1.4003,-1.7997,-0.7903,-1.1747,4.0365,
1.113346,-0.6060,1.1263,-0.2378,-5.1062,1.4003,-1.7997,-0.7903,-1.1747,4.0365,
1.115353,-0.7283,1.1024,-0.0386,-5.1062,1.4003,-1.7997,-0.7903,-1.1747,4.0365,
1.116799,-0.7213,1.1500,0.0044,-5.1062,1.4003,-1.7997,-0.7903,-1.1747,4.0365,
1.118053,-0.7213,1.1500,0.0044,-5.1062,1.4003,-1.7997,-0.8373,-1.9175,2.5015,
1.119834,-0.7213,1.1500,0.0044,-10.7768,2.4297,0.7524,-0.8373,-1.9175,2.5015,
1.171818,-0.5123,1.0399,-0.0208,-10.7768,2.4297,0.7524,-0.8373,-1.9175,2.5015,
1.174473,-0.4927,0.7003,-0.3133,-10.7768,2.4297,0.7524,-0.8373,-1.9175,2.5015,
1.176688,-0.5872,0.8050,-1.3805,-10.7768,2.4297,0.7524,-0.8373,-1.9175,2.5015,
1.179195,-0.5872,0.8050,-1.3805,-10.7768,2.4297,0.7524,-0.5402,-0.3290,-1.3500,
1.182605,-0.5872,0.8050,-1.3805,-8.1322,-0.6026,-3.9566,-0.5402,-0.3290,-1.3500,
1.232231,0.1643,2.2344,-0.4783,-8.1322,-0.6026,-3.9566,-0.5402,-0.3290,-1.3500,
1.235106,1.1801,2.1780,-0.3597,-8.1322,-0.6026,-3.9566,-0.5402,-0.3290,-1.3500,
1.241662,-0.2815,0.5862,-0.5535,-8.1322,-0.6026,-3.9566,-0.5402,-0.3290,-1.3500,
1.244239,-0.2815,0.5862,-0.5535,-8.1322,-0.6026,-3.9566,-0.3637,-2.3152,-2.0148,
1.246736,-0.2815,0.5862,-0.5535,1.7535,6.7832,-2.6642,-0.3637,-2.3152,-2.0148,
1.288281,-0.6192,0.5040,0.1008,1.7535,6.7832,-2.6642,-0.3637,-2.3152,-2.0148,
1.291459,0.0835,1.0311,0.2539,1.7535,6.7832,-2.6642,-0.3637,-2.3152,-2.0148,
1.293931,-0.0693,1.1754,0.0557,1.7535,6.7832,-2.6642,-0.3637,-2.3152,-2.0148,
1.296409,-0.0693,1.1754,0.0557,1.7535,6.7832,-2.6642,-0.2995,-0.4530,-2.0922,
1.300444,-0.0693,1.1754,0.0557,-2.3611,-0.8190,2.9592,-0.2995,-0.4530,-2.0922,
1.347922,-0.0693,1.1754,0.0557,-1.9367,0.5994,-1.2071,-0.2995,-0.4530,-2.0922,
1.350815,-0.3885,1.0978,-0.2102,-1.9367,0.5994,-1.2071,-0.2995,-0.4530,-2.0922,
1.352585,-0.2591,1.0304,-0.3567,-1.9367,0.5994,-1.2071,-0.2995,-0.4530,-2.0922,
1.354646,-0.1238,1.0201,-0.3306,-1.9367,0.5994,-1.2071,-0.2995,-0.4530,-2.0922,
1.356540,-0.1238,1.0201,-0.3306,-1.9367,0.5994,-1.2071,0.0975,-0.3156,-1.5123,
1.405412,-0.1924,0.9803,-0.1702,-1.9367,0.5994,-1.2071,0.0975,-0.3156,-1.5123,
1.407451,-0.2117,0.9808,-0.1116,-1.9367,0.5994,-1.2071,0.0975,-0.3156,-1.5123,
1.408519,-0.2332,0.9833,-0.1409,-1.9367,0.5994,-1.2071,0.0975,-0.3156,-1.5123,
1.409161,-0.2332,0.9833,-0.1409,-1.9367,0.5994,-1.2071,0.0788,-0.3064,-1.1360,
1.410035,-0.2332,0.9833,-0.1409,-0.7947,0.0022,0.3570,0.0788,-0.3064,-1.1360,
1.463214,-0.2783,0.9767,-0.1638,-0.7947,0.0022,0.3570,0.0788,-0.3064,-1.1360,
1.465278,-0.2639,1.0003,-0.1729,-0.7947,0.0022,0.3570,0.0788,-0.3064,-1.1360,
1.466345,-0.2307,1.0170,-0.2000,-0.7947,0.0022,0.3570,0.0788,-0.3064,-1.1360,
1.467246,-0.2307,1.0170,-0.2000,-0.7947,0.0022,0.3570,0.1704,-0.1993,-0.8861,
1.468781,-0.2307,1.0170,-0.2000,-0.6952,0.2516,0.0594,0.1704,-0.1993,-0.8861,
1.522032,-0.1521,1.0360,-0.1763,-0.6952,0.2516,0.0594,0.1704,-0.1993,-0.8861,
1.523985,-0.1243,1.0326,-0.1499,-0.6952,0.2516,0.0594,0.1704,-0.1993,-0.8861,
1.525818,-0.2063,1.0404,-0.1160,-0.6952,0.2516,0.0594,0.1704,-0.1993,-0.8861,
1.527595,-0.2063,1.0404,-0.1160,-0.6952,0.2516,0.0594,0.2791,-0.2111,-0.8674,
1.529548,-0.2063,1.0404,-0.1160,0.7270,0.7348,0.4780,0.2791,-0.2111,-0.8674,
1.581653,-0.2251,1.0541,-0.1177,0.7270,0.7348,0.4780,0.2791,-0.2111,-0.8674,
1.584589,-0.1216,1.0226,-0.1248,0.7270,0.7348,0.4780,0.2791,-0.2111,-0.8674,
1.586533,0.0027,0.9808,-0.1504,0.7270,0.7348,0.4780,0.2791,-0.2111,-0.8674,
1.588778,0.0027,0.9808,-0.1504,0.7270,0.7348,0.4780,0.3826,0.1839,-1.0159,
1.591425,0.0027,0.9808,-0.1504,1.6495,0.7372,0.8445,0.3826,0.1839,-1.0159,
1.639191,0.1758,0.9623,-0.1797,1.6495,0.7372,0.8445,0.3826,0.1839,-1.0159,
1.640910,0.2901,1.2369,-0.2019,1.6495,0.7372,0.8445,0.3826,0.1839,-1.0159,
1.641844,0.3396,1.5431,-0.2434,1.6495,0.7372,0.8445,0.3826,0.1839,-1.0159,
1.642844,0.3396,1.5431,-0.2434,1.6495,0.7372,0.8445,0.7094,0.0135,-1.6905,
1.644214,0.3396,1.5431,-0.2434,6.0790,3.2714,0.4465,0.7094,0.0135,-1.6905,
1.699486,0.4578,1.5573,-0.1914,6.0790,3.2714,0.4465,0.7094,0.0135,-1.6905,
1.703181,0.7432,1.7546,-0.1404,6.0790,3.2714,0.4465,0.7094,0.0135,-1.6905,
1.705309,1.3663,1.9931,0.0178,6.0790,3.2714,0.4465,0.7094,0.0135,-1.6905,
1.707399,1.3663,1.9931,0.0178,6.0790,3.2714,0.4465,1.2014,0.0758,-2.5271,
1.710419,1.3663,1.9931,0.0178,12.6496,8.8684,2.0119,1.2014,0.0758,-2.5271,
1.754977,1.2430,1.6818,0.2227,12.6496,8.8684,2.0119,1.2014,0.0758,-2.5271,
1.756136,-0.0906,1.4149,0.0596,12.6496,8.8684,2.0119,1.2014,0.0758,-2.5271,
1.756875,-0.8407,1.6435,-0.1038,12.6496,8.8684,2.0119,1.2014,0.0758,-2.5271,
1.757571,-0.8407,1.6435,-0.1038,12.6496,8.8684,2.0119,1.4003,1.7707,-3.7713,
1.761040,-0.8407,1.6435,-0.1038,6.4042,8.1412,4.6268,1.4003,1.7707,-3.7713,
1.815100,-1.3207,1.4518,-0.1209,6.4042,8.1412,4.6268,1.4003,1.7707,-3.7713,
1.816667,-1.2667,0.9742,-0.4522,6.4042,8.1412,4.6268,1.4003,1.7707,-3.7713,
1.817516,-1.0045,0.7699,-0.3440,6.4042,8.1412,4.6268,1.4003,1.7707,-3.7713,
1.819217,-1.0045,0.7699,-0.3440,6.4042,8.1412,4.6268,1.6172,-0.1374,-2.7171,
1.821838,-1.0045,0.7699,-0.3440,-5.0810,4.3087,1.5664,1.6172,-0.1374,-2.7171,
1.872582,-0.7769,0.4373,-0.4082,-5.0810,4.3087,1.5664,1.6172,-0.1374,-2.7171,
1.874556,-0.5303,0.1770,-0.1599,-5.0810,4.3087,1.5664,1.6172,-0.1374,-2.7171,
1.876318,-0.4402,-0.0645,0.1511,-5.0810,4.3087,1.5664,1.6172,-0.1374,-2.7171,
1.878162,-0.4402,-0.0645,0.1511,0.7555,-4.9567,2.1556,1.6172,-0.1374,-2.7171,
1.880397,-0.4402,-0.0645,0.1511,0.7555,-4.9567,2.1556,-0.5484,-1.9662,1.6809,
1.931619,-0.2710,-0.0879,0.1113,0.7555,-4.9567,2.1556,-0.5484,-1.9662,1.6809,
1.933439,-0.0662,0.0010,0.0657,0.7555,-4.9567,2.1556,-0.5484,-1.9662,1.6809,
1.934674,-0.1226,0.2202,-0.1746,0.7555,-4.9567,2.1556,-0.5484,-1.9662,1.6809,
1.936533,-0.1226,0.2202,-0.1746,0.7555,-4.9567,2.1556,-0.8701,-1.5347,4.7538,
1.937939,-0.1226,0.2202,-0.1746,3.0224,-7.7906,2.5471,-0.8701,-1.5347,4.7538,
1.987710,-0.3072,0.5110,-0.1463,3.0224,-7.7906,2.5471,-0.8701,-1.5347,4.7538,
1.990077,-0.1865,0.6336,-0.0217,3.0224,-7.7906,2.5471,-0.8701,-1.5347,4.7538,
1.991090,-0.0349,0.8028,-0.2688,3.0224,-7.7906,2.5471,-0.8701,-1.5347,4.7538,
1.992060,-0.0349,0.8028,-0.2688,3.0224,-7.7906,2.5471,-0.8951,-0.2572,6.3032,
1.994209,-0.0349,0.8028,-0.2688,-0.4355,-2.9800,0.5650,-0.8951,-0.2572,6.3032,
2.048771,-0.1641,1.1808,-0.3089,-0.4355,-2.9800,0.5650,-0.8951,-0.2572,6.3032,
2.051312,-0.6053,1.6410,-0.4026,-0.4355,-2.9800,0.5650,-0.8951,-0.2572,6.3032,
2.052905,-0.9872,1.7885,-0.5743,-0.4355,-2.9800,0.5650,-0.8951,-0.2572,6.3032,
2.054401,-0.9872,1.7885,-0.5743,-0.4355,-2.9800,0.5650,-1.5703,1.0202,6.3950,
2.055819,-0.9872,1.7885,-0.5743,-7.8290,5.6060,-3.0375,-1.5703,1.0202,6.3950,
2.105481,-1.0926,1.5951,-0.4649,-7.8290,5.6060,-3.0375,-1.5703,1.0202,6.3950,
2.108016,-0.7083,1.2545,-0.1926,-7.8290,5.6060,-3.0375,-1.5703,1.0202,6.3950,
2.110485,-0.2437,1.1464,-0.2578,-7.8290,5.6060,-3.0375,-1.5703,1.0202,6.3950,
2.113176,-0.2437,1.1464,-0.2578,-7.8290,5.6060,-3.0375,-1.9574,0.3604,5.2867,
2.116049,-0.2437,1.1464,-0.2578,-11.2566,4.4914,-2.8410,-1.9574,0.3604,5.2867,
2.164608,-0.4915,1.1866,-0.4886,-11.2566,4.4914,-2.8410,-1.9574,0.3604,5.2867,
2.169603,-1.1371,0.8175,-0.4708,-11.2566,4.4914,-2.8410,-1.9574,0.3604,5.2867,
2.173088,-1.4020,0.6915,-0.5101,-11.2566,4.4914,-2.8410,-1.9574,0.3604,5.2867,
2.176624,-1.4020,0.6915,-0.5101,-11.2566,4.4914,-2.8410,-0.5097,0.8974,0.7481,
2.180017,-1.4020,0.6915,-0.5101,-14.4471,0.4405,-5.0251,-0.5097,0.8974,0.7481,
2.223124,-1.1454,1.0553,-0.5440,-14.4471,0.4405,-5.0251,-0.5097,0.8974,0.7481,
2.226035,-0.1260,1.8906,-0.2766,-14.4471,0.4405,-5.0251,-0.5097,0.8974,0.7481,
2.227982,2.2405,2.1242,1.1598,-14.4471,0.4405,-5.0251,-0.5097,0.8974,0.7481,
2.234101,2.2405,2.1242,1.1598,-14.4471,0.4405,-5.0251,-0.5830,-1.3765,-1.9839,
2.237277,2.2405,2.1242,1.1598,-0.3947,7.5370,0.8927,-0.5830,-1.3765,-1.9839,
2.280298,1.2582,1.7414,-0.1704,-0.3947,7.5370,0.8927,-0.5830,-1.3765,-1.9839,
2.283516,-0.7403,0.9835,-1.5111,-0.3947,7.5370,0.8927,-0.5830,-1.3765,-1.9839,
2.284452,-0.7523,0.6866,0.0991,-0.3947,7.5370,0.8927,-0.5830,-1.3765,-1.9839,
2.285488,-0.7523,0.6866,0.0991,-0.3947,7.5370,0.8927,0.4034,-0.6742,-2.8255,
2.286226,-0.7523,0.6866,0.0991,-2.7314,1.6149,-4.9211,0.4034,-0.6742,-2.8255,
2.338397,-0.3604,0.7786,-0.0671,-2.7314,1.6149,-4.9211,0.4034,-0.6742,-2.8255,
2.339956,-0.3914,1.1659,0.2598,-2.7314,1.6149,-4.9211,0.4034,-0.6742,-2.8255,
2.340787,-0.1594,1.1224,-0.0942,-2.7314,1.6149,-4.9211,0.4034,-0.6742,-2.8255,
2.341584,-0.1594,1.1224,-0.0942,-2.7314,1.6149,-4.9211,0.0625,-0.1973,-1.9985,
2.342383,-0.1594,1.1224,-0.0942,-3.7246,0.3188,0.6076,0.0625,-0.1973,-1.9985,
2.395963,-0.0967,0.9706,-0.0273,-3.7246,0.3188,0.6076,0.0625,-0.1973,-1.9985,
2.396934,-0.0740,1.0360,-0.0852,-3.7246,0.3188,0.6076,0.0625,-0.1973,-1.9985,
2.397473,0.0437,1.0572,-0.0872,-3.7246,0.3188,0.6076,0.0625,-0.1973,-1.9985,
2.398451,0.0437,1.0572,-0.0872,-3.7246,0.3188,0.6076,0.1053,-0.1132,-1.2256,
2.399946,0.0437,1.0572,-0.0872,-0.4550,0.2751,-0.2967,0.1053,-0.1132,-1.2256,
2.456056,-0.1043,1.0184,0.0020,-0.4550,0.2751,-0.2967,0.1053,-0.1132,-1.2256,
2.459128,-0.2324,1.0318,-0.0039,-0.4550,0.2751,-0.2967,0.1053,-0.1132,-1.2256,
2.461229,-0.1182,1.0101,-0.0212,-0.4550,0.2751,-0.2967,0.1053,-0.1132,-1.2256,
2.464310,-0.1182,1.0101,-0.0212,-0.4550,0.2751,-0.2967,0.1517,0.0739,-1.0582,
2.466913,-0.1182,1.0101,-0.0212,-0.9055,0.2769,0.3593,0.1517,0.0739,-1.0582,
2.513758,0.0696,0.9850,-0.0195,-0.9055,0.2769,0.3593,0.1517,0.0739,-1.0582,
2.516239,0.0537,0.9967,-0.0427,-0.9055,0.2769,0.3593,0.1517,0.0739,-1.0582,
2.519369,-0.0776,0.9745,-0.0488,-0.9055,0.2769,0.3593,0.1517,0.0739,-1.0582,
2.521699,-0.0776,0.9745,-0.0488,-0.9055,0.2769,0.3593,0.2195,0.1020,-1.0458,
2.523408,-0.0776,0.9745,-0.0488,1.2879,-0.0038,0.1969,0.2195,0.1020,-1.0458,
2.571193,-0.1360,0.9813,-0.0476,1.2879,-0.0038,0.1969,0.2195,0.1020,-1.0458,
2.572714,-0.2012,1.0265,-0.0647,1.2879,-0.0038,0.1969,0.2195,0.1020,-1.0458,
2.573775,-0.1824,0.9981,-0.0825,1.2879,-0.0038,0.1969,0.2195,0.1020,-1.0458,
2.574631,-0.1824,0.9981,-0.0825,1.2879,-0.0038,0.1969,0.3026,0.4223,-1.2769,
2.576358,-0.1824,0.9981,-0.0825,0.1370,0.2753,0.1274,0.3026,0.4223,-1.2769,
2.632840,-0.1099,0.9530,-0.0901,0.1370,0.2753,0.1274,0.3026,0.4223,-1.2769,
2.636764,-0.0645,0.9476,-0.1025,0.1370,0.2753,0.1274,0.3026,0.4223,-1.2769,
2.638781,-0.0813,1.0126,-0.1040,0.1370,0.2753,0.1274,0.3026,0.4223,-1.2769,
2.640783,-0.0813,1.0126,-0.1040,0.1370,0.2753,0.1274,0.3054,0.1985,-1.4243,
2.642968,-0.0813,1.0126,-0.1040,1.7358,0.1684,-0.0118,0.3054,0.1985,-1.4243,
2.687545,-0.1467,1.0643,-0.1045,1.7358,0.1684,-0.0118,0.3054,0.1985,-1.4243,
2.688568,-0.2012,1.0985,-0.0979,1.7358,0.1684,-0.0118,0.3054,0.1985,-1.4243,
2.689264,-0.2256,1.1615,-0.0891,1.7358,0.1684,-0.0118,0.3054,0.1985,-1.4243,
2.689817,-0.2256,1.1615,-0.0891,1.7358,0.1684,-0.0118,0.4182,0.1578,-1.8383,
2.690445,-0.2256,1.1615,-0.0891,1.6365,1.8267,0.2513,0.4182,0.1578,-1.8383,
2.746315,-0.0542,1.1688,-0.0632,1.6365,1.8267,0.2513,0.4182,0.1578,-1.8383,
2.748074,0.1104,1.1783,-0.0845,1.6365,1.8267,0.2513,0.4182,0.1578,-1.8383,
2.749837,0.2400,1.3353,-0.1065,1.6365,1.8267,0.2513,0.4182,0.1578,-1.8383,
2.752785,0.2400,1.3353,-0.1065,1.6365,1.8267,0.2513,0.6113,0.3435,-2.1132,
2.754294,0.2400,1.3353,-0.1065,5.4157,3.4714,0.7517,0.6113,0.3435,-2.1132,
2.808157,0.4832,1.6906,-0.0662,5.4157,3.4714,0.7517,0.6113,0.3435,-2.1132,
2.813123,0.9044,1.9006,-0.2246,5.4157,3.4714,0.7517,0.6113,0.3435,-2.1132,
2.815797,1.0956,1.5924,-0.1697,5.4157,3.4714,0.7517,0.6113,0.3435,-2.1132,
2.820377,1.0956,1.5924,-0.1697,13.3057,9.0259,0.9274,0.6113,0.3435,-2.1132,
2.823233,1.0956,1.5924,-0.1697,13.3057,9.0259,0.9274,0.8963,1.5089,-2.5261,
2.862564,0.1260,1.1459,-0.0320,13.3057,9.0259,0.9274,0.8963,1.5089,-2.5261,
2.865004,-0.9540,1.3224,-0.3133,13.3057,9.0259,0.9274,0.8963,1.5089,-2.5261,
2.867212,-1.3346,1.5846,-0.3404,13.3057,9.0259,0.9274,0.8963,1.5089,-2.5261,
2.868912,-1.3346,1.5846,-0.3404,13.3057,9.0259,0.9274,1.4441,2.5944,-4.0959,
2.869925,-1.3346,1.5846,-0.3404,-0.6393,6.8578,1.6438,1.4441,2.5944,-4.0959,
2.921549,-0.9828,1.0563,-0.2971,-0.6393,6.8578,1.6438,1.4441,2.5944,-4.0959,
2.922668,-0.7706,0.6978,-0.2007,-0.6393,6.8578,1.6438,1.4441,2.5944,-4.0959,
2.923181,-0.7012,0.4612,-0.3616,-0.6393,6.8578,1.6438,1.4441,2.5944,-4.0959,
2.923761,-0.7012,0.4612,-0.3616,-1.1625,1.5165,1.4104,1.4441,2.5944,-4.0959,
2.924317,-0.7012,0.4612,-0.3616,-1.1625,1.5165,1.4104,0.7509,0.2698,-1.3272,
2.980255,-0.5206,0.3055,-0.2146,-1.1625,1.5165,1.4104,0.7509,0.2698,-1.3272,
2.983301,-0.3536,0.0640,0.1314,-1.1625,1.5165,1.4104,0.7509,0.2698,-1.3272,
2.985580,-0.3702,-0.0149,0.1590,-1.1625,1.5165,1.4104,0.7509,0.2698,-1.3272,
2.986791,-0.3702,-0.0149,0.1590,-1.1625,1.5165,1.4104,-0.6821,-0.8104,2.1214,
2.988621,-0.3702,-0.0149,0.1590,2.1674,-5.4264,3.8296,-0.6821,-0.8104,2.1214,
3.038381,-0.3702,-0.0149,0.1590,1.8100,-5.1133,1.7433,-0.6821,-0.8104,2.1214,
3.040404,-0.4268,0.1116,-0.0129,1.8100,-5.1133,1.7433,-0.6821,-0.8104,2.1214,
3.041393,-0.2754,0.3279,-0.3677,1.8100,-5.1133,1.7433,-0.6821,-0.8104,2.1214,
3.042223,-0.0808,0.4556,-0.0166,1.8100,-5.1133,1.7433,-0.6821,-0.8104,2.1214,
3.043079,-0.0808,0.4556,-0.0166,1.8100,-5.1133,1.7433,-0.3250,-1.1792,4.7554,
3.095780,-0.1780,0.5059,-0.1306,1.8100,-5.1133,1.7433,-0.3250,-1.1792,4.7554,
3.098329,-0.4021,0.8038,-0.3687,1.8100,-5.1133,1.7433,-0.3250,-1.1792,4.7554,
3.099665,-0.6006,1.0304,-0.3282,1.8100,-5.1133,1.7433,-0.3250,-1.1792,4.7554,
3.101347,-0.6006,1.0304,-0.3282,1.8100,-5.1133,1.7433,-0.0821,-0.7672,6.1759,
3.102525,-0.6006,1.0304,-0.3282,-2.4320,-1.4298,0.1558,-0.0821,-0.7672,6.1759,
3.156242,-1.0707,1.2675,-0.4168,-2.4320,-1.4298,0.1558,-0.0821,-0.7672,6.1759,
3.159700,-1.3988,1.2936,-0.6028,-2.4320,-1.4298,0.1558,-0.0821,-0.7672,6.1759,
3.162214,-1.1019,1.0741,-0.6607,-2.4320,-1.4298,0.1558,-0.0821,-0.7672,6.1759,
3.165262,-1.1019,1.0741,-0.6607,-2.4320,-1.4298,0.1558,-0.0071,-4.5827,6.8878,
3.168061,-1.1019,1.0741,-0.6607,-12.9244,2.7827,-2.5177,-0.0071,-4.5827,6.8878,
3.212966,-0.4913,0.9735,-0.6707,-12.9244,2.7827,-2.5177,-0.0071,-4.5827,6.8878,
3.215282,-0.0422,1.1591,-0.4356,-12.9244,2.7827,-2.5177,-0.0071,-4.5827,6.8878,
3.216876,0.2237,1.2435,-0.1226,-12.9244,2.7827,-2.5177,-0.0071,-4.5827,6.8878,
3.219029,0.2237,1.2435,-0.1226,-12.9244,2.7827,-2.5177,0.1207,-9.9588,6.5131,
3.220785,0.2237,1.2435,-0.1226,-3.4525,2.7057,0.2482,0.1207,-9.9588,6.5131,
3.272645,0.3108,1.1420,0.1528,-3.4525,2.7057,0.2482,0.1207,-9.9588,6.5131,
3.277946,0.1494,1.0035,0.4791,-3.4525,2.7057,0.2482,0.1207,-9.9588,6.5131,
3.280508,-0.2176,0.7374,0.4739,-3.4525,2.7057,0.2482,0.1207,-9.9588,6.5131,
3.282398,-0.2176,0.7374,0.4739,-3.4525,2.7057,0.2482,-0.5386,-6.0977,2.2073,
3.284970,-0.2176,0.7374,0.4739,-1.0488,1.2281,8.2835,-0.5386,-6.0977,2.2073,
3.330045,-1.1744,1.5063,-0.1231,-1.0488,1.2281,8.2835,-0.5386,-6.0977,2.2073,
3.332079,-1.2316,1.9699,2.0388,-1.0488,1.2281,8.2835,-0.5386,-6.0977,2.2073,
3.333520,0.5911,1.3541,0.6951,-1.0488,1.2281,8.2835,-0.5386,-6.0977,2.2073,
3.334712,0.5911,1.3541,0.6951,-1.0488,1.2281,8.2835,-0.8978,-1.7206,-1.2730,
3.337021,0.5911,1.3541,0.6951,-6.5646,7.1437,12.6980,-0.8978,-1.7206,-1.2730,
3.387398,1.1932,1.4408,-1.0668,-6.5646,7.1437,12.6980,-0.8978,-1.7206,-1.2730,
3.390851,0.7520,1.5685,-1.4806,-6.5646,7.1437,12.6980,-0.8978,-1.7206,-1.2730,
3.393523,-0.3279,1.0926,-0.4532,-6.5646,7.1437,12.6980,-0.8978,-1.7206,-1.2730,
3.396047,-0.3279,1.0926,-0.4532,-6.5646,7.1437,12.6980,-0.8990,-0.4048,-1.3744,
3.398879,-0.3279,1.0926,-0.4532,5.3531,4.4635,-5.9783,-0.8990,-0.4048,-1.3744,
3.446146,-0.9120,0.7884,-0.3033,5.3531,4.4635,-5.9783,-0.8990,-0.4048,-1.3744,
3.448344,-0.6194,0.7960,-0.0232,5.3531,4.4635,-5.9783,-0.8990,-0.4048,-1.3744,
3.449945,-0.2608,0.9173,0.0596,5.3531,4.4635,-5.9783,-0.8990,-0.4048,-1.3744,
3.450975,-0.2608,0.9173,0.0596,5.3531,4.4635,-5.9783,-0.8573,-0.5276,-0.8558,
3.452304,-0.2608,0.9173,0.0596,-5.1375,-0.9112,2.4474,-0.8573,-0.5276,-0.8558,
3.504664,-0.0232,0.9850,-0.1780,-5.1375,-0.9112,2.4474,-0.8573,-0.5276,-0.8558,
3.506347,-0.0542,0.9933,-0.2708,-5.1375,-0.9112,2.4474,-0.8573,-0.5276,-0.8558,
3.507092,-0.2720,0.9623,-0.3125,-5.1375,-0.9112,2.4474,-0.8573,-0.5276,-0.8558,
3.508096,-0.2720,0.9623,-0.3125,-5.1375,-0.9112,2.4474,-0.3193,-0.3645,-0.0142,
3.509719,-0.2720,0.9623,-0.3125,-0.3431,0.4546,0.6350,-0.3193,-0.3645,-0.0142,
3.562822,-0.5001,0.9684,-0.3174,-0.3431,0.4546,0.6350,-0.3193,-0.3645,-0.0142,
3.564917,-0.3719,0.9383,-0.2766,-0.3431,0.4546,0.6350,-0.3193,-0.3645,-0.0142,
3.565806,-0.1340,0.9073,-0.2930,-0.3431,0.4546,0.6350,-0.3193,-0.3645,-0.0142,
3.566671,-0.1340,0.9073,-0.2930,-0.3431,0.4546,0.6350,-0.2073,-0.3667,0.4453,
3.567367,-0.1340,0.9073,-0.2930,-2.6168,-0.0140,0.0959,-0.2073,-0.3667,0.4453,
3.621625,0.0427,0.9466,-0.2373,-2.6168,-0.0140,0.0959,-0.2073,-0.3667,0.4453,
3.624044,0.1318,0.9701,-0.2974,-2.6168,-0.0140,0.0959,-0.2073,-0.3667,0.4453,
3.625190,0.1035,0.9764,-0.2449,-2.6168,-0.0140,0.0959,-0.2073,-0.3667,0.4453,
3.626301,0.1035,0.9764,-0.2449,-2.6168,-0.0140,0.0959,-0.1992,-0.3506,0.6714,
3.627418,0.1035,0.9764,-0.2449,1.2549,0.1868,0.3233,-0.1992,-0.3506,0.6714,
3.679506,0.0732,0.9613,-0.2132,1.2549,0.1868,0.3233,-0.1992,-0.3506,0.6714,
3.681224,0.0527,0.9288,-0.2249,1.2549,0.1868,0.3233,-0.1992,-0.3506,0.6714,
3.682323,0.0364,0.9417,-0.2029,1.2549,0.1868,0.3233,-0.1992,-0.3506,0.6714,
3.683204,0.0364,0.9417,-0.2029,1.2549,0.1868,0.3233,-0.0902,-0.3190,0.1825,
3.684033,0.0364,0.9417,-0.2029,0.8171,-0.0312,0.7099,-0.0902,-0.3190,0.1825,
3.739673,0.0066,0.9630,-0.1953,0.8171,-0.0312,0.7099,-0.0902,-0.3190,0.1825,
3.743845,-0.0764,0.9894,-0.0950,0.8171,-0.0312,0.7099,-0.0902,-0.3190,0.1825,
3.746266,-0.0813,0.9405,-0.0547,0.8171,-0.0312,0.7099,-0.0902,-0.3190,0.1825,
3.749208,-0.0813,0.9405,-0.0547,-0.0938,0.1880,1.7093,-0.0902,-0.3190,0.1825,
3.750901,-0.0813,0.9405,-0.0547,-0.0938,0.1880,1.7093,0.1311,-0.4744,-0.0619,
3.796738,-0.0713,0.9308,-0.1939,-0.0938,0.1880,1.7093,0.1311,-0.4744,-0.0619,
3.799596,-0.0425,0.9337,-0.3160,-0.0938,0.1880,1.7093,0.1311,-0.4744,-0.0619,
3.801131,-0.1272,1.0233,-0.1990,-0.0938,0.1880,1.7093,0.1311,-0.4744,-0.0619,
3.803029,-0.1272,1.0233,-0.1990,-0.2844,0.2290,0.6883,0.1311,-0.4744,-0.0619,
3.804825,-0.1272,1.0233,-0.1990,-0.2844,0.2290,0.6883,0.3506,-0.3730,-0.0643,
3.855146,-0.0313,1.0199,-0.2234,-0.2844,0.2290,0.6883,0.3506,-0.3730,-0.0643,
3.858744,-0.0095,1.0138,-0.2769,-0.2844,0.2290,0.6883,0.3506,-0.3730,-0.0643,
3.860248,0.0728,1.0370,-0.2705,-0.2844,0.2290,0.6883,0.3506,-0.3730,-0.0643,
3.862259,0.0728,1.0370,-0.2705,-0.2844,0.2290,0.6883,0.6304,-0.5247,-0.0319,
3.864277,0.0728,1.0370,-0.2705,0.7091,0.9280,0.7916,0.6304,-0.5247,-0.0319,
3.914060,0.1275,0.9989,-0.2307,0.7091,0.9280,0.7916,0.6304,-0.5247,-0.0319,
3.916444,0.0574,1.0209,-0.1995,0.7091,0.9280,0.7916,0.6304,-0.5247,-0.0319,
3.918989,0.1172,1.0719,-0.1231,0.7091,0.9280,0.7916,0.6304,-0.5247,-0.0319,
3.920949,0.1172,1.0719,-0.1231,0.7091,0.9280,0.7916,1.1997,-0.7919,-0.3215,
3.923014,0.1172,1.0719,-0.1231,1.8935,1.2426,2.0600,1.1997,-0.7919,-0.3215,
3.971488,0.2669,1.1183,-0.1045,1.8935,1.2426,2.0600,1.1997,-0.7919,-0.3215,
3.973792,0.2598,1.2391,-0.1699,1.8935,1.2426,2.0600,1.1997,-0.7919,-0.3215,
3.974781,0.2630,1.4169,-0.2740,1.8935,1.2426,2.0600,1.1997,-0.7919,-0.3215,
3.975695,0.2630,1.4169,-0.2740,1.8935,1.2426,2.0600,1.9941,-1.1688,-0.7784,
3.976668,0.2630,1.4169,-0.2740,4.1013,3.9663,2.9405,1.9941,-1.1688,-0.7784,
4.030490,0.4344,1.5707,-0.2376,4.1013,3.9663,2.9405,1.9941,-1.1688,-0.7784,
4.033808,0.5723,1.6879,-0.1106,4.1013,3.9663,2.9405,1.9941,-1.1688,-0.7784,
4.035962,0.1619,1.4901,0.1196,4.1013,3.9663,2.9405,1.9941,-1.1688,-0.7784,
4.037844,0.1619,1.4901,0.1196,6.0349,7.9193,4.9682,1.9941,-1.1688,-0.7784,
4.040199,0.1619,1.4901,0.1196,6.0349,7.9193,4.9682,2.6131,-1.2665,-0.8829,
4.089390,-0.5931,1.1681,0.1968,6.0349,7.9193,4.9682,2.6131,-1.2665,-0.8829,
4.090952,-1.2191,1.2484,0.0037,6.0349,7.9193,4.9682,2.6131,-1.2665,-0.8829,
4.091678,-1.5590,1.3092,-0.2544,6.0349,7.9193,4.9682,2.6131,-1.2665,-0.8829,
4.092379,-1.5590,1.3092,-0.2544,6.0349,7.9193,4.9682,2.6754,-3.1311,-1.2451,
4.093118,-1.5590,1.3092,-0.2544,-7.0567,5.6436,5.9798,2.6754,-3.1311,-1.2451,
4.147268,-1.2838,0.9264,-0.4976,-7.0567,5.6436,5.9798,2.6754,-3.1311,-1.2451,
4.151240,-0.6844,0.7418,-0.6168,-7.0567,5.6436,5.9798,2.6754,-3.1311,-1.2451,
4.153258,0.0701,0.7603,-0.4251,-7.0567,5.6436,5.9798,2.6754,-3.1311,-1.2451,
4.155113,0.0701,0.7603,-0.4251,-7.0567,5.6436,5.9798,1.7184,-6.3331,1.3667,
4.157261,0.0701,0.7603,-0.4251,-0.6359,1.5583,-0.0287,1.7184,-6.3331,1.3667,
4.205247,0.6414,0.5679,0.2791,-0.6359,1.5583,-0.0287,1.7184,-6.3331,1.3667,
4.207800,0.3174,0.4708,0.5418,-0.6359,1.5583,-0.0287,1.7184,-6.3331,1.3667,
4.209759,-0.0505,0.5687,0.2730,-0.6359,1.5583,-0.0287,1.7184,-6.3331,1.3667,
4.213260,-0.0505,0.5687,0.2730,-0.6359,1.5583,-0.0287,0.7522,-4.6324,3.2352,
4.215624,-0.0505,0.5687,0.2730,8.3009,-1.9605,7.2130,0.7522,-4.6324,3.2352,
4.263283,-0.2210,0.6783,0.0945,8.3009,-1.9605,7.2130,0.7522,-4.6324,3.2352,
4.264909,-0.1770,0.7296,0.0510,8.3009,-1.9605,7.2130,0.7522,-4.6324,3.2352,
4.265918,-0.1309,0.7442,0.0637,8.3009,-1.9605,7.2130,0.7522,-4.6324,3.2352,
4.266884,-0.1309,0.7442,0.0637,8.3009,-1.9605,7.2130,0.8159,-1.8210,4.1203,
4.268317,-0.1309,0.7442,0.0637,2.0880,-1.1181,4.1016,0.8159,-1.8210,4.1203,
4.322477,-0.1372,0.8023,-0.0012,2.0880,-1.1181,4.1016,0.8159,-1.8210,4.1203,
4.325533,-0.1336,0.9772,-0.0735,2.0880,-1.1181,4.1016,0.8159,-1.8210,4.1203,
4.327258,-0.1172,1.1571,-0.0811,2.0880,-1.1181,4.1016,0.8159,-1.8210,4.1203,
4.329601,-0.1172,1.1571,-0.0811,2.0880,-1.1181,4.1016,-0.4490,0.0257,5.4761,
4.332443,-0.1172,1.1571,-0.0811,-0.2129,0.5552,2.6125,-0.4490,0.0257,5.4761,
4.379992,-0.1804,1.2738,-0.1140,-0.2129,0.5552,2.6125,-0.4490,0.0257,5.4761,
4.382471,-0.4361,1.4689,-0.2527,-0.2129,0.5552,2.6125,-0.4490,0.0257,5.4761,
4.383754,-0.6412,1.5883,-0.3770,-0.2129,0.5552,2.6125,-0.4490,0.0257,5.4761,
4.385143,-0.6412,1.5883,-0.3770,-0.2129,0.5552,2.6125,-1.4897,0.5881,5.6457,
4.386528,-0.6412,1.5883,-0.3770,-6.0573,4.9520,-0.1266,-1.4897,0.5881,5.6457,
4.437225,-0.7970,1.4999,-0.2683,-6.0573,4.9520,-0.1266,-1.4897,0.5881,5.6457,
4.438886,-0.9442,1.3856,-0.1580,-6.0573,4.9520,-0.1266,-1.4897,0.5881,5.6457,
4.439537,-0.9693,1.1832,-0.2012,-6.0573,4.9520,-0.1266,-1.4897,0.5881,5.6457,
4.440143,-0.9693,1.1832,-0.2012,-6.0573,4.9520,-0.1266,-1.5368,0.7864,4.1179,
4.440757,-0.9693,1.1832,-0.2012,-12.8209,4.5923,-0.6831,-1.5368,0.7864,4.1179,
4.495590,-1.1688,0.9864,-0.3247,-12.8209,4.5923,-0.6831,-1.5368,0.7864,4.1179,
4.497598,-1.3317,0.8802,-0.4683,-12.8209,4.5923,-0.6831,-1.5368,0.7864,4.1179,
4.499050,-1.2194,1.1329,-1.0516,-12.8209,4.5923,-0.6831,-1.5368,0.7864,4.1179,
4.500347,-1.2194,1.1329,-1.0516,-12.8209,4.5923,-0.6831,-0.4455,-0.2779,-0.4940,
4.502759,-1.2194,1.1329,-1.0516,-15.5815,0.9409,-4.7400,-0.4455,-0.2779,-0.4940,
4.554353,0.2996,1.8459,-0.7073,-15.5815,0.9409,-4.7400,-0.4455,-0.2779,-0.4940,
4.555960,2.4553,1.7179,0.4214,-15.5815,0.9409,-4.7400,-0.4455,-0.2779,-0.4940,
4.556750,0.8309,1.1090,-0.5479,-15.5815,0.9409,-4.7400,-0.4455,-0.2779,-0.4940,
4.557538,0.8309,1.1090,-0.5479,-15.5815,0.9409,-4.7400,-0.5895,-2.9474,-1.0181,
4.558415,0.8309,1.1090,-0.5479,8.9046,6.0751,-1.2048,-0.5895,-2.9474,-1.0181,
4.612746,-0.7735,0.9488,-0.9820,8.9046,6.0751,-1.2048,-0.5895,-2.9474,-1.0181,
4.614349,-0.4759,0.7264,0.2237,8.9046,6.0751,-1.2048,-0.5895,-2.9474,-1.0181,
4.615341,-0.2671,0.7867,0.5599,8.9046,6.0751,-1.2048,-0.5895,-2.9474,-1.0181,
4.616214,-0.2671,0.7867,0.5599,8.9046,6.0751,-1.2048,-0.3213,-0.3022,-2.8601,
4.617053,-0.2671,0.7867,0.5599,-6.0653,-1.4829,0.7400,-0.3213,-0.3022,-2.8601,
4.670696,0.0479,1.0929,0.2009,-6.0653,-1.4829,0.7400,-0.3213,-0.3022,-2.8601,
4.672799,0.0398,1.1078,-0.1643,-6.0653,-1.4829,0.7400,-0.3213,-0.3022,-2.8601,
4.673542,-0.1543,1.0438,-0.2305,-6.0653,-1.4829,0.7400,-0.3213,-0.3022,-2.8601,
4.674061,-0.1543,1.0438,-0.2305,-6.0653,-1.4829,0.7400,0.1525,0.0959,-1.4734,
4.674581,-0.1543,1.0438,-0.2305,-0.5071,1.0088,0.8243,0.1525,0.0959,-1.4734,
4.729565,-0.1782,1.0797,-0.2266,-0.5071,1.0088,0.8243,0.1525,0.0959,-1.4734,
4.731221,-0.1106,1.0011,-0.1426,-0.5071,1.0088,0.8243,0.1525,0.0959,-1.4734,
4.731840,-0.0774,0.9781,-0.0610,-0.5071,1.0088,0.8243,0.1525,0.0959,-1.4734,
4.732576,-0.0774,0.9781,-0.0610,-0.5071,1.0088,0.8243,0.1018,-0.4292,-1.0488,
4.733088,-0.0774,0.9781,-0.0610,-0.8472,0.4056,0.1049,0.1018,-0.4292,-1.0488,
4.788493,-0.0095,1.0216,-0.1460,-0.8472,0.4056,0.1049,0.1018,-0.4292,-1.0488,
4.790322,0.0711,1.0201,-0.1975,-0.8472,0.4056,0.1049,0.1018,-0.4292,-1.0488,
4.790970,0.0571,1.0018,-0.0816,-0.8472,0.4056,0.1049,0.1018,-0.4292,-1.0488,
4.791762,0.0571,1.0018,-0.0816,-0.8472,0.4056,0.1049,0.1407,-0.1529,-0.9026,
4.792638,0.0571,1.0018,-0.0816,1.2332,0.3935,0.1920,0.1407,-0.1529,-0.9026,
4.846276,-0.0669,1.0218,-0.0881,1.2332,0.3935,0.1920,0.1407,-0.1529,-0.9026,
4.849010,-0.1055,1.0262,-0.1272,1.2332,0.3935,0.1920,0.1407,-0.1529,-0.9026,
4.851005,-0.0847,1.0270,-0.1204,1.2332,0.3935,0.1920,0.1407,-0.1529,-0.9026,
4.852746,-0.0847,1.0270,-0.1204,1.2332,0.3935,0.1920,0.2187,-0.0120,-1.1433,
4.854577,-0.0847,1.0270,-0.1204,0.6301,0.5851,0.5948,0.2187,-0.0120,-1.1433,
4.904091,-0.1023,1.0170,-0.1382,0.6301,0.5851,0.5948,0.2187,-0.0120,-1.1433,
4.906039,-0.1348,0.9940,-0.1228,0.6301,0.5851,0.5948,0.2187,-0.0120,-1.1433,
4.906804,-0.1336,0.9906,-0.1309,0.6301,0.5851,0.5948,0.2187,-0.0120,-1.1433,
4.907330,-0.1336,0.9906,-0.1309,0.6301,0.5851,0.5948,0.3366,0.1660,-1.2415,
4.908014,-0.1336,0.9906,-0.1309,0.9056,0.5022,0.6032,0.3366,0.1660,-1.2415,
4.964362,-0.0239,1.0016,-0.1162,0.9056,0.5022,0.6032,0.3366,0.1660,-1.2415,
4.967848,0.0540,1.0553,-0.0903,0.9056,0.5022,0.6032,0.3366,0.1660,-1.2415,
4.971254,-0.0051,1.1344,-0.1074,0.9056,0.5022,0.6032,0.3366,0.1660,-1.2415,
4.973569,-0.0051,1.1344,-0.1074,0.9056,0.5022,0.6032,0.5325,0.0892,-1.5410,
4.975487,-0.0051,1.1344,-0.1074,2.9609,1.3885,1.1356,0.5325,0.0892,-1.5410,
5.021973,-0.0720,1.2015,-0.1272,2.9609,1.3885,1.1356,0.5325,0.0892,-1.5410,
5.024541,-0.0012,1.2658,-0.1348,2.9609,1.3885,1.1356,0.5325,0.0892,-1.5410,
5.025827,0.1463,1.4088,-0.1541,2.9609,1.3885,1.1356,0.5325,0.0892,-1.5410,
5.027103,0.1463,1.4088,-0.1541,2.9609,1.3885,1.1356,1.0269,-0.0690,-2.0694,
5.028804,0.1463,1.4088,-0.1541,4.1176,4.1138,1.2909,1.0269,-0.0690,-2.0694,
5.080052,0.4151,1.6867,0.0305,4.1176,4.1138,1.2909,1.0269,-0.0690,-2.0694,
5.081995,0.9349,1.9482,0.0613,4.1176,4.1138,1.2909,1.0269,-0.0690,-2.0694,
5.082973,1.2316,1.7910,0.0798,4.1176,4.1138,1.2909,1.0269,-0.0690,-2.0694,
5.083855,1.2316,1.7910,0.0798,4.1176,4.1138,1.2909,1.3590,0.2087,-2.3382,
5.084706,1.2316,1.7910,0.0798,13.1628,9.8511,3.8457,1.3590,0.2087,-2.3382,
5.137503,0.6085,1.3195,0.2425,13.1628,9.8511,3.8457,1.3590,0.2087,-2.3382,
5.139065,-0.4095,1.1349,-0.0608,13.1628,9.8511,3.8457,1.3590,0.2087,-2.3382,
5.139767,-1.0780,1.4479,-0.2918,13.1628,9.8511,3.8457,1.3590,0.2087,-2.3382,
5.140414,-1.0780,1.4479,-0.2918,13.1628,9.8511,3.8457,1.2893,2.3052,-3.8763,
5.140996,-1.0780,1.4479,-0.2918,2.8922,6.2649,4.1209,1.2893,2.3052,-3.8763,
5.196534,-1.1114,1.3483,-0.4708,2.8922,6.2649,4.1209,1.2893,2.3052,-3.8763,
5.197766,-0.6382,0.7669,-0.4812,2.8922,6.2649,4.1209,1.2893,2.3052,-3.8763,
5.198471,-0.5914,0.5482,-0.3511,2.8922,6.2649,4.1209,1.2893,2.3052,-3.8763,
5.199066,-0.5914,0.5482,-0.3511,-1.3318,3.1974,0.8306,1.2893,2.3052,-3.8763,
5.199675,-0.5914,0.5482,-0.3511,-1.3318,3.1974,0.8306,0.8650,0.9167,-2.2496,
5.254414,-0.4146,0.4039,-0.6353,-1.3318,3.1974,0.8306,0.8650,0.9167,-2.2496,
5.256467,-0.2928,0.2798,-0.3138,-1.3318,3.1974,0.8306,0.8650,0.9167,-2.2496,
5.257405,-0.2647,0.1782,-0.2610,-1.3318,3.1974,0.8306,0.8650,0.9167,-2.2496,
5.258479,-0.2647,0.1782,-0.2610,-1.3318,3.1974,0.8306,-1.4861,-0.1140,0.9027,
5.259667,-0.2647,0.1782,-0.2610,2.8096,-3.3746,0.5794,-1.4861,-0.1140,0.9027,
5.312794,-0.1633,0.1760,-0.2810,2.8096,-3.3746,0.5794,-1.4861,-0.1140,0.9027,
5.315389,-0.0896,0.2332,-0.4307,2.8096,-3.3746,0.5794,-1.4861,-0.1140,0.9027,
5.316515,-0.0588,0.3523,-0.5118,2.8096,-3.3746,0.5794,-1.4861,-0.1140,0.9027,
5.317660,-0.0588,0.3523,-0.5118,2.8096,-3.3746,0.5794,-2.4812,-0.8998,3.2672,
5.319218,-0.0588,0.3523,-0.5118,3.7629,-5.2176,-0.7499,-2.4812,-0.8998,3.2672,
5.372926,-0.0579,0.4871,-0.4654,3.7629,-5.2176,-0.7499,-2.4812,-0.8998,3.2672,
5.376290,-0.0068,0.5740,-0.4395,3.7629,-5.2176,-0.7499,-2.4812,-0.8998,3.2672,
5.378794,0.0251,0.6329,-0.3147,3.7629,-5.2176,-0.7499,-2.4812,-0.8998,3.2672,
5.381245,0.0251,0.6329,-0.3147,3.7629,-5.2176,-0.7499,-2.8155,-0.2594,5.1877,
5.383718,0.0251,0.6329,-0.3147,2.0740,-3.6017,-2.1619,-2.8155,-0.2594,5.1877,
5.430770,0.0012,0.8809,-0.2351,2.0740,-3.6017,-2.1619,-2.8155,-0.2594,5.1877,
5.433588,-0.0178,1.3585,-0.5772,2.0740,-3.6017,-2.1619,-2.8155,-0.2594,5.1877,
5.436309,-0.4192,1.7763,-0.8482,2.0740,-3.6017,-2.1619,-2.8155,-0.2594,5.1877,
5.439726,-0.4192,1.7763,-0.8482,2.0740,-3.6017,-2.1619,-1.9106,1.0615,5.8898,
5.443930,-0.4192,1.7763,-0.8482,-2.4855,3.5821,-4.5569,-1.9106,1.0615,5.8898,
5.487973,-0.8702,1.6806,-0.6092,-2.4855,3.5821,-4.5569,-1.9106,1.0615,5.8898,
5.489884,-1.0922,1.4684,-0.4261,-2.4855,3.5821,-4.5569,-1.9106,1.0615,5.8898,
5.490767,-0.9127,1.2850,-0.2539,-2.4855,3.5821,-4.5569,-1.9106,1.0615,5.8898,
5.491425,-0.9127,1.2850,-0.2539,-2.4855,3.5821,-4.5569,-2.0542,1.2928,5.0981,
5.492169,-0.9127,1.2850,-0.2539,-13.0036,5.5617,-4.5666,-2.0542,1.2928,5.0981,
5.545940,-0.7598,1.0270,-0.4852,-13.0036,5.5617,-4.5666,-2.0542,1.2928,5.0981,
5.547767,-1.0672,0.8729,-0.4808,-13.0036,5.5617,-4.5666,-2.0542,1.2928,5.0981,
5.549086,-1.2716,0.9938,-0.5457,-13.0036,5.5617,-4.5666,-2.0542,1.2928,5.0981,
5.549994,-1.2716,0.9938,-0.5457,-13.0036,5.5617,-4.5666,-0.4706,-0.5347,0.6815,
5.551441,-1.2716,0.9938,-0.5457,-13.8681,0.6817,-5.3174,-0.4706,-0.5347,0.6815,
5.604503,-0.6722,1.8378,-0.5315,-13.8681,0.6817,-5.3174,-0.4706,-0.5347,0.6815,
5.606107,2.1745,1.9140,1.1962,-13.8681,0.6817,-5.3174,-0.4706,-0.5347,0.6815,
5.606925,2.0910,1.4713,-0.1458,-13.8681,0.6817,-5.3174,-0.4706,-0.5347,0.6815,
5.607749,2.0910,1.4713,-0.1458,-13.8681,0.6817,-5.3174,-0.5461,-2.0427,-1.5188,
5.608561,2.0910,1.4713,-0.1458,8.5985,7.8698,1.4159,-0.5461,-2.0427,-1.5188,
5.662527,-0.5591,1.0096,-1.2457,8.5985,7.8698,1.4159,-0.5461,-2.0427,-1.5188,
5.664074,-1.1403,0.7860,0.1504,8.5985,7.8698,1.4159,-0.5461,-2.0427,-1.5188,
5.664825,-0.7486,0.7921,0.1402,8.5985,7.8698,1.4159,-0.5461,-2.0427,-1.5188,
5.665563,-0.7486,0.7921,0.1402,8.5985,7.8698,1.4159,0.3903,0.4521,-3.5986,
5.666211,-0.7486,0.7921,0.1402,-8.9952,-1.1762,-3.1639,0.3903,0.4521,-3.5986,
5.720840,-0.4424,1.1005,0.1458,-8.9952,-1.1762,-3.1639,0.3903,0.4521,-3.5986,
5.722138,-0.1172,1.1222,-0.0794,-8.9952,-1.1762,-3.1639,0.3903,0.4521,-3.5986,
5.722749,0.0769,1.0682,-0.0444,-8.9952,-1.1762,-3.1639,0.3903,0.4521,-3.5986,
5.723330,0.0769,1.0682,-0.0444,-8.9952,-1.1762,-3.1639,0.1450,-0.3345,-1.2484,
5.723920,0.0769,1.0682,-0.0444,-1.8404,1.0559,0.1155,0.1450,-0.3345,-1.2484,
5.780828,0.1695,1.0746,-0.0569,-1.8404,1.0559,0.1155,0.1450,-0.3345,-1.2484,
5.783522,0.1272,1.0062,-0.0115,-1.8404,1.0559,0.1155,0.1450,-0.3345,-1.2484,
5.784749,-0.1377,1.0028,0.0947,-1.8404,1.0559,0.1155,0.1450,-0.3345,-1.2484,
5.786547,-0.1377,1.0028,0.0947,-1.8404,1.0559,0.1155,0.1429,0.0102,-1.0596,
5.788801,-0.1377,1.0028,0.0947,0.8404,0.3753,0.2082,0.1429,0.0102,-1.0596,
5.840222,-0.1738,0.9994,0.0923,0.8404,0.3753,0.2082,0.1429,0.0102,-1.0596,
5.843787,-0.0017,0.9801,0.0461,0.8404,0.3753,0.2082,0.1429,0.0102,-1.0596,
5.846025,0.0908,0.9950,0.0125,0.8404,0.3753,0.2082,0.1429,0.0102,-1.0596,
5.847945,0.0908,0.9950,0.0125,0.8404,0.3753,0.2082,0.2362,0.0813,-0.9704,
5.850239,0.0908,0.9950,0.0125,0.5819,0.0542,0.7389,0.2362,0.0813,-0.9704,
5.898518,0.0098,1.0152,-0.0029,0.5819,0.0542,0.7389,0.2362,0.0813,-0.9704,
5.902025,-0.0696,0.9920,-0.0054,0.5819,0.0542,0.7389,0.2362,0.0813,-0.9704,
5.904381,-0.0772,0.9818,0.0132,0.5819,0.0542,0.7389,0.2362,0.0813,-0.9704,
5.906678,-0.0772,0.9818,0.0132,0.5819,0.0542,0.7389,0.3077,0.2890,-1.2115,
5.909220,-0.0772,0.9818,0.0132,1.0674,0.1896,0.4477,0.3077,0.2890,-1.2115,
5.955157,-0.1646,1.0033,0.0498,1.0674,0.1896,0.4477,0.3077,0.2890,-1.2115,
5.957894,-0.2012,0.9877,0.0432,1.0674,0.1896,0.4477,0.3077,0.2890,-1.2115,
5.959296,-0.0916,0.9613,-0.0039,1.0674,0.1896,0.4477,0.3077,0.2890,-1.2115,
5.960289,-0.0916,0.9613,-0.0039,1.0674,0.1896,0.4477,0.3423,0.3093,-1.3353,
5.961707,-0.0916,0.9613,-0.0039,0.7385,0.2227,0.9307,0.3423,0.3093,-1.3353,
6.013931,0.0022,0.9798,-0.0794,0.7385,0.2227,0.9307,0.3423,0.3093,-1.3353,
6.017224,-0.0483,0.9962,-0.1433,0.7385,0.2227,0.9307,0.3423,0.3093,-1.3353,
6.019410,-0.1453,1.0572,-0.1582,0.7385,0.2227,0.9307,0.3423,0.3093,-1.3353,
6.022231,-0.1453,1.0572,-0.1582,2.4608,0.7509,-0.3793,0.3423,0.3093,-1.3353,
6.024337,-0.1453,1.0572,-0.1582,2.4608,0.7509,-0.3793,0.3461,0.2045,-1.6689,
6.072404,-0.1275,1.1608,-0.1106,2.4608,0.7509,-0.3793,0.3461,0.2045,-1.6689,
6.076455,-0.0449,1.2196,-0.0803,2.4608,0.7509,-0.3793,0.3461,0.2045,-1.6689,
6.078913,-0.0198,1.1542,-0.1018,2.4608,0.7509,-0.3793,0.3461,0.2045,-1.6689,
6.081302,-0.0198,1.1542,-0.1018,3.4994,2.8192,0.1736,0.3461,0.2045,-1.6689,
6.083394,-0.0198,1.1542,-0.1018,3.4994,2.8192,0.1736,0.5206,-0.0093,-2.1109,
6.129867,-0.0305,1.1749,-0.1370,3.4994,2.8192,0.1736,0.5206,-0.0093,-2.1109,
6.131241,0.0786,1.4833,-0.1565,3.4994,2.8192,0.1736,0.5206,-0.0093,-2.1109,
6.131921,0.6646,2.0068,-0.0002,3.4994,2.8192,0.1736,0.5206,-0.0093,-2.1109,
6.132454,0.6646,2.0068,-0.0002,3.4994,2.8192,0.1736,0.7790,0.8292,-2.4496,
6.133031,0.6646,2.0068,-0.0002,7.4555,7.1287,0.7692,0.7790,0.8292,-2.4496,
6.189038,1.4862,1.9309,-0.2434,7.4555,7.1287,0.7692,0.7790,0.8292,-2.4496,
6.190792,0.8048,1.2162,-0.2039,7.4555,7.1287,0.7692,0.7790,0.8292,-2.4496,
6.191517,-0.5943,0.8319,-0.2051,7.4555,7.1287,0.7692,0.7790,0.8292,-2.4496,
6.192361,-0.5943,0.8319,-0.2051,7.4555,7.1287,0.7692,1.0613,2.8084,-3.1362,
6.193191,-0.5943,0.8319,-0.2051,11.4558,5.9718,0.9832,1.0613,2.8084,-3.1362,
6.245924,-1.4660,1.2252,-0.4749,11.4558,5.9718,0.9832,1.0613,2.8084,-3.1362,
6.247707,-1.5041,1.2804,-0.3970,11.4558,5.9718,0.9832,1.0613,2.8084,-3.1362,
6.249015,-0.9010,0.5972,-0.0798,11.4558,5.9718,0.9832,1.0613,2.8084,-3.1362,
6.250956,-0.9010,0.5972,-0.0798,-5.8230,4.5218,1.1332,1.0613,2.8084,-3.1362,
6.253010,-0.9010,0.5972,-0.0798,-5.8230,4.5218,1.1332,1.6125,1.5246,-3.0788,
6.304682,-0.7928,0.2823,-0.3973,-5.8230,4.5218,1.1332,1.6125,1.5246,-3.0788,
6.306875,-0.5276,0.0923,-0.4126,-5.8230,4.5218,1.1332,1.6125,1.5246,-3.0788,
6.307872,-0.1746,-0.1961,0.3501,-5.8230,4.5218,1.1332,1.6125,1.5246,-3.0788,
6.309261,-0.1746,-0.1961,0.3501,-5.8230,4.5218,1.1332,-0.2985,-1.5280,1.6117,
6.312979,-0.1746,-0.1961,0.3501,1.7005,-5.6343,1.9961,-0.2985,-1.5280,1.6117,
6.363575,-0.0010,-0.4353,0.2503,1.7005,-5.6343,1.9961,-0.2985,-1.5280,1.6117,
6.366577,0.0557,-0.0723,-0.0772,1.7005,-5.6343,1.9961,-0.2985,-1.5280,1.6117,
6.367484,0.2427,0.3369,-0.1714,1.7005,-5.6343,1.9961,-0.2985,-1.5280,1.6117,
6.368923,0.2427,0.3369,-0.1714,1.7005,-5.6343,1.9961,-0.2696,-1.8306,5.0010,
6.370348,0.2427,0.3369,-0.1714,5.7118,-8.3661,2.7228,-0.2696,-1.8306,5.0010,
6.421565,-0.0547,0.7638,-0.1685,5.7118,-8.3661,2.7228,-0.2696,-1.8306,5.0010,
6.423388,-0.3318,1.1119,-0.4600,5.7118,-8.3661,2.7228,-0.2696,-1.8306,5.0010,
6.424343,-0.6302,1.3856,-0.4539,5.7118,-8.3661,2.7228,-0.2696,-1.8306,5.0010,
6.425254,-0.6302,1.3856,-0.4539,5.7118,-8.3661,2.7228,0.7265,-1.0635,6.2708,
6.426096,-0.6302,1.3856,-0.4539,-1.4828,1.7164,-0.6644,0.7265,-1.0635,6.2708,
6.480284,-1.1327,1.7099,-0.2547,-1.4828,1.7164,-0.6644,0.7265,-1.0635,6.2708,
6.481833,-1.3722,1.5885,-0.5171,-1.4828,1.7164,-0.6644,0.7265,-1.0635,6.2708,
6.482670,-0.9459,1.4052,-0.5584,-1.4828,1.7164,-0.6644,0.7265,-1.0635,6.2708,
6.483458,-0.9459,1.4052,-0.5584,-1.4828,1.7164,-0.6644,0.4960,-5.9458,7.1615,
6.484247,-0.9459,1.4052,-0.5584,-12.0089,6.2452,-1.2694,0.4960,-5.9458,7.1615,
6.540053,-0.2473,1.2894,-0.3020,-12.0089,6.2452,-1.2694,0.4960,-5.9458,7.1615,
6.543655,0.2862,1.1559,0.2410,-12.0089,6.2452,-1.2694,0.4960,-5.9458,7.1615,
6.546248,0.4849,0.9601,0.4722,-12.0089,6.2452,-1.2694,0.4960,-5.9458,7.1615,
6.548884,0.4849,0.9601,0.4722,0.1916,2.3073,4.9674,0.4960,-5.9458,7.1615,
6.550167,0.4849,0.9601,0.4722,0.1916,2.3073,4.9674,-0.1784,-9.3229,5.0171,
6.597188,0.0671,0.9010,0.5704,0.1916,2.3073,4.9674,-0.1784,-9.3229,5.0171,
6.600971,-0.4861,0.7271,0.6107,0.1916,2.3073,4.9674,-0.1784,-9.3229,5.0171,
6.603611,-1.4164,1.2069,0.1724,0.1916,2.3073,4.9674,-0.1784,-9.3229,5.0171,
6.606782,-1.4164,1.2069,0.1724,0.1916,2.3073,4.9674,-0.0853,-2.5721,0.2692,
6.609402,-1.4164,1.2069,0.1724,-6.9758,0.4493,8.0872,-0.0853,-2.5721,0.2692,
6.655286,-1.3419,1.5321,1.3507,-6.9758,0.4493,8.0872,-0.0853,-2.5721,0.2692,
6.658263,0.2434,0.9503,0.6695,-6.9758,0.4493,8.0872,-0.0853,-2.5721,0.2692,
6.659973,0.6475,1.1019,-0.7799,-6.9758,0.4493,8.0872,-0.0853,-2.5721,0.2692,
6.662178,0.6475,1.1019,-0.7799,-6.9758,0.4493,8.0872,-0.7064,-0.6487,-0.9597,
6.664074,0.6475,1.1019,-0.7799,-1.7875,2.6729,7.2598,-0.7064,-0.6487,-0.9597,
6.712751,0.3350,1.8093,-1.1674,-1.7875,2.6729,7.2598,-0.7064,-0.6487,-0.9597,
6.715056,0.1709,1.6076,-0.7843,-1.7875,2.6729,7.2598,-0.7064,-0.6487,-0.9597,
6.716080,0.2212,0.9093,-0.3440,-1.7875,2.6729,7.2598,-0.7064,-0.6487,-0.9597,
6.716883,0.2212,0.9093,-0.3440,-1.7875,2.6729,7.2598,-0.5166,-0.5850,-0.7880,
6.717898,0.2212,0.9093,-0.3440,2.5407,4.9175,-4.4875,-0.5166,-0.5850,-0.7880,
6.771622,-0.1372,0.9156,-0.0242,2.5407,4.9175,-4.4875,-0.5166,-0.5850,-0.7880,
6.775154,-0.4256,0.9342,0.0977,2.5407,4.9175,-4.4875,-0.5166,-0.5850,-0.7880,
6.776964,-0.3362,0.8971,-0.0154,2.5407,4.9175,-4.4875,-0.5166,-0.5850,-0.7880,
6.778062,-0.3362,0.8971,-0.0154,2.5407,4.9175,-4.4875,-0.3844,-0.8603,-0.5689,
6.779686,-0.3362,0.8971,-0.0154,-2.2812,-0.2888,2.9241,-0.3844,-0.8603,-0.5689,
6.830875,-0.3113,0.9447,-0.2127,-2.2812,-0.2888,2.9241,-0.3844,-0.8603,-0.5689,
6.834893,-0.2259,0.9691,-0.3550,-2.2812,-0.2888,2.9241,-0.3844,-0.8603,-0.5689,
6.837338,-0.1506,0.9791,-0.4124,-2.2812,-0.2888,2.9241,-0.3844,-0.8603,-0.5689,
6.842143,-0.1506,0.9791,-0.4124,-2.2812,-0.2888,2.9241,0.0446,-0.2574,0.1723,
6.844563,-0.1506,0.9791,-0.4124,-1.6162,0.1855,-0.4459,0.0446,-0.2574,0.1723,
6.888613,-0.1184,0.9901,-0.3506,-1.6162,0.1855,-0.4459,0.0446,-0.2574,0.1723,
6.897645,-0.0996,0.9447,-0.3042,-1.6162,0.1855,-0.4459,0.0446,-0.2574,0.1723,
6.900472,0.0378,0.9349,-0.2671,-1.6162,0.1855,-0.4459,0.0446,-0.2574,0.1723,
6.902476,0.0378,0.9349,-0.2671,-1.6162,0.1855,-0.4459,-0.0216,-0.6815,0.5431,
6.905146,0.0378,0.9349,-0.2671,-0.1404,0.0878,-0.2844,-0.0216,-0.6815,0.5431,
6.946872,0.2439,0.9071,-0.1795,-0.1404,0.0878,-0.2844,-0.0216,-0.6815,0.5431,
6.949590,0.2366,0.9337,-0.1795,-0.1404,0.0878,-0.2844,-0.0216,-0.6815,0.5431,
6.950906,0.0823,0.9437,-0.2730,-0.1404,0.0878,-0.2844,-0.0216,-0.6815,0.5431,
6.952166,0.0823,0.9437,-0.2730,-0.1404,0.0878,-0.2844,0.1323,-0.4697,0.2385,
6.953301,0.0823,0.9437,-0.2730,2.1957,-0.1722,0.7114,0.1323,-0.4697,0.2385,
7.004991,-0.1150,0.9571,-0.2495,2.1957,-0.1722,0.7114,0.1323,-0.4697,0.2385,
7.007341,-0.1753,0.9786,-0.2522,2.1957,-0.1722,0.7114,0.1323,-0.4697,0.2385,
7.009415,-0.0701,1.0177,-0.2574,2.1957,-0.1722,0.7114,0.1323,-0.4697,0.2385,
7.012442,-0.0701,1.0177,-0.2574,2.1957,-0.1722,0.7114,0.3643,-0.2966,-0.0674,
7.014971,-0.0701,1.0177,-0.2574,-0.7222,0.4351,0.4776,0.3643,-0.2966,-0.0674,
7.062599,0.1592,0.9649,-0.1643,-0.7222,0.4351,0.4776,0.3643,-0.2966,-0.0674,
7.064192,0.2566,0.9513,-0.1812,-0.7222,0.4351,0.4776,0.3643,-0.2966,-0.0674,
7.065034,0.0530,0.9845,-0.2527,-0.7222,0.4351,0.4776,0.3643,-0.2966,-0.0674,
7.065565,0.0530,0.9845,-0.2527,-0.7222,0.4351,0.4776,0.7065,-0.2702,-0.1116,
7.066250,0.0530,0.9845,-0.2527,2.0603,0.3890,1.3493,0.7065,-0.2702,-0.1116,
7.121075,-0.1018,1.0558,-0.2244,2.0603,0.3890,1.3493,0.7065,-0.2702,-0.1116,
7.122800,-0.0652,1.0697,-0.2564,2.0603,0.3890,1.3493,0.7065,-0.2702,-0.1116,
7.123607,-0.0464,1.0687,-0.3501,2.0603,0.3890,1.3493,0.7065,-0.2702,-0.1116,
7.124199,-0.0464,1.0687,-0.3501,2.0603,0.3890,1.3493,1.2757,0.1371,-0.3351,
7.124893,-0.0464,1.0687,-0.3501,-0.0232,1.6032,1.2391,1.2757,0.1371,-0.3351,
7.179487,0.0137,1.1942,-0.3809,-0.0232,1.6032,1.2391,1.2757,0.1371,-0.3351,
7.180719,0.2793,1.4811,-0.2398,-0.0232,1.6032,1.2391,1.2757,0.1371,-0.3351,
7.181279,0.5574,1.8185,-0.1116,-0.0232,1.6032,1.2391,1.2757,0.1371,-0.3351,
7.181849,0.5574,1.8185,-0.1116,-0.0232,1.6032,1.2391,2.1183,-1.4797,-0.0242,
7.182880,0.5574,1.8185,-0.1116,3.7902,6.2934,2.5008,2.1183,-1.4797,-0.0242,
7.237414,0.6986,1.8701,0.0628,3.7902,6.2934,2.5008,2.1183,-1.4797,-0.0242,
7.238798,0.4195,1.5673,0.3743,3.7902,6.2934,2.5008,2.1183,-1.4797,-0.0242,
7.239314,-0.3999,1.3742,0.5042,3.7902,6.2934,2.5008,2.1183,-1.4797,-0.0242,
7.240076,-0.3999,1.3742,0.5042,3.7902,6.2934,2.5008,2.5571,-2.9315,-0.4707,
7.240695,-0.3999,1.3742,0.5042,4.4265,8.0429,8.7424,2.5571,-2.9315,-0.4707,
7.295480,-1.1971,1.3915,0.1206,4.4265,8.0429,8.7424,2.5571,-2.9315,-0.4707,
7.296828,-1.6645,1.4130,-0.2527,4.4265,8.0429,8.7424,2.5571,-2.9315,-0.4707,
7.297386,-1.2125,1.1551,-0.6194,4.4265,8.0429,8.7424,2.5571,-2.9315,-0.4707,
7.297929,-1.2125,1.1551,-0.6194,4.4265,8.0429,8.7424,2.5779,-4.8939,-1.2734,
7.298624,-1.2125,1.1551,-0.6194,-8.8799,6.2721,3.3247,2.5779,-4.8939,-1.2734,
7.354037,-0.4512,0.9837,-0.6226,-8.8799,6.2721,3.3247,2.5779,-4.8939,-1.2734,
7.355344,0.2017,0.6768,-0.0811,-8.8799,6.2721,3.3247,2.5779,-4.8939,-1.2734,
7.355859,0.2168,0.4830,0.2923,-8.8799,6.2721,3.3247,2.5779,-4.8939,-1.2734,
7.356405,0.2168,0.4830,0.2923,-8.8799,6.2721,3.3247,1.5762,-6.1820,1.6958,
7.357131,0.2168,0.4830,0.2923,5.4651,0.2966,3.1223,1.5762,-6.1820,1.6958,
7.412468,-0.0498,0.4353,0.2625,5.4651,0.2966,3.1223,1.5762,-6.1820,1.6958,
7.413720,-0.2678,0.4368,0.3084,5.4651,0.2966,3.1223,1.5762,-6.1820,1.6958,
7.414332,-0.3189,0.4678,0.2124,5.4651,0.2966,3.1223,1.5762,-6.1820,1.6958,
7.414872,-0.3189,0.4678,0.2124,5.4651,0.2966,3.1223,1.0079,-4.4229,2.7351,
7.415443,-0.3189,0.4678,0.2124,3.3348,-2.9418,5.8837,1.0079,-4.4229,2.7351,
7.470611,-0.2832,0.5367,0.2012,3.3348,-2.9418,5.8837,1.0079,-4.4229,2.7351,
7.472006,-0.2056,0.5662,0.2534,3.3348,-2.9418,5.8837,1.0079,-4.4229,2.7351,
7.472665,-0.2083,0.6678,0.2508,3.3348,-2.9418,5.8837,1.0079,-4.4229,2.7351,
7.473238,-0.2083,0.6678,0.2508,3.3348,-2.9418,5.8837,0.6835,-2.3484,4.7754,
7.473820,-0.2083,0.6678,0.2508,1.3334,-2.6474,5.1970,0.6835,-2.3484,4.7754,
7.529601,-0.2603,0.8382,0.2657,1.3334,-2.6474,5.1970,0.6835,-2.3484,4.7754,
7.530847,-0.2720,1.0423,0.2742,1.3334,-2.6474,5.1970,0.6835,-2.3484,4.7754,
7.531411,-0.2461,1.2455,0.2703,1.3334,-2.6474,5.1970,0.6835,-2.3484,4.7754,
7.532001,-0.2461,1.2455,0.2703,1.3334,-2.6474,5.1970,-0.0890,-1.0395,6.0934,
7.532816,-0.2461,1.2455,0.2703,-1.8938,0.9824,5.2478,-0.0890,-1.0395,6.0934,
7.587400,-0.2439,1.5070,0.1397,-1.8938,0.9824,5.2478,-0.0890,-1.0395,6.0934,
7.589021,-0.4478,1.8647,-0.0496,-1.8938,0.9824,5.2478,-0.0890,-1.0395,6.0934,
7.589784,-0.6148,1.9523,0.0242,-1.8938,0.9824,5.2478,-0.0890,-1.0395,6.0934,
7.590442,-0.6148,1.9523,0.0242,-1.8938,0.9824,5.2478,-1.3899,0.0906,6.1148,
7.592010,-0.6148,1.9523,0.0242,-6.8049,8.1984,2.1670,-1.3899,0.0906,6.1148,
7.645992,-0.7523,1.6542,0.0015,-6.8049,8.1984,2.1670,-1.3899,0.0906,6.1148,
7.647769,-0.8477,1.2982,0.0002,-6.8049,8.1984,2.1670,-1.3899,0.0906,6.1148,
7.648832,-0.8172,1.0658,-0.3172,-6.8049,8.1984,2.1670,-1.3899,0.0906,6.1148,
7.649703,-0.8172,1.0658,-0.3172,-6.8049,8.1984,2.1670,-2.0922,1.7614,3.5797,
7.650360,-0.8172,1.0658,-0.3172,-12.1945,4.4614,-0.6985,-2.0922,1.7614,3.5797,
7.703916,-1.0265,0.8346,-0.5511,-12.1945,4.4614,-0.6985,-2.0922,1.7614,3.5797,
7.706171,-1.2509,0.5823,-0.6378,-12.1945,4.4614,-0.6985,-2.0922,1.7614,3.5797,
7.706978,-1.2250,0.5577,-1.0121,-12.1945,4.4614,-0.6985,-2.0922,1.7614,3.5797,
7.708316,-1.2250,0.5577,-1.0121,-12.1945,4.4614,-0.6985,-0.5956,0.8434,-0.7674,
7.709455,-1.2250,0.5577,-1.0121,-15.0929,-2.3618,-7.2476,-0.5956,0.8434,-0.7674,
7.762636,-0.5921,1.3707,-1.4264,-15.0929,-2.3618,-7.2476,-0.5956,0.8434,-0.7674,
7.764349,1.5185,1.9785,0.0559,-15.0929,-2.3618,-7.2476,-0.5956,0.8434,-0.7674,
7.767371,2.2991,2.0464,-0.0718,-15.0929,-2.3618,-7.2476,-0.5956,0.8434,-0.7674,
7.768162,2.2991,2.0464,-0.0718,7.1423,8.5306,-4.2245,-0.5956,0.8434,-0.7674,
7.769109,2.2991,2.0464,-0.0718,7.1423,8.5306,-4.2245,-0.6750,-4.1089,-0.6597,
7.820591,-0.4878,1.4926,-0.9522,7.1423,8.5306,-4.2245,-0.6750,-4.1089,-0.6597,
7.822562,-0.3894,0.5611,0.1839,7.1423,8.5306,-4.2245,-0.6750,-4.1089,-0.6597,
7.823364,0.1736,0.4070,0.5682,7.1423,8.5306,-4.2245,-0.6750,-4.1089,-0.6597,
7.824007,0.1736,0.4070,0.5682,7.1423,8.5306,-4.2245,-0.1592,-0.9664,-2.4913,
7.824923,0.1736,0.4070,0.5682,-4.2376,-1.4293,-0.0732,-0.1592,-0.9664,-2.4913,
7.879297,-0.0877,1.1193,-0.0625,-4.2376,-1.4293,-0.0732,-0.1592,-0.9664,-2.4913,
7.881290,-0.4163,1.3014,-0.1475,-4.2376,-1.4293,-0.0732,-0.1592,-0.9664,-2.4913,
7.882083,-0.2749,1.0756,-0.2376,-4.2376,-1.4293,-0.0732,-0.1592,-0.9664,-2.4913,
7.882693,-0.2749,1.0756,-0.2376,-4.2376,-1.4293,-0.0732,0.0916,0.4415,-1.4872,
7.883227,-0.2749,1.0756,-0.2376,-3.6095,1.7934,-0.8482,0.0916,0.4415,-1.4872,
7.937697,0.2615,1.0409,-0.0913,-3.6095,1.7934,-0.8482,0.0916,0.4415,-1.4872,
7.939041,0.4429,1.0306,0.0342,-3.6095,1.7934,-0.8482,0.0916,0.4415,-1.4872,
7.939548,0.2156,0.9115,0.2029,-3.6095,1.7934,-0.8482,0.0916,0.4415,-1.4872,
7.940093,0.2156,0.9115,0.2029,-3.6095,1.7934,-0.8482,0.0458,-0.4958,-0.8639,
7.940669,0.2156,0.9115,0.2029,2.4043,0.0761,1.1172,0.0458,-0.4958,-0.8639,
7.995916,0.0105,0.8663,0.1880,2.4043,0.0761,1.1172,0.0458,-0.4958,-0.8639,
7.997132,-0.0696,0.9503,0.0435,2.4043,0.0761,1.1172,0.0458,-0.4958,-0.8639,
7.997613,-0.0459,1.0038,-0.0659,2.4043,0.0761,1.1172,0.0458,-0.4958,-0.8639,
7.998087,-0.0459,1.0038,-0.0659,2.4043,0.0761,1.1172,0.2584,-0.1126,-1.3490,
7.999146,-0.0459,1.0038,-0.0659,-0.1754,-0.4537,1.3085,0.2584,-0.1126,-1.3490,
8.054154,-0.0786,1.0191,-0.0669,-0.1754,-0.4537,1.3085,0.2584,-0.1126,-1.3490,
8.055425,-0.0708,1.0406,-0.0530,-0.1754,-0.4537,1.3085,0.2584,-0.1126,-1.3490,
8.056047,-0.1223,1.0536,-0.0786,-0.1754,-0.4537,1.3085,0.2584,-0.1126,-1.3490,
8.056569,-0.1223,1.0536,-0.0786,-0.1754,-0.4537,1.3085,0.3407,-0.1547,-1.3080,
8.057947,-0.1223,1.0536,-0.0786,0.0232,0.5524,0.3008,0.3407,-0.1547,-1.3080,
8.112451,-0.1599,1.0519,-0.1184,0.0232,0.5524,0.3008,0.3407,-0.1547,-1.3080,
8.113760,-0.0757,1.0270,-0.1240,0.0232,0.5524,0.3008,0.3407,-0.1547,-1.3080,
8.114273,-0.0938,0.9754,-0.1189,0.0232,0.5524,0.3008,0.3407,-0.1547,-1.3080,
8.114766,-0.0938,0.9754,-0.1189,0.0232,0.5524,0.3008,0.3804,0.0562,-1.3058,
8.116029,-0.0938,0.9754,-0.1189,0.5502,0.4719,-0.0140,0.3804,0.0562,-1.3058,
8.171090,-0.1926,0.9671,-0.1297,0.5502,0.4719,-0.0140,0.3804,0.0562,-1.3058,
8.172880,-0.1367,0.9867,-0.1248,0.5502,0.4719,-0.0140,0.3804,0.0562,-1.3058,
8.173753,-0.0574,1.0760,-0.0813,0.5502,0.4719,-0.0140,0.3804,0.0562,-1.3058,
8.174459,-0.0574,1.0760,-0.0813,0.5502,0.4719,-0.0140,0.3942,0.3142,-1.4606,
8.175523,-0.0574,1.0760,-0.0813,1.1218,0.5839,0.3187,0.3942,0.3142,-1.4606,
8.229141,-0.0520,1.2072,-0.0591,1.1218,0.5839,0.3187,0.3942,0.3142,-1.4606,
8.230927,-0.0293,1.2618,-0.0764,1.1218,0.5839,0.3187,0.3942,0.3142,-1.4606,
8.231587,0.0476,1.2655,-0.0845,1.1218,0.5839,0.3187,0.3942,0.3142,-1.4606,
8.232046,0.0476,1.2655,-0.0845,3.2092,3.2075,1.0451,0.3942,0.3142,-1.4606,
8.232706,0.0476,1.2655,-0.0845,3.2092,3.2075,1.0451,0.7055,-0.0470,-1.8456,
8.287399,0.1389,1.2911,-0.1223,3.2092,3.2075,1.0451,0.7055,-0.0470,-1.8456,
8.288769,0.2432,1.4977,-0.0928,3.2092,3.2075,1.0451,0.7055,-0.0470,-1.8456,
8.289885,0.6187,1.9113,0.0899,3.2092,3.2075,1.0451,0.7055,-0.0470,-1.8456,
8.290881,0.6187,1.9113,0.0899,3.2092,3.2075,1.0451,1.1557,0.4213,-2.3545,
8.291860,0.6187,1.9113,0.0899,7.5980,6.9220,2.0025,1.1557,0.4213,-2.3545,
8.345833,1.1466,1.9067,-0.0137,7.5980,6.9220,2.0025,1.1557,0.4213,-2.3545,
8.347393,1.1251,1.4660,0.0081,7.5980,6.9220,2.0025,1.1557,0.4213,-2.3545,
8.348071,0.1162,1.1515,-0.0024,7.5980,6.9220,2.0025,1.1557,0.4213,-2.3545,
8.348924,0.1162,1.1515,-0.0024,7.5980,6.9220,2.0025,1.0851,1.3152,-3.0639,
8.349598,0.1162,1.1515,-0.0024,13.1013,7.2884,3.2174,1.0851,1.3152,-3.0639,
8.405419,-0.7957,1.2684,-0.2168,13.1013,7.2884,3.2174,1.0851,1.3152,-3.0639,
8.408938,-1.1395,1.4486,-0.3069,13.1013,7.2884,3.2174,1.0851,1.3152,-3.0639,
8.411415,-0.8812,1.0155,-0.5369,13.1013,7.2884,3.2174,1.0851,1.3152,-3.0639,
8.413591,-0.8812,1.0155,-0.5369,13.1013,7.2884,3.2174,1.4146,2.2010,-3.8780,
8.415597,-0.8812,1.0155,-0.5369,-2.8385,6.2427,1.0673,1.4146,2.2010,-3.8780,
8.463158,-0.6798,0.6893,-0.3482,-2.8385,6.2427,1.0673,1.4146,2.2010,-3.8780,
8.464732,-0.4236,0.4620,-0.5574,-2.8385,6.2427,1.0673,1.4146,2.2010,-3.8780,
8.465464,-0.2100,0.2842,-0.4595,-2.8385,6.2427,1.0673,1.4146,2.2010,-3.8780,
8.466134,-0.2100,0.2842,-0.4595,-2.8385,6.2427,1.0673,-0.4174,0.3895,-0.5479,
8.467097,-0.2100,0.2842,-0.4595,2.1159,-1.1498,0.0779,-0.4174,0.3895,-0.5479,
8.521236,-0.1863,0.1321,-0.2420,2.1159,-1.1498,0.0779,-0.4174,0.3895,-0.5479,
8.523389,-0.1475,0.1167,-0.2434,2.1159,-1.1498,0.0779,-0.4174,0.3895,-0.5479,
8.524578,-0.2173,0.2053,-0.2986,2.1159,-1.1498,0.0779,-0.4174,0.3895,-0.5479,
8.525768,-0.2173,0.2053,-0.2986,2.1159,-1.1498,0.0779,-1.7931,-0.2421,2.4537,
8.527385,-0.2173,0.2053,-0.2986,3.6684,-5.5538,1.1964,-1.7931,-0.2421,2.4537,
8.579286,-0.2246,0.3228,-0.4170,3.6684,-5.5538,1.1964,-1.7931,-0.2421,2.4537,
8.580980,-0.1482,0.3831,-0.3982,3.6684,-5.5538,1.1964,-1.7931,-0.2421,2.4537,
8.581828,-0.0972,0.4727,-0.3277,3.6684,-5.5538,1.1964,-1.7931,-0.2421,2.4537,
8.582504,-0.0972,0.4727,-0.3277,3.6684,-5.5538,1.1964,-2.2690,-0.7023,4.7210,
8.583309,-0.0972,0.4727,-0.3277,1.8441,-4.7592,-1.1838,-2.2690,-0.7023,4.7210,
8.637346,-0.0759,0.5779,-0.3001,1.8441,-4.7592,-1.1838,-2.2690,-0.7023,4.7210,
8.639397,-0.0120,0.7533,-0.1380,1.8441,-4.7592,-1.1838,-2.2690,-0.7023,4.7210,
8.640302,0.0901,1.1446,-0.3890,1.8441,-4.7592,-1.1838,-2.2690,-0.7023,4.7210,
8.640978,0.0901,1.1446,-0.3890,1.8441,-4.7592,-1.1838,-2.0531,0.4248,6.4720,
8.641652,0.0901,1.1446,-0.3890,-0.1168,-1.3672,-1.2023,-2.0531,0.4248,6.4720,
8.695623,-0.0330,1.7914,-0.5862,-0.1168,-1.3672,-1.2023,-2.0531,0.4248,6.4720,
8.697189,-0.5823,2.2402,-0.6304,-0.1168,-1.3672,-1.2023,-2.0531,0.4248,6.4720,
8.697990,-1.0919,1.9743,-0.5440,-0.1168,-1.3672,-1.2023,-2.0531,0.4248,6.4720,
8.698836,-1.0919,1.9743,-0.5440,-0.1168,-1.3672,-1.2023,-2.0206,1.2987,6.3211,
8.699772,-1.0919,1.9743,-0.5440,-9.0321,10.5762,-5.4128,-2.0206,1.2987,6.3211,
8.754202,-1.2890,1.4909,-0.0850,-9.0321,10.5762,-5.4128,-2.0206,1.2987,6.3211,
8.755731,-0.9928,1.0467,-0.2444,-9.0321,10.5762,-5.4128,-2.0206,1.2987,6.3211,
8.756475,-0.9427,0.8321,-0.4104,-9.0321,10.5762,-5.4128,-2.0206,1.2987,6.3211,
8.757179,-0.9427,0.8321,-0.4104,-9.0321,10.5762,-5.4128,-1.5284,-0.1083,3.3985,
8.757998,-0.9427,0.8321,-0.4104,-15.4458,2.7807,-2.7586,-1.5284,-0.1083,3.3985,
8.812342,-1.1105,0.7818,-0.2434,-15.4458,2.7807,-2.7586,-1.5284,-0.1083,3.3985,
8.813958,-0.9095,1.0155,-0.3621,-15.4458,2.7807,-2.7586,-1.5284,-0.1083,3.3985,
8.814827,0.2444,1.6579,-0.1858,-15.4458,2.7807,-2.7586,-1.5284,-0.1083,3.3985,
8.815742,0.2444,1.6579,-0.1858,-15.4458,2.7807,-2.7586,-0.1403,-1.6485,-2.1445,
8.816586,0.2444,1.6579,-0.1858,-9.5076,2.4719,-2.5122,-0.1403,-1.6485,-2.1445,
8.870832,2.7723,1.7309,0.5433,-9.5076,2.4719,-2.5122,-0.1403,-1.6485,-2.1445,
8.872357,1.9834,1.5644,-0.4353,-9.5076,2.4719,-2.5122,-0.1403,-1.6485,-2.1445,
8.873046,-0.6668,1.3749,-1.1376,-9.5076,2.4719,-2.5122,-0.1403,-1.6485,-2.1445,
8.873812,-0.6668,1.3749,-1.1376,-9.5076,2.4719,-2.5122,-0.1002,-1.1600,-1.7772,
8.874512,-0.6668,1.3749,-1.1376,10.4162,6.0022,-3.0708,-0.1002,-1.1600,-1.7772,
8.929205,-1.4210,0.8951,-0.0925,10.4162,6.0022,-3.0708,-0.1002,-1.1600,-1.7772,
8.930711,-0.5701,0.5845,0.5867,10.4162,6.0022,-3.0708,-0.1002,-1.1600,-1.7772,
8.931495,-0.0261,0.8983,0.3675,10.4162,6.0022,-3.0708,-0.1002,-1.1600,-1.7772,
8.932209,-0.0261,0.8983,0.3675,10.4162,6.0022,-3.0708,-0.0796,-0.0407,-2.9570,
8.932830,-0.0261,0.8983,0.3675,-7.7662,-1.8232,3.0264,-0.0796,-0.0407,-2.9570,
8.987220,0.1538,1.0389,-0.0142,-7.7662,-1.8232,3.0264,-0.0796,-0.0407,-2.9570,
8.988788,-0.1636,1.0853,-0.1985,-7.7662,-1.8232,3.0264,-0.0796,-0.0407,-2.9570,
8.989829,-0.1770,1.0721,-0.1399,-7.7662,-1.8232,3.0264,-0.0796,-0.0407,-2.9570,
8.990674,-0.1770,1.0721,-0.1399,-7.7662,-1.8232,3.0264,0.2606,-0.2150,-1.5284,
8.991294,-0.1770,1.0721,-0.1399,-0.9088,0.7751,-0.7726,0.2606,-0.2150,-1.5284,
9.045678,-0.0156,1.0592,-0.1148,-0.9088,0.7751,-0.7726,0.2606,-0.2150,-1.5284,
9.047170,-0.0444,1.0311,-0.0256,-0.9088,0.7751,-0.7726,0.2606,-0.2150,-1.5284,
9.047651,-0.1655,1.0060,0.0264,-0.9088,0.7751,-0.7726,0.2606,-0.2150,-1.5284,
9.048486,-0.1655,1.0060,0.0264,-0.9088,0.7751,-0.7726,0.1867,0.0509,-1.1590,
9.049743,-0.1655,1.0060,0.0264,-0.3773,0.4471,0.1110,0.1867,0.0509,-1.1590,
9.104546,-0.1138,0.9828,0.0027,-0.3773,0.4471,0.1110,0.1867,0.0509,-1.1590,
9.105691,0.0559,0.9667,-0.0247,-0.3773,0.4471,0.1110,0.1867,0.0509,-1.1590,
9.106300,0.0855,0.9764,-0.0361,-0.3773,0.4471,0.1110,0.1867,0.0509,-1.1590,
9.106779,0.0855,0.9764,-0.0361,-0.3773,0.4471,0.1110,0.2042,-0.0287,-1.0077,
9.107295,0.0855,0.9764,-0.0361,1.0008,-0.0642,0.4005,0.2042,-0.0287,-1.0077,
9.162274,-0.0845,0.9652,-0.0205,1.0008,-0.0642,0.4005,0.2042,-0.0287,-1.0077,
9.163542,-0.2027,0.9869,-0.0005,1.0008,-0.0642,0.4005,0.2042,-0.0287,-1.0077,
9.164179,-0.2295,1.0223,-0.0491,1.0008,-0.0642,0.4005,0.2042,-0.0287,-1.0077,
9.164703,-0.2295,1.0223,-0.0491,1.0008,-0.0642,0.4005,0.2633,0.4771,-1.2427,
9.165271,-0.2295,1.0223,-0.0491,-0.1002,0.1923,0.5356,0.2633,0.4771,-1.2427,
9.220765,-0.1765,0.9991,-0.0850,-0.1002,0.1923,0.5356,0.2633,0.4771,-1.2427,
9.222115,-0.1216,0.9569,-0.0764,-0.1002,0.1923,0.5356,0.2633,0.4771,-1.2427,
9.222628,-0.1475,0.9442,-0.0916,-0.1002,0.1923,0.5356,0.2633,0.4771,-1.2427,
9.223026,-0.1475,0.9442,-0.0916,-0.1002,0.1923,0.5356,0.3026,0.1951,-1.1944,
9.223548,-0.1475,0.9442,-0.0916,0.7679,0.0966,0.1237,0.3026,0.1951,-1.1944,
9.279093,-0.1736,0.9503,-0.1013,0.7679,0.0966,0.1237,0.3026,0.1951,-1.1944,
9.280582,-0.1687,1.0182,-0.1079,0.7679,0.0966,0.1237,0.3026,0.1951,-1.1944,
9.281223,-0.1848,1.1002,-0.1184,0.7679,0.0966,0.1237,0.3026,0.1951,-1.1944,
9.281774,-0.1848,1.1002,-0.1184,0.7679,0.0966,0.1237,0.3205,0.3258,-1.4591,
9.282333,-0.1848,1.1002,-0.1184,1.2486,0.8742,0.1011,0.3205,0.3258,-1.4591,
9.337829,-0.1465,1.1901,-0.0933,1.2486,0.8742,0.1011,0.3205,0.3258,-1.4591,
9.340117,-0.0374,1.2355,-0.0645,1.2486,0.8742,0.1011,0.3205,0.3258,-1.4591,
9.340899,0.0198,1.2001,-0.1209,1.2486,0.8742,0.1011,0.3205,0.3258,-1.4591,
9.341650,0.0198,1.2001,-0.1209,1.2486,0.8742,0.1011,0.5605,0.0558,-1.7965,
9.342500,0.0198,1.2001,-0.1209,3.3132,3.0457,0.5545,0.5605,0.0558,-1.7965,
9.397395,-0.0024,1.3163,-0.1743,3.3132,3.0457,0.5545,0.5605,0.0558,-1.7965,
9.400171,0.2234,1.6899,-0.0635,3.3132,3.0457,0.5545,0.5605,0.0558,-1.7965,
9.401385,0.7362,1.9248,-0.1362,3.3132,3.0457,0.5545,0.5605,0.0558,-1.7965,
9.402707,0.7362,1.9248,-0.1362,3.3132,3.0457,0.5545,0.8556,0.8086,-2.3264,
9.404116,0.7362,1.9248,-0.1362,7.9067,7.8616,0.8610,0.8556,0.8086,-2.3264,
9.454641,1.1603,1.8322,-0.3023,7.9067,7.8616,0.8610,0.8556,0.8086,-2.3264,
9.456395,0.8184,1.3156,-0.1565,7.9067,7.8616,0.8610,0.8556,0.8086,-2.3264,
9.457077,-0.4195,0.8492,-0.0530,7.9067,7.8616,0.8610,0.8556,0.8086,-2.3264,
9.457733,-0.4195,0.8492,-0.0530,7.9067,7.8616,0.8610,1.0796,2.1790,-3.0639,
9.458491,-0.4195,0.8492,-0.0530,10.7285,5.8319,1.5529,1.0796,2.1790,-3.0639,
9.514142,-1.3607,1.1307,-0.2486,10.7285,5.8319,1.5529,1.0796,2.1790,-3.0639,
9.518381,-1.5204,1.2719,-0.2478,10.7285,5.8319,1.5529,1.0796,2.1790,-3.0639,
9.520630,-1.2167,0.7493,-0.1531,10.7285,5.8319,1.5529,1.0796,2.1790,-3.0639,
9.522669,-1.2167,0.7493,-0.1531,-6.7497,4.4652,2.1644,1.0796,2.1790,-3.0639,
9.524671,-1.2167,0.7493,-0.1531,-6.7497,4.4652,2.1644,1.8020,1.1875,-3.0063,
9.572165,-0.9669,0.4244,-0.3042,-6.7497,4.4652,2.1644,1.8020,1.1875,-3.0063,
9.575229,-0.6234,0.2354,-0.3194,-6.7497,4.4652,2.1644,1.8020,1.1875,-3.0063,
9.577302,-0.2918,0.0405,0.2547,-6.7497,4.4652,2.1644,1.8020,1.1875,-3.0063,
9.579741,-0.2918,0.0405,0.2547,-6.7497,4.4652,2.1644,0.1649,-1.6055,1.1234,
9.581849,-0.2918,0.0405,0.2547,0.4683,-3.8727,2.4646,0.1649,-1.6055,1.1234,
9.629267,0.0894,-0.3399,0.3636,0.4683,-3.8727,2.4646,0.1649,-1.6055,1.1234,
9.631077,0.2764,-0.4329,0.2815,0.4683,-3.8727,2.4646,0.1649,-1.6055,1.1234,
9.631965,-0.0972,-0.0103,-0.1331,0.4683,-3.8727,2.4646,0.1649,-1.6055,1.1234,
9.632606,-0.0972,-0.0103,-0.1331,5.9766,-9.9024,5.0096,0.1649,-1.6055,1.1234,
9.634436,-0.0972,-0.0103,-0.1331,5.9766,-9.9024,5.0096,0.2289,-0.9483,4.0255,
9.687293,-0.4117,0.4983,-0.3726,5.9766,-9.9024,5.0096,0.2289,-0.9483,4.0255,
9.689344,-0.5301,0.8321,-0.3636,5.9766,-9.9024,5.0096,0.2289,-0.9483,4.0255,
9.690000,-0.7511,0.9886,-0.2276,5.9766,-9.9024,5.0096,0.2289,-0.9483,4.0255,
9.690755,-0.7511,0.9886,-0.2276,5.9766,-9.9024,5.0096,0.7188,-0.8582,5.5137,
9.691419,-0.7511,0.9886,-0.2276,-2.7807,-0.8782,0.3187,0.7188,-0.8582,5.5137,
9.745908,-1.0062,1.1446,-0.1778,-2.7807,-0.8782,0.3187,0.7188,-0.8582,5.5137,
9.748063,-0.9859,1.3014,-0.1382,-2.7807,-0.8782,0.3187,0.7188,-0.8582,5.5137,
9.749893,-0.7557,1.3353,-0.5213,-2.7807,-0.8782,0.3187,0.7188,-0.8582,5.5137,
9.751290,-0.7557,1.3353,-0.5213,-2.7807,-0.8782,0.3187,0.4258,-5.7251,7.1490,
9.752692,-0.7557,1.3353,-0.5213,-8.6395,3.3281,0.5050,0.4258,-5.7251,7.1490,
9.804607,-0.3028,1.5043,-0.5733,-8.6395,3.3281,0.5050,0.4258,-5.7251,7.1490,
9.806271,-0.0188,1.4928,-0.1919,-8.6395,3.3281,0.5050,0.4258,-5.7251,7.1490,
9.807061,0.0684,1.2076,0.3623,-8.6395,3.3281,0.5050,0.4258,-5.7251,7.1490,
9.807991,0.0684,1.2076,0.3623,-8.6395,3.3281,0.5050,0.2185,-10.1754,6.3738,
9.810453,0.0684,1.2076,0.3623,-1.7739,4.8429,2.2935,0.2185,-10.1754,6.3738,
9.862840,0.0906,1.0968,0.6238,-1.7739,4.8429,2.2935,0.2185,-10.1754,6.3738,
9.864496,0.0842,1.1070,0.5118,-1.7739,4.8429,2.2935,0.2185,-10.1754,6.3738,
9.865650,-0.1470,0.9540,0.5855,-1.7739,4.8429,2.2935,0.2185,-10.1754,6.3738,
9.866590,-0.1470,0.9540,0.5855,-1.7739,4.8429,2.2935,-0.4113,-5.8847,2.6644,
9.867510,-0.1470,0.9540,0.5855,-0.9341,1.4742,9.2329,-0.4113,-5.8847,2.6644,
9.920864,-0.8526,0.8336,0.3570,-0.9341,1.4742,9.2329,-0.4113,-5.8847,2.6644,
9.923453,-2.0678,1.8015,0.6470,-0.9341,1.4742,9.2329,-0.4113,-5.8847,2.6644,
9.924658,-0.2381,1.2504,0.5047,-0.9341,1.4742,9.2329,-0.4113,-5.8847,2.6644,
9.925445,-0.2381,1.2504,0.5047,-0.9341,1.4742,9.2329,-0.6363,-0.0729,-1.0967,
9.926541,-0.2381,1.2504,0.5047,-10.5662,3.6206,8.0907,-0.6363,-0.0729,-1.0967,
9.981263,1.0546,1.1808,-0.8365,-10.5662,3.6206,8.0907,-0.6363,-0.0729,-1.0967,
9.985251,0.3794,1.4684,-1.0160,-10.5662,3.6206,8.0907,-0.6363,-0.0729,-1.0967,
9.988050,-0.4053,1.1129,-0.5296,-10.5662,3.6206,8.0907,-0.6363,-0.0729,-1.0967,
9.991316,-0.4053,1.1129,-0.5296,-10.5662,3.6206,8.0907,-0.4180,-0.7385,-0.6939,
9.994194,-0.4053,1.1129,-0.5296,3.5509,3.0904,-4.7627,-0.4180,-0.7385,-0.6939,
10.038581,-0.2613,0.8072,-0.1485,3.5509,3.0904,-4.7627,-0.4180,-0.7385,-0.6939,
10.040993,-0.0945,0.8951,-0.0002,3.5509,3.0904,-4.7627,-0.4180,-0.7385,-0.6939,
10.042031,-0.2083,0.9967,0.0601,3.5509,3.0904,-4.7627,-0.4180,-0.7385,-0.6939,
10.042864,-0.2083,0.9967,0.0601,3.5509,3.0904,-4.7627,-0.4529,-0.7296,-0.5180,
10.043924,-0.2083,0.9967,0.0601,-1.2292,-0.4395,2.4273,-0.4529,-0.7296,-0.5180,
10.097198,-0.2595,0.9198,-0.0066,-1.2292,-0.4395,2.4273,-0.4529,-0.7296,-0.5180,
10.101514,-0.3260,0.9017,-0.2984,-1.2292,-0.4395,2.4273,-0.4529,-0.7296,-0.5180,
10.103849,-0.2571,1.0343,-0.3782,-1.2292,-0.4395,2.4273,-0.4529,-0.7296,-0.5180,
10.106320,-0.2571,1.0343,-0.3782,-1.2292,-0.4395,2.4273,0.0356,-0.3378,-0.0651,
10.109252,-0.2571,1.0343,-0.3782,-2.0168,0.0793,0.4829,0.0356,-0.3378,-0.0651,
10.155734,-0.0576,1.0274,-0.3662,-2.0168,0.0793,0.4829,0.0356,-0.3378,-0.0651,
10.159266,-0.0278,0.9535,-0.2686,-2.0168,0.0793,0.4829,0.0356,-0.3378,-0.0651,
10.161029,-0.0750,0.9547,-0.2657,-2.0168,0.0793,0.4829,0.0356,-0.3378,-0.0651,
10.163618,-0.0750,0.9547,-0.2657,0.0737,0.3270,-0.2156,0.0356,-0.3378,-0.0651,
10.165737,-0.0750,0.9547,-0.2657,0.0737,0.3270,-0.2156,0.0438,-0.3964,0.3698,
10.214520,-0.0022,0.9349,-0.2659,0.0737,0.3270,-0.2156,0.0438,-0.3964,0.3698,
10.217848,-0.0066,0.9491,-0.1826,0.0737,0.3270,-0.2156,0.0438,-0.3964,0.3698,
10.220076,-0.0012,0.9630,-0.2329,0.0737,0.3270,-0.2156,0.0438,-0.3964,0.3698,
10.221504,-0.0012,0.9630,-0.2329,0.0737,0.3270,-0.2156,0.1046,-0.4355,0.2855,
10.223453,-0.0012,0.9630,-0.2329,0.4725,0.0442,0.5334,0.1046,-0.4355,0.2855,
10.270765,0.0310,0.9452,-0.2327,0.4725,0.0442,0.5334,0.1046,-0.4355,0.2855,
10.272527,0.0190,0.9735,-0.1931,0.4725,0.0442,0.5334,0.1046,-0.4355,0.2855,
10.273460,0.0200,0.9564,-0.2156,0.4725,0.0442,0.5334,0.1046,-0.4355,0.2855,
10.274329,0.0200,0.9564,-0.2156,0.7542,0.1779,0.7914,0.1046,-0.4355,0.2855,
10.275334,0.0200,0.9564,-0.2156,0.7542,0.1779,0.7914,0.2855,-0.4406,0.0735,
10.329806,0.0242,0.9310,-0.2373,0.7542,0.1779,0.7914,0.2855,-0.4406,0.0735,
10.332552,-0.0310,0.9542,-0.1961,0.7542,0.1779,0.7914,0.2855,-0.4406,0.0735,
10.334191,-0.0689,1.0016,-0.1541,0.7542,0.1779,0.7914,0.2855,-0.4406,0.0735,
10.335659,-0.0689,1.0016,-0.1541,0.4009,0.3150,1.2362,0.2855,-0.4406,0.0735,
10.337459,-0.0689,1.0016,-0.1541,0.4009,0.3150,1.2362,0.5616,-0.3132,-0.1401,
10.388069,-0.0393,0.9615,-0.2845,0.4009,0.3150,1.2362,0.5616,-0.3132,-0.1401,
10.391090,-0.0383,0.9735,-0.2752,0.4009,0.3150,1.2362,0.5616,-0.3132,-0.1401,
10.392653,-0.0095,1.0367,-0.2725,0.4009,0.3150,1.2362,0.5616,-0.3132,-0.1401,
10.394449,-0.0095,1.0367,-0.2725,0.4009,0.3150,1.2362,1.0006,-0.2582,-0.1775,
10.395872,-0.0095,1.0367,-0.2725,0.4993,0.7859,0.9364,1.0006,-0.2582,-0.1775,
10.448866,-0.0378,1.0541,-0.3616,0.4993,0.7859,0.9364,1.0006,-0.2582,-0.1775,
10.452378,-0.0964,1.0619,-0.4783,0.4993,0.7859,0.9364,1.0006,-0.2582,-0.1775,
10.454529,-0.0330,1.1444,-0.4617,0.4993,0.7859,0.9364,1.0006,-0.2582,-0.1775,
10.456440,-0.0330,1.1444,-0.4617,0.2927,2.0166,0.0941,1.0006,-0.2582,-0.1775,
10.460712,-0.0330,1.1444,-0.4617,0.2927,2.0166,0.0941,1.3524,0.0275,-0.1313,
10.504115,0.0178,1.4188,-0.2852,0.2927,2.0166,0.0941,1.3524,0.0275,-0.1313,
10.505543,0.3023,1.6391,0.0593,0.2927,2.0166,0.0941,1.3524,0.0275,-0.1313,
10.506298,0.7083,1.6166,0.1585,0.2927,2.0166,0.0941,1.3524,0.0275,-0.1313,
10.507087,0.7083,1.6166,0.1585,0.2927,2.0166,0.0941,2.0010,-1.5834,0.2346,
10.508771,0.7083,1.6166,0.1585,4.4576,7.0633,4.9267,2.0010,-1.5834,0.2346,
10.562172,0.3914,1.5180,0.3106,4.4576,7.0633,4.9267,2.0010,-1.5834,0.2346,
10.563412,-0.1614,1.3712,0.5823,4.4576,7.0633,4.9267,2.0010,-1.5834,0.2346,
10.563921,-0.7628,1.3261,0.2420,4.4576,7.0633,4.9267,2.0010,-1.5834,0.2346,
10.564517,-0.7628,1.3261,0.2420,4.4576,7.0633,4.9267,2.1584,-2.5500,-0.9102,
10.565088,-0.7628,1.3261,0.2420,0.5867,6.2491,9.4302,2.1584,-2.5500,-0.9102,
10.620465,-1.3004,1.4662,-0.0222,0.5867,6.2491,9.4302,2.1584,-2.5500,-0.9102,
10.621732,-1.0641,1.3532,-0.5001,0.5867,6.2491,9.4302,2.1584,-2.5500,-0.9102,
10.622305,-0.4349,1.2973,-0.6480,0.5867,6.2491,9.4302,2.1584,-2.5500,-0.9102,
10.622888,-0.4349,1.2973,-0.6480,0.5867,6.2491,9.4302,1.9438,-4.6927,-0.9220,
10.624219,-0.4349,1.2973,-0.6480,-4.7776,6.6429,1.7662,1.9438,-4.6927,-0.9220,
10.678975,0.2036,0.9117,-0.1340,-4.7776,6.6429,1.7662,1.9438,-4.6927,-0.9220,
10.680399,0.1985,0.6309,0.2564,-4.7776,6.6429,1.7662,1.9438,-4.6927,-0.9220,
10.681086,-0.0620,0.6253,0.1865,-4.7776,6.6429,1.7662,1.9438,-4.6927,-0.9220,
10.681663,-0.0620,0.6253,0.1865,-4.7776,6.6429,1.7662,0.2985,-6.0058,1.2332,
10.682224,-0.0620,0.6253,0.1865,6.5701,-0.0009,4.8528,0.2985,-6.0058,1.2332,
10.737534,-0.1428,0.6695,0.1206,6.5701,-0.0009,4.8528,0.2985,-6.0058,1.2332,
10.739027,-0.0210,0.5936,0.0847,6.5701,-0.0009,4.8528,0.2985,-6.0058,1.2332,
10.740103,0.0383,0.5027,0.1167,6.5701,-0.0009,4.8528,0.2985,-6.0058,1.2332,
10.740915,0.0383,0.5027,0.1167,6.5701,-0.0009,4.8528,-0.1460,-3.6780,2.8697,
10.742059,0.0383,0.5027,0.1167,4.4085,-2.1866,3.6226,-0.1460,-3.6780,2.8697,
10.796047,-0.0298,0.5650,0.1123,4.4085,-2.1866,3.6226,-0.1460,-3.6780,2.8697,
10.798905,-0.1445,0.7161,0.0295,4.4085,-2.1866,3.6226,-0.1460,-3.6780,2.8697,
10.800610,-0.2420,0.8648,0.0093,4.4085,-2.1866,3.6226,-0.1460,-3.6780,2.8697,
10.803582,-0.2420,0.8648,0.0093,4.4085,-2.1866,3.6226,-0.2588,-0.5577,4.6483,
10.805613,-0.2420,0.8648,0.0093,1.2057,-1.9679,2.7304,-0.2588,-0.5577,4.6483,
10.855622,-0.2832,1.0514,-0.0212,1.2057,-1.9679,2.7304,-0.2588,-0.5577,4.6483,
10.859537,-0.2976,1.2719,-0.0921,1.2057,-1.9679,2.7304,-0.2588,-0.5577,4.6483,
10.862187,-0.4324,1.5724,-0.2693,1.2057,-1.9679,2.7304,-0.2588,-0.5577,4.6483,
10.865299,-0.4324,1.5724,-0.2693,1.2057,-1.9679,2.7304,-1.1698,0.2818,5.9697,
10.868042,-0.4324,1.5724,-0.2693,-3.9453,3.2306,0.3482,-1.1698,0.2818,5.9697,
10.912936,-0.6380,1.7297,-0.4185,-3.9453,3.2306,0.3482,-1.1698,0.2818,5.9697,
10.916062,-0.9435,1.6469,-0.3709,-3.9453,3.2306,0.3482,-1.1698,0.2818,5.9697,
10.917289,-1.4286,1.5417,-0.3089,-3.9453,3.2306,0.3482,-1.1698,0.2818,5.9697,
10.918155,-1.4286,1.5417,-0.3089,-3.9453,3.2306,0.3482,-2.1091,-0.3647,5.5834,
10.919522,-1.4286,1.5417,-0.3089,-13.2505,7.0260,-3.0229,-2.1091,-0.3647,5.5834,
10.971277,-1.4901,1.1283,-0.1655,-13.2505,7.0260,-3.0229,-2.1091,-0.3647,5.5834,
10.973161,-1.1551,0.7791,-0.3257,-13.2505,7.0260,-3.0229,-2.1091,-0.3647,5.5834,
10.974050,-1.3410,0.7469,-0.5838,-13.2505,7.0260,-3.0229,-2.1091,-0.3647,5.5834,
10.974827,-1.3410,0.7469,-0.5838,-13.2505,7.0260,-3.0229,-1.1256,-0.8409,1.4932,
10.975721,-1.3410,0.7469,-0.5838,-16.9122,-0.0599,-3.2754,-1.1256,-0.8409,1.4932,
11.028958,-1.3742,1.3717,-1.3229,-16.9122,-0.0599,-3.2754,-1.1256,-0.8409,1.4932,
11.030624,0.6549,2.1008,-0.0332,-16.9122,-0.0599,-3.2754,-1.1256,-0.8409,1.4932,
11.031686,2.7317,1.7267,0.3221,-16.9122,-0.0599,-3.2754,-1.1256,-0.8409,1.4932,
11.033018,2.7317,1.7267,0.3221,-16.9122,-0.0599,-3.2754,-0.5728,-1.9827,-1.0358,
11.033910,2.7317,1.7267,0.3221,3.1958,7.8933,-2.9576,-0.5728,-1.9827,-1.0358,
11.087160,0.3321,0.9830,-0.6544,3.1958,7.8933,-2.9576,-0.5728,-1.9827,-1.0358,
11.089220,-0.9269,0.9249,-0.6820,3.1958,7.8933,-2.9576,-0.5728,-1.9827,-1.0358,
11.090504,-0.6363,0.6436,0.4422,3.1958,7.8933,-2.9576,-0.5728,-1.9827,-1.0358,
11.091314,-0.6363,0.6436,0.4422,3.1958,7.8933,-2.9576,-0.0949,-1.3085,-3.0627,
11.092373,-0.6363,0.6436,0.4422,-5.5983,-1.1899,-2.3062,-0.0949,-1.3085,-3.0627,
11.146084,-0.2102,0.8560,0.4026,-5.5983,-1.1899,-2.3062,-0.0949,-1.3085,-3.0627,
11.148290,0.2229,1.1102,0.1011,-5.5983,-1.1899,-2.3062,-0.0949,-1.3085,-3.0627,
11.150440,0.1846,1.1085,-0.2639,-5.5983,-1.1899,-2.3062,-0.0949,-1.3085,-3.0627,
11.152319,0.1846,1.1085,-0.2639,-5.5983,-1.1899,-2.3062,-0.0155,0.3152,-1.5341,
11.154217,0.1846,1.1085,-0.2639,-0.0845,0.4091,1.3532,-0.0155,0.3152,-1.5341,
11.203846,-0.0237,1.0799,-0.0979,-0.0845,0.4091,1.3532,-0.0155,0.3152,-1.5341,
11.205647,-0.1199,1.0314,-0.1030,-0.0845,0.4091,1.3532,-0.0155,0.3152,-1.5341,
11.206663,-0.1333,0.9974,0.0193,-0.0845,0.4091,1.3532,-0.0155,0.3152,-1.5341,
11.207502,-0.1333,0.9974,0.0193,-0.0845,0.4091,1.3532,0.0678,-0.1423,-1.4015,
11.208148,-0.1333,0.9974,0.0193,-0.8255,0.4868,0.0154,0.0678,-0.1423,-1.4015,
11.262251,-0.1187,0.9720,0.0364,-0.8255,0.4868,0.0154,0.0678,-0.1423,-1.4015,
11.263522,-0.0796,0.9889,-0.0037,-0.8255,0.4868,0.0154,0.0678,-0.1423,-1.4015,
11.264116,-0.0271,1.0221,-0.0789,-0.8255,0.4868,0.0154,0.0678,-0.1423,-1.4015,
11.264680,-0.0271,1.0221,-0.0789,-0.8255,0.4868,0.0154,0.1419,-0.1370,-1.0796,
11.265271,-0.0271,1.0221,-0.0789,-0.0433,0.1039,0.5258,0.1419,-0.1370,-1.0796,
11.320687,-0.0391,1.0143,-0.0921,-0.0433,0.1039,0.5258,0.1419,-0.1370,-1.0796,
11.322526,-0.1174,0.9952,-0.0877,-0.0433,0.1039,0.5258,0.1419,-0.1370,-1.0796,
11.323321,-0.1799,1.0065,-0.0703,-0.0433,0.1039,0.5258,0.1419,-0.1370,-1.0796,
11.324122,-0.1799,1.0065,-0.0703,-0.0433,0.1039,0.5258,0.1667,0.2383,-1.1348,
11.324968,-0.1799,1.0065,-0.0703,0.2163,0.2807,-0.0310,0.1667,0.2383,-1.1348,
11.381093,-0.1619,1.0343,-0.0664,0.2163,0.2807,-0.0310,0.1667,0.2383,-1.1348,
11.384832,-0.1365,1.0255,-0.0574,0.2163,0.2807,-0.0310,0.1667,0.2383,-1.1348,
11.386647,-0.1367,0.9830,-0.0396,0.2163,0.2807,-0.0310,0.1667,0.2383,-1.1348,
11.388870,-0.1367,0.9830,-0.0396,0.2163,0.2807,-0.0310,0.2205,0.2782,-1.0938,
11.391012,-0.1367,0.9830,-0.0396,0.4792,0.4744,0.3941,0.2205,0.2782,-1.0938,
11.437816,-0.1331,0.9393,-0.0513,0.4792,0.4744,0.3941,0.2205,0.2782,-1.0938,
11.440200,-0.1614,0.9750,-0.1165,0.4792,0.4744,0.3941,0.2205,0.2782,-1.0938,
11.441354,-0.0940,1.0484,-0.1262,0.4792,0.4744,0.3941,0.2205,0.2782,-1.0938,
11.442392,-0.0940,1.0484,-0.1262,0.4792,0.4744,0.3941,0.2616,0.3924,-1.2679,
11.443386,-0.0940,1.0484,-0.1262,1.2799,0.3872,0.1592,0.2616,0.3924,-1.2679,
11.497074,-0.0505,1.1085,-0.1047,1.2799,0.3872,0.1592,0.2616,0.3924,-1.2679,
11.500118,-0.0967,1.1710,-0.0789,1.2799,0.3872,0.1592,0.2616,0.3924,-1.2679,
11.502113,-0.0598,1.2325,-0.0796,1.2799,0.3872,0.1592,0.2616,0.3924,-1.2679,
11.504039,-0.0598,1.2325,-0.0796,1.2799,0.3872,0.1592,0.4756,0.0841,-1.6581,
11.505912,-0.0598,1.2325,-0.0796,2.7045,2.4640,0.5175,0.4756,0.0841,-1.6581,
11.554694,0.0242,1.2758,-0.1260,2.7045,2.4640,0.5175,0.4756,0.0841,-1.6581,
11.556359,0.1223,1.3309,-0.1443,2.7045,2.4640,0.5175,0.4756,0.0841,-1.6581,
11.557230,0.2896,1.6007,-0.1214,2.7045,2.4640,0.5175,0.4756,0.0841,-1.6581,
11.558060,0.2896,1.6007,-0.1214,2.7045,2.4640,0.5175,0.8069,0.2018,-2.1211,
11.559074,0.2896,1.6007,-0.1214,5.7706,5.2080,0.5465,0.8069,0.2018,-2.1211,
11.612081,0.8282,1.9521,0.0054,5.7706,5.2080,0.5465,0.8069,0.2018,-2.1211,
11.613299,1.3517,1.8466,-0.0977,5.7706,5.2080,0.5465,0.8069,0.2018,-2.1211,
11.613854,0.9605,1.4010,0.0088,5.7706,5.2080,0.5465,0.8069,0.2018,-2.1211,
11.614390,0.9605,1.4010,0.0088,5.7706,5.2080,0.5465,0.8963,0.4337,-2.6118,
11.614900,0.9605,1.4010,0.0088,15.5258,9.1587,2.0692,0.8963,0.4337,-2.6118,
11.671067,-0.2688,1.2321,-0.0264,15.5258,9.1587,2.0692,0.8963,0.4337,-2.6118,
11.672153,-1.1095,1.5353,-0.1651,15.5258,9.1587,2.0692,0.8963,0.4337,-2.6118,
11.672687,-1.0287,1.4533,-0.0994,15.5258,9.1587,2.0692,0.8963,0.4337,-2.6118,
11.673243,-1.0287,1.4533,-0.0994,15.5258,9.1587,2.0692,1.1755,2.0165,-4.1480,
11.674708,-1.0287,1.4533,-0.0994,-1.2215,7.4840,2.5435,1.1755,2.0165,-4.1480,
11.729208,-0.7789,0.9139,-0.2532,-1.2215,7.4840,2.5435,1.1755,2.0165,-4.1480,
11.730427,-0.6973,0.6898,-0.2278,-1.2215,7.4840,2.5435,1.1755,2.0165,-4.1480,
11.730997,-0.5335,0.4009,-0.3738,-1.2215,7.4840,2.5435,1.1755,2.0165,-4.1480,
11.731488,-0.5335,0.4009,-0.3738,0.4098,0.7102,0.8477,1.1755,2.0165,-4.1480,
11.732072,-0.5335,0.4009,-0.3738,0.4098,0.7102,0.8477,0.3516,0.1004,-1.0181,
11.787854,-0.3682,0.2837,-0.0278,0.4098,0.7102,0.8477,0.3516,0.1004,-1.0181,
11.789101,-0.3152,0.1109,0.1167,0.4098,0.7102,0.8477,0.3516,0.1004,-1.0181,
11.789585,-0.2671,0.0613,0.0808,0.4098,0.7102,0.8477,0.3516,0.1004,-1.0181,
11.790025,-0.2671,0.0613,0.0808,0.4098,0.7102,0.8477,-1.0367,-0.3176,2.5042,
11.790888,-0.2671,0.0613,0.0808,2.9432,-5.4189,3.6230,-1.0367,-0.3176,2.5042,
11.846026,-0.2537,0.1431,-0.0969,2.9432,-5.4189,3.6230,-1.0367,-0.3176,2.5042,
11.847544,-0.2097,0.3142,-0.2066,2.9432,-5.4189,3.6230,-1.0367,-0.3176,2.5042,
11.848362,-0.1714,0.4642,-0.2796,2.9432,-5.4189,3.6230,-1.0367,-0.3176,2.5042,
11.849378,-0.1714,0.4642,-0.2796,2.9432,-5.4189,3.6230,-1.0287,-0.3808,4.7239,
11.850323,-0.1714,0.4642,-0.2796,1.8687,-5.3668,0.5793,-1.0287,-0.3808,4.7239,
11.904426,-0.2718,0.5794,-0.0230,1.8687,-5.3668,0.5793,-1.0287,-0.3808,4.7239,
11.906579,-0.2774,0.7293,-0.0039,1.8687,-5.3668,0.5793,-1.0287,-0.3808,4.7239,
11.907655,-0.2813,1.0094,-0.2344,1.8687,-5.3668,0.5793,-1.0287,-0.3808,4.7239,
11.908850,-0.2813,1.0094,-0.2344,1.8687,-5.3668,0.5793,-1.6866,-0.1421,6.2140,
11.909921,-0.2813,1.0094,-0.2344,-1.9819,-1.8265,0.7076,-1.6866,-0.1421,6.2140,
11.963132,-0.3958,1.4840,-0.2437,-1.9819,-1.8265,0.7076,-1.6866,-0.1421,6.2140,
11.965430,-0.6043,2.0051,-0.4129,-1.9819,-1.8265,0.7076,-1.6866,-0.1421,6.2140,
11.966726,-0.7528,1.9670,-0.2735,-1.9819,-1.8265,0.7076,-1.6866,-0.1421,6.2140,
11.969207,-0.7528,1.9670,-0.2735,-1.9819,-1.8265,0.7076,-1.8681,0.1397,6.5351,
11.970893,-0.7528,1.9670,-0.2735,-8.4319,8.5724,-2.4697,-1.8681,0.1397,6.5351,
12.021867,-0.8065,1.6877,-0.0444,-8.4319,8.5724,-2.4697,-1.8681,0.1397,6.5351,
12.025288,-0.6170,1.2831,0.0222,-8.4319,8.5724,-2.4697,-1.8681,0.1397,6.5351,
12.027327,-0.7872,1.0541,-0.4390,-8.4319,8.5724,-2.4697,-1.8681,0.1397,6.5351,
12.029433,-0.7872,1.0541,-0.4390,-8.4319,8.5724,-2.4697,-1.6626,0.5781,3.9135,
12.031383,-0.7872,1.0541,-0.4390,-11.7539,4.6629,-1.8970,-1.6626,0.5781,3.9135,
12.079763,-1.1471,0.7972,-0.4610,-11.7539,4.6629,-1.8970,-1.6626,0.5781,3.9135,
12.081946,-1.3339,0.6683,-0.4034,-11.7539,4.6629,-1.8970,-1.6626,0.5781,3.9135,
12.083087,-1.0531,1.2208,-0.8875,-11.7539,4.6629,-1.8970,-1.6626,0.5781,3.9135,
12.084346,-1.0531,1.2208,-0.8875,-11.7539,4.6629,-1.8970,-0.1366,-0.2348,-1.3655,
12.085646,-1.0531,1.2208,-0.8875,-15.1380,-0.0392,-6.0191,-0.1366,-0.2348,-1.3655,
12.137332,0.9381,1.6120,0.1123,-15.1380,-0.0392,-6.0191,-0.1366,-0.2348,-1.3655,
12.139601,2.9647,1.7353,0.0481,-15.1380,-0.0392,-6.0191,-0.1366,-0.2348,-1.3655,
12.141193,0.9051,1.8266,-0.5120,-15.1380,-0.0392,-6.0191,-0.1366,-0.2348,-1.3655,
12.142518,0.9051,1.8266,-0.5120,-15.1380,-0.0392,-6.0191,-0.5966,-2.2073,-0.8658,
12.143704,0.9051,1.8266,-0.5120,12.3228,7.7920,-1.3041,-0.5966,-2.2073,-0.8658,
12.196611,-1.0524,1.3417,-0.8871,12.3228,7.7920,-1.3041,-0.5966,-2.2073,-0.8658,
12.200636,-0.8101,0.4651,0.4598,12.3228,7.7920,-1.3041,-0.5966,-2.2073,-0.8658,
12.205427,-0.2578,0.6717,0.4546,12.3228,7.7920,-1.3041,-0.5966,-2.2073,-0.8658,
12.209620,-0.2578,0.6717,0.4546,12.3228,7.7920,-1.3041,-0.0536,0.3710,-3.2370,
12.211288,-0.2578,0.6717,0.4546,-8.3926,-1.4606,-0.1263,-0.0536,0.3710,-3.2370,
12.254117,-0.0002,1.0419,0.1858,-8.3926,-1.4606,-0.1263,-0.0536,0.3710,-3.2370,
12.256121,-0.0806,1.1656,-0.0112,-8.3926,-1.4606,-0.1263,-0.0536,0.3710,-3.2370,
12.256923,-0.0110,1.0892,-0.0706,-8.3926,-1.4606,-0.1263,-0.0536,0.3710,-3.2370,
12.257769,-0.0110,1.0892,-0.0706,-8.3926,-1.4606,-0.1263,0.0002,-0.0790,-1.2924,
12.258646,-0.0110,1.0892,-0.0706,-1.0259,1.1101,0.1253,0.0002,-0.0790,-1.2924,
12.312627,0.2227,1.0150,0.0095,-1.0259,1.1101,0.1253,0.0002,-0.0790,-1.2924,
12.314251,0.0796,0.9991,0.0899,-1.0259,1.1101,0.1253,0.0002,-0.0790,-1.2924,
12.315042,-0.1016,1.0057,0.1348,-1.0259,1.1101,0.1253,0.0002,-0.0790,-1.2924,
12.315943,-0.1016,1.0057,0.1348,0.5542,0.1749,0.5891,0.0002,-0.0790,-1.2924,
12.316820,-0.1016,1.0057,0.1348,0.5542,0.1749,0.5891,0.0912,0.1485,-1.1205,
12.372367,-0.0115,0.9757,0.0991,0.5542,0.1749,0.5891,0.0912,0.1485,-1.1205,
12.375408,0.0723,0.9842,0.0254,0.5542,0.1749,0.5891,0.0912,0.1485,-1.1205,
12.377200,-0.0002,0.9881,0.0137,0.5542,0.1749,0.5891,0.0912,0.1485,-1.1205,
12.379090,-0.0002,0.9881,0.0137,0.5542,0.1749,0.5891,0.1953,-0.0020,-1.1234,
12.381378,-0.0002,0.9881,0.0137,0.7192,-0.0460,0.3791,0.1953,-0.0020,-1.1234,
12.431086,-0.0786,0.9664,0.0220,0.7192,-0.0460,0.3791,0.1953,-0.0020,-1.1234,
12.433416,-0.0933,0.9864,0.0449,0.7192,-0.0460,0.3791,0.1953,-0.0020,-1.1234,
12.435140,-0.1511,1.0399,0.0139,0.7192,-0.0460,0.3791,0.1953,-0.0020,-1.1234,
12.436390,-0.1511,1.0399,0.0139,0.7192,-0.0460,0.3791,0.2240,0.3967,-1.2447,
12.437572,-0.1511,1.0399,0.0139,0.1640,0.1606,0.3335,0.2240,0.3967,-1.2447,
12.487815,-0.2102,1.0433,-0.0269,0.1640,0.1606,0.3335,0.2240,0.3967,-1.2447,
12.489678,-0.1460,0.9881,-0.0283,0.1640,0.1606,0.3335,0.2240,0.3967,-1.2447,
12.490259,-0.0864,0.9540,-0.0051,0.1640,0.1606,0.3335,0.2240,0.3967,-1.2447,
12.491018,-0.0864,0.9540,-0.0051,0.1640,0.1606,0.3335,0.2690,0.1075,-1.1576,
12.491740,-0.0864,0.9540,-0.0051,0.4113,0.2391,0.0308,0.2690,0.1075,-1.1576,
12.546154,-0.0569,0.9537,-0.0234,0.4113,0.2391,0.0308,0.2690,0.1075,-1.1576,
12.547915,-0.0005,0.9696,-0.0444,0.4113,0.2391,0.0308,0.2690,0.1075,-1.1576,
12.549226,-0.0791,1.0397,-0.0789,0.4113,0.2391,0.0308,0.2690,0.1075,-1.1576,
12.551105,-0.0791,1.0397,-0.0789,0.4113,0.2391,0.0308,0.2533,0.2323,-1.4349,
12.553167,-0.0791,1.0397,-0.0789,2.1590,0.3527,-0.0802,0.2533,0.2323,-1.4349,
12.605121,-0.2012,1.1490,-0.0769,2.1590,0.3527,-0.0802,0.2533,0.2323,-1.4349,
12.608908,-0.1309,1.1954,-0.0391,2.1590,0.3527,-0.0802,0.2533,0.2323,-1.4349,
12.611034,0.0344,1.1952,0.0200,2.1590,0.3527,-0.0802,0.2533,0.2323,-1.4349,
12.613133,0.0344,1.1952,0.0200,2.1590,0.3527,-0.0802,0.3903,-0.1053,-1.8806,
12.615152,0.0344,1.1952,0.0200,2.5965,2.5460,0.2690,0.3903,-0.1053,-1.8806,
12.662285,0.1025,1.2128,0.0269,2.5965,2.5460,0.2690,0.3903,-0.1053,-1.8806,
12.663904,0.0667,1.3290,-0.0437,2.5965,2.5460,0.2690,0.3903,-0.1053,-1.8806,
12.664730,0.2884,1.6432,-0.0049,2.5965,2.5460,0.2690,0.3903,-0.1053,-1.8806,
12.665536,0.2884,1.6432,-0.0049,2.5965,2.5460,0.2690,0.5424,0.3769,-2.4830,
12.666449,0.2884,1.6432,-0.0049,6.2039,5.1987,0.8674,0.5424,0.3769,-2.4830,
12.720471,0.8155,1.7751,-0.2097,6.2039,5.1987,0.8674,0.5424,0.3769,-2.4830,
12.722123,0.9608,1.6022,-0.4698,6.2039,5.1987,0.8674,0.5424,0.3769,-2.4830,
12.722887,0.3169,1.1178,-0.3040,6.2039,5.1987,0.8674,0.5424,0.3769,-2.4830,
12.723573,0.3169,1.1178,-0.3040,6.2039,5.1987,0.8674,0.6135,2.3040,-3.0600,
12.724235,0.3169,1.1178,-0.3040,12.5653,7.0985,-1.2375,0.6135,2.3040,-3.0600,
12.779277,-0.6976,0.8768,-0.2991,12.5653,7.0985,-1.2375,0.6135,2.3040,-3.0600,
12.780590,-1.3922,1.1881,-0.4390,12.5653,7.0985,-1.2375,0.6135,2.3040,-3.0600,
12.781255,-1.3820,1.2286,-0.3086,12.5653,7.0985,-1.2375,0.6135,2.3040,-3.0600,
12.781868,-1.3820,1.2286,-0.3086,12.5653,7.0985,-1.2375,1.3231,2.4909,-3.8945,
12.782488,-1.3820,1.2286,-0.3086,-4.3842,4.7456,-0.0027,1.3231,2.4909,-3.8945,
12.837374,-1.0929,0.7244,-0.1951,-4.3842,4.7456,-0.0027,1.3231,2.4909,-3.8945,
12.839263,-0.9076,0.5315,-0.3123,-4.3842,4.7456,-0.0027,1.3231,2.4909,-3.8945,
12.839939,-0.5010,0.3086,-0.1228,-4.3842,4.7456,-0.0027,1.3231,2.4909,-3.8945,
12.840505,-0.5010,0.3086,-0.1228,-4.3842,4.7456,-0.0027,0.0605,-0.6766,-0.3526,
12.841043,-0.5010,0.3086,-0.1228,-0.9453,-0.7337,1.0757,0.0605,-0.6766,-0.3526,
12.895564,-0.1091,0.0466,0.2229,-0.9453,-0.7337,1.0757,0.0605,-0.6766,-0.3526,
12.896538,0.1648,-0.2136,0.0772,-0.9453,-0.7337,1.0757,0.0605,-0.6766,-0.3526,
12.897277,0.0769,-0.1223,-0.1004,-0.9453,-0.7337,1.0757,0.0605,-0.6766,-0.3526,
12.898838,0.0769,-0.1223,-0.1004,-0.9453,-0.7337,1.0757,-0.2319,-1.2236,2.9945,
12.900193,0.0769,-0.1223,-0.1004,6.6203,-7.8811,3.1569,-0.2319,-1.2236,2.9945,
12.953754,-0.1836,0.1443,-0.2627,6.6203,-7.8811,3.1569,-0.2319,-1.2236,2.9945,
12.955897,-0.3990,0.3919,-0.3616,6.6203,-7.8811,3.1569,-0.2319,-1.2236,2.9945,
12.956735,-0.4834,0.4405,-0.1382,6.6203,-7.8811,3.1569,-0.2319,-1.2236,2.9945,
12.957428,-0.4834,0.4405,-0.1382,6.6203,-7.8811,3.1569,0.8428,-1.0810,4.6475,
12.958123,-0.4834,0.4405,-0.1382,0.7750,-4.9673,0.0563,0.8428,-1.0810,4.6475,
13.012402,-0.5035,0.4410,-0.2041,0.7750,-4.9673,0.0563,0.8428,-1.0810,4.6475,
13.014855,-0.5833,0.7132,-0.4324,0.7750,-4.9673,0.0563,0.8428,-1.0810,4.6475,
13.015683,-0.7117,1.1786,-0.4053,0.7750,-4.9673,0.0563,0.8428,-1.0810,4.6475,
13.016458,-0.7117,1.1786,-0.4053,0.7750,-4.9673,0.0563,1.1572,-3.9621,6.8911,
13.017289,-0.7117,1.1786,-0.4053,-4.4775,-1.4704,-0.8773,1.1572,-3.9621,6.8911,
13.070457,-0.7982,1.3910,-0.4024,-4.4775,-1.4704,-0.8773,1.1572,-3.9621,6.8911,
13.072072,-0.6524,1.6537,-0.3604,-4.4775,-1.4704,-0.8773,1.1572,-3.9621,6.8911,
13.072754,-0.5679,1.8093,-0.1257,-4.4775,-1.4704,-0.8773,1.1572,-3.9621,6.8911,
13.073401,-0.5679,1.8093,-0.1257,-4.4775,-1.4704,-0.8773,1.8409,-8.9688,7.2690,
13.074085,-0.5679,1.8093,-0.1257,-7.3810,6.9126,0.5666,1.8409,-8.9688,7.2690,
13.129290,-0.3958,1.4762,0.4107,-7.3810,6.9126,0.5666,1.8409,-8.9688,7.2690,
13.130505,-0.5943,1.2452,0.5196,-7.3810,6.9126,0.5666,1.8409,-8.9688,7.2690,
13.131217,-0.7757,1.6000,0.5650,-7.3810,6.9126,0.5666,1.8409,-8.9688,7.2690,
13.131800,-0.7757,1.6000,0.5650,-7.3810,6.9126,0.5666,0.0649,-7.5705,2.6066,
13.132389,-0.7757,1.6000,0.5650,-6.1367,5.2277,8.6067,0.0649,-7.5705,2.6066,
13.187363,0.5259,0.9234,1.7839,-6.1367,5.2277,8.6067,0.0649,-7.5705,2.6066,
13.189618,1.4919,0.5535,0.6851,-6.1367,5.2277,8.6067,0.0649,-7.5705,2.6066,
13.190559,0.2630,1.4237,-0.2913,-6.1367,5.2277,8.6067,0.0649,-7.5705,2.6066,
13.191374,0.2630,1.4237,-0.2913,-6.1367,5.2277,8.6067,-0.7328,-0.0765,-0.4370,
13.192657,0.2630,1.4237,-0.2913,7.2201,0.4251,10.2882,-0.7328,-0.0765,-0.4370,
13.245674,-0.4393,1.8764,-1.2824,7.2201,0.4251,10.2882,-0.7328,-0.0765,-0.4370,
13.247842,-0.6517,1.3947,-1.0174,7.2201,0.4251,10.2882,-0.7328,-0.0765,-0.4370,
13.249932,-0.2315,1.0304,-0.3987,7.2201,0.4251,10.2882,-0.7328,-0.0765,-0.4370,
13.252429,-0.2315,1.0304,-0.3987,7.2201,0.4251,10.2882,-0.4128,0.3590,-0.8676,
13.256877,-0.2315,1.0304,-0.3987,-4.0840,4.8437,-5.7620,-0.4128,0.3590,-0.8676,
13.303865,0.4019,0.8919,-0.2298,-4.0840,4.8437,-5.7620,-0.4128,0.3590,-0.8676,
13.305393,0.3167,0.8028,-0.0276,-4.0840,4.8437,-5.7620,-0.4128,0.3590,-0.8676,
13.306465,-0.1194,0.8939,0.2144,-4.0840,4.8437,-5.7620,-0.4128,0.3590,-0.8676,
13.308506,-0.1194,0.8939,0.2144,-4.0840,4.8437,-5.7620,-0.5278,-1.3282,0.0092,
13.309739,-0.1194,0.8939,0.2144,2.3702,-0.8280,2.5546,-0.5278,-1.3282,0.0092,
13.362109,-0.4436,1.0055,0.0647,2.3702,-0.8280,2.5546,-0.5278,-1.3282,0.0092,
13.363735,-0.4102,1.0157,-0.2310,2.3702,-0.8280,2.5546,-0.5278,-1.3282,0.0092,
13.364510,-0.2097,1.0043,-0.3941,2.3702,-0.8280,2.5546,-0.5278,-1.3282,0.0092,
13.365203,-0.2097,1.0043,-0.3941,2.3702,-0.8280,2.5546,0.0010,-0.2117,0.0379,
13.365739,-0.2097,1.0043,-0.3941,-2.9982,0.5882,0.8454,0.0010,-0.2117,0.0379,
13.421016,-0.1299,0.9681,-0.4117,-2.9982,0.5882,0.8454,0.0010,-0.2117,0.0379,
13.422655,-0.0794,0.9679,-0.4410,-2.9982,0.5882,0.8454,0.0010,-0.2117,0.0379,
13.423558,0.1121,0.9598,-0.3785,-2.9982,0.5882,0.8454,0.0010,-0.2117,0.0379,
13.424349,0.1121,0.9598,-0.3785,-2.9982,0.5882,0.8454,-0.0845,-0.8902,0.6408,
13.425569,0.1121,0.9598,-0.3785,-0.0511,0.1354,-1.3875,-0.0845,-0.8902,0.6408,
13.479345,0.2168,0.8910,-0.2713,-0.0511,0.1354,-1.3875,-0.0845,-0.8902,0.6408,
13.481595,0.0784,0.9112,-0.2273,-0.0511,0.1354,-1.3875,-0.0845,-0.8902,0.6408,
13.482583,-0.1013,0.9908,-0.2302,-0.0511,0.1354,-1.3875,-0.0845,-0.8902,0.6408,
13.483292,-0.1013,0.9908,-0.2302,-0.0511,0.1354,-1.3875,-0.1566,-0.2924,0.3083,
13.484186,-0.1013,0.9908,-0.2302,0.7632,-0.2240,0.1614,-0.1566,-0.2924,0.3083,
13.537559,-0.0796,0.9928,-0.2254,0.7632,-0.2240,0.1614,-0.1566,-0.2924,0.3083,
13.540689,0.0894,0.9535,-0.1572,0.7632,-0.2240,0.1614,-0.1566,-0.2924,0.3083,
13.541688,0.2132,0.9408,-0.1489,0.7632,-0.2240,0.1614,-0.1566,-0.2924,0.3083,
13.543048,0.2132,0.9408,-0.1489,0.7632,-0.2240,0.1614,-0.0098,-0.4651,0.2328,
13.544285,0.2132,0.9408,-0.1489,0.7865,0.0790,0.7847,-0.0098,-0.4651,0.2328,
13.595742,0.1721,0.9586,-0.1387,0.7865,0.0790,0.7847,-0.0098,-0.4651,0.2328,
13.598119,0.0471,0.9481,-0.1409,0.7865,0.0790,0.7847,-0.0098,-0.4651,0.2328,
13.599683,-0.0676,0.9247,-0.1455,0.7865,0.0790,0.7847,-0.0098,-0.4651,0.2328,
13.600744,-0.0676,0.9247,-0.1455,0.7865,0.0790,0.7847,0.3250,-0.3042,-0.2423,
13.601770,-0.0676,0.9247,-0.1455,0.7191,-0.0504,1.2854,0.3250,-0.3042,-0.2423,
13.654725,-0.0994,0.9850,-0.1297,0.7191,-0.0504,1.2854,0.3250,-0.3042,-0.2423,
13.655898,0.0081,1.0016,-0.1492,0.7191,-0.0504,1.2854,0.3250,-0.3042,-0.2423,
13.656688,0.1209,0.9967,-0.2473,0.7191,-0.0504,1.2854,0.3250,-0.3042,-0.2423,
13.657327,0.1209,0.9967,-0.2473,0.7191,-0.0504,1.2854,0.7253,-0.1895,-0.2977,
13.658106,0.1209,0.9967,-0.2473,0.5035,0.5631,1.3201,0.7253,-0.1895,-0.2977,
13.713921,0.0679,0.9999,-0.2168,0.5035,0.5631,1.3201,0.7253,-0.1895,-0.2977,
13.716869,0.0696,1.0553,-0.1978,0.5035,0.5631,1.3201,0.7253,-0.1895,-0.2977,
13.718834,0.0630,1.1676,-0.2454,0.5035,0.5631,1.3201,0.7253,-0.1895,-0.2977,
13.721289,0.0630,1.1676,-0.2454,1.3373,1.5730,1.4937,0.7253,-0.1895,-0.2977,
13.723524,0.0630,1.1676,-0.2454,1.3373,1.5730,1.4937,1.2122,-0.1403,-0.5129,
13.774224,0.0576,1.2797,-0.3631,1.3373,1.5730,1.4937,1.2122,-0.1403,-0.5129,
13.775566,0.2544,1.4540,-0.3677,1.3373,1.5730,1.4937,1.2122,-0.1403,-0.5129,
13.776240,0.5425,1.5497,-0.2637,1.3373,1.5730,1.4937,1.2122,-0.1403,-0.5129,
13.776987,0.5425,1.5497,-0.2637,1.3373,1.5730,1.4937,1.7851,-0.1932,-0.6375,
13.777708,0.5425,1.5497,-0.2637,3.7813,5.4059,1.2792,1.7851,-0.1932,-0.6375,
13.829363,0.6358,1.6696,0.0142,3.7813,5.4059,1.2792,1.7851,-0.1932,-0.6375,
13.830680,0.4612,1.6706,0.2232,3.7813,5.4059,1.2792,1.7851,-0.1932,-0.6375,
13.831251,-0.1055,1.6269,0.5291,3.7813,5.4059,1.2792,1.7851,-0.1932,-0.6375,
13.831816,-0.1055,1.6269,0.5291,3.7813,5.4059,1.2792,2.5294,-1.7432,-1.0904,
13.832345,-0.1055,1.6269,0.5291,5.1826,8.3418,7.9488,2.5294,-1.7432,-1.0904,
13.887216,-0.8287,1.4435,0.4283,5.1826,8.3418,7.9488,2.5294,-1.7432,-1.0904,
13.888707,-1.5754,1.5019,-0.0579,5.1826,8.3418,7.9488,2.5294,-1.7432,-1.0904,
13.889363,-1.3749,1.2899,-0.3382,5.1826,8.3418,7.9488,2.5294,-1.7432,-1.0904,
13.889994,-1.3749,1.2899,-0.3382,5.1826,8.3418,7.9488,2.3343,-3.9857,-1.6984,
13.890572,-1.3749,1.2899,-0.3382,-8.2073,6.9018,5.7636,2.3343,-3.9857,-1.6984,
13.945537,-0.6463,1.1009,-0.4634,-8.2073,6.9018,5.7636,2.3343,-3.9857,-1.6984,
13.946814,-0.0078,0.8626,-0.2298,-8.2073,6.9018,5.7636,2.3343,-3.9857,-1.6984,
13.947290,0.2437,0.5416,0.3230,-8.2073,6.9018,5.7636,2.3343,-3.9857,-1.6984,
13.947797,0.2437,0.5416,0.3230,-8.2073,6.9018,5.7636,1.1987,-5.3072,0.9479,
13.949080,0.2437,0.5416,0.3230,3.9718,1.3165,3.3614,1.1987,-5.3072,0.9479,
14.003902,0.0308,0.4407,0.3767,3.9718,1.3165,3.3614,1.1987,-5.3072,0.9479,
14.004918,-0.2324,0.4668,0.2798,3.9718,1.3165,3.3614,1.1987,-5.3072,0.9479,
14.005374,-0.2730,0.4529,0.2852,3.9718,1.3165,3.3614,1.1987,-5.3072,0.9479,
14.005810,-0.2730,0.4529,0.2852,3.9718,1.3165,3.3614,0.4282,-4.2127,2.4421,
14.006895,-0.2730,0.4529,0.2852,3.6643,-3.0363,6.3872,0.4282,-4.2127,2.4421,
14.062035,-0.2566,0.4236,0.2039,3.6643,-3.0363,6.3872,0.4282,-4.2127,2.4421,
14.063302,-0.2188,0.4332,0.1633,3.6643,-3.0363,6.3872,0.4282,-4.2127,2.4421,
14.063853,-0.1773,0.5474,0.1433,3.6643,-3.0363,6.3872,0.4282,-4.2127,2.4421,
14.064382,-0.1773,0.5474,0.1433,3.6643,-3.0363,6.3872,0.1608,-2.1250,4.7457,
14.064947,-0.1773,0.5474,0.1433,1.1966,-4.0035,4.4092,0.1608,-2.1250,4.7457,
14.120795,-0.2080,0.7403,0.1504,1.1966,-4.0035,4.4092,0.1608,-2.1250,4.7457,
14.121675,-0.3404,1.0060,0.0510,1.1966,-4.0035,4.4092,0.1608,-2.1250,4.7457,
14.122061,-0.4505,1.2968,-0.0120,1.1966,-4.0035,4.4092,0.1608,-2.1250,4.7457,
14.122688,-0.4505,1.2968,-0.0120,-2.9873,0.6109,2.9124,0.1608,-2.1250,4.7457,
14.123248,-0.4505,1.2968,-0.0120,-2.9873,0.6109,2.9124,-0.5280,-0.9124,6.1478,
14.179322,-0.5064,1.5053,-0.0181,-2.9873,0.6109,2.9124,-0.5280,-0.9124,6.1478,
14.180936,-0.6356,1.7243,-0.0444,-2.9873,0.6109,2.9124,-0.5280,-0.9124,6.1478,
14.181870,-0.7381,1.8251,-0.0928,-2.9873,0.6109,2.9124,-0.5280,-0.9124,6.1478,
14.182595,-0.7381,1.8251,-0.0928,-2.9873,0.6109,2.9124,-1.7245,-1.1393,6.4009,
14.183371,-0.7381,1.8251,-0.0928,-9.0456,7.3925,0.9361,-1.7245,-1.1393,6.4009,
14.237337,-0.8062,1.7118,-0.0396,-9.0456,7.3925,0.9361,-1.7245,-1.1393,6.4009,
14.240166,-0.7335,1.2479,0.0557,-9.0456,7.3925,0.9361,-1.7245,-1.1393,6.4009,
14.241152,-0.7716,1.0033,-0.0864,-9.0456,7.3925,0.9361,-1.7245,-1.1393,6.4009,
14.241828,-0.7716,1.0033,-0.0864,-9.0456,7.3925,0.9361,-1.8746,-0.2453,3.6781,
14.242553,-0.7716,1.0033,-0.0864,-12.1172,4.4666,0.3009,-1.8746,-0.2453,3.6781,
14.295851,-1.0658,0.9308,-0.2959,-12.1172,4.4666,0.3009,-1.8746,-0.2453,3.6781,
14.297705,-1.1935,0.7891,-0.4983,-12.1172,4.4666,0.3009,-1.8746,-0.2453,3.6781,
14.298946,-0.9996,1.1805,-1.1981,-12.1172,4.4666,0.3009,-1.8746,-0.2453,3.6781,
14.299913,-0.9996,1.1805,-1.1981,-14.2499,0.6311,-5.9321,-1.8746,-0.2453,3.6781,
14.300730,-0.9996,1.1805,-1.1981,-14.2499,0.6311,-5.9321,-0.4354,-0.6259,-1.3946,
14.354197,0.3833,1.7609,-0.8690,-14.2499,0.6311,-5.9321,-0.4354,-0.6259,-1.3946,
14.355974,2.2793,1.5424,-0.5557,-14.2499,0.6311,-5.9321,-0.4354,-0.6259,-1.3946,
14.357047,1.1510,1.3766,-0.6666,-14.2499,0.6311,-5.9321,-0.4354,-0.6259,-1.3946,
14.358150,1.1510,1.3766,-0.6666,-14.2499,0.6311,-5.9321,-0.5241,-3.9505,-0.9902,
14.359300,1.1510,1.3766,-0.6666,9.3973,6.1268,-5.6933,-0.5241,-3.9505,-0.9902,
14.412421,-1.0160,1.3305,0.1399,9.3973,6.1268,-5.6933,-0.5241,-3.9505,-0.9902,
14.413848,-0.4964,0.5181,0.5479,9.3973,6.1268,-5.6933,-0.5241,-3.9505,-0.9902,
14.414609,-0.0110,0.6922,0.3076,9.3973,6.1268,-5.6933,-0.5241,-3.9505,-0.9902,
14.415271,-0.0110,0.6922,0.3076,9.3973,6.1268,-5.6933,-0.4138,-0.3034,-2.7878,
14.416331,-0.0110,0.6922,0.3076,-6.3806,-1.2360,4.1628,-0.4138,-0.3034,-2.7878,
14.470357,-0.1716,1.1586,-0.1069,-6.3806,-1.2360,4.1628,-0.4138,-0.3034,-2.7878,
14.471812,-0.3443,1.2074,-0.2517,-6.3806,-1.2360,4.1628,-0.4138,-0.3034,-2.7878,
14.472632,0.0127,1.1088,-0.2925,-6.3806,-1.2360,4.1628,-0.4138,-0.3034,-2.7878,
14.473420,0.0127,1.1088,-0.2925,-6.3806,-1.2360,4.1628,-0.0544,0.0114,-1.3015,
14.474142,0.0127,1.1088,-0.2925,-2.2823,1.7041,-1.2253,-0.0544,0.0114,-1.3015,
14.529192,0.3255,1.0756,-0.1826,-2.2823,1.7041,-1.2253,-0.0544,0.0114,-1.3015,
14.530552,0.1975,0.9935,0.0217,-2.2823,1.7041,-1.2253,-0.0544,0.0114,-1.3015,
14.531310,-0.0083,0.9515,0.1214,-2.2823,1.7041,-1.2253,-0.0544,0.0114,-1.3015,
14.531900,-0.0083,0.9515,0.1214,-2.2823,1.7041,-1.2253,-0.0639,-0.3372,-1.0619,
14.532623,-0.0083,0.9515,0.1214,1.6310,0.1934,0.7296,-0.0639,-0.3372,-1.0619,
14.587384,-0.0779,0.9686,0.0530,1.6310,0.1934,0.7296,-0.0639,-0.3372,-1.0619,
14.588934,-0.0056,0.9869,-0.0523,1.6310,0.1934,0.7296,-0.0639,-0.3372,-1.0619,
14.589621,0.0217,0.9969,-0.0332,1.6310,0.1934,0.7296,-0.0639,-0.3372,-1.0619,
14.590258,0.0217,0.9969,-0.0332,1.6310,0.1934,0.7296,0.1201,0.0613,-1.2478,
14.591795,0.0217,0.9969,-0.0332,0.4408,-0.0009,0.8091,0.1201,0.0613,-1.2478,
14.645713,-0.1101,0.9962,0.0049,0.4408,-0.0009,0.8091,0.1201,0.0613,-1.2478,
14.646917,-0.1790,1.0365,-0.0459,0.4408,-0.0009,0.8091,0.1201,0.0613,-1.2478,
14.647598,-0.1192,1.0184,-0.0618,0.4408,-0.0009,0.8091,0.1201,0.0613,-1.2478,
14.648168,-0.1192,1.0184,-0.0618,0.4408,-0.0009,0.8091,0.2140,-0.1283,-1.3376,
14.648852,-0.1192,1.0184,-0.0618,0.0645,0.4062,0.6794,0.2140,-0.1283,-1.3376,
14.703971,-0.1314,0.9747,-0.0659,0.0645,0.4062,0.6794,0.2140,-0.1283,-1.3376,
14.705504,-0.1738,0.9837,-0.0991,0.0645,0.4062,0.6794,0.2140,-0.1283,-1.3376,
14.706179,-0.0684,1.0057,-0.1087,0.0645,0.4062,0.6794,0.2140,-0.1283,-1.3376,
14.706746,-0.0684,1.0057,-0.1087,0.0645,0.4062,0.6794,0.2608,0.0863,-1.3573,
14.707342,-0.0684,1.0057,-0.1087,0.9081,0.2746,0.2706,0.2608,0.0863,-1.3573,
14.762255,-0.0142,1.0174,-0.1025,0.9081,0.2746,0.2706,0.2608,0.0863,-1.3573,
14.763618,-0.0740,1.0350,-0.0711,0.9081,0.2746,0.2706,0.2608,0.0863,-1.3573,
14.764352,-0.1655,1.1322,-0.0820,0.9081,0.2746,0.2706,0.2608,0.0863,-1.3573,
14.765086,-0.1655,1.1322,-0.0820,0.9081,0.2746,0.2706,0.3431,0.1660,-1.7088,
14.765697,-0.1655,1.1322,-0.0820,2.1748,1.2568,0.5314,0.3431,0.1660,-1.7088,
14.820708,-0.1279,1.2128,-0.1047,2.1748,1.2568,0.5314,0.3431,0.1660,-1.7088,
14.821840,-0.0017,1.2521,-0.1072,2.1748,1.2568,0.5314,0.3431,0.1660,-1.7088,
14.822560,0.1375,1.3410,-0.0972,2.1748,1.2568,0.5314,0.3431,0.1660,-1.7088,
14.823263,0.1375,1.3410,-0.0972,2.1748,1.2568,0.5314,0.6689,-0.0488,-2.0649,
14.823840,0.1375,1.3410,-0.0972,4.0396,3.7104,0.6815,0.6689,-0.0488,-2.0649,
14.878864,0.4727,1.6242,0.1565,4.0396,3.7104,0.6815,0.6689,-0.0488,-2.0649,
14.880365,1.0448,2.0041,0.0991,4.0396,3.7104,0.6815,0.6689,-0.0488,-2.0649,
14.881171,1.3600,1.9472,-0.0718,4.0396,3.7104,0.6815,0.6689,-0.0488,-2.0649,
14.881966,1.3600,1.9472,-0.0718,4.0396,3.7104,0.6815,0.9440,0.8194,-2.5854,
14.882818,1.3600,1.9472,-0.0718,14.3295,10.1264,2.9253,0.9440,0.8194,-2.5854,
14.938663,0.7916,1.3317,-0.0588,14.3295,10.1264,2.9253,0.9440,0.8194,-2.5854,
14.941370,-0.3838,1.0013,-0.2105,14.3295,10.1264,2.9253,0.9440,0.8194,-2.5854,
14.943289,-1.0951,1.2848,-0.3360,14.3295,10.1264,2.9253,0.9440,0.8194,-2.5854,
14.945282,-1.0951,1.2848,-0.3360,14.3295,10.1264,2.9253,1.0704,3.7023,-4.1771,
14.947361,-1.0951,1.2848,-0.3360,3.7241,5.1913,1.9835,1.0704,3.7023,-4.1771,
14.996281,-1.1813,1.2416,-0.2947,3.7241,5.1913,1.9835,1.0704,3.7023,-4.1771,
14.999116,-1.0187,0.7899,-0.4231,3.7241,5.1913,1.9835,1.0704,3.7023,-4.1771,
15.000376,-0.7252,0.5438,-0.4864,3.7241,5.1913,1.9835,1.0704,3.7023,-4.1771,
15.001545,-0.7252,0.5438,-0.4864,3.7241,5.1913,1.9835,0.6019,1.5337,-2.3624,
15.002562,-0.7252,0.5438,-0.4864,-3.0765,2.7464,0.7812,0.6019,1.5337,-2.3624,
15.055118,-0.2219,0.3096,-0.7227,-3.0765,2.7464,0.7812,0.6019,1.5337,-2.3624,
15.058835,0.0049,0.1453,-0.2195,-3.0765,2.7464,0.7812,0.6019,1.5337,-2.3624,
15.060472,-0.0657,0.0752,-0.1963,-3.0765,2.7464,0.7812,0.6019,1.5337,-2.3624,
15.062254,-0.0657,0.0752,-0.1963,-3.0765,2.7464,0.7812,-1.6940,0.4675,1.4370,
15.064675,-0.0657,0.0752,-0.1963,4.8255,-4.8154,0.5575,-1.6940,0.4675,1.4370,
15.113611,-0.1572,0.2014,-0.2947,4.8255,-4.8154,0.5575,-1.6940,0.4675,1.4370,
15.117237,-0.2425,0.3648,-0.4383,4.8255,-4.8154,0.5575,-1.6940,0.4675,1.4370,
15.120538,-0.2219,0.4673,-0.4734,4.8255,-4.8154,0.5575,-1.6940,0.4675,1.4370,
15.122964,-0.2219,0.4673,-0.4734,4.8255,-4.8154,0.5575,-2.0847,-0.8859,3.3865,
15.125628,-0.2219,0.4673,-0.4734,2.4162,-4.5628,-0.7966,-2.0847,-0.8859,3.3865,
15.174478,-0.1253,0.5135,-0.3980,2.4162,-4.5628,-0.7966,-2.0847,-0.8859,3.3865,
15.179622,-0.0210,0.5577,-0.2683,2.4162,-4.5628,-0.7966,-2.0847,-0.8859,3.3865,
15.181661,0.0383,0.6907,-0.1902,2.4162,-4.5628,-0.7966,-2.0847,-0.8859,3.3865,
15.183991,0.0383,0.6907,-0.1902,2.4162,-4.5628,-0.7966,-2.3759,-0.9432,5.7880,
15.186407,0.0383,0.6907,-0.1902,1.2606,-3.5072,-1.0163,-2.3759,-0.9432,5.7880,
15.233332,0.1082,1.0692,-0.4708,1.2606,-3.5072,-1.0163,-2.3759,-0.9432,5.7880,
15.238991,0.0391,1.6012,-0.4705,1.2606,-3.5072,-1.0163,-2.3759,-0.9432,5.7880,
15.242877,-0.4732,1.9795,-0.5105,1.2606,-3.5072,-1.0163,-2.3759,-0.9432,5.7880,
15.245975,-0.4732,1.9795,-0.5105,1.2606,-3.5072,-1.0163,-1.8104,0.6901,6.1867,
15.248899,-0.4732,1.9795,-0.5105,-2.8476,5.7305,-3.9202,-1.8104,0.6901,6.1867,
15.287249,-0.8101,1.8840,-0.5174,-2.8476,5.7305,-3.9202,-1.8104,0.6901,6.1867,
15.289091,-0.9625,1.4740,-0.2649,-2.8476,5.7305,-3.9202,-1.8104,0.6901,6.1867,
15.290181,-0.8526,1.1332,-0.1265,-2.8476,5.7305,-3.9202,-1.8104,0.6901,6.1867,
15.291367,-0.8526,1.1332,-0.1265,-2.8476,5.7305,-3.9202,-1.8489,0.7813,4.7825,
15.295947,-0.8526,1.1332,-0.1265,-12.6976,5.9433,-3.2170,-1.8489,0.7813,4.7825,
15.345375,-0.8600,1.0272,-0.4087,-12.6976,5.9433,-3.2170,-1.8489,0.7813,4.7825,
15.346728,-0.9188,0.8297,-0.3074,-12.6976,5.9433,-3.2170,-1.8489,0.7813,4.7825,
15.347347,-0.8949,0.8463,-0.2637,-12.6976,5.9433,-3.2170,-1.8489,0.7813,4.7825,
15.347866,-0.8949,0.8463,-0.2637,-12.6976,5.9433,-3.2170,-0.4812,-0.6119,0.6192,
15.348491,-0.8949,0.8463,-0.2637,-12.9623,0.2624,-3.4702,-0.4812,-0.6119,0.6192,
15.403827,-0.8778,1.1493,-0.4673,-12.9623,0.2624,-3.4702,-0.4812,-0.6119,0.6192,
15.404804,0.1836,1.6181,-0.1839,-12.9623,0.2624,-3.4702,-0.4812,-0.6119,0.6192,
15.405278,2.5667,1.6728,0.6470,-12.9623,0.2624,-3.4702,-0.4812,-0.6119,0.6192,
15.405710,2.5667,1.6728,0.6470,-12.9623,0.2624,-3.4702,-0.3350,-1.3463,-1.5868,
15.406215,2.5667,1.6728,0.6470,2.6373,5.4926,-0.1447,-0.3350,-1.3463,-1.5868,
15.463447,1.2387,1.6432,-0.0251,2.6373,5.4926,-0.1447,-0.3350,-1.3463,-1.5868,
15.464484,-1.0577,1.2711,-0.9173,2.6373,5.4926,-0.1447,-0.3350,-1.3463,-1.5868,
15.464992,-0.7642,0.6612,-0.3006,2.6373,5.4926,-0.1447,-0.3350,-1.3463,-1.5868,
15.465454,-0.7642,0.6612,-0.3006,2.6373,5.4926,-0.1447,0.2893,-0.5160,-2.9556,
15.465866,-0.7642,0.6612,-0.3006,-3.7263,2.1684,-3.8793,0.2893,-0.5160,-2.9556,
15.521872,-0.1648,0.7454,0.3894,-3.7263,2.1684,-3.8793,0.2893,-0.5160,-2.9556,
15.523315,-0.0911,1.0890,0.3064,-3.7263,2.1684,-3.8793,0.2893,-0.5160,-2.9556,
15.524002,0.0315,1.0487,0.1174,-3.7263,2.1684,-3.8793,0.2893,-0.5160,-2.9556,
15.524741,0.0315,1.0487,0.1174,-3.7263,2.1684,-3.8793,-0.0646,-0.2883,-1.6768,
15.525709,0.0315,1.0487,0.1174,-1.5863,-0.2227,2.7774,-0.0646,-0.2883,-1.6768,
15.578981,-0.0574,1.0035,-0.1328,-1.5863,-0.2227,2.7774,-0.0646,-0.2883,-1.6768,
15.580791,-0.0501,1.0492,-0.0972,-1.5863,-0.2227,2.7774,-0.0646,-0.2883,-1.6768,
15.581810,0.0310,1.0602,-0.0864,-1.5863,-0.2227,2.7774,-0.0646,-0.2883,-1.6768,
15.582780,0.0310,1.0602,-0.0864,-1.5863,-0.2227,2.7774,0.2574,-0.0790,-1.2930,
15.583588,0.0310,1.0602,-0.0864,-0.3670,0.4857,-0.7523,0.2574,-0.0790,-1.2930,
15.637778,-0.0383,1.0006,0.0215,-0.3670,0.4857,-0.7523,0.2574,-0.0790,-1.2930,
15.638995,-0.1506,1.0082,0.0305,-0.3670,0.4857,-0.7523,0.2574,-0.0790,-1.2930,
15.639815,-0.1079,1.0099,-0.0317,-0.3670,0.4857,-0.7523,0.2574,-0.0790,-1.2930,
15.640406,-0.1079,1.0099,-0.0317,-0.3670,0.4857,-0.7523,0.2411,-0.1659,-1.1315,
15.641037,-0.1079,1.0099,-0.0317,-0.4374,0.1929,0.4734,0.2411,-0.1659,-1.1315,
15.695645,0.0247,0.9767,-0.0090,-0.4374,0.1929,0.4734,0.2411,-0.1659,-1.1315,
15.696915,0.0254,0.9857,-0.0176,-0.4374,0.1929,0.4734,0.2411,-0.1659,-1.1315,
15.697453,-0.1362,1.0045,-0.0669,-0.4374,0.1929,0.4734,0.2411,-0.1659,-1.1315,
15.697961,-0.1362,1.0045,-0.0669,-0.4374,0.1929,0.4734,0.2673,0.0674,-1.0590,
15.698646,-0.1362,1.0045,-0.0669,0.8302,0.0812,0.2518,0.2673,0.0674,-1.0590,
15.754155,-0.1953,1.0138,-0.0911,0.8302,0.0812,0.2518,0.2673,0.0674,-1.0590,
15.755431,-0.1231,1.0262,-0.0564,0.8302,0.0812,0.2518,0.2673,0.0674,-1.0590,
15.756299,-0.0613,1.0226,-0.0596,0.8302,0.0812,0.2518,0.2673,0.0674,-1.0590,
15.757029,-0.0613,1.0226,-0.0596,0.8302,0.0812,0.2518,0.2604,0.1641,-1.0940,
15.757897,-0.0613,1.0226,-0.0596,0.4676,0.4856,0.0393,0.2604,0.1641,-1.0940,
15.813479,-0.0508,1.0038,-0.0723,0.4676,0.4856,0.0393,0.2604,0.1641,-1.0940,
15.816323,-0.0681,0.9566,-0.1123,0.4676,0.4856,0.0393,0.2604,0.1641,-1.0940,
15.818680,-0.1077,0.9603,-0.0867,0.4676,0.4856,0.0393,0.2604,0.1641,-1.0940,
15.820656,-0.1077,0.9603,-0.0867,0.4676,0.4856,0.0393,0.2991,0.1607,-1.3512,
15.822748,-0.1077,0.9603,-0.0867,1.6753,0.1966,0.0132,0.2991,0.1607,-1.3512,
15.872316,-0.0940,1.0401,-0.0591,1.6753,0.1966,0.0132,0.2991,0.1607,-1.3512,
15.875541,-0.1143,1.1356,-0.0198,1.6753,0.1966,0.0132,0.2991,0.1607,-1.3512,
15.877078,-0.1343,1.1783,-0.0066,1.6753,0.1966,0.0132,0.2991,0.1607,-1.3512,
15.879043,-0.1343,1.1783,-0.0066,1.6753,0.1966,0.0132,0.4300,0.1028,-1.8096,
15.880918,-0.1343,1.1783,-0.0066,2.2228,1.9119,0.8532,0.4300,0.1028,-1.8096,
15.930023,-0.1499,1.1764,-0.0457,2.2228,1.9119,0.8532,0.4300,0.1028,-1.8096,
15.933373,-0.0349,1.2328,-0.0881,2.2228,1.9119,0.8532,0.4300,0.1028,-1.8096,
15.935262,0.1428,1.4938,-0.0701,2.2228,1.9119,0.8532,0.4300,0.1028,-1.8096,
15.937391,0.1428,1.4938,-0.0701,2.2228,1.9119,0.8532,0.7444,0.3682,-2.2421,
15.940590,0.1428,1.4938,-0.0701,4.2510,4.2043,0.9166,0.7444,0.3682,-2.2421,
15.987107,0.4739,1.8041,-0.1297,4.2510,4.2043,0.9166,0.7444,0.3682,-2.2421,
15.988876,0.7371,1.9382,-0.2610,4.2510,4.2043,0.9166,0.7444,0.3682,-2.2421,
15.989898,1.0533,1.7604,-0.2642,4.2510,4.2043,0.9166,0.7444,0.3682,-2.2421,
15.990888,1.0533,1.7604,-0.2642,4.2510,4.2043,0.9166,1.1527,1.3604,-2.7149,
15.991857,1.0533,1.7604,-0.2642,12.6893,10.1822,0.3796,1.1527,1.3604,-2.7149,
16.046485,0.5350,1.1027,-0.0842,12.6893,10.1822,0.3796,1.1527,1.3604,-2.7149,
16.048599,-0.7142,0.8304,-0.1099,12.6893,10.1822,0.3796,1.1527,1.3604,-2.7149,
16.049513,-1.4315,1.2755,-0.2530,12.6893,10.1822,0.3796,1.1527,1.3604,-2.7149,
16.050450,-1.4315,1.2755,-0.2530,12.6893,10.1822,0.3796,1.4380,2.7919,-3.6249,
16.051302,-1.4315,1.2755,-0.2530,0.9698,4.1240,2.5606,1.4380,2.7919,-3.6249,
16.104898,-1.4044,1.1930,-0.3008,0.9698,4.1240,2.5606,1.4380,2.7919,-3.6249,
16.106719,-1.0687,0.6495,-0.1397,0.9698,4.1240,2.5606,1.4380,2.7919,-3.6249,
16.107341,-0.8575,0.3631,-0.3076,0.9698,4.1240,2.5606,1.4380,2.7919,-3.6249,
16.107884,-0.8575,0.3631,-0.3076,0.9698,4.1240,2.5606,1.1063,-0.2657,-1.1924,
16.108667,-0.8575,0.3631,-0.3076,-4.0888,1.5419,1.8216,1.1063,-0.2657,-1.1924,
16.164436,-0.5403,0.2659,-0.2788,-4.0888,1.5419,1.8216,1.1063,-0.2657,-1.1924,
16.168077,-0.2329,0.0459,0.2197,-4.0888,1.5419,1.8216,1.1063,-0.2657,-1.1924,
16.170375,-0.1438,-0.1946,0.2444,-4.0888,1.5419,1.8216,1.1063,-0.2657,-1.1924,
16.171823,-0.1438,-0.1946,0.2444,-4.0888,1.5419,1.8216,-0.3942,-1.8672,2.5394,
16.174679,-0.1438,-0.1946,0.2444,3.2454,-6.2343,3.9368,-0.3942,-1.8672,2.5394,
16.222339,-0.2207,-0.1182,0.1150,3.2454,-6.2343,3.9368,-0.3942,-1.8672,2.5394,
16.224182,-0.3675,0.1712,-0.1931,3.2454,-6.2343,3.9368,-0.3942,-1.8672,2.5394,
16.225437,-0.3487,0.4817,-0.0781,3.2454,-6.2343,3.9368,-0.3942,-1.8672,2.5394,
16.230148,-0.3487,0.4817,-0.0781,3.2454,-6.2343,3.9368,0.6453,-2.0606,4.7772,
16.231284,-0.3487,0.4817,-0.0781,1.4730,-6.1699,2.4013,0.6453,-2.0606,4.7772,
16.268986,-0.4163,0.4891,0.1680,1.4730,-6.1699,2.4013,0.6453,-2.0606,4.7772,
16.270377,-0.8346,0.6475,-0.1372,1.4730,-6.1699,2.4013,0.6453,-2.0606,4.7772,
16.284198,-0.8346,0.6475,-0.1372,-5.5437,-1.9921,2.5372,0.6453,-2.0606,4.7772,
16.285476,-0.8346,0.6475,-0.1372,-5.5437,-1.9921,2.5372,0.9185,-2.0454,6.0491,
16.317839,-1.0519,0.9693,-0.1514,-5.5437,-1.9921,2.5372,0.9185,-2.0454,6.0491,
16.319245,-1.1871,1.3356,-0.3020,-5.5437,-1.9921,2.5372,0.9185,-2.0454,6.0491,
16.319867,-1.2025,1.3622,-0.4778,-5.5437,-1.9921,2.5372,0.9185,-2.0454,6.0491,
16.336979,-1.2025,1.3622,-0.4778,-5.5437,-1.9921,2.5372,1.0350,-6.7711,6.4775,
16.338812,-1.2025,1.3622,-0.4778,-10.4082,3.7209,-0.6858,1.0350,-6.7711,6.4775,
16.376558,-0.7804,1.2135,-0.4136,-10.4082,3.7209,-0.6858,1.0350,-6.7711,6.4775,
16.380393,-0.3645,1.1405,-0.3675,-10.4082,3.7209,-0.6858,1.0350,-6.7711,6.4775,
16.381084,0.0513,1.1627,-0.1126,-10.4082,3.7209,-0.6858,1.0350,-6.7711,6.4775,
16.396416,0.0513,1.1627,-0.1126,-10.4082,3.7209,-0.6858,0.4860,-10.3414,5.1835,
16.397986,0.0513,1.1627,-0.1126,-0.6035,2.4639,3.0974,0.4860,-10.3414,5.1835,
16.434869,0.3230,1.1593,0.2884,-0.6035,2.4639,3.0974,0.4860,-10.3414,5.1835,
16.436233,0.3550,1.0560,0.4056,-0.6035,2.4639,3.0974,0.4860,-10.3414,5.1835,
16.437043,0.2263,0.8748,0.6133,-0.6035,2.4639,3.0974,0.4860,-10.3414,5.1835,
16.453563,0.2263,0.8748,0.6133,-0.6035,2.4639,3.0974,-0.2604,-4.0081,1.6479,
16.455011,0.2263,0.8748,0.6133,-1.7714,0.9846,6.8252,-0.2604,-4.0081,1.6479,
16.492299,-0.9496,1.0821,-0.0400,-1.7714,0.9846,6.8252,-0.2604,-4.0081,1.6479,
16.493780,-2.4312,1.8803,0.4659,-1.7714,0.9846,6.8252,-0.2604,-4.0081,1.6479,
16.494776,-0.2373,0.7970,0.9896,-1.7714,0.9846,6.8252,-0.2604,-4.0081,1.6479,
16.512575,-0.2373,0.7970,0.9896,-1.7714,0.9846,6.8252,-0.7043,-0.2136,-0.9776,
16.514117,-0.2373,0.7970,0.9896,-5.3227,2.9709,5.5404,-0.7043,-0.2136,-0.9776,
16.551029,1.0138,1.0065,-0.7332,-5.3227,2.9709,5.5404,-0.7043,-0.2136,-0.9776,
16.552579,0.6365,1.8022,-1.0370,-5.3227,2.9709,5.5404,-0.7043,-0.2136,-0.9776,
16.553672,-0.1223,1.3620,-0.4815,-5.3227,2.9709,5.5404,-0.7043,-0.2136,-0.9776,
16.570420,-0.1223,1.3620,-0.4815,-5.3227,2.9709,5.5404,-0.5543,-0.9362,-0.8855,
16.572355,-0.1223,1.3620,-0.4815,1.2232,3.6261,-2.9738,-0.5543,-0.9362,-0.8855,
16.610680,-0.3528,0.7628,-0.2837,1.2232,3.6261,-2.9738,-0.5543,-0.9362,-0.8855,
16.614409,-0.1431,0.8160,-0.1904,1.2232,3.6261,-2.9738,-0.5543,-0.9362,-0.8855,
16.616890,-0.1148,0.9693,-0.0564,1.2232,3.6261,-2.9738,-0.5543,-0.9362,-0.8855,
16.630551,-0.1148,0.9693,-0.0564,-0.4174,-0.3470,1.5241,-0.5543,-0.9362,-0.8855,
16.632667,-0.1148,0.9693,-0.0564,-0.4174,-0.3470,1.5241,-0.3671,-0.4408,-0.5377,
16.668099,-0.1958,0.9334,-0.1033,-0.4174,-0.3470,1.5241,-0.3671,-0.4408,-0.5377,
16.670854,-0.3877,0.9525,-0.1382,-0.4174,-0.3470,1.5241,-0.3671,-0.4408,-0.5377,
16.672316,-0.3308,1.0001,-0.1887,-0.4174,-0.3470,1.5241,-0.3671,-0.4408,-0.5377,
16.687900,-0.3308,1.0001,-0.1887,-0.4174,-0.3470,1.5241,0.0067,-0.2075,-0.2063,
16.689870,-0.3308,1.0001,-0.1887,-1.9538,0.1822,0.6620,0.0067,-0.2075,-0.2063,
16.726508,-0.2593,0.9247,-0.2805,-1.9538,0.1822,0.6620,0.0067,-0.2075,-0.2063,
16.729483,-0.2527,0.9486,-0.2774,-1.9538,0.1822,0.6620,0.0067,-0.2075,-0.2063,
16.730667,-0.2276,0.9757,-0.2407,-1.9538,0.1822,0.6620,0.0067,-0.2075,-0.2063,
16.749221,-0.2276,0.9757,-0.2407,-1.9538,0.1822,0.6620,0.1087,-0.4514,0.2969,
16.751309,-0.2276,0.9757,-0.2407,-0.9538,0.2177,0.0826,0.1087,-0.4514,0.2969,
16.784977,-0.1690,0.9662,-0.2744,-0.9538,0.2177,0.0826,0.1087,-0.4514,0.2969,
16.786737,-0.0745,0.9627,-0.2830,-0.9538,0.2177,0.0826,0.1087,-0.4514,0.2969,
16.787522,-0.0354,0.9654,-0.2718,-0.9538,0.2177,0.0826,0.1087,-0.4514,0.2969,
16.804191,-0.0354,0.9654,-0.2718,-0.9538,0.2177,0.0826,0.1389,-0.3639,0.4056,
16.806133,-0.0354,0.9654,-0.2718,0.4566,0.1168,0.0652,0.1389,-0.3639,0.4056,
16.842789,-0.0559,0.9332,-0.2586,0.4566,0.1168,0.0652,0.1389,-0.3639,0.4056,
16.844825,-0.1021,0.9476,-0.2349,0.4566,0.1168,0.0652,0.1389,-0.3639,0.4056,
16.845661,-0.0899,0.9544,-0.2798,0.4566,0.1168,0.0652,0.1389,-0.3639,0.4056,
16.865087,-0.0899,0.9544,-0.2798,0.1307,0.1097,0.2115,0.1389,-0.3639,0.4056,
16.867529,-0.0899,0.9544,-0.2798,0.1307,0.1097,0.2115,0.2170,-0.3221,0.2670,
16.901133,-0.0449,0.9515,-0.2830,0.1307,0.1097,0.2115,0.2170,-0.3221,0.2670,
16.902751,-0.0083,0.9725,-0.2610,0.1307,0.1097,0.2115,0.2170,-0.3221,0.2670,
16.903661,-0.0994,0.9620,-0.2449,0.1307,0.1097,0.2115,0.2170,-0.3221,0.2670,
16.920662,-0.0994,0.9620,-0.2449,0.1307,0.1097,0.2115,0.3956,-0.4431,0.1316,
16.922116,-0.0994,0.9620,-0.2449,-0.0834,0.2119,0.5731,0.3956,-0.4431,0.1316,
16.959428,-0.1966,0.9330,-0.2359,-0.0834,0.2119,0.5731,0.3956,-0.4431,0.1316,
16.960952,-0.1318,0.9342,-0.2039,-0.0834,0.2119,0.5731,0.3956,-0.4431,0.1316,
16.961844,-0.0420,0.9369,-0.2412,-0.0834,0.2119,0.5731,0.3956,-0.4431,0.1316,
16.980138,-0.0420,0.9369,-0.2412,-0.0834,0.2119,0.5731,0.5901,-0.3622,0.1941,
16.981400,-0.0420,0.9369,-0.2412,0.3122,0.2451,0.8728,0.5901,-0.3622,0.1941,
17.017365,0.0037,0.9779,-0.2906,0.3122,0.2451,0.8728,0.5901,-0.3622,0.1941,
17.018600,0.0330,1.0165,-0.3291,0.3122,0.2451,0.8728,0.5901,-0.3622,0.1941,
17.019236,0.1343,1.0387,-0.3767,0.3122,0.2451,0.8728,0.5901,-0.3622,0.1941,
17.037313,0.1343,1.0387,-0.3767,0.3122,0.2451,0.8728,0.9487,-0.0989,0.0041,
17.038594,0.1343,1.0387,-0.3767,1.9899,1.2954,-0.0074,0.9487,-0.0989,0.0041,
17.075822,0.1812,1.0624,-0.4498,1.9899,1.2954,-0.0074,0.9487,-0.0989,0.0041,
17.077157,0.0254,1.0672,-0.4163,1.9899,1.2954,-0.0074,0.9487,-0.0989,0.0041,
17.077709,-0.0420,1.2785,-0.2288,1.9899,1.2954,-0.0074,0.9487,-0.0989,0.0041,
17.096632,-0.0420,1.2785,-0.2288,1.9899,1.2954,-0.0074,1.6864,-0.9729,-0.2610,
17.097823,-0.0420,1.2785,-0.2288,1.9006,3.8544,1.8690,1.6864,-0.9729,-0.2610,
17.135021,0.2342,1.4447,-0.1699,1.9006,3.8544,1.8690,1.6864,-0.9729,-0.2610,
17.136162,0.5337,1.6481,0.0215,1.9006,3.8544,1.8690,1.6864,-0.9729,-0.2610,
17.136715,0.7957,1.7006,0.1985,1.9006,3.8544,1.8690,1.6864,-0.9729,-0.2610,
17.153729,0.7957,1.7006,0.1985,1.9006,3.8544,1.8690,2.2677,-2.1301,-0.4927,
17.154894,0.7957,1.7006,0.1985,7.5681,8.0835,6.9690,2.2677,-2.1301,-0.4927,
17.192621,0.3997,1.5619,0.2923,7.5681,8.0835,6.9690,2.2677,-2.1301,-0.4927,
17.194303,-0.2041,1.4210,0.7718,7.5681,8.0835,6.9690,2.2677,-2.1301,-0.4927,
17.195178,-0.8861,1.3097,0.3775,7.5681,8.0835,6.9690,2.2677,-2.1301,-0.4927,
17.212320,-0.8861,1.3097,0.3775,7.5681,8.0835,6.9690,2.0413,-2.3231,-1.8935,
17.214827,-0.8861,1.3097,0.3775,-4.7418,6.6927,9.3355,2.0413,-2.3231,-1.8935,
17.251105,-1.4577,1.4919,-0.0273,-4.7418,6.6927,9.3355,2.0413,-2.3231,-1.8935,
17.252284,-1.0643,1.3551,-0.2820,-4.7418,6.6927,9.3355,2.0413,-2.3231,-1.8935,
17.253000,-0.4742,1.0953,-0.4942,-4.7418,6.6927,9.3355,2.0413,-2.3231,-1.8935,
17.270418,-0.4742,1.0953,-0.4942,-4.7418,6.6927,9.3355,1.4282,-4.2074,-0.3231,
17.271658,-0.4742,1.0953,-0.4942,0.0326,4.2302,1.7040,1.4282,-4.2074,-0.3231,
17.309759,-0.0005,0.8778,-0.2730,0.0326,4.2302,1.7040,1.4282,-4.2074,-0.3231,
17.311208,0.0745,0.6246,0.1355,0.0326,4.2302,1.7040,1.4282,-4.2074,-0.3231,
17.312141,-0.1814,0.5513,0.1646,0.0326,4.2302,1.7040,1.4282,-4.2074,-0.3231,
17.328881,-0.1814,0.5513,0.1646,0.0326,4.2302,1.7040,0.4052,-4.4259,1.4429,
17.330056,-0.1814,0.5513,0.1646,4.3382,-1.3835,4.9422,0.4052,-4.4259,1.4429,
17.367528,-0.2769,0.5337,0.0503,4.3382,-1.3835,4.9422,0.4052,-4.4259,1.4429,
17.369025,-0.2403,0.5469,0.0906,4.3382,-1.3835,4.9422,0.4052,-4.4259,1.4429,
17.369948,-0.2014,0.5506,0.1148,4.3382,-1.3835,4.9422,0.4052,-4.4259,1.4429,
17.387290,-0.2014,0.5506,0.1148,4.3382,-1.3835,4.9422,0.0348,-2.8568,3.5738,
17.389186,-0.2014,0.5506,0.1148,2.4801,-2.5019,3.9350,0.0348,-2.8568,3.5738,
17.425798,-0.1902,0.5843,0.1218,2.4801,-2.5019,3.9350,0.0348,-2.8568,3.5738,
17.427156,-0.1751,0.6890,0.0728,2.4801,-2.5019,3.9350,0.0348,-2.8568,3.5738,
17.427790,-0.2117,0.8294,0.0156,2.4801,-2.5019,3.9350,0.0348,-2.8568,3.5738,
17.445147,-0.2117,0.8294,0.0156,2.4801,-2.5019,3.9350,-0.3515,-0.9709,5.1425,
17.447705,-0.2117,0.8294,0.0156,-0.0642,-0.8505,2.7374,-0.3515,-0.9709,5.1425,
17.484235,-0.2827,0.9920,0.0073,-0.0642,-0.8505,2.7374,-0.3515,-0.9709,5.1425,
17.485673,-0.3760,1.1603,-0.0107,-0.0642,-0.8505,2.7374,-0.3515,-0.9709,5.1425,
17.486520,-0.4263,1.3361,-0.0354,-0.0642,-0.8505,2.7374,-0.3515,-0.9709,5.1425,
17.503621,-0.4263,1.3361,-0.0354,-0.0642,-0.8505,2.7374,-1.5009,-0.9986,6.0267,
17.505280,-0.4263,1.3361,-0.0354,-4.9451,3.8382,1.1689,-1.5009,-0.9986,6.0267,
17.542581,-0.4200,1.5827,-0.0713,-4.9451,3.8382,1.1689,-1.5009,-0.9986,6.0267,
17.544486,-0.4131,1.7150,-0.0337,-4.9451,3.8382,1.1689,-1.5009,-0.9986,6.0267,
17.545416,-0.5377,1.6457,-0.0305,-4.9451,3.8382,1.1689,-1.5009,-0.9986,6.0267,
17.561934,-0.5377,1.6457,-0.0305,-4.9451,3.8382,1.1689,-2.0316,-0.3244,5.4384,
17.563582,-0.5377,1.6457,-0.0305,-9.4842,6.5805,-0.1354,-2.0316,-0.3244,5.4384,
17.600747,-0.8192,1.3939,-0.1297,-9.4842,6.5805,-0.1354,-2.0316,-0.3244,5.4384,
17.602179,-1.1315,1.1056,-0.2195,-9.4842,6.5805,-0.1354,-2.0316,-0.3244,5.4384,
17.602957,-1.2648,0.9137,-0.2984,-9.4842,6.5805,-0.1354,-2.0316,-0.3244,5.4384,
17.620226,-1.2648,0.9137,-0.2984,-9.4842,6.5805,-0.1354,-0.8970,1.1519,0.9141,
17.621731,-1.2648,0.9137,-0.2984,-16.1298,0.2240,-3.5896,-0.8970,1.1519,0.9141,
17.659203,-1.3466,0.7293,-0.5250,-16.1298,0.2240,-3.5896,-0.8970,1.1519,0.9141,
17.660661,-1.4955,0.9835,-1.2794,-16.1298,0.2240,-3.5896,-0.8970,1.1519,0.9141,
17.661451,-0.7183,2.2839,-1.1341,-16.1298,0.2240,-3.5896,-0.8970,1.1519,0.9141,
17.678598,-0.7183,2.2839,-1.1341,-16.1298,0.2240,-3.5896,-0.2578,-2.5842,-1.7147,
17.680382,-0.7183,2.2839,-1.1341,-3.7894,7.9648,-5.8334,-0.2578,-2.5842,-1.7147,
17.717366,1.9565,1.9975,0.5340,-3.7894,7.9648,-5.8334,-0.2578,-2.5842,-1.7147,
17.718905,1.2614,0.9054,-0.5591,-3.7894,7.9648,-5.8334,-0.2578,-2.5842,-1.7147,
17.719697,-0.5330,0.9085,-0.3472,-3.7894,7.9648,-5.8334,-0.2578,-2.5842,-1.7147,
17.736940,-0.5330,0.9085,-0.3472,-3.7894,7.9648,-5.8334,-0.1265,-2.5274,-2.7236,
17.738408,-0.5330,0.9085,-0.3472,-0.6770,-1.4947,-0.3714,-0.1265,-2.5274,-2.7236,
17.777830,-0.5152,0.6541,0.6177,-0.6770,-1.4947,-0.3714,-0.1265,-2.5274,-2.7236,
17.779739,-0.1629,0.7794,0.0105,-0.6770,-1.4947,-0.3714,-0.1265,-2.5274,-2.7236,
17.780699,-0.3345,1.2516,-0.1272,-0.6770,-1.4947,-0.3714,-0.1265,-2.5274,-2.7236,
17.795368,-0.3345,1.2516,-0.1272,-0.6770,-1.4947,-0.3714,0.0920,0.5339,-1.9403,
17.796230,-0.3345,1.2516,-0.1272,-3.5526,0.9798,-0.1748,0.0920,0.5339,-1.9403,
17.834518,-0.5154,1.2274,-0.1257,-3.5526,0.9798,-0.1748,0.0920,0.5339,-1.9403,
17.835812,-0.0054,1.0348,-0.1482,-3.5526,0.9798,-0.1748,0.0920,0.5339,-1.9403,
17.836358,0.2005,1.0702,-0.1377,-3.5526,0.9798,-0.1748,0.0920,0.5339,-1.9403,
17.853614,0.2005,1.0702,-0.1377,-3.5526,0.9798,-0.1748,0.0686,-0.5333,-1.0635,
17.855033,0.2005,1.0702,-0.1377,1.6034,0.4725,-0.2908,0.0686,-0.5333,-1.0635,
17.892851,0.1890,0.9986,-0.0034,1.6034,0.4725,-0.2908,0.0686,-0.5333,-1.0635,
17.894139,-0.0774,0.9432,0.0806,1.6034,0.4725,-0.2908,0.0686,-0.5333,-1.0635,
17.894836,-0.2808,0.9903,-0.0098,1.6034,0.4725,-0.2908,0.0686,-0.5333,-1.0635,
17.912135,-0.2808,0.9903,-0.0098,-1.0286,0.0274,0.7879,0.0686,-0.5333,-1.0635,
17.913578,-0.2808,0.9903,-0.0098,-1.0286,0.0274,0.7879,0.2111,0.1238,-1.3327,
17.950865,-0.2964,1.0140,-0.0645,-1.0286,0.0274,0.7879,0.2111,0.1238,-1.3327,
17.952050,-0.1165,1.0423,-0.0769,-1.0286,0.0274,0.7879,0.2111,0.1238,-1.3327,
17.952465,-0.1087,1.0516,-0.1004,-1.0286,0.0274,0.7879,0.2111,0.1238,-1.3327,
17.970264,-0.1087,1.0516,-0.1004,-1.0286,0.0274,0.7879,0.2270,-0.2433,-1.0637,
17.971500,-0.1087,1.0516,-0.1004,0.3737,0.6915,-0.0653,0.2270,-0.2433,-1.0637,
18.009308,-0.1834,1.0304,-0.1101,0.3737,0.6915,-0.0653,0.2270,-0.2433,-1.0637,
18.010419,-0.1609,1.0167,-0.1065,0.3737,0.6915,-0.0653,0.2270,-0.2433,-1.0637,
18.011057,-0.1809,1.0043,-0.0903,0.3737,0.6915,-0.0653,0.2270,-0.2433,-1.0637,
18.028579,-0.1809,1.0043,-0.0903,0.3737,0.6915,-0.0653,0.2113,-0.0214,-1.1344,
18.029878,-0.1809,1.0043,-0.0903,0.6080,0.4880,0.1254,0.2113,-0.0214,-1.1344,
