time,gFx,gFy,gFz,ax,ay,az,wx,wy,wz,P
0.01,0.15,0.93,0.35,0.08,0.01,-0.04,-0.01,0.07,0.00,1005.98
0.01,0.16,0.94,0.32,0.08,0.01,-0.04,-0.01,0.07,0.00,1005.98
0.01,0.18,0.94,0.35,0.08,0.01,-0.04,-0.01,0.07,0.00,1005.98
0.011,0.18,0.94,0.35,0.08,0.01,-0.04,0.02,-0.05,-0.01,1005.98
0.011,0.18,0.94,0.35,-0.04,0.00,0.10,0.02,-0.05,-0.01,1005.98
0.031,0.18,0.94,0.35,-0.04,0.00,0.10,0.02,-0.05,-0.01,1005.98
0.068,0.18,0.94,0.35,-0.04,0.00,0.10,0.02,-0.05,-0.01,1005.98
0.069,0.17,0.94,0.36,-0.04,0.00,0.10,0.02,-0.05,-0.01,1005.98
0.069,0.17,0.93,0.35,-0.04,0.00,0.10,0.02,-0.05,-0.01,1005.98
0.07,0.17,0.93,0.35,-0.04,0.00,0.10,0.01,-0.01,-0.00,1005.98
0.07,0.17,0.93,0.35,0.01,0.02,-0.00,0.01,-0.01,-0.00,1005.98
0.07,0.17,0.93,0.35,0.01,0.02,-0.00,0.01,-0.01,-0.00,1005.98
0.127,0.17,0.93,0.35,-0.01,-0.04,0.12,0.01,-0.01,-0.00,1005.98
0.127,0.18,0.93,0.34,-0.01,-0.04,0.12,0.01,-0.01,-0.00,1005.98
0.127,0.19,0.94,0.33,-0.01,-0.04,0.12,0.01,-0.01,-0.00,1005.98
0.127,0.18,0.95,0.33,-0.01,-0.04,0.12,0.01,-0.01,-0.00,1005.98
0.128,0.18,0.95,0.33,-0.01,-0.04,0.12,0.03,-0.01,-0.00,1005.98
0.149,0.18,0.95,0.33,-0.01,-0.04,0.12,0.03,-0.01,-0.00,1005.97
0.185,0.19,0.95,0.32,-0.01,-0.04,0.12,0.03,-0.01,-0.00,1005.97
0.185,0.20,0.95,0.32,-0.01,-0.04,0.12,0.03,-0.01,-0.00,1005.97
0.186,0.19,0.96,0.33,-0.01,-0.04,0.12,0.03,-0.01,-0.00,1005.97
0.186,0.19,0.96,0.33,-0.01,-0.04,0.12,0.00,0.11,-0.03,1005.97
0.186,0.19,0.96,0.33,0.14,0.06,-0.12,0.00,0.11,-0.03,1005.97
0.23,0.19,0.96,0.33,0.14,0.06,-0.12,0.00,0.11,-0.03,1005.97
0.243,0.19,0.96,0.33,0.23,0.16,-0.16,0.00,0.11,-0.03,1005.97
0.244,0.18,0.96,0.31,0.23,0.16,-0.16,0.00,0.11,-0.03,1005.97
0.244,0.15,0.92,0.32,0.23,0.16,-0.16,0.00,0.11,-0.03,1005.97
0.245,0.11,0.91,0.37,0.23,0.16,-0.16,0.00,0.11,-0.03,1005.97
0.245,0.11,0.91,0.37,0.23,0.16,-0.16,0.00,0.13,-0.07,1005.97
0.272,0.11,0.91,0.37,0.23,0.16,-0.16,0.00,0.13,-0.07,1005.96
0.302,0.12,0.94,0.38,0.23,0.16,-0.16,0.00,0.13,-0.07,1005.96
0.302,0.15,0.94,0.34,0.23,0.16,-0.16,0.00,0.13,-0.07,1005.96
0.302,0.17,0.91,0.34,0.23,0.16,-0.16,0.00,0.13,-0.07,1005.96
0.303,0.17,0.91,0.34,0.23,0.16,-0.16,0.01,-0.17,0.01,1005.96
0.303,0.17,0.91,0.34,-0.40,-0.17,0.20,0.01,-0.17,0.01,1005.96
0.349,0.17,0.91,0.34,-0.40,-0.17,0.20,0.01,-0.17,0.01,1005.96
0.36,0.15,0.88,0.35,-0.40,-0.17,0.20,0.01,-0.17,0.01,1005.96
0.36,0.13,0.91,0.33,-0.40,-0.17,0.20,0.01,-0.17,0.01,1005.96
0.36,0.16,0.95,0.31,-0.40,-0.17,0.20,0.01,-0.17,0.01,1005.96
0.361,0.16,0.95,0.31,-0.18,-0.25,0.08,0.01,-0.17,0.01,1005.96
0.361,0.16,0.95,0.31,-0.18,-0.25,0.08,-0.05,-0.20,0.06,1005.96
0.418,0.20,0.95,0.32,-0.18,-0.25,0.08,-0.05,-0.20,0.06,1005.96
0.419,0.24,0.96,0.34,-0.18,-0.25,0.08,-0.05,-0.20,0.06,1005.96
0.419,0.19,0.94,0.31,-0.18,-0.25,0.08,-0.05,-0.20,0.06,1005.96
0.419,0.19,0.94,0.31,-0.18,-0.25,0.08,-0.11,-0.18,0.09,1005.96
0.42,0.19,0.94,0.31,-0.18,0.03,-0.23,-0.11,-0.18,0.09,1005.96
0.431,0.19,0.94,0.31,-0.18,0.03,-0.23,-0.11,-0.18,0.09,1005.97
0.471,0.19,0.94,0.31,-0.18,0.03,-0.23,-0.11,-0.18,0.09,1005.97
0.476,0.16,0.91,0.33,-0.18,0.03,-0.23,-0.11,-0.18,0.09,1005.97
0.476,0.15,0.92,0.33,-0.18,0.03,-0.23,-0.11,-0.18,0.09,1005.97
0.476,0.17,0.93,0.34,-0.18,0.03,-0.23,-0.11,-0.18,0.09,1005.97
0.477,0.17,0.93,0.34,-0.18,0.03,-0.23,-0.14,-0.05,0.10,1005.97
0.477,0.17,0.93,0.34,0.07,0.04,-0.20,-0.14,-0.05,0.10,1005.97
0.535,0.20,0.96,0.35,0.07,0.04,-0.20,-0.14,-0.05,0.10,1005.97
0.536,0.22,0.93,0.33,0.07,0.04,-0.20,-0.14,-0.05,0.10,1005.97
0.536,0.23,0.91,0.34,0.07,0.04,-0.20,-0.14,-0.05,0.10,1005.97
0.537,0.23,0.91,0.34,0.07,0.04,-0.20,-0.17,-0.09,0.12,1005.97
0.537,0.23,0.91,0.34,-0.20,0.10,-0.15,-0.17,-0.09,0.12,1005.97
0.55,0.23,0.91,0.34,-0.20,0.10,-0.15,-0.17,-0.09,0.12,1005.96
0.594,0.22,0.94,0.38,-0.20,0.10,-0.15,-0.17,-0.09,0.12,1005.96
0.596,0.18,0.96,0.41,-0.20,0.10,-0.15,-0.17,-0.09,0.12,1005.96
0.597,0.14,0.93,0.39,-0.20,0.10,-0.15,-0.17,-0.09,0.12,1005.96
0.598,0.14,0.93,0.39,-0.20,0.10,-0.15,-0.12,-0.01,0.10,1005.96
0.599,0.14,0.93,0.39,0.23,0.03,-0.08,-0.12,-0.01,0.10,1005.96
0.639,0.14,0.93,0.39,0.23,0.03,-0.08,-0.12,-0.01,0.10,1005.95
0.654,0.12,0.90,0.36,0.23,0.03,-0.08,-0.12,-0.01,0.10,1005.95
0.655,0.15,0.90,0.38,0.23,0.03,-0.08,-0.12,-0.01,0.10,1005.95
0.656,0.16,0.91,0.38,0.23,0.03,-0.08,-0.12,-0.01,0.10,1005.95
0.656,0.16,0.91,0.38,0.23,0.03,-0.08,-0.02,-0.10,0.22,1005.95
0.656,0.16,0.91,0.38,-0.64,0.10,0.25,-0.02,-0.10,0.22,1005.95
0.669,0.16,0.91,0.38,-0.64,0.10,0.25,-0.02,-0.10,0.22,1005.95
0.711,0.17,0.91,0.36,-0.64,0.10,0.25,-0.02,-0.10,0.22,1005.95
0.713,0.20,0.92,0.36,-0.64,0.10,0.25,-0.02,-0.10,0.22,1005.95
0.714,0.24,0.90,0.35,-0.64,0.10,0.25,-0.02,-0.10,0.22,1005.95
0.715,0.24,0.90,0.35,-0.64,0.10,0.25,-0.03,-0.15,0.38,1005.95
0.716,0.24,0.90,0.35,-0.72,-0.08,0.12,-0.03,-0.15,0.38,1005.95
0.749,0.24,0.90,0.35,-0.72,-0.08,0.12,-0.03,-0.15,0.38,1005.95
0.77,0.26,0.89,0.32,-0.72,-0.08,0.12,-0.03,-0.15,0.38,1005.95
0.773,0.30,0.91,0.36,-0.72,-0.08,0.12,-0.03,-0.15,0.38,1005.95
0.775,0.32,0.93,0.38,-0.72,-0.08,0.12,-0.03,-0.15,0.38,1005.95
0.776,0.32,0.93,0.38,-0.72,-0.08,0.12,-0.08,-0.16,0.37,1005.95
0.777,0.32,0.93,0.38,-0.20,-0.04,-0.19,-0.08,-0.16,0.37,1005.95
0.827,0.28,0.91,0.34,-0.20,-0.04,-0.19,-0.08,-0.16,0.37,1005.95
0.829,0.36,0.89,0.36,-0.20,-0.04,-0.19,-0.08,-0.16,0.37,1005.95
0.83,0.43,0.90,0.35,-0.20,-0.04,-0.19,-0.08,-0.16,0.37,1005.95
0.831,0.43,0.90,0.35,-0.20,-0.04,-0.19,-0.10,-0.16,0.27,1005.95
0.832,0.43,0.90,0.35,0.23,0.15,-0.05,-0.10,-0.16,0.27,1005.95
0.833,0.43,0.90,0.35,0.23,0.15,-0.05,-0.10,-0.16,0.27,1005.96
0.87,0.43,0.90,0.35,0.23,0.15,-0.05,-0.10,-0.16,0.27,1005.96
0.886,0.37,0.91,0.39,0.23,0.15,-0.05,-0.10,-0.16,0.27,1005.96
0.888,0.29,0.91,0.38,0.23,0.15,-0.05,-0.10,-0.16,0.27,1005.96
0.889,0.31,0.88,0.39,0.23,0.15,-0.05,-0.10,-0.16,0.27,1005.96
0.89,0.31,0.88,0.39,0.23,0.15,-0.05,-0.14,0.02,0.02,1005.96
0.891,0.31,0.88,0.39,1.05,0.01,-0.06,-0.14,0.02,0.02,1005.96
0.944,0.38,0.89,0.44,1.05,0.01,-0.06,-0.14,0.02,0.02,1005.96
0.945,0.43,0.90,0.50,1.05,0.01,-0.06,-0.14,0.02,0.02,1005.96
0.946,0.39,0.90,0.51,1.05,0.01,-0.06,-0.14,0.02,0.02,1005.96
0.947,0.39,0.90,0.51,1.05,0.01,-0.06,-0.05,0.03,-0.16,1005.96
0.948,0.39,0.90,0.51,0.53,-0.06,0.25,-0.05,0.03,-0.16,1005.96
0.952,0.39,0.90,0.51,0.53,-0.06,0.25,-0.05,0.03,-0.16,1005.96
1.003,0.32,0.91,0.44,0.53,-0.06,0.25,-0.05,0.03,-0.16,1005.96
1.005,0.26,0.91,0.44,0.53,-0.06,0.25,-0.05,0.03,-0.16,1005.96
1.006,0.22,0.95,0.51,0.53,-0.06,0.25,-0.05,0.03,-0.16,1005.96
1.008,0.22,0.95,0.51,0.53,-0.06,0.25,0.19,0.13,-0.42,1005.96
1.009,0.22,0.95,0.51,1.26,-0.09,1.07,0.19,0.13,-0.42,1005.96
1.029,0.22,0.95,0.51,1.26,-0.09,1.07,0.19,0.13,-0.42,1005.96
1.061,0.24,0.94,0.48,1.26,-0.09,1.07,0.19,0.13,-0.42,1005.96
1.062,0.25,1.03,0.51,1.26,-0.09,1.07,0.19,0.13,-0.42,1005.96
1.063,0.26,1.03,0.43,1.26,-0.09,1.07,0.19,0.13,-0.42,1005.96
1.065,0.26,1.03,0.43,1.26,-0.09,1.07,0.62,-0.74,-0.61,1005.96
1.066,0.26,1.03,0.43,0.06,0.03,1.38,0.62,-0.74,-0.61,1005.96
1.071,0.26,1.03,0.43,0.06,0.03,1.38,0.62,-0.74,-0.61,1005.97
1.131,0.37,0.77,0.10,0.06,0.03,1.38,0.62,-0.74,-0.61,1005.97
1.134,0.28,0.67,0.00,0.06,0.03,1.38,0.62,-0.74,-0.61,1005.97
1.135,0.11,0.82,0.25,0.06,0.03,1.38,0.62,-0.74,-0.61,1005.97
1.136,0.11,0.82,0.25,0.06,0.03,1.38,0.67,-0.46,-0.69,1005.97
1.137,0.11,0.82,0.25,0.83,-0.11,0.53,0.67,-0.46,-0.69,1005.97
1.15,0.11,0.82,0.25,0.83,-0.11,0.53,0.67,-0.46,-0.69,1005.99
1.178,0.23,0.89,0.38,0.83,-0.11,0.53,0.67,-0.46,-0.69,1005.99
1.179,0.24,0.93,0.48,0.83,-0.11,0.53,0.67,-0.46,-0.69,1005.99
1.18,0.04,1.02,0.55,0.83,-0.11,0.53,0.67,-0.46,-0.69,1005.99
1.181,0.04,1.02,0.55,0.83,-0.11,0.53,0.17,1.19,-0.44,1005.99
1.182,0.04,1.02,0.55,0.41,-1.60,-0.79,0.17,1.19,-0.44,1005.99
1.231,0.04,1.02,0.55,0.41,-1.60,-0.79,0.17,1.19,-0.44,1006.02
1.245,-0.08,0.94,0.30,0.41,-1.60,-0.79,0.17,1.19,-0.44,1006.02
1.246,0.00,0.86,0.19,0.41,-1.60,-0.79,0.17,1.19,-0.44,1006.02
1.247,0.04,0.92,0.20,0.41,-1.60,-0.79,0.17,1.19,-0.44,1006.02
1.247,0.04,0.92,0.20,0.41,-1.60,-0.79,0.63,0.32,-0.35,1006.02
1.248,0.04,0.92,0.20,-0.72,-0.06,1.72,0.63,0.32,-0.35,1006.02
1.27,0.04,0.92,0.20,-0.72,-0.06,1.72,0.63,0.32,-0.35,1005.99
1.295,0.01,1.01,0.24,-0.72,-0.06,1.72,0.63,0.32,-0.35,1005.99
1.298,0.09,1.09,0.23,-0.72,-0.06,1.72,0.63,0.32,-0.35,1005.99
1.299,0.17,1.05,0.20,-0.72,-0.06,1.72,0.63,0.32,-0.35,1005.99
1.3,0.17,1.05,0.20,-0.72,-0.06,1.72,0.58,-0.31,0.10,1005.99
1.301,0.17,1.05,0.20,-1.26,-0.43,-0.19,0.58,-0.31,0.10,1005.99
1.351,0.17,1.05,0.20,-1.26,-0.43,-0.19,0.58,-0.31,0.10,1005.96
1.353,0.16,0.96,0.16,-1.26,-0.43,-0.19,0.58,-0.31,0.10,1005.96
1.354,0.08,0.92,0.12,-1.26,-0.43,-0.19,0.58,-0.31,0.10,1005.96
1.355,0.14,0.98,0.12,-1.26,-0.43,-0.19,0.58,-0.31,0.10,1005.96
1.356,0.14,0.98,0.12,-1.26,-0.43,-0.19,0.71,-0.64,0.02,1005.96
1.357,0.14,0.98,0.12,-0.13,0.51,0.10,0.71,-0.64,0.02,1005.96
1.411,0.26,1.01,0.10,-0.13,0.51,0.10,0.71,-0.64,0.02,1005.96
1.413,0.18,1.00,0.06,-0.13,0.51,0.10,0.71,-0.64,0.02,1005.96
1.414,-0.01,1.01,0.02,-0.13,0.51,0.10,0.71,-0.64,0.02,1005.96
1.415,-0.01,1.01,0.02,0.06,-0.19,-0.38,0.71,-0.64,0.02,1005.96
1.416,-0.01,1.01,0.02,0.06,-0.19,-0.38,0.51,-0.03,0.02,1005.96
1.43,-0.01,1.01,0.02,0.06,-0.19,-0.38,0.51,-0.03,0.02,1005.96
1.469,-0.03,0.99,0.06,0.06,-0.19,-0.38,0.51,-0.03,0.02,1005.96
1.47,0.04,0.99,0.13,0.06,-0.19,-0.38,0.51,-0.03,0.02,1005.96
1.47,0.06,1.01,0.17,0.06,-0.19,-0.38,0.51,-0.03,0.02,1005.96
1.471,0.06,1.01,0.17,0.06,-0.19,-0.38,0.40,-0.29,0.30,1005.96
1.471,0.06,1.01,0.17,-1.20,0.12,-0.77,0.40,-0.29,0.30,1005.96
1.471,0.06,1.01,0.17,-1.20,0.12,-0.77,0.40,-0.29,0.30,1005.96
1.531,0.06,1.01,0.17,-1.54,0.09,1.19,0.40,-0.29,0.30,1005.96
1.533,0.05,1.00,0.25,-1.54,0.09,1.19,0.40,-0.29,0.30,1005.96
1.534,0.01,0.98,0.36,-1.54,0.09,1.19,0.40,-0.29,0.30,1005.96
1.535,-0.01,0.91,0.36,-1.54,0.09,1.19,0.40,-0.29,0.30,1005.96
1.536,-0.01,0.91,0.36,-1.54,0.09,1.19,0.91,-1.45,0.57,1005.96
1.552,-0.01,0.91,0.36,-1.54,0.09,1.19,0.91,-1.45,0.57,1005.95
1.587,0.12,1.01,0.33,-1.54,0.09,1.19,0.91,-1.45,0.57,1005.95
1.589,0.24,1.06,0.33,-1.54,0.09,1.19,0.91,-1.45,0.57,1005.95
1.59,0.19,1.13,0.32,-1.54,0.09,1.19,0.91,-1.45,0.57,1005.95
1.591,0.19,1.13,0.32,-1.54,0.09,1.19,1.40,-2.17,0.37,1005.95
1.592,0.19,1.13,0.32,-1.82,-0.18,3.81,1.40,-2.17,0.37,1005.95
1.631,0.19,1.13,0.32,-1.82,-0.18,3.81,1.40,-2.17,0.37,1005.96
1.644,0.15,1.27,0.23,-1.82,-0.18,3.81,1.40,-2.17,0.37,1005.96
1.645,0.42,1.27,0.18,-1.82,-0.18,3.81,1.40,-2.17,0.37,1005.96
1.646,0.45,1.19,-0.10,-1.82,-0.18,3.81,1.40,-2.17,0.37,1005.96
1.646,0.45,1.19,-0.10,-1.82,-0.18,3.81,1.35,-3.11,-0.41,1005.96
1.647,0.45,1.19,-0.10,0.08,1.64,4.25,1.35,-3.11,-0.41,1005.96
1.672,0.45,1.19,-0.10,0.08,1.64,4.25,1.35,-3.11,-0.41,1005.96
1.702,-0.01,1.34,-0.10,0.08,1.64,4.25,1.35,-3.11,-0.41,1005.96
1.704,0.04,1.46,0.02,0.08,1.64,4.25,1.35,-3.11,-0.41,1005.96
1.704,0.76,1.21,0.04,0.08,1.64,4.25,1.35,-3.11,-0.41,1005.96
1.704,0.76,1.21,0.04,0.08,1.64,4.25,0.46,-6.66,-0.81,1005.96
1.705,0.76,1.21,0.04,2.14,2.66,2.01,0.46,-6.66,-0.81,1005.96
1.75,0.76,1.21,0.04,2.14,2.66,2.01,0.46,-6.66,-0.81,1005.94
1.762,1.27,0.83,0.17,2.14,2.66,2.01,0.46,-6.66,-0.81,1005.94
1.762,0.98,0.51,0.14,2.14,2.66,2.01,0.46,-6.66,-0.81,1005.94
1.763,0.50,0.58,-0.01,2.14,2.66,2.01,0.46,-6.66,-0.81,1005.94
1.763,0.50,0.58,-0.01,2.14,2.66,2.01,-0.60,-2.70,-0.45,1005.94
1.763,0.50,0.58,-0.01,6.46,1.57,2.47,-0.60,-2.70,-0.45,1005.94
1.824,0.50,0.58,-0.01,4.80,-3.91,1.27,-0.60,-2.70,-0.45,1005.94
1.825,0.28,0.70,-0.16,4.80,-3.91,1.27,-0.60,-2.70,-0.45,1005.94
1.827,0.24,0.77,-0.21,4.80,-3.91,1.27,-0.60,-2.70,-0.45,1005.94
1.827,0.15,0.77,-0.26,4.80,-3.91,1.27,-0.60,-2.70,-0.45,1005.94
1.828,0.15,0.77,-0.26,4.80,-3.91,1.27,-0.44,1.01,0.82,1005.94
1.83,0.15,0.77,-0.26,4.80,-3.91,1.27,-0.44,1.01,0.82,1005.98
1.87,0.15,0.77,-0.26,4.80,-3.91,1.27,-0.44,1.01,0.82,1005.95
1.877,0.00,0.77,-0.38,4.80,-3.91,1.27,-0.44,1.01,0.82,1005.95
1.878,-0.19,0.86,-0.52,4.80,-3.91,1.27,-0.44,1.01,0.82,1005.95
1.878,-0.30,0.85,-0.45,4.80,-3.91,1.27,-0.44,1.01,0.82,1005.95
1.879,-0.30,0.85,-0.45,-0.73,-2.08,-1.81,-0.44,1.01,0.82,1005.95
1.879,-0.30,0.85,-0.45,-0.73,-2.08,-1.81,-0.98,-0.79,1.93,1005.95
1.944,-0.25,0.82,-0.23,-0.73,-2.08,-1.81,-0.98,-0.79,1.93,1005.95
1.946,-0.20,0.89,-0.36,-0.73,-2.08,-1.81,-0.98,-0.79,1.93,1005.95
1.946,-0.42,0.87,-0.37,-0.73,-2.08,-1.81,-0.98,-0.79,1.93,1005.95
1.946,-0.42,0.87,-0.37,-0.73,-2.08,-1.81,-0.41,-2.75,1.84,1005.95
1.947,-0.42,0.87,-0.37,-5.14,-1.06,-2.70,-0.41,-2.75,1.84,1005.95
1.95,-0.42,0.87,-0.37,-5.14,-1.06,-2.70,-0.41,-2.75,1.84,1005.93
1.994,-0.72,0.82,-0.23,-5.14,-1.06,-2.70,-0.41,-2.75,1.84,1005.93
1.995,-0.91,0.95,-0.63,-5.14,-1.06,-2.70,-0.41,-2.75,1.84,1005.93
1.996,-0.77,1.99,-0.86,-5.14,-1.06,-2.70,-0.41,-2.75,1.84,1005.93
1.996,-0.77,1.99,-0.86,-6.30,-1.04,-1.58,-0.41,-2.75,1.84,1005.93
1.997,-0.77,1.99,-0.86,-6.30,-1.04,-1.58,0.16,-1.64,-0.97,1005.93
2.03,-0.77,1.99,-0.86,-6.30,-1.04,-1.58,0.16,-1.64,-0.97,1005.94
2.056,-0.77,1.99,-0.86,-2.23,6.38,-1.93,0.16,-1.64,-0.97,1005.94
2.057,1.15,1.99,0.30,-2.23,6.38,-1.93,0.16,-1.64,-0.97,1005.94
2.058,1.08,0.39,-0.60,-2.23,6.38,-1.93,0.16,-1.64,-0.97,1005.94
2.058,-0.49,0.16,-1.07,-2.23,6.38,-1.93,0.16,-1.64,-0.97,1005.94
2.059,-0.49,0.16,-1.07,-2.23,6.38,-1.93,0.42,-1.47,-2.22,1005.94
2.069,-0.49,0.16,-1.07,-2.23,6.38,-1.93,0.42,-1.47,-2.22,1005.91
2.111,-1.04,1.04,-0.35,-2.23,6.38,-1.93,0.42,-1.47,-2.22,1005.91
2.112,-0.23,1.52,-0.26,-2.23,6.38,-1.93,0.42,-1.47,-2.22,1005.91
2.113,0.11,1.13,-0.07,-2.23,6.38,-1.93,0.42,-1.47,-2.22,1005.91
2.113,0.11,1.13,-0.07,-2.23,6.38,-1.93,-0.01,0.11,-1.72,1005.91
2.114,0.11,1.13,-0.07,-0.97,-4.44,-4.56,-0.01,0.11,-1.72,1005.91
2.151,0.11,1.13,-0.07,-0.97,-4.44,-4.56,-0.01,0.11,-1.72,1005.95
2.169,-0.19,0.93,-0.04,-0.97,-4.44,-4.56,-0.01,0.11,-1.72,1005.95
2.171,-0.38,0.93,-0.08,-0.97,-4.44,-4.56,-0.01,0.11,-1.72,1005.95
2.172,-0.35,0.94,-0.20,-0.97,-4.44,-4.56,-0.01,0.11,-1.72,1005.95
2.172,-0.35,0.94,-0.20,-0.97,-4.44,-4.56,0.23,-0.34,-1.53,1005.95
2.173,-0.35,0.94,-0.20,0.35,2.15,0.92,0.23,-0.34,-1.53,1005.95
2.227,-0.38,0.95,-0.20,0.35,2.15,0.92,0.23,-0.34,-1.53,1005.95
2.228,-0.42,0.97,-0.25,0.35,2.15,0.92,0.23,-0.34,-1.53,1005.95
2.229,-0.40,0.98,-0.29,0.35,2.15,0.92,0.23,-0.34,-1.53,1005.95
2.23,-0.40,0.98,-0.29,-1.67,-0.20,0.75,0.23,-0.34,-1.53,1005.95
2.231,-0.40,0.98,-0.29,-1.67,-0.20,0.75,0.32,-0.11,-0.99,1005.95
2.232,-0.40,0.98,-0.29,-1.67,-0.20,0.75,0.32,-0.11,-0.99,1005.97
2.27,-0.40,0.98,-0.29,-1.67,-0.20,0.75,0.32,-0.11,-0.99,1005.97
2.286,-0.39,0.98,-0.31,-1.67,-0.20,0.75,0.32,-0.11,-0.99,1005.97
2.287,-0.31,0.96,-0.30,-1.67,-0.20,0.75,0.32,-0.11,-0.99,1005.97
2.288,-0.21,0.95,-0.24,-1.67,-0.20,0.75,0.32,-0.11,-0.99,1005.97
2.289,-0.21,0.95,-0.24,-1.67,-0.20,0.75,0.23,-0.43,-0.60,1005.97
2.289,-0.21,0.95,-0.24,-1.56,0.27,-0.41,0.23,-0.43,-0.60,1005.97
2.344,-0.18,0.99,-0.20,-1.56,0.27,-0.41,0.23,-0.43,-0.60,1005.97
2.345,-0.26,0.97,-0.21,-1.56,0.27,-0.41,0.23,-0.43,-0.60,1005.97
2.345,-0.34,0.93,-0.18,-1.56,0.27,-0.41,0.23,-0.43,-0.60,1005.97
2.346,-0.34,0.93,-0.18,-1.56,0.27,-0.41,0.17,0.04,-0.72,1005.97
2.346,-0.34,0.93,-0.18,0.50,0.27,0.06,0.17,0.04,-0.72,1005.97
2.349,-0.34,0.93,-0.18,0.50,0.27,0.06,0.17,0.04,-0.72,1005.96
2.402,-0.37,0.94,-0.17,0.50,0.27,0.06,0.17,0.04,-0.72,1005.96
2.403,-0.34,0.97,-0.19,0.50,0.27,0.06,0.17,0.04,-0.72,1005.96
2.405,-0.21,1.00,-0.22,0.50,0.27,0.06,0.17,0.04,-0.72,1005.96
2.406,-0.21,1.00,-0.22,-0.11,0.28,0.83,0.17,0.04,-0.72,1005.96
2.406,-0.21,1.00,-0.22,-0.11,0.28,0.83,0.20,0.52,-0.71,1005.96
2.431,-0.21,1.00,-0.22,-0.11,0.28,0.83,0.20,0.52,-0.71,1005.96
2.46,-0.21,1.00,-0.22,1.39,1.24,0.91,0.20,0.52,-0.71,1005.96
2.461,-0.08,1.11,-0.22,1.39,1.24,0.91,0.20,0.52,-0.71,1005.96
2.462,0.15,1.16,-0.20,1.39,1.24,0.91,0.20,0.52,-0.71,1005.96
2.462,0.24,1.22,-0.25,1.39,1.24,0.91,0.20,0.52,-0.71,1005.96
2.463,0.24,1.22,-0.25,1.39,1.24,0.91,0.59,0.33,-0.89,1005.96
2.47,0.24,1.22,-0.25,1.39,1.24,0.91,0.59,0.33,-0.89,1005.95
2.519,0.24,1.22,-0.25,5.92,4.00,1.32,0.59,0.33,-0.89,1005.95
2.521,0.19,1.37,-0.29,5.92,4.00,1.32,0.59,0.33,-0.89,1005.95
2.522,0.41,1.45,-0.12,5.92,4.00,1.32,0.59,0.33,-0.89,1005.95
2.523,0.89,1.56,0.07,5.92,4.00,1.32,0.59,0.33,-0.89,1005.95
2.524,0.89,1.56,0.07,5.92,4.00,1.32,1.44,0.25,-1.54,1005.95
2.551,0.89,1.56,0.07,5.92,4.00,1.32,1.44,0.25,-1.54,1005.96
2.577,1.10,1.76,0.29,5.92,4.00,1.32,1.44,0.25,-1.54,1005.96
2.579,0.30,1.56,0.28,5.92,4.00,1.32,1.44,0.25,-1.54,1005.96
2.579,-0.49,1.65,0.15,5.92,4.00,1.32,1.44,0.25,-1.54,1005.96
2.58,-0.49,1.65,0.15,12.79,8.28,5.20,1.44,0.25,-1.54,1005.96
2.58,-0.49,1.65,0.15,12.79,8.28,5.20,1.73,0.02,-2.58,1005.96
2.631,-0.49,1.65,0.15,12.79,8.28,5.20,1.73,0.02,-2.58,1005.98
2.645,-0.87,2.02,-0.08,12.79,8.28,5.20,1.73,0.02,-2.58,1005.98
2.646,-1.01,1.59,-0.15,12.79,8.28,5.20,1.73,0.02,-2.58,1005.98
2.646,-0.76,1.13,-0.41,12.79,8.28,5.20,1.73,0.02,-2.58,1005.98
2.647,-0.76,1.13,-0.41,12.79,8.28,5.20,2.11,-0.73,-3.18,1005.98
2.647,-0.76,1.13,-0.41,2.86,11.25,6.04,2.11,-0.73,-3.18,1005.98
2.67,-0.76,1.13,-0.41,2.86,11.25,6.04,2.11,-0.73,-3.18,1005.94
2.694,-0.61,0.93,-0.41,2.86,11.25,6.04,2.11,-0.73,-3.18,1005.94
2.695,-0.49,0.64,-0.34,2.86,11.25,6.04,2.11,-0.73,-3.18,1005.94
2.696,-0.37,0.40,-0.06,2.86,11.25,6.04,2.11,-0.73,-3.18,1005.94
2.696,-0.37,0.40,-0.06,2.86,11.25,6.04,0.50,-1.44,-0.44,1005.94
2.697,-0.37,0.40,-0.06,-0.89,6.25,1.27,0.50,-1.44,-0.44,1005.94
2.751,-0.37,0.40,-0.06,-0.89,6.25,1.27,0.50,-1.44,-0.44,1005.93
2.754,-0.40,0.20,0.09,-0.89,6.25,1.27,0.50,-1.44,-0.44,1005.93
2.756,-0.44,0.15,0.03,-0.89,6.25,1.27,0.50,-1.44,-0.44,1005.93
2.757,-0.44,0.23,-0.13,-0.89,6.25,1.27,0.50,-1.44,-0.44,1005.93
2.758,-0.44,0.23,-0.13,-0.89,6.25,1.27,-0.65,-0.51,2.56,1005.93
2.759,-0.44,0.23,-0.13,1.91,-2.66,2.94,-0.65,-0.51,2.56,1005.93
2.811,-0.42,0.33,-0.28,1.91,-2.66,2.94,-0.65,-0.51,2.56,1005.93
2.813,-0.44,0.34,-0.35,1.91,-2.66,2.94,-0.65,-0.51,2.56,1005.93
2.814,-0.50,0.38,-0.12,1.91,-2.66,2.94,-0.65,-0.51,2.56,1005.93
2.815,-0.50,0.38,-0.12,1.91,-2.66,2.94,-1.50,-0.56,5.07,1005.93
2.816,-0.50,0.38,-0.12,-0.38,-6.10,1.81,-1.50,-0.56,5.07,1005.93
2.83,-0.50,0.38,-0.12,-0.38,-6.10,1.81,-1.50,-0.56,5.07,1005.96
2.869,-0.42,0.45,-0.05,-0.38,-6.10,1.81,-1.50,-0.56,5.07,1005.96
2.871,-0.34,0.68,-0.22,-0.38,-6.10,1.81,-1.50,-0.56,5.07,1005.96
2.871,-0.36,1.08,-0.32,-0.38,-6.10,1.81,-1.50,-0.56,5.07,1005.96
2.872,-0.36,1.08,-0.32,-0.38,-6.10,1.81,-2.18,-0.31,6.69,1005.96
2.872,-0.36,1.08,-0.32,-4.01,-5.66,0.15,-2.18,-0.31,6.69,1005.96
2.873,-0.36,1.08,-0.32,-4.01,-5.66,0.15,-2.18,-0.31,6.69,1005.97
2.928,-0.56,1.54,-0.54,-4.01,-5.66,0.15,-2.18,-0.31,6.69,1005.97
2.929,-0.84,1.81,-0.67,-4.01,-5.66,0.15,-2.18,-0.31,6.69,1005.97
2.931,-1.23,1.78,-0.46,-4.01,-5.66,0.15,-2.18,-0.31,6.69,1005.97
2.932,-1.23,1.78,-0.46,-4.01,-5.66,0.15,-2.49,1.02,6.72,1005.97
2.933,-1.23,1.78,-0.46,-7.30,1.65,-3.08,-2.49,1.02,6.72,1005.97
2.951,-1.23,1.78,-0.46,-7.30,1.65,-3.08,-2.49,1.02,6.72,1005.96
2.986,-1.15,1.48,-0.28,-7.30,1.65,-3.08,-2.49,1.02,6.72,1005.96
2.987,-0.73,0.97,-0.42,-7.30,1.65,-3.08,-2.49,1.02,6.72,1005.96
2.988,-1.06,0.63,-0.64,-7.30,1.65,-3.08,-2.49,1.02,6.72,1005.96
2.988,-1.06,0.63,-0.64,-15.05,8.06,-5.27,-2.49,1.02,6.72,1005.96
2.989,-1.06,0.63,-0.64,-15.05,8.06,-5.27,-1.96,0.79,3.19,1005.96
3.031,-1.06,0.63,-0.64,-15.05,8.06,-5.27,-1.96,0.79,3.19,1005.93
3.047,-1.13,0.54,-0.38,-15.05,8.06,-5.27,-1.96,0.79,3.19,1005.93
3.049,-0.88,0.77,-0.55,-15.05,8.06,-5.27,-1.96,0.79,3.19,1005.93
3.05,-0.20,1.68,-0.56,-15.05,8.06,-5.27,-1.96,0.79,3.19,1005.93
3.051,-0.20,1.68,-0.56,-15.05,8.06,-5.27,0.24,-1.10,-2.19,1005.93
3.052,-0.20,1.68,-0.56,-12.81,-2.00,-4.91,0.24,-1.10,-2.19,1005.93
3.071,-0.20,1.68,-0.56,-12.81,-2.00,-4.91,0.24,-1.10,-2.19,1005.93
3.103,2.40,2.24,0.80,-12.81,-2.00,-4.91,0.24,-1.10,-2.19,1005.93
3.105,1.24,2.08,0.26,-12.81,-2.00,-4.91,0.24,-1.10,-2.19,1005.93
3.106,-1.12,1.19,-1.76,-12.81,-2.00,-4.91,0.24,-1.10,-2.19,1005.93
3.106,-1.12,1.19,-1.76,-12.81,-2.00,-4.91,-0.09,-1.69,-1.96,1005.93
3.107,-1.12,1.19,-1.76,2.08,5.92,-0.94,-0.09,-1.69,-1.96,1005.93
3.15,-1.12,1.19,-1.76,2.08,5.92,-0.94,-0.09,-1.69,-1.96,1005.93
3.16,-0.95,0.57,0.39,2.08,5.92,-0.94,-0.09,-1.69,-1.96,1005.93
3.161,-0.20,0.58,0.06,2.08,5.92,-0.94,-0.09,-1.69,-1.96,1005.93
3.162,-0.35,1.04,0.20,2.08,5.92,-0.94,-0.09,-1.69,-1.96,1005.93
3.162,-0.35,1.04,0.20,2.08,5.92,-0.94,0.28,-0.03,-2.75,1005.93
3.162,-0.35,1.04,0.20,-3.36,2.90,-3.36,0.28,-0.03,-2.75,1005.93
3.218,-0.42,1.20,-0.22,-3.36,2.90,-3.36,0.28,-0.03,-2.75,1005.93
3.219,-0.33,1.08,-0.19,-3.36,2.90,-3.36,0.28,-0.03,-2.75,1005.93
3.219,-0.08,1.05,-0.16,-3.36,2.90,-3.36,0.28,-0.03,-2.75,1005.93
3.219,-0.08,1.05,-0.16,-3.36,2.90,-3.36,0.29,0.04,-1.33,1005.93
3.22,-0.08,1.05,-0.16,-3.05,-0.47,0.57,0.29,0.04,-1.33,1005.93
3.23,-0.08,1.05,-0.16,-3.05,-0.47,0.57,0.29,0.04,-1.33,1005.92
3.27,-0.08,1.05,-0.16,-3.05,-0.47,0.57,0.29,0.04,-1.33,1005.97
3.276,0.05,1.04,-0.11,-3.05,-0.47,0.57,0.29,0.04,-1.33,1005.97
3.277,-0.09,1.03,0.04,-3.05,-0.47,0.57,0.29,0.04,-1.33,1005.97
3.278,-0.14,1.02,0.02,-3.05,-0.47,0.57,0.29,0.04,-1.33,1005.97
3.279,-0.14,1.02,0.02,-3.05,-0.47,0.57,0.21,-0.05,-1.01,1005.97
3.28,-0.14,1.02,0.02,-0.45,0.69,-0.91,0.21,-0.05,-1.01,1005.97
3.336,-0.02,1.00,-0.03,-0.45,0.69,-0.91,0.21,-0.05,-1.01,1005.97
3.338,0.05,0.97,-0.01,-0.45,0.69,-0.91,0.21,-0.05,-1.01,1005.97
3.339,-0.12,0.96,0.01,-0.45,0.69,-0.91,0.21,-0.05,-1.01,1005.97
3.34,-0.12,0.96,0.01,-0.45,0.69,-0.91,0.31,0.24,-1.13,1005.97
3.341,-0.12,0.96,0.01,0.51,0.34,0.87,0.31,0.24,-1.13,1005.97
3.352,-0.12,0.96,0.01,0.51,0.34,0.87,0.31,0.24,-1.13,1005.97
3.393,-0.27,0.96,-0.03,0.51,0.34,0.87,0.31,0.24,-1.13,1005.97
3.394,-0.27,1.03,-0.04,0.51,0.34,0.87,0.31,0.24,-1.13,1005.97
3.394,-0.25,1.02,-0.09,0.51,0.34,0.87,0.31,0.24,-1.13,1005.97
3.395,-0.25,1.02,-0.09,0.88,-0.00,0.90,0.31,0.24,-1.13,1005.97
3.395,-0.25,1.02,-0.09,0.88,-0.00,0.90,0.41,0.40,-1.26,1005.97
3.43,-0.25,1.02,-0.09,0.88,-0.00,0.90,0.41,0.40,-1.26,1005.97
3.452,-0.30,0.95,-0.18,0.88,-0.00,0.90,0.41,0.40,-1.26,1005.97
3.455,-0.27,0.92,-0.23,0.88,-0.00,0.90,0.41,0.40,-1.26,1005.97
3.455,-0.16,0.92,-0.19,0.88,-0.00,0.90,0.41,0.40,-1.26,1005.97
3.456,-0.16,0.92,-0.19,0.88,-0.00,0.90,0.41,0.25,-1.16,1005.97
3.457,-0.16,0.92,-0.19,-0.08,0.52,0.23,0.41,0.25,-1.16,1005.97
3.47,-0.16,0.92,-0.19,-0.08,0.52,0.23,0.41,0.25,-1.16,1005.98
3.51,-0.13,0.99,-0.19,-0.08,0.52,0.23,0.41,0.25,-1.16,1005.98
3.512,-0.21,1.02,-0.19,-0.08,0.52,0.23,0.41,0.25,-1.16,1005.98
3.514,-0.31,1.01,-0.19,-0.08,0.52,0.23,0.41,0.25,-1.16,1005.98
3.515,-0.31,1.01,-0.19,-0.08,0.52,0.23,0.48,0.36,-1.33,1005.98
3.516,-0.31,1.01,-0.19,1.42,0.22,-0.42,0.48,0.36,-1.33,1005.98
3.555,-0.31,1.01,-0.19,1.42,0.22,-0.42,0.48,0.36,-1.33,1005.96
3.569,-0.37,1.04,-0.11,1.42,0.22,-0.42,0.48,0.36,-1.33,1005.96
3.57,-0.22,1.14,-0.01,1.42,0.22,-0.42,0.48,0.36,-1.33,1005.96
3.571,0.02,1.22,0.04,1.42,0.22,-0.42,0.48,0.36,-1.33,1005.96
3.571,0.02,1.22,0.04,1.42,0.22,-0.42,0.71,-0.35,-1.38,1005.96
3.572,0.02,1.22,0.04,1.06,1.35,0.27,0.71,-0.35,-1.38,1005.96
3.628,0.14,1.21,-0.03,1.06,1.35,0.27,0.71,-0.35,-1.38,1005.96
3.629,0.20,1.15,-0.11,1.06,1.35,0.27,0.71,-0.35,-1.38,1005.96
3.63,0.29,1.32,-0.11,1.06,1.35,0.27,0.71,-0.35,-1.38,1005.96
3.63,0.29,1.32,-0.11,1.06,1.35,0.27,1.03,0.53,-1.93,1005.96
3.63,0.29,1.32,-0.11,4.58,3.55,2.45,1.03,0.53,-1.93,1005.96
3.631,0.29,1.32,-0.11,4.58,3.55,2.45,1.03,0.53,-1.93,1005.95
3.67,0.29,1.32,-0.11,4.58,3.55,2.45,1.03,0.53,-1.93,1005.96
3.686,0.58,1.71,-0.16,4.58,3.55,2.45,1.03,0.53,-1.93,1005.96
3.687,1.00,1.72,-0.13,4.58,3.55,2.45,1.03,0.53,-1.93,1005.96
3.688,0.31,1.27,0.00,4.58,3.55,2.45,1.03,0.53,-1.93,1005.96
3.689,0.31,1.27,0.00,4.58,3.55,2.45,1.20,2.13,-2.38,1005.96
3.69,0.31,1.27,0.00,8.81,6.39,2.34,1.20,2.13,-2.38,1005.96
3.743,-0.75,1.48,-0.31,8.81,6.39,2.34,1.20,2.13,-2.38,1005.96
3.744,-1.23,1.75,-0.35,8.81,6.39,2.34,1.20,2.13,-2.38,1005.96
3.745,-0.81,1.25,-0.30,8.81,6.39,2.34,1.20,2.13,-2.38,1005.96
3.745,-0.81,1.25,-0.30,8.81,6.39,2.34,1.60,2.47,-3.44,1005.96
3.748,-0.81,1.25,-0.30,7.70,8.71,3.54,1.60,2.47,-3.44,1005.96
3.75,-0.81,1.25,-0.30,7.70,8.71,3.54,1.60,2.47,-3.44,1005.96
3.803,-0.60,0.75,-0.35,7.70,8.71,3.54,1.60,2.47,-3.44,1005.96
3.804,-0.75,0.64,-0.47,7.70,8.71,3.54,1.60,2.47,-3.44,1005.96
3.804,-0.73,0.54,-0.59,7.70,8.71,3.54,1.60,2.47,-3.44,1005.96
3.805,-0.73,0.54,-0.59,7.70,8.71,3.54,0.48,-0.19,-0.92,1005.96
3.805,-0.73,0.54,-0.59,-2.35,6.71,1.76,0.48,-0.19,-0.92,1005.96
3.831,-0.73,0.54,-0.59,-2.35,6.71,1.76,0.48,-0.19,-0.92,1005.94
3.86,-0.51,0.39,-0.18,-2.35,6.71,1.76,0.48,-0.19,-0.92,1005.94
3.861,-0.30,0.22,-0.06,-2.35,6.71,1.76,0.48,-0.19,-0.92,1005.94
3.862,-0.30,0.17,0.04,-2.35,6.71,1.76,0.48,-0.19,-0.92,1005.94
3.862,-0.30,0.17,0.04,-2.35,6.71,1.76,-1.04,-1.25,1.82,1005.94
3.863,-0.30,0.17,0.04,-0.49,-1.31,0.16,-1.04,-1.25,1.82,1005.94
3.87,-0.30,0.17,0.04,-0.49,-1.31,0.16,-1.04,-1.25,1.82,1005.94
3.919,-0.35,0.32,-0.11,-0.49,-1.31,0.16,-1.04,-1.25,1.82,1005.94
3.921,-0.29,0.49,-0.26,-0.49,-1.31,0.16,-1.04,-1.25,1.82,1005.94
3.922,-0.34,0.52,-0.11,-0.49,-1.31,0.16,-1.04,-1.25,1.82,1005.94
3.923,-0.34,0.52,-0.11,-0.49,-1.31,0.16,-0.96,-0.60,4.11,1005.94
3.924,-0.34,0.52,-0.11,1.26,-5.50,3.14,-0.96,-0.60,4.11,1005.94
3.951,-0.34,0.52,-0.11,1.26,-5.50,3.14,-0.96,-0.60,4.11,1005.96
3.978,-0.46,0.59,-0.24,1.26,-5.50,3.14,-0.96,-0.60,4.11,1005.96
3.979,-0.61,0.76,-0.31,1.26,-5.50,3.14,-0.96,-0.60,4.11,1005.96
3.98,-0.64,0.92,-0.31,1.26,-5.50,3.14,-0.96,-0.60,4.11,1005.96
3.98,-0.64,0.92,-0.31,1.26,-5.50,3.14,-1.22,-0.35,5.68,1005.96
3.981,-0.64,0.92,-0.31,-1.90,-3.78,0.86,-1.22,-0.35,5.68,1005.96
4.031,-0.64,0.92,-0.31,-1.90,-3.78,0.86,-1.22,-0.35,5.68,1005.98
4.036,-0.65,1.16,-0.39,-1.90,-3.78,0.86,-1.22,-0.35,5.68,1005.98
4.037,-0.74,1.35,-0.44,-1.90,-3.78,0.86,-1.22,-0.35,5.68,1005.98
4.038,-0.82,1.36,-0.49,-1.90,-3.78,0.86,-1.22,-0.35,5.68,1005.98
4.039,-0.82,1.36,-0.49,-1.90,-3.78,0.86,-1.31,-2.61,6.50,1005.98
4.04,-0.82,1.36,-0.49,-7.55,0.07,-1.10,-1.31,-2.61,6.50,1005.98
4.07,-0.82,1.36,-0.49,-7.55,0.07,-1.10,-1.31,-2.61,6.50,1005.96
4.093,-0.77,1.17,-0.36,-7.55,0.07,-1.10,-1.31,-2.61,6.50,1005.96
4.095,-0.61,1.11,-0.37,-7.55,0.07,-1.10,-1.31,-2.61,6.50,1005.96
4.096,-0.33,1.10,-0.17,-7.55,0.07,-1.10,-1.31,-2.61,6.50,1005.96
4.097,-0.33,1.10,-0.17,-10.97,4.12,-1.46,-1.31,-2.61,6.50,1005.96
4.098,-0.33,1.10,-0.17,-10.97,4.12,-1.46,-0.86,-6.22,5.94,1005.96
4.156,-0.33,1.10,-0.17,-10.97,4.12,-1.46,-0.86,-6.22,5.94,1005.94
4.158,-0.20,0.98,-0.18,-10.97,4.12,-1.46,-0.86,-6.22,5.94,1005.94
4.159,-0.10,0.96,-0.16,-10.97,4.12,-1.46,-0.86,-6.22,5.94,1005.94
4.16,-0.16,0.95,-0.02,-10.97,4.12,-1.46,-0.86,-6.22,5.94,1005.94
4.165,-0.16,0.95,-0.02,-10.97,4.12,-1.46,-0.50,-6.25,3.20,1005.94
4.166,-0.16,0.95,-0.02,-7.33,2.44,1.46,-0.50,-6.25,3.20,1005.94
4.211,-0.30,0.90,0.01,-7.33,2.44,1.46,-0.50,-6.25,3.20,1005.94
4.212,-0.38,0.84,0.05,-7.33,2.44,1.46,-0.50,-6.25,3.20,1005.94
4.212,-0.46,0.57,-0.09,-7.33,2.44,1.46,-0.50,-6.25,3.20,1005.94
4.213,-0.46,0.57,-0.09,-7.33,2.44,1.46,-0.47,-3.99,0.51,1005.94
4.213,-0.46,0.57,-0.09,-4.66,1.17,3.79,-0.47,-3.99,0.51,1005.94
4.23,-0.46,0.57,-0.09,-4.66,1.17,3.79,-0.47,-3.99,0.51,1005.95
4.268,-0.98,1.36,-0.68,-4.66,1.17,3.79,-0.47,-3.99,0.51,1005.95
4.269,-1.30,1.78,0.86,-4.66,1.17,3.79,-0.47,-3.99,0.51,1005.95
4.27,-0.11,1.26,0.74,-4.66,1.17,3.79,-0.47,-3.99,0.51,1005.95
4.27,-0.11,1.26,0.74,-4.66,1.17,3.79,-0.65,-2.38,-1.77,1005.95
4.271,-0.11,1.26,0.74,-7.16,0.68,1.96,-0.65,-2.38,-1.77,1005.95
4.271,-0.11,1.26,0.74,-7.16,0.68,1.96,-0.65,-2.38,-1.77,1005.96
4.329,0.77,1.73,-0.42,-7.16,0.68,1.96,-0.65,-2.38,-1.77,1005.96
4.331,1.40,2.44,-1.11,-7.16,0.68,1.96,-0.65,-2.38,-1.77,1005.96
4.332,0.35,1.02,-0.83,-7.16,0.68,1.96,-0.65,-2.38,-1.77,1005.96
4.333,0.35,1.02,-0.83,-7.16,0.68,1.96,-0.78,-0.95,-0.99,1005.96
4.334,0.35,1.02,-0.83,-2.58,6.85,7.66,-0.78,-0.95,-0.99,1005.96
4.351,0.35,1.02,-0.83,-2.58,6.85,7.66,-0.78,-0.95,-0.99,1005.96
4.385,-0.75,0.45,-0.32,-2.58,6.85,7.66,-0.78,-0.95,-0.99,1005.96
4.386,-0.69,0.77,-0.18,-2.58,6.85,7.66,-0.78,-0.95,-0.99,1005.96
4.387,-0.22,1.07,-0.12,-2.58,6.85,7.66,-0.78,-0.95,-0.99,1005.96
4.387,-0.22,1.07,-0.12,-2.58,6.85,7.66,-0.73,-0.46,-0.86,1005.96
4.388,-0.22,1.07,-0.12,3.30,3.82,-3.90,-0.73,-0.46,-0.86,1005.96
4.43,-0.22,1.07,-0.12,3.30,3.82,-3.90,-0.73,-0.46,-0.86,1005.94
4.449,0.18,0.93,-0.29,3.30,3.82,-3.90,-0.73,-0.46,-0.86,1005.94
4.45,-0.04,0.84,-0.32,3.30,3.82,-3.90,-0.73,-0.46,-0.86,1005.94
4.451,-0.28,0.97,-0.38,3.30,3.82,-3.90,-0.73,-0.46,-0.86,1005.94
4.452,-0.28,0.97,-0.38,3.30,3.82,-3.90,-0.48,0.08,-0.05,1005.94
4.454,-0.28,0.97,-0.38,-2.29,0.01,1.28,-0.48,0.08,-0.05,1005.94
4.47,-0.28,0.97,-0.38,-2.29,0.01,1.28,-0.48,0.08,-0.05,1005.98
4.502,-0.28,0.99,-0.34,-2.29,0.01,1.28,-0.48,0.08,-0.05,1005.98
4.504,-0.14,0.94,-0.28,-2.29,0.01,1.28,-0.48,0.08,-0.05,1005.98
4.504,0.20,0.95,-0.17,-2.29,0.01,1.28,-0.48,0.08,-0.05,1005.98
4.505,0.20,0.95,-0.17,-2.29,0.01,1.28,-0.51,-0.68,0.39,1005.98
4.505,0.20,0.95,-0.17,-1.96,0.00,-0.43,-0.51,-0.68,0.39,1005.98
4.551,0.20,0.95,-0.17,-1.96,0.00,-0.43,-0.51,-0.68,0.39,1005.97
4.57,0.41,0.92,-0.19,-1.96,0.00,-0.43,-0.51,-0.68,0.39,1005.97
4.571,0.12,0.92,-0.08,-1.96,0.00,-0.43,-0.51,-0.68,0.39,1005.97
4.571,-0.00,1.00,-0.03,-1.96,0.00,-0.43,-0.51,-0.68,0.39,1005.97
4.572,-0.00,1.00,-0.03,-1.96,0.00,-0.43,-0.28,-0.54,0.02,1005.97
4.572,-0.00,1.00,-0.03,1.62,-0.04,0.73,-0.28,-0.54,0.02,1005.97
4.619,-0.05,0.95,-0.12,1.62,-0.04,0.73,-0.28,-0.54,0.02,1005.97
4.621,-0.00,0.94,-0.13,1.62,-0.04,0.73,-0.28,-0.54,0.02,1005.97
4.622,-0.06,0.95,-0.23,1.62,-0.04,0.73,-0.28,-0.54,0.02,1005.97
4.623,-0.06,0.95,-0.23,1.62,-0.04,0.73,0.08,-0.62,-0.27,1005.97
4.624,-0.06,0.95,-0.23,0.55,0.20,2.04,0.08,-0.62,-0.27,1005.97
4.631,-0.06,0.95,-0.23,0.55,0.20,2.04,0.08,-0.62,-0.27,1005.98
4.67,-0.06,0.95,-0.23,0.55,0.20,2.04,0.08,-0.62,-0.27,1005.97
4.676,-0.22,0.95,-0.25,0.55,0.20,2.04,0.08,-0.62,-0.27,1005.97
4.679,-0.27,1.00,-0.22,0.55,0.20,2.04,0.08,-0.62,-0.27,1005.97
4.679,-0.15,0.98,-0.27,0.55,0.20,2.04,0.08,-0.62,-0.27,1005.97
4.68,-0.15,0.98,-0.27,0.55,0.20,2.04,0.26,-0.80,-0.13,1005.97
4.68,-0.15,0.98,-0.27,-0.37,0.16,0.93,0.26,-0.80,-0.13,1005.97
4.737,0.00,0.98,-0.28,-0.37,0.16,0.93,0.26,-0.80,-0.13,1005.97
4.738,0.07,0.94,-0.44,-0.37,0.16,0.93,0.26,-0.80,-0.13,1005.97
4.738,-0.24,0.92,-0.23,-0.37,0.16,0.93,0.26,-0.80,-0.13,1005.97
4.738,-0.24,0.92,-0.23,-0.37,0.16,0.93,0.37,-0.43,0.09,1005.97
4.739,-0.24,0.92,-0.23,-0.80,0.59,0.58,0.37,-0.43,0.09,1005.97
4.752,-0.24,0.92,-0.23,-0.80,0.59,0.58,0.37,-0.43,0.09,1005.96
4.794,-0.24,1.00,-0.14,-0.80,0.59,0.58,0.37,-0.43,0.09,1005.96
4.795,-0.04,1.02,-0.18,-0.80,0.59,0.58,0.37,-0.43,0.09,1005.96
4.796,0.12,0.98,-0.25,-0.80,0.59,0.58,0.37,-0.43,0.09,1005.96
4.796,0.12,0.98,-0.25,-0.80,0.59,0.58,0.61,-0.29,0.26,1005.96
4.797,0.12,0.98,-0.25,-0.85,0.34,0.73,0.61,-0.29,0.26,1005.96
4.831,0.12,0.98,-0.25,-0.85,0.34,0.73,0.61,-0.29,0.26,1005.96
4.852,0.12,0.98,-0.25,1.41,0.97,1.58,0.61,-0.29,0.26,1005.96
4.854,0.23,0.99,-0.29,1.41,0.97,1.58,0.61,-0.29,0.26,1005.96
4.855,0.12,0.96,-0.26,1.41,0.97,1.58,0.61,-0.29,0.26,1005.96
4.857,-0.07,0.96,-0.15,1.41,0.97,1.58,0.61,-0.29,0.26,1005.96
4.858,-0.07,0.96,-0.15,1.41,0.97,1.58,1.09,0.25,0.03,1005.96
4.873,-0.07,0.96,-0.15,1.41,0.97,1.58,1.09,0.25,0.03,1005.96
4.916,-0.05,1.06,-0.10,1.41,0.97,1.58,1.09,0.25,0.03,1005.96
4.919,0.21,1.27,-0.09,1.41,0.97,1.58,1.09,0.25,0.03,1005.96
4.921,0.41,1.54,-0.13,1.41,0.97,1.58,1.09,0.25,0.03,1005.96
4.922,0.41,1.54,-0.13,0.58,1.47,3.17,1.09,0.25,0.03,1005.96
4.922,0.41,1.54,-0.13,0.58,1.47,3.17,2.00,-0.74,-0.00,1005.96
4.954,0.41,1.54,-0.13,0.58,1.47,3.17,2.00,-0.74,-0.00,1005.98
4.969,0.38,1.73,-0.17,0.58,1.47,3.17,2.00,-0.74,-0.00,1005.98
4.97,0.04,1.65,0.06,0.58,1.47,3.17,2.00,-0.74,-0.00,1005.98
4.971,-0.52,1.49,0.36,0.58,1.47,3.17,2.00,-0.74,-0.00,1005.98
4.971,-0.52,1.49,0.36,0.58,1.47,3.17,2.72,-1.74,-0.19,1005.98
4.972,-0.52,1.49,0.36,4.41,7.30,4.66,2.72,-1.74,-0.19,1005.98
5.026,-1.02,1.33,0.20,4.41,7.30,4.66,2.72,-1.74,-0.19,1005.98
5.027,-1.16,1.30,-0.23,4.41,7.30,4.66,2.72,-1.74,-0.19,1005.98
5.028,-1.03,1.14,-0.59,4.41,7.30,4.66,2.72,-1.74,-0.19,1005.98
5.028,-1.03,1.14,-0.59,4.41,7.30,4.66,2.80,-4.69,-0.00,1005.98
5.029,-1.03,1.14,-0.59,-1.96,7.97,8.39,2.80,-4.69,-0.00,1005.98
5.03,-1.03,1.14,-0.59,-1.96,7.97,8.39,2.80,-4.69,-0.00,1005.99
5.07,-1.03,1.14,-0.59,-1.96,7.97,8.39,2.80,-4.69,-0.00,1005.96
5.085,-0.75,1.32,-0.83,-1.96,7.97,8.39,2.80,-4.69,-0.00,1005.96
5.086,-0.14,1.08,-0.38,-1.96,7.97,8.39,2.80,-4.69,-0.00,1005.96
5.087,0.17,0.63,0.08,-1.96,7.97,8.39,2.80,-4.69,-0.00,1005.96
5.087,0.17,0.63,0.08,-1.96,7.97,8.39,1.59,-6.68,1.14,1005.96
5.087,0.17,0.63,0.08,-4.67,5.84,0.04,1.59,-6.68,1.14,1005.96
5.144,0.12,0.42,0.33,-4.67,5.84,0.04,1.59,-6.68,1.14,1005.96
5.144,-0.21,0.43,0.27,-4.67,5.84,0.04,1.59,-6.68,1.14,1005.96
5.144,-0.26,0.47,0.14,-4.67,5.84,0.04,1.59,-6.68,1.14,1005.96
5.144,-0.26,0.47,0.14,-4.67,5.84,0.04,0.53,-5.51,2.50,1005.96
5.145,-0.26,0.47,0.14,5.90,-0.09,3.99,0.53,-5.51,2.50,1005.96
5.155,-0.26,0.47,0.14,5.90,-0.09,3.99,0.53,-5.51,2.50,1005.93
5.202,-0.14,0.53,0.06,5.90,-0.09,3.99,0.53,-5.51,2.50,1005.93
5.204,-0.05,0.60,0.05,5.90,-0.09,3.99,0.53,-5.51,2.50,1005.93
5.206,-0.11,0.73,0.06,5.90,-0.09,3.99,0.53,-5.51,2.50,1005.93
5.207,-0.11,0.73,0.06,5.90,-0.09,3.99,0.29,-2.36,4.31,1005.93
5.208,-0.11,0.73,0.06,1.93,-3.44,4.79,0.29,-2.36,4.31,1005.93
5.231,-0.11,0.73,0.06,1.93,-3.44,4.79,0.29,-2.36,4.31,1005.97
5.271,-0.20,0.90,0.02,1.93,-3.44,4.79,0.29,-2.36,4.31,1005.97
5.274,-0.24,1.07,-0.03,1.93,-3.44,4.79,0.29,-2.36,4.31,1005.97
5.276,-0.24,1.21,-0.10,1.93,-3.44,4.79,0.29,-2.36,4.31,1005.97
5.278,-0.24,1.21,-0.10,1.93,-3.44,4.79,-0.95,0.24,5.27,1005.97
5.279,-0.24,1.21,-0.10,0.06,-1.78,3.15,-0.95,0.24,5.27,1005.97
5.28,-0.24,1.21,-0.10,0.06,-1.78,3.15,-0.95,0.24,5.27,1005.97
5.319,-0.31,1.40,-0.14,0.06,-1.78,3.15,-0.95,0.24,5.27,1005.97
5.32,-0.44,1.64,-0.37,0.06,-1.78,3.15,-0.95,0.24,5.27,1005.97
5.32,-0.64,1.56,-0.39,0.06,-1.78,3.15,-0.95,0.24,5.27,1005.97
5.321,-0.64,1.56,-0.39,0.06,-1.78,3.15,-2.45,0.79,5.44,1005.97
5.321,-0.64,1.56,-0.39,-4.32,2.71,0.44,-2.45,0.79,5.44,1005.97
5.35,-0.64,1.56,-0.39,-4.32,2.71,0.44,-2.45,0.79,5.44,1005.94
5.377,-0.89,1.35,-0.34,-4.32,2.71,0.44,-2.45,0.79,5.44,1005.94
5.378,-1.21,1.22,-0.53,-4.32,2.71,0.44,-2.45,0.79,5.44,1005.94
5.378,-1.32,0.87,-0.71,-4.32,2.71,0.44,-2.45,0.79,5.44,1005.94
5.379,-1.32,0.87,-0.71,-4.32,2.71,0.44,-1.98,1.02,3.44,1005.94
5.379,-1.32,0.87,-0.71,-9.93,5.91,-3.41,-1.98,1.02,3.44,1005.94
5.43,-1.32,0.87,-0.71,-9.93,5.91,-3.41,-1.98,1.02,3.44,1005.92
5.435,-1.32,0.67,-0.67,-9.93,5.91,-3.41,-1.98,1.02,3.44,1005.92
5.436,-1.38,0.80,-1.07,-9.93,5.91,-3.41,-1.98,1.02,3.44,1005.92
5.437,-0.51,2.11,-1.05,-9.93,5.91,-3.41,-1.98,1.02,3.44,1005.92
5.438,-0.51,2.11,-1.05,-15.19,-0.15,-5.90,-1.98,1.02,3.44,1005.92
5.44,-0.51,2.11,-1.05,-15.19,-0.15,-5.90,-0.16,-0.70,-1.13,1005.92
5.471,-0.51,2.11,-1.05,-15.19,-0.15,-5.90,-0.16,-0.70,-1.13,1005.92
5.494,2.22,2.13,1.11,-15.19,-0.15,-5.90,-0.16,-0.70,-1.13,1005.92
5.495,1.09,0.93,-0.35,-15.19,-0.15,-5.90,-0.16,-0.70,-1.13,1005.92
5.496,-0.25,0.46,-1.23,-15.19,-0.15,-5.90,-0.16,-0.70,-1.13,1005.92
5.496,-0.25,0.46,-1.23,-0.16,6.97,-2.41,-0.16,-0.70,-1.13,1005.92
5.496,-0.25,0.46,-1.23,-0.16,6.97,-2.41,0.36,-2.64,-2.29,1005.92
5.551,-0.25,0.46,-1.23,-0.16,6.97,-2.41,0.36,-2.64,-2.29,1005.95
5.553,-0.79,0.76,0.28,-0.16,6.97,-2.41,0.36,-2.64,-2.29,1005.95
5.554,-0.78,1.11,-0.03,-0.16,6.97,-2.41,0.36,-2.64,-2.29,1005.95
5.555,-0.42,1.22,0.05,-0.16,6.97,-2.41,0.36,-2.64,-2.29,1005.95
5.556,-0.42,1.22,0.05,0.03,-2.54,-3.28,0.36,-2.64,-2.29,1005.95
5.557,-0.42,1.22,0.05,0.03,-2.54,-3.28,0.11,0.36,-2.11,1005.95
5.611,-0.42,1.22,0.05,-4.06,1.43,0.78,0.11,0.36,-2.11,1005.95
5.614,-0.19,1.04,-0.12,-4.06,1.43,0.78,0.11,0.36,-2.11,1005.95
5.615,0.02,1.03,-0.11,-4.06,1.43,0.78,0.11,0.36,-2.11,1005.95
5.616,0.12,1.11,-0.16,-4.06,1.43,0.78,0.11,0.36,-2.11,1005.95
5.617,0.12,1.11,-0.16,-4.06,1.43,0.78,0.19,-0.46,-0.90,1005.95
5.632,0.12,1.11,-0.16,-4.06,1.43,0.78,0.19,-0.46,-0.90,1005.98
5.672,0.03,1.01,-0.08,-4.06,1.43,0.78,0.19,-0.46,-0.90,1005.98
5.674,-0.14,0.98,-0.01,-4.06,1.43,0.78,0.19,-0.46,-0.90,1005.98
5.674,-0.16,1.01,-0.07,-4.06,1.43,0.78,0.19,-0.46,-0.90,1005.98
5.675,-0.16,1.01,-0.07,1.55,0.78,0.09,0.19,-0.46,-0.90,1005.98
5.675,-0.16,1.01,-0.07,1.55,0.78,0.09,0.24,-0.10,-0.95,1005.98
5.676,-0.16,1.01,-0.07,1.55,0.78,0.09,0.24,-0.10,-0.95,1005.99
5.728,-0.15,1.02,-0.11,1.55,0.78,0.09,0.24,-0.10,-0.95,1005.99
5.729,-0.14,1.01,-0.12,1.55,0.78,0.09,0.24,-0.10,-0.95,1005.99
5.73,-0.10,1.04,-0.14,1.55,0.78,0.09,0.24,-0.10,-0.95,1005.99
5.73,-0.10,1.04,-0.14,0.01,0.39,0.70,0.24,-0.10,-0.95,1005.99
5.73,-0.10,1.04,-0.14,0.01,0.39,0.70,0.25,-0.05,-0.83,1005.99
5.751,-0.10,1.04,-0.14,0.01,0.39,0.70,0.25,-0.05,-0.83,1005.99
5.785,-0.03,1.04,-0.11,0.01,0.39,0.70,0.25,-0.05,-0.83,1005.99
5.787,0.04,1.01,-0.05,0.01,0.39,0.70,0.25,-0.05,-0.83,1005.99
5.787,-0.01,0.99,0.03,0.01,0.39,0.70,0.25,-0.05,-0.83,1005.99
5.788,-0.01,0.99,0.03,0.01,0.39,0.70,0.33,0.06,-0.97,1005.99
5.789,-0.01,0.99,0.03,1.09,0.76,0.29,0.33,0.06,-0.97,1005.99
5.831,-0.01,0.99,0.03,1.09,0.76,0.29,0.33,0.06,-0.97,1005.98
5.858,-0.13,0.98,0.04,1.09,0.76,0.29,0.33,0.06,-0.97,1005.98
5.861,-0.20,1.01,-0.04,1.09,0.76,0.29,0.33,0.06,-0.97,1005.98
5.862,-0.12,1.01,-0.10,1.09,0.76,0.29,0.33,0.06,-0.97,1005.98
5.863,-0.12,1.01,-0.10,1.09,0.76,0.29,0.55,0.27,-1.35,1005.98
5.864,-0.12,1.01,-0.10,2.28,0.61,1.86,0.55,0.27,-1.35,1005.98
5.87,-0.12,1.01,-0.10,2.28,0.61,1.86,0.55,0.27,-1.35,1005.98
5.901,-0.03,0.98,-0.13,2.28,0.61,1.86,0.55,0.27,-1.35,1005.98
5.903,-0.02,1.03,-0.16,2.28,0.61,1.86,0.55,0.27,-1.35,1005.98
5.904,-0.07,1.18,-0.20,2.28,0.61,1.86,0.55,0.27,-1.35,1005.98
5.904,-0.07,1.18,-0.20,2.28,0.61,1.86,0.73,0.33,-1.67,1005.98
5.904,-0.07,1.18,-0.20,2.29,1.04,1.35,0.73,0.33,-1.67,1005.98
5.951,-0.07,1.18,-0.20,2.29,1.04,1.35,0.73,0.33,-1.67,1005.98
5.959,-0.00,1.22,-0.17,2.29,1.04,1.35,0.73,0.33,-1.67,1005.98
5.96,0.14,1.24,-0.06,2.29,1.04,1.35,0.73,0.33,-1.67,1005.98
5.96,0.34,1.45,0.03,2.29,1.04,1.35,0.73,0.33,-1.67,1005.98
5.961,0.34,1.45,0.03,2.29,1.04,1.35,1.20,-0.15,-2.13,1005.98
5.961,0.34,1.45,0.03,4.13,3.07,0.99,1.20,-0.15,-2.13,1005.98
6.017,0.76,1.84,0.16,4.13,3.07,0.99,1.20,-0.15,-2.13,1005.98
6.018,1.02,1.71,-0.03,4.13,3.07,0.99,1.20,-0.15,-2.13,1005.98
6.019,0.41,1.29,0.06,4.13,3.07,0.99,1.20,-0.15,-2.13,1005.98
6.019,0.41,1.29,0.06,4.13,3.07,0.99,1.34,1.34,-2.64,1005.98
6.02,0.41,1.29,0.06,9.26,7.53,4.08,1.34,1.34,-2.64,1005.98
6.037,0.41,1.29,0.06,9.26,7.53,4.08,1.34,1.34,-2.64,1005.97
6.072,0.41,1.29,0.06,9.26,7.53,4.08,1.34,1.34,-2.64,1005.97
6.091,0.41,1.29,0.06,8.73,7.52,4.70,1.34,1.34,-2.64,1005.97
6.092,-0.42,1.10,-0.20,8.73,7.52,4.70,1.34,1.34,-2.64,1005.97
6.092,-0.93,1.49,-0.42,8.73,7.52,4.70,1.34,1.34,-2.64,1005.97
6.092,-0.99,1.39,-0.33,8.73,7.52,4.70,1.34,1.34,-2.64,1005.97
6.093,-0.99,1.39,-0.33,8.73,7.52,4.70,1.67,3.18,-3.24,1005.97
6.136,-0.87,0.85,-0.56,8.73,7.52,4.70,1.67,3.18,-3.24,1005.97
6.137,-0.78,0.73,-0.61,8.73,7.52,4.70,1.67,3.18,-3.24,1005.97
6.137,-0.47,0.57,-0.60,8.73,7.52,4.70,1.67,3.18,-3.24,1005.97
6.138,-0.47,0.57,-0.60,8.73,7.52,4.70,0.31,0.09,-0.90,1005.97
6.138,-0.47,0.57,-0.60,-3.35,6.54,1.07,0.31,0.09,-0.90,1005.97
6.151,-0.47,0.57,-0.60,-3.35,6.54,1.07,0.31,0.09,-0.90,1005.93
6.193,-0.24,0.39,-0.28,-3.35,6.54,1.07,0.31,0.09,-0.90,1005.93
6.196,-0.13,0.22,-0.16,-3.35,6.54,1.07,0.31,0.09,-0.90,1005.93
6.196,-0.12,0.24,-0.12,-3.35,6.54,1.07,0.31,0.09,-0.90,1005.93
6.197,-0.12,0.24,-0.12,0.34,-1.32,-0.42,0.31,0.09,-0.90,1005.93
6.197,-0.12,0.24,-0.12,0.34,-1.32,-0.42,-2.14,-0.44,1.90,1005.93
6.231,-0.12,0.24,-0.12,0.34,-1.32,-0.42,-2.14,-0.44,1.90,1005.92
6.252,-0.11,0.37,-0.20,0.34,-1.32,-0.42,-2.14,-0.44,1.90,1005.92
6.254,-0.10,0.57,-0.46,0.34,-1.32,-0.42,-2.14,-0.44,1.90,1005.92
6.255,-0.20,0.68,-0.42,0.34,-1.32,-0.42,-2.14,-0.44,1.90,1005.92
6.256,-0.20,0.68,-0.42,0.34,-1.32,-0.42,-2.61,-0.33,3.67,1005.92
6.257,-0.20,0.68,-0.42,2.39,-5.57,1.58,-2.61,-0.33,3.67,1005.92
6.274,-0.20,0.68,-0.42,2.39,-5.57,1.58,-2.61,-0.33,3.67,1005.95
6.311,-0.64,0.63,-0.32,2.39,-5.57,1.58,-2.61,-0.33,3.67,1005.95
6.312,-1.62,1.09,-1.58,2.39,-5.57,1.58,-2.61,-0.33,3.67,1005.95
6.312,-2.39,2.12,-3.33,2.39,-5.57,1.58,-2.61,-0.33,3.67,1005.95
6.313,-2.39,2.12,-3.33,-0.76,-2.60,-0.96,-2.61,-0.33,3.67,1005.95
6.313,-2.39,2.12,-3.33,-0.76,-2.60,-0.96,-1.06,2.00,1.96,1005.95
6.35,-2.39,2.12,-3.33,-0.76,-2.60,-0.96,-1.06,2.00,1.96,1005.97
6.369,-1.45,0.20,0.22,-0.76,-2.60,-0.96,-1.06,2.00,1.96,1005.97
6.37,-1.25,-0.51,-0.14,-0.76,-2.60,-0.96,-1.06,2.00,1.96,1005.97
6.371,-0.96,0.55,-1.27,-0.76,-2.60,-0.96,-1.06,2.00,1.96,1005.97
6.372,-0.96,0.55,-1.27,-0.76,-2.60,-0.96,-0.49,3.94,-1.51,1005.97
6.373,-0.96,0.55,-1.27,-15.23,2.47,-11.88,-0.49,3.94,-1.51,1005.97
6.426,-0.87,1.33,-0.70,-15.23,2.47,-11.88,-0.49,3.94,-1.51,1005.97
6.429,0.31,0.99,0.25,-15.23,2.47,-11.88,-0.49,3.94,-1.51,1005.97
6.432,1.43,0.16,0.30,-15.23,2.47,-11.88,-0.49,3.94,-1.51,1005.97
6.432,1.43,0.16,0.30,-6.91,-4.44,-4.68,-0.49,3.94,-1.51,1005.97
6.433,1.43,0.16,0.30,-6.91,-4.44,-4.68,-1.22,-4.09,0.44,1005.97
6.433,1.43,0.16,0.30,-6.91,-4.44,-4.68,-1.22,-4.09,0.44,1005.94
6.48,1.43,0.16,0.30,-6.91,-4.44,-4.68,-1.22,-4.09,0.44,1005.94
6.485,1.34,0.39,0.35,-6.91,-4.44,-4.68,-1.22,-4.09,0.44,1005.94
6.486,1.71,0.72,0.28,-6.91,-4.44,-4.68,-1.22,-4.09,0.44,1005.94
6.487,1.63,0.26,-0.45,-6.91,-4.44,-4.68,-1.22,-4.09,0.44,1005.94
6.487,1.63,0.26,-0.45,-6.91,-4.44,-4.68,-0.99,-5.98,4.30,1005.94
6.489,1.63,0.26,-0.45,11.21,-4.46,3.70,-0.99,-5.98,4.30,1005.94
6.544,1.13,0.58,-0.52,11.21,-4.46,3.70,-0.99,-5.98,4.30,1005.94
6.546,0.07,1.37,-0.96,11.21,-4.46,3.70,-0.99,-5.98,4.30,1005.94
6.547,-1.61,1.55,-1.58,11.21,-4.46,3.70,-0.99,-5.98,4.30,1005.94
6.548,-1.61,1.55,-1.58,11.21,-4.46,3.70,-1.07,3.72,4.58,1005.94
6.549,-1.61,1.55,-1.58,12.89,-4.30,-2.22,-1.07,3.72,4.58,1005.94
6.551,-1.61,1.55,-1.58,12.89,-4.30,-2.22,-1.07,3.72,4.58,1006.02
6.601,-3.02,1.08,-1.43,12.89,-4.30,-2.22,-1.07,3.72,4.58,1006.02
6.602,-3.10,0.15,-0.60,12.89,-4.30,-2.22,-1.07,3.72,4.58,1006.02
6.603,-2.08,3.05,2.63,12.89,-4.30,-2.22,-1.07,3.72,4.58,1006.02
6.603,-2.08,3.05,2.63,12.89,-4.30,-2.22,-0.98,1.23,1.07,1006.02
6.604,-2.08,3.05,2.63,-16.90,3.75,-13.38,-0.98,1.23,1.07,1006.02
6.632,-2.08,3.05,2.63,-16.90,3.75,-13.38,-0.98,1.23,1.07,1006.01
6.661,0.85,3.81,0.50,-16.90,3.75,-13.38,-0.98,1.23,1.07,1006.01
6.661,1.96,1.28,-2.28,-16.90,3.75,-13.38,-0.98,1.23,1.07,1006.01
6.662,0.92,-0.20,0.02,-16.90,3.75,-13.38,-0.98,1.23,1.07,1006.01
6.662,0.92,-0.20,0.02,-16.90,3.75,-13.38,0.69,-2.03,-1.78,1006.01
6.662,0.92,-0.20,0.02,-14.92,13.21,8.31,0.69,-2.03,-1.78,1006.01
6.671,0.92,-0.20,0.02,-14.92,13.21,8.31,0.69,-2.03,-1.78,1005.86
6.719,-0.95,0.77,0.13,-14.92,13.21,8.31,0.69,-2.03,-1.78,1005.86
6.721,-1.22,1.26,0.09,-14.92,13.21,8.31,0.69,-2.03,-1.78,1005.86
6.722,-0.75,1.24,-0.25,-14.92,13.21,8.31,0.69,-2.03,-1.78,1005.86
6.723,-0.75,1.24,-0.25,-14.92,13.21,8.31,0.67,0.22,-2.39,1005.86
6.723,-0.75,1.24,-0.25,6.77,-3.57,-6.43,0.67,0.22,-2.39,1005.86
6.751,-0.75,1.24,-0.25,6.77,-3.57,-6.43,0.67,0.22,-2.39,1005.94
6.777,-0.27,0.97,-0.31,6.77,-3.57,-6.43,0.67,0.22,-2.39,1005.94
6.779,0.20,1.04,-0.22,6.77,-3.57,-6.43,0.67,0.22,-2.39,1005.94
6.78,0.18,1.10,-0.18,6.77,-3.57,-6.43,0.67,0.22,-2.39,1005.94
6.781,0.18,1.10,-0.18,6.77,-3.57,-6.43,0.25,-0.35,-0.72,1005.94
6.782,0.18,1.10,-0.18,-6.32,1.69,-0.92,0.25,-0.35,-0.72,1005.94
6.833,0.18,1.10,-0.18,-6.32,1.69,-0.92,0.25,-0.35,-0.72,1006.00
6.834,-0.10,1.16,-0.06,-6.32,1.69,-0.92,0.25,-0.35,-0.72,1006.00
6.835,-0.20,1.08,0.07,-6.32,1.69,-0.92,0.25,-0.35,-0.72,1006.00
6.835,-0.16,0.95,0.04,-6.32,1.69,-0.92,0.25,-0.35,-0.72,1006.00
6.835,-0.16,0.95,0.04,-6.32,1.69,-0.92,0.24,0.15,-0.78,1006.00
6.836,-0.16,0.95,0.04,2.29,1.22,-0.67,0.24,0.15,-0.78,1006.00
6.871,-0.16,0.95,0.04,2.29,1.22,-0.67,0.24,0.15,-0.78,1006.00
6.894,-0.15,0.93,0.02,2.29,1.22,-0.67,0.24,0.15,-0.78,1006.00
6.895,-0.10,0.96,0.03,2.29,1.22,-0.67,0.24,0.15,-0.78,1006.00
6.895,-0.06,1.00,0.01,2.29,1.22,-0.67,0.24,0.15,-0.78,1006.00
6.895,-0.06,1.00,0.01,2.29,1.22,-0.67,0.32,0.10,-0.74,1006.00
6.896,-0.06,1.00,0.01,0.12,0.15,1.41,0.32,0.10,-0.74,1006.00
6.952,-0.06,1.00,0.01,0.12,0.15,1.41,0.32,0.10,-0.74,1005.99
6.954,-0.06,1.08,-0.02,0.12,0.15,1.41,0.32,0.10,-0.74,1005.99
6.954,0.06,1.03,-0.03,0.12,0.15,1.41,0.32,0.10,-0.74,1005.99
6.955,0.12,0.87,-0.06,0.12,0.15,1.41,0.32,0.10,-0.74,1005.99
6.955,0.12,0.87,-0.06,0.12,0.15,1.41,0.38,0.49,-1.06,1005.99
6.956,0.12,0.87,-0.06,1.60,0.58,1.30,0.38,0.49,-1.06,1005.99
7.01,0.04,0.88,-0.03,1.60,0.58,1.30,0.38,0.49,-1.06,1005.99
7.012,-0.02,1.09,0.02,1.60,0.58,1.30,0.38,0.49,-1.06,1005.99
7.012,-0.05,1.21,0.01,1.60,0.58,1.30,0.38,0.49,-1.06,1005.99
7.013,-0.05,1.21,0.01,1.60,0.58,1.30,0.76,0.20,-1.76,1005.99
7.013,-0.05,1.21,0.01,3.90,0.08,1.26,0.76,0.20,-1.76,1005.99
7.032,-0.05,1.21,0.01,3.90,0.08,1.26,0.76,0.20,-1.76,1005.97
7.068,0.00,1.15,-0.03,3.90,0.08,1.26,0.76,0.20,-1.76,1005.97
7.07,0.09,1.16,-0.05,3.90,0.08,1.26,0.76,0.20,-1.76,1005.97
7.071,0.26,1.38,-0.05,3.90,0.08,1.26,0.76,0.20,-1.76,1005.97
7.072,0.26,1.38,-0.05,3.90,0.08,1.26,1.16,0.65,-2.29,1005.97
7.072,0.26,1.38,-0.05,3.99,2.86,2.33,1.16,0.65,-2.29,1005.97
7.073,0.26,1.38,-0.05,3.99,2.86,2.33,1.16,0.65,-2.29,1005.95
7.126,0.61,1.74,-0.15,3.99,2.86,2.33,1.16,0.65,-2.29,1005.95
7.126,1.20,1.90,-0.30,3.99,2.86,2.33,1.16,0.65,-2.29,1005.95
7.127,1.09,1.55,-0.31,3.99,2.86,2.33,1.16,0.65,-2.29,1005.95
7.127,1.09,1.55,-0.31,3.99,2.86,2.33,1.40,2.01,-2.76,1005.95
7.127,1.09,1.55,-0.31,8.10,6.42,2.66,1.40,2.01,-2.76,1005.95
7.152,1.09,1.55,-0.31,8.10,6.42,2.66,1.40,2.01,-2.76,1005.95
7.195,-0.25,1.16,-0.33,8.10,6.42,2.66,1.40,2.01,-2.76,1005.95
7.197,-1.23,1.54,-0.31,8.10,6.42,2.66,1.40,2.01,-2.76,1005.95
7.197,-1.24,1.49,-0.17,8.10,6.42,2.66,1.40,2.01,-2.76,1005.95
7.198,-1.24,1.49,-0.17,8.10,6.42,2.66,1.80,2.70,-3.72,1005.95
7.198,-1.24,1.49,-0.17,12.19,8.97,1.96,1.80,2.70,-3.72,1005.95
7.232,-1.24,1.49,-0.17,12.19,8.97,1.96,1.80,2.70,-3.72,1005.94
7.243,-0.98,0.84,-0.30,12.19,8.97,1.96,1.80,2.70,-3.72,1005.94
7.244,-0.77,0.60,-0.46,12.19,8.97,1.96,1.80,2.70,-3.72,1005.94
7.244,-0.43,0.45,-0.29,12.19,8.97,1.96,1.80,2.70,-3.72,1005.94
7.245,-0.43,0.45,-0.29,12.19,8.97,1.96,0.49,0.01,-0.54,1005.94
7.245,-0.43,0.45,-0.29,-5.43,6.79,2.60,0.49,0.01,-0.54,1005.94
7.274,-0.43,0.45,-0.29,-5.43,6.79,2.60,0.49,0.01,-0.54,1005.87
7.302,-0.23,0.08,0.09,-5.43,6.79,2.60,0.49,0.01,-0.54,1005.87
7.303,-0.24,-0.09,0.01,-5.43,6.79,2.60,0.49,0.01,-0.54,1005.87
7.303,-0.23,-0.01,-0.14,-5.43,6.79,2.60,0.49,0.01,-0.54,1005.87
7.304,-0.23,-0.01,-0.14,-5.43,6.79,2.60,-0.87,-1.26,2.85,1005.87
7.304,-0.23,-0.01,-0.14,0.47,-3.30,2.22,-0.87,-1.26,2.85,1005.87
7.353,-0.23,-0.01,-0.14,0.47,-3.30,2.22,-0.87,-1.26,2.85,1005.96
7.361,-0.30,0.18,-0.23,0.47,-3.30,2.22,-0.87,-1.26,2.85,1005.96
7.361,-0.34,0.30,-0.20,0.47,-3.30,2.22,-0.87,-1.26,2.85,1005.96
7.362,-0.40,0.39,-0.12,0.47,-3.30,2.22,-0.87,-1.26,2.85,1005.96
7.362,-0.40,0.39,-0.12,0.47,-3.30,2.22,-0.87,-1.47,5.36,1005.96
7.363,-0.40,0.39,-0.12,0.53,-8.06,2.40,-0.87,-1.47,5.36,1005.96
7.419,-0.35,0.60,-0.44,0.53,-8.06,2.40,-0.87,-1.47,5.36,1005.96
7.42,-0.54,0.87,-0.43,0.53,-8.06,2.40,-0.87,-1.47,5.36,1005.96
7.421,-0.94,1.31,-0.40,0.53,-8.06,2.40,-0.87,-1.47,5.36,1005.96
7.421,-0.94,1.31,-0.40,0.53,-8.06,2.40,-1.03,-3.90,7.09,1005.96
7.422,-0.94,1.31,-0.40,-3.46,-4.84,0.23,-1.03,-3.90,7.09,1005.96
7.434,-0.94,1.31,-0.40,-3.46,-4.84,0.23,-1.03,-3.90,7.09,1006.00
7.471,-0.94,1.31,-0.40,-3.46,-4.84,0.23,-1.03,-3.90,7.09,1005.94
7.476,-1.09,1.51,-0.58,-3.46,-4.84,0.23,-1.03,-3.90,7.09,1005.94
7.477,-0.89,1.47,-0.57,-3.46,-4.84,0.23,-1.03,-3.90,7.09,1005.94
7.477,-0.61,1.45,-0.42,-3.46,-4.84,0.23,-1.03,-3.90,7.09,1005.94
7.478,-0.61,1.45,-0.42,-3.46,-4.84,0.23,-0.04,-8.62,7.12,1005.94
7.478,-0.61,1.45,-0.42,-10.35,3.36,-1.28,-0.04,-8.62,7.12,1005.94
7.536,-0.28,1.38,-0.01,-10.35,3.36,-1.28,-0.04,-8.62,7.12,1005.94
7.536,-0.07,1.05,0.51,-10.35,3.36,-1.28,-0.04,-8.62,7.12,1005.94
7.537,-0.34,0.75,0.27,-10.35,3.36,-1.28,-0.04,-8.62,7.12,1005.94
7.537,-0.34,0.75,0.27,-10.35,3.36,-1.28,-0.76,-8.33,2.86,1005.94
7.538,-0.34,0.75,0.27,-7.32,5.46,0.65,-0.76,-8.33,2.86,1005.94
7.55,-0.34,0.75,0.27,-7.32,5.46,0.65,-0.76,-8.33,2.86,1005.86
7.593,-0.59,1.26,0.02,-7.32,5.46,0.65,-0.76,-8.33,2.86,1005.86
7.594,0.06,1.09,1.44,-7.32,5.46,0.65,-0.76,-8.33,2.86,1005.86
7.594,0.48,0.96,0.47,-7.32,5.46,0.65,-0.76,-8.33,2.86,1005.86
7.594,0.48,0.96,0.47,-7.32,5.46,0.65,-0.50,-0.21,-1.37,1005.86
7.595,0.48,0.96,0.47,-3.92,1.18,6.24,-0.50,-0.21,-1.37,1005.86
7.632,0.48,0.96,0.47,-3.92,1.18,6.24,-0.50,-0.21,-1.37,1005.96
7.652,-0.21,1.60,-0.54,-3.92,1.18,6.24,-0.50,-0.21,-1.37,1005.96
7.654,-0.12,1.71,-1.06,-3.92,1.18,6.24,-0.50,-0.21,-1.37,1005.96
7.655,0.02,1.35,-0.57,-3.92,1.18,6.24,-0.50,-0.21,-1.37,1005.96
7.656,0.02,1.35,-0.57,-3.92,1.18,6.24,-0.52,0.89,-1.43,1005.96
7.659,0.02,1.35,-0.57,0.95,2.96,7.65,-0.52,0.89,-1.43,1005.96
7.672,0.02,1.35,-0.57,0.95,2.96,7.65,-0.52,0.89,-1.43,1006.01
7.71,0.28,1.13,-0.36,0.95,2.96,7.65,-0.52,0.89,-1.43,1006.01
7.71,0.29,0.89,-0.35,0.95,2.96,7.65,-0.52,0.89,-1.43,1006.01
7.711,-0.10,0.78,-0.11,0.95,2.96,7.65,-0.52,0.89,-1.43,1006.01
7.711,-0.10,0.78,-0.11,0.95,2.96,7.65,-0.62,-1.49,-0.64,1006.01
7.711,-0.10,0.78,-0.11,1.07,4.53,-3.62,-0.62,-1.49,-0.64,1006.01
7.753,-0.10,0.78,-0.11,1.07,4.53,-3.62,-0.62,-1.49,-0.64,1005.97
7.769,-0.46,0.92,-0.01,1.07,4.53,-3.62,-0.62,-1.49,-0.64,1005.97
7.77,-0.52,1.04,-0.16,1.07,4.53,-3.62,-0.62,-1.49,-0.64,1005.97
7.77,-0.38,1.02,-0.31,1.07,4.53,-3.62,-0.62,-1.49,-0.64,1005.97
7.77,-0.38,1.02,-0.31,-0.24,-0.72,1.17,-0.62,-1.49,-0.64,1005.97
7.771,-0.38,1.02,-0.31,-0.24,-0.72,1.17,-0.33,0.15,-0.37,1005.97
7.827,-0.25,1.03,-0.30,-0.24,-0.72,1.17,-0.33,0.15,-0.37,1005.97
7.829,-0.15,0.98,-0.32,-0.24,-0.72,1.17,-0.33,0.15,-0.37,1005.97
7.83,-0.01,0.96,-0.29,-0.24,-0.72,1.17,-0.33,0.15,-0.37,1005.97
7.832,-0.01,0.96,-0.29,-0.24,-0.72,1.17,-0.31,-0.80,0.64,1005.97
7.833,-0.01,0.96,-0.29,-3.28,0.80,-0.01,-0.31,-0.80,0.64,1005.97
7.834,-0.01,0.96,-0.29,-3.28,0.80,-0.01,-0.31,-0.80,0.64,1006.01
7.872,-0.01,0.96,-0.29,-3.28,0.80,-0.01,-0.31,-0.80,0.64,1005.97
7.895,-0.01,0.96,-0.29,0.24,0.17,-0.46,-0.31,-0.80,0.64,1005.97
7.896,0.16,0.96,-0.25,0.24,0.17,-0.46,-0.31,-0.80,0.64,1005.97
7.898,0.21,0.87,-0.22,0.24,0.17,-0.46,-0.31,-0.80,0.64,1005.97
7.905,0.12,0.90,-0.15,0.24,0.17,-0.46,-0.31,-0.80,0.64,1005.97
7.906,0.12,0.90,-0.15,0.24,0.17,-0.46,-0.27,-0.70,0.58,1005.97
7.942,0.02,0.96,-0.12,0.24,0.17,-0.46,-0.27,-0.70,0.58,1005.97
7.946,0.03,0.97,-0.15,0.24,0.17,-0.46,-0.27,-0.70,0.58,1005.97
7.947,0.15,0.97,-0.05,0.24,0.17,-0.46,-0.27,-0.70,0.58,1005.97
7.948,0.15,0.97,-0.05,0.24,0.17,-0.46,-0.06,-0.52,0.15,1005.97
7.949,0.15,0.97,-0.05,1.36,-0.42,0.72,-0.06,-0.52,0.15,1005.97
7.954,0.15,0.97,-0.05,1.36,-0.42,0.72,-0.06,-0.52,0.15,1005.97
8.008,0.16,0.94,-0.09,1.36,-0.42,0.72,-0.06,-0.52,0.15,1005.97
8.01,0.03,0.97,-0.15,1.36,-0.42,0.72,-0.06,-0.52,0.15,1005.97
8.011,-0.05,0.99,-0.15,1.36,-0.42,0.72,-0.06,-0.52,0.15,1005.97
8.012,-0.05,0.99,-0.15,1.36,-0.42,0.72,0.32,-0.66,-0.20,1005.97
8.013,-0.05,0.99,-0.15,1.50,0.11,1.48,0.32,-0.66,-0.20,1005.97
8.031,-0.05,0.99,-0.15,1.50,0.11,1.48,0.32,-0.66,-0.20,1005.96
8.06,-0.04,0.96,-0.20,1.50,0.11,1.48,0.32,-0.66,-0.20,1005.96
8.069,-0.12,0.96,-0.33,1.50,0.11,1.48,0.32,-0.66,-0.20,1005.96
8.07,-0.24,1.00,-0.31,1.50,0.11,1.48,0.32,-0.66,-0.20,1005.96
8.071,-0.24,1.00,-0.31,1.50,0.11,1.48,0.53,-0.33,-0.22,1005.96
8.072,-0.24,1.00,-0.31,0.35,0.31,1.07,0.53,-0.33,-0.22,1005.96
8.074,-0.24,1.00,-0.31,0.35,0.31,1.07,0.53,-0.33,-0.22,1005.96
8.119,-0.23,1.02,-0.26,0.35,0.31,1.07,0.53,-0.33,-0.22,1005.96
8.121,-0.08,1.03,-0.24,0.35,0.31,1.07,0.53,-0.33,-0.22,1005.96
8.122,0.09,1.05,-0.23,0.35,0.31,1.07,0.53,-0.33,-0.22,1005.96
8.123,0.09,1.05,-0.23,0.35,0.31,1.07,0.57,-0.65,0.22,1005.96
8.124,0.09,1.05,-0.23,-1.33,0.60,0.03,0.57,-0.65,0.22,1005.96
8.153,0.09,1.05,-0.23,-1.33,0.60,0.03,0.57,-0.65,0.22,1005.98
8.177,0.24,1.04,-0.17,-1.33,0.60,0.03,0.57,-0.65,0.22,1005.98
8.179,0.26,1.02,-0.10,-1.33,0.60,0.03,0.57,-0.65,0.22,1005.98
8.18,0.16,1.10,-0.15,-1.33,0.60,0.03,0.57,-0.65,0.22,1005.98
8.181,0.16,1.10,-0.15,-1.33,0.60,0.03,1.16,-0.99,0.05,1005.98
8.182,0.16,1.10,-0.15,1.53,1.27,1.42,1.16,-0.99,0.05,1005.98
8.231,0.16,1.10,-0.15,1.53,1.27,1.42,1.16,-0.99,0.05,1005.98
8.234,0.09,1.20,-0.19,1.53,1.27,1.42,1.16,-0.99,0.05,1005.98
8.235,0.22,1.31,-0.18,1.53,1.27,1.42,1.16,-0.99,0.05,1005.98
8.235,0.40,1.48,-0.04,1.53,1.27,1.42,1.16,-0.99,0.05,1005.98
8.235,0.40,1.48,-0.04,1.53,1.27,1.42,1.95,-1.21,-0.29,1005.98
8.236,0.40,1.48,-0.04,2.78,2.36,2.95,1.95,-1.21,-0.29,1005.98
8.272,0.40,1.48,-0.04,2.78,2.36,2.95,1.95,-1.21,-0.29,1005.97
8.295,0.60,1.64,0.06,2.78,2.36,2.95,1.95,-1.21,-0.29,1005.97
8.296,0.56,1.63,0.05,2.78,2.36,2.95,1.95,-1.21,-0.29,1005.97
8.296,0.06,1.37,0.08,2.78,2.36,2.95,1.95,-1.21,-0.29,1005.97
8.297,0.06,1.37,0.08,5.61,6.68,4.93,1.95,-1.21,-0.29,1005.97
8.298,0.06,1.37,0.08,5.61,6.68,4.93,2.65,-1.40,-0.53,1005.97
8.352,-0.61,1.18,-0.03,5.61,6.68,4.93,2.65,-1.40,-0.53,1005.97
8.358,-1.18,1.28,-0.10,5.61,6.68,4.93,2.65,-1.40,-0.53,1005.97
8.359,-1.31,1.21,-0.39,5.61,6.68,4.93,2.65,-1.40,-0.53,1005.97
8.36,-1.31,1.21,-0.39,5.61,6.68,4.93,2.60,-2.78,-0.88,1005.97
8.361,-1.31,1.21,-0.39,5.61,6.68,4.93,2.60,-2.78,-0.88,1005.97
8.362,-1.31,1.21,-0.39,2.93,6.76,6.40,2.60,-2.78,-0.88,1005.97
8.41,-1.03,0.85,-0.63,2.93,6.76,6.40,2.60,-2.78,-0.88,1005.97
8.412,-0.52,0.77,-0.71,2.93,6.76,6.40,2.60,-2.78,-0.88,1005.97
8.412,0.08,0.66,-0.26,2.93,6.76,6.40,2.60,-2.78,-0.88,1005.97
8.413,0.08,0.66,-0.26,2.93,6.76,6.40,1.63,-5.24,1.16,1005.97
8.413,0.08,0.66,-0.26,-7.09,4.26,1.89,1.63,-5.24,1.16,1005.97
8.431,0.08,0.66,-0.26,-7.09,4.26,1.89,1.63,-5.24,1.16,1005.94
8.469,0.13,0.45,0.27,-7.09,4.26,1.89,1.63,-5.24,1.16,1005.94
8.472,-0.11,0.43,0.30,-7.09,4.26,1.89,1.63,-5.24,1.16,1005.94
8.473,-0.27,0.54,0.18,-7.09,4.26,1.89,1.63,-5.24,1.16,1005.94
8.474,-0.27,0.54,0.18,-7.09,4.26,1.89,0.49,-4.60,2.82,1005.94
8.475,-0.27,0.54,0.18,3.58,-1.13,2.16,0.49,-4.60,2.82,1005.94
8.476,-0.27,0.54,0.18,3.58,-1.13,2.16,0.49,-4.60,2.82,1005.91
8.526,-0.35,0.60,0.16,3.58,-1.13,2.16,0.49,-4.60,2.82,1005.91
8.529,-0.31,0.64,0.09,3.58,-1.13,2.16,0.49,-4.60,2.82,1005.91
8.53,-0.23,0.70,0.11,3.58,-1.13,2.16,0.49,-4.60,2.82,1005.91
8.531,-0.23,0.70,0.11,3.58,-1.13,2.16,0.31,-2.45,4.17,1005.91
8.532,-0.23,0.70,0.11,0.90,-2.97,6.03,0.31,-2.45,4.17,1005.91
8.551,-0.23,0.70,0.11,0.90,-2.97,6.03,0.31,-2.45,4.17,1005.98
8.591,-0.23,0.70,0.11,-1.50,-1.97,4.20,0.31,-2.45,4.17,1005.98
8.592,-0.19,0.79,0.09,-1.50,-1.97,4.20,0.31,-2.45,4.17,1005.98
8.593,-0.23,0.97,0.05,-1.50,-1.97,4.20,0.31,-2.45,4.17,1005.98
8.594,-0.25,1.15,0.04,-1.50,-1.97,4.20,0.31,-2.45,4.17,1005.98
8.595,-0.25,1.15,0.04,-1.50,-1.97,4.20,-0.89,-0.98,5.33,1005.98
8.631,-0.25,1.15,0.04,-1.50,-1.97,4.20,-0.89,-0.98,5.33,1005.99
8.642,-0.25,1.27,0.03,-1.50,-1.97,4.20,-0.89,-0.98,5.33,1005.99
8.643,-0.27,1.43,-0.04,-1.50,-1.97,4.20,-0.89,-0.98,5.33,1005.99
8.643,-0.33,1.62,-0.09,-1.50,-1.97,4.20,-0.89,-0.98,5.33,1005.99
8.644,-0.33,1.62,-0.09,-1.50,-1.97,4.20,-2.42,-0.79,5.52,1005.99
8.644,-0.33,1.62,-0.09,-4.24,1.91,2.36,-2.42,-0.79,5.52,1005.99
8.671,-0.33,1.62,-0.09,-4.24,1.91,2.36,-2.42,-0.79,5.52,1005.96
8.709,-0.45,1.70,-0.08,-4.24,1.91,2.36,-2.42,-0.79,5.52,1005.96
8.71,-0.51,1.49,-0.02,-4.24,1.91,2.36,-2.42,-0.79,5.52,1005.96
8.711,-0.52,1.26,-0.17,-4.24,1.91,2.36,-2.42,-0.79,5.52,1005.96
8.711,-0.52,1.26,-0.17,-4.24,1.91,2.36,-2.99,-0.16,4.36,1005.96
8.711,-0.52,1.26,-0.17,-7.43,6.80,-0.28,-2.99,-0.16,4.36,1005.96
8.752,-0.52,1.26,-0.17,-7.43,6.80,-0.28,-2.99,-0.16,4.36,1005.92
8.76,-0.62,1.09,-0.47,-7.43,6.80,-0.28,-2.99,-0.16,4.36,1005.92
8.761,-0.99,0.86,-0.55,-7.43,6.80,-0.28,-2.99,-0.16,4.36,1005.92
8.761,-1.31,0.72,-0.61,-7.43,6.80,-0.28,-2.99,-0.16,4.36,1005.92
8.761,-1.31,0.72,-0.61,-7.43,6.80,-0.28,-1.24,1.06,0.79,1005.92
8.762,-1.31,0.72,-0.61,-9.63,3.94,-2.57,-1.24,1.06,0.79,1005.92
8.819,-1.16,0.81,-0.84,-9.63,3.94,-2.57,-1.24,1.06,0.79,1005.92
8.82,-0.34,1.40,-0.97,-9.63,3.94,-2.57,-1.24,1.06,0.79,1005.92
8.82,1.96,1.63,0.41,-9.63,3.94,-2.57,-1.24,1.06,0.79,1005.92
8.821,1.96,1.63,0.41,-9.63,3.94,-2.57,-0.29,-2.09,-1.64,1005.92
8.821,1.96,1.63,0.41,-14.49,-1.12,-6.54,-0.29,-2.09,-1.64,1005.92
8.832,1.96,1.63,0.41,-14.49,-1.12,-6.54,-0.29,-2.09,-1.64,1005.91
8.872,1.96,1.63,0.41,-14.49,-1.12,-6.54,-0.29,-2.09,-1.64,1005.89
8.876,2.15,1.69,-0.01,-14.49,-1.12,-6.54,-0.29,-2.09,-1.64,1005.89
8.878,-0.54,1.33,-0.84,-14.49,-1.12,-6.54,-0.29,-2.09,-1.64,1005.89
8.879,-0.59,0.78,-0.53,-14.49,-1.12,-6.54,-0.29,-2.09,-1.64,1005.89
8.88,-0.59,0.78,-0.53,-14.49,-1.12,-6.54,0.37,-2.06,-2.19,1005.89
8.881,-0.59,0.78,-0.53,10.14,6.07,-1.30,0.37,-2.06,-2.19,1005.89
8.934,-0.16,0.67,0.33,10.14,6.07,-1.30,0.37,-2.06,-2.19,1005.89
8.936,-0.03,0.97,0.40,10.14,6.07,-1.30,0.37,-2.06,-2.19,1005.89
8.937,0.12,1.15,0.09,10.14,6.07,-1.30,0.37,-2.06,-2.19,1005.89
8.937,0.12,1.15,0.09,10.14,6.07,-1.30,0.18,0.01,-1.65,1005.89
8.938,0.12,1.15,0.09,-5.38,-0.39,-2.70,0.18,0.01,-1.65,1005.89
8.952,0.12,1.15,0.09,-5.38,-0.39,-2.70,0.18,0.01,-1.65,1005.92
8.993,-0.04,1.04,-0.10,-5.38,-0.39,-2.70,0.18,0.01,-1.65,1005.92
8.995,-0.07,1.07,-0.14,-5.38,-0.39,-2.70,0.18,0.01,-1.65,1005.92
8.996,0.08,1.05,-0.14,-5.38,-0.39,-2.70,0.18,0.01,-1.65,1005.92
8.997,0.08,1.05,-0.14,-0.32,0.78,2.21,0.18,0.01,-1.65,1005.92
8.998,0.08,1.05,-0.14,-0.32,0.78,2.21,0.42,-0.52,-1.16,1005.92
9.031,0.08,1.05,-0.14,-0.32,0.78,2.21,0.42,-0.52,-1.16,1005.96
9.051,0.14,0.98,-0.03,-0.32,0.78,2.21,0.42,-0.52,-1.16,1005.96
9.052,0.07,0.96,0.00,-0.32,0.78,2.21,0.42,-0.52,-1.16,1005.96
9.054,-0.05,0.98,-0.09,-0.32,0.78,2.21,0.42,-0.52,-1.16,1005.96
9.054,-0.05,0.98,-0.09,0.64,0.59,0.19,0.42,-0.52,-1.16,1005.96
9.055,-0.05,0.98,-0.09,0.64,0.59,0.19,0.50,-0.45,-1.14,1005.96
9.072,-0.05,0.98,-0.09,0.64,0.59,0.19,0.50,-0.45,-1.14,1005.97
9.112,-0.09,1.01,-0.17,0.64,0.59,0.19,0.50,-0.45,-1.14,1005.97
9.114,-0.12,0.99,-0.19,0.64,0.59,0.19,0.50,-0.45,-1.14,1005.97
9.115,-0.20,1.00,-0.22,0.64,0.59,0.19,0.50,-0.45,-1.14,1005.97
9.116,-0.20,1.00,-0.22,0.64,0.59,0.19,0.50,-0.08,-1.23,1005.97
9.117,-0.20,1.00,-0.22,0.61,0.16,0.62,0.50,-0.08,-1.23,1005.97
9.151,-0.20,1.00,-0.22,0.61,0.16,0.62,0.50,-0.08,-1.23,1006.00
9.171,-0.22,1.06,-0.21,0.61,0.16,0.62,0.50,-0.08,-1.23,1006.00
9.172,-0.12,1.05,-0.19,0.61,0.16,0.62,0.50,-0.08,-1.23,1006.00
9.174,-0.11,1.01,-0.18,0.61,0.16,0.62,0.50,-0.08,-1.23,1006.00
9.175,-0.11,1.01,-0.18,-0.40,0.60,-0.29,0.50,-0.08,-1.23,1006.00
9.176,-0.11,1.01,-0.18,-0.40,0.60,-0.29,0.40,0.05,-1.00,1006.00
9.226,-0.10,1.00,-0.15,-0.40,0.60,-0.29,0.40,0.05,-1.00,1006.00
9.228,-0.06,1.01,-0.13,-0.40,0.60,-0.29,0.40,0.05,-1.00,1006.00
9.229,-0.07,1.04,-0.14,-0.40,0.60,-0.29,0.40,0.05,-1.00,1006.00
9.23,-0.07,1.04,-0.14,-0.40,0.60,-0.29,0.45,0.24,-1.04,1006.00
9.231,-0.07,1.04,-0.14,0.84,0.73,0.23,0.45,0.24,-1.04,1006.00
9.232,-0.07,1.04,-0.14,0.84,0.73,0.23,0.45,0.24,-1.04,1006.00
9.271,-0.07,1.04,-0.14,0.84,0.73,0.23,0.45,0.24,-1.04,1005.98
9.285,-0.09,1.00,-0.14,0.84,0.73,0.23,0.45,0.24,-1.04,1005.98
9.287,-0.05,1.01,-0.12,0.84,0.73,0.23,0.45,0.24,-1.04,1005.98
9.288,-0.02,1.13,-0.13,0.84,0.73,0.23,0.45,0.24,-1.04,1005.98
9.289,-0.02,1.13,-0.13,0.84,0.73,0.23,0.68,0.17,-1.31,1005.98
9.29,-0.02,1.13,-0.13,1.81,0.98,0.97,0.68,0.17,-1.31,1005.98
9.343,0.01,1.22,-0.13,1.81,0.98,0.97,0.68,0.17,-1.31,1005.98
9.344,0.12,1.23,-0.08,1.81,0.98,0.97,0.68,0.17,-1.31,1005.98
9.345,0.24,1.38,0.03,1.81,0.98,0.97,0.68,0.17,-1.31,1005.98
9.345,0.24,1.38,0.03,1.81,0.98,0.97,1.21,-0.06,-1.70,1005.98
9.345,0.24,1.38,0.03,3.19,2.43,1.67,1.21,-0.06,-1.70,1005.98
9.355,0.24,1.38,0.03,3.19,2.43,1.67,1.21,-0.06,-1.70,1005.98
9.401,0.59,1.80,0.33,3.19,2.43,1.67,1.21,-0.06,-1.70,1005.98
9.402,1.10,1.94,0.26,3.19,2.43,1.67,1.21,-0.06,-1.70,1005.98
9.403,1.05,1.58,0.13,3.19,2.43,1.67,1.21,-0.06,-1.70,1005.98
9.403,1.05,1.58,0.13,3.19,2.43,1.67,1.68,0.65,-2.28,1005.98
9.404,1.05,1.58,0.13,7.28,6.58,4.71,1.68,0.65,-2.28,1005.98
9.431,1.05,1.58,0.13,7.28,6.58,4.71,1.68,0.65,-2.28,1005.97
9.459,0.15,1.23,-0.12,7.28,6.58,4.71,1.68,0.65,-2.28,1005.97
9.46,-0.83,1.36,-0.36,7.28,6.58,4.71,1.68,0.65,-2.28,1005.97
9.461,-1.11,1.58,-0.28,7.28,6.58,4.71,1.68,0.65,-2.28,1005.97
9.462,-1.11,1.58,-0.28,7.28,6.58,4.71,2.02,2.52,-3.61,1005.97
9.462,-1.11,1.58,-0.28,12.31,9.04,6.08,2.02,2.52,-3.61,1005.97
9.472,-1.11,1.58,-0.28,12.31,9.04,6.08,2.02,2.52,-3.61,1005.98
9.521,-0.74,1.08,-0.55,12.31,9.04,6.08,2.02,2.52,-3.61,1005.98
9.522,-0.56,0.62,-0.51,12.31,9.04,6.08,2.02,2.52,-3.61,1005.98
9.523,-0.50,0.54,-0.67,12.31,9.04,6.08,2.02,2.52,-3.61,1005.98
9.524,-0.50,0.54,-0.67,12.31,9.04,6.08,0.94,0.12,-1.36,1005.98
9.525,-0.50,0.54,-0.67,-3.44,7.27,1.66,0.94,0.12,-1.36,1005.98
9.554,-0.50,0.54,-0.67,-3.44,7.27,1.66,0.94,0.12,-1.36,1005.95
9.576,-0.28,0.44,-0.45,-3.44,7.27,1.66,0.94,0.12,-1.36,1005.95
9.577,-0.20,0.20,-0.11,-3.44,7.27,1.66,0.94,0.12,-1.36,1005.95
9.577,-0.03,0.08,-0.17,-3.44,7.27,1.66,0.94,0.12,-1.36,1005.95
9.577,-0.03,0.08,-0.17,-3.44,7.27,1.66,-1.87,-0.83,1.29,1005.95
9.578,-0.03,0.08,-0.17,0.70,-1.57,-0.70,-1.87,-0.83,1.29,1005.95
9.632,-0.03,0.08,-0.17,0.70,-1.57,-0.70,-1.87,-0.83,1.29,1005.90
9.635,-0.00,0.17,-0.24,0.70,-1.57,-0.70,-1.87,-0.83,1.29,1005.90
9.636,-0.06,0.37,-0.35,0.70,-1.57,-0.70,-1.87,-0.83,1.29,1005.90
9.637,-0.03,0.56,-0.45,0.70,-1.57,-0.70,-1.87,-0.83,1.29,1005.90
9.638,-0.03,0.56,-0.45,0.70,-1.57,-0.70,-2.46,-0.56,3.33,1005.90
9.639,-0.03,0.56,-0.45,2.90,-6.69,1.64,-2.46,-0.56,3.33,1005.90
9.672,-0.03,0.56,-0.45,2.90,-6.69,1.64,-2.46,-0.56,3.33,1005.97
9.693,-0.01,0.68,-0.43,2.90,-6.69,1.64,-2.46,-0.56,3.33,1005.97
9.694,-0.01,0.70,-0.40,2.90,-6.69,1.64,-2.46,-0.56,3.33,1005.97
9.694,-0.04,0.81,-0.33,2.90,-6.69,1.64,-2.46,-0.56,3.33,1005.97
9.695,-0.04,0.81,-0.33,2.90,-6.69,1.64,-3.12,0.32,5.04,1005.97
9.695,-0.04,0.81,-0.33,0.70,-3.98,-2.20,-3.12,0.32,5.04,1005.97
9.752,-0.08,1.08,-0.32,0.70,-3.98,-2.20,-3.12,0.32,5.04,1005.97
9.752,-0.06,1.47,-0.46,0.70,-3.98,-2.20,-3.12,0.32,5.04,1005.97
9.753,-0.26,1.89,-0.77,0.70,-3.98,-2.20,-3.12,0.32,5.04,1005.97
9.753,-0.26,1.89,-0.77,0.70,-3.98,-2.20,-3.15,0.70,5.74,1005.97
9.754,-0.26,1.89,-0.77,-2.46,-0.76,-3.31,-3.15,0.70,5.74,1005.97
9.754,-0.26,1.89,-0.77,-2.46,-0.76,-3.31,-3.15,0.70,5.74,1005.98
9.809,-0.69,1.79,-0.66,-2.46,-0.76,-3.31,-3.15,0.70,5.74,1005.98
9.81,-0.86,1.36,-0.23,-2.46,-0.76,-3.31,-3.15,0.70,5.74,1005.98
9.81,-0.73,1.14,-0.39,-2.46,-0.76,-3.31,-3.15,0.70,5.74,1005.98
9.81,-0.73,1.14,-0.39,-2.46,-0.76,-3.31,-2.89,0.46,4.81,1005.98
9.81,-0.73,1.14,-0.39,-7.70,8.51,-7.48,-2.89,0.46,4.81,1005.98
9.832,-0.73,1.14,-0.39,-7.70,8.51,-7.48,-2.89,0.46,4.81,1005.95
9.868,-0.81,0.98,-0.60,-7.70,8.51,-7.48,-2.89,0.46,4.81,1005.95
9.869,-1.11,0.70,-0.50,-7.70,8.51,-7.48,-2.89,0.46,4.81,1005.95
9.869,-1.11,0.85,-0.51,-7.70,8.51,-7.48,-2.89,0.46,4.81,1005.95
9.87,-1.11,0.85,-0.51,-7.70,8.51,-7.48,-0.27,-0.48,0.07,1005.95
9.87,-1.11,0.85,-0.51,-12.10,3.04,-5.18,-0.27,-0.48,0.07,1005.95
9.871,-1.11,0.85,-0.51,-12.10,3.04,-5.18,-0.27,-0.48,0.07,1005.90
9.926,-0.29,1.67,-0.10,-12.10,3.04,-5.18,-0.27,-0.48,0.07,1005.90
9.929,2.69,1.91,1.46,-12.10,3.04,-5.18,-0.27,-0.48,0.07,1005.90
9.93,1.88,1.75,0.16,-12.10,3.04,-5.18,-0.27,-0.48,0.07,1005.90
9.93,1.88,1.75,0.16,-12.10,3.04,-5.18,-0.17,-1.39,-1.72,1005.90
9.93,1.88,1.75,0.16,-11.50,1.78,-4.54,-0.17,-1.39,-1.72,1005.90
9.951,1.88,1.75,0.16,-11.50,1.78,-4.54,-0.17,-1.39,-1.72,1005.91
9.986,-0.86,1.26,-1.39,-11.50,1.78,-4.54,-0.17,-1.39,-1.72,1005.91
9.987,-1.08,0.90,-0.96,-11.50,1.78,-4.54,-0.17,-1.39,-1.72,1005.91
9.987,-0.30,0.73,0.44,-11.50,1.78,-4.54,-0.17,-1.39,-1.72,1005.91
9.987,-0.30,0.73,0.44,10.42,6.68,0.26,-0.17,-1.39,-1.72,1005.91
9.988,-0.30,0.73,0.44,10.42,6.68,0.26,0.89,0.48,-3.35,1005.91
10.036,-0.30,0.73,0.44,10.42,6.68,0.26,0.89,0.48,-3.35,1005.99
10.046,-0.04,0.94,0.40,10.42,6.68,0.26,0.89,0.48,-3.35,1005.99
10.046,0.12,1.04,0.28,10.42,6.68,0.26,0.89,0.48,-3.35,1005.99
10.047,0.02,1.05,0.01,10.42,6.68,0.26,0.89,0.48,-3.35,1005.99
10.047,0.02,1.05,0.01,10.42,6.68,0.26,0.39,-0.76,-1.49,1005.99
10.047,0.02,1.05,0.01,-5.42,-1.05,-0.61,0.39,-0.76,-1.49,1005.99
10.072,0.02,1.05,0.01,-5.42,-1.05,-0.61,0.39,-0.76,-1.49,1005.99
10.103,-0.01,1.02,-0.06,-5.42,-1.05,-0.61,0.39,-0.76,-1.49,1005.99
10.104,0.09,1.03,-0.10,-5.42,-1.05,-0.61,0.39,-0.76,-1.49,1005.99
10.104,0.01,1.02,-0.01,-5.42,-1.05,-0.61,0.39,-0.76,-1.49,1005.99
10.104,0.01,1.02,-0.01,-5.42,-1.05,-0.61,0.46,0.39,-1.35,1005.99
10.104,0.01,1.02,-0.01,0.35,0.66,0.77,0.46,0.39,-1.35,1005.99
10.152,0.01,1.02,-0.01,0.35,0.66,0.77,0.46,0.39,-1.35,1006.01
10.16,-0.21,1.01,0.07,0.35,0.66,0.77,0.46,0.39,-1.35,1006.01
10.161,-0.24,0.99,0.03,0.35,0.66,0.77,0.46,0.39,-1.35,1006.01
10.161,0.01,0.99,0.02,0.35,0.66,0.77,0.46,0.39,-1.35,1006.01
10.161,0.01,0.99,0.02,0.35,0.66,0.77,0.50,-0.02,-1.12,1006.01
10.162,0.01,0.99,0.02,0.19,0.49,0.15,0.50,-0.02,-1.12,1006.01
10.218,0.12,1.03,-0.02,0.19,0.49,0.15,0.50,-0.02,-1.12,1006.01
10.219,0.04,1.03,-0.07,0.19,0.49,0.15,0.50,-0.02,-1.12,1006.01
10.22,-0.05,1.00,-0.10,0.19,0.49,0.15,0.50,-0.02,-1.12,1006.01
10.22,-0.05,1.00,-0.10,0.19,0.49,0.15,0.56,0.26,-1.15,1006.01
10.221,-0.05,1.00,-0.10,0.83,0.41,0.71,0.56,0.26,-1.15,1006.01
10.232,-0.05,1.00,-0.10,0.83,0.41,0.71,0.56,0.26,-1.15,1006.01
10.274,-0.05,1.00,-0.10,0.83,0.41,0.71,0.56,0.26,-1.15,1006.02
10.28,-0.12,0.99,-0.06,0.83,0.41,0.71,0.56,0.26,-1.15,1006.02
10.282,-0.15,0.99,-0.02,0.83,0.41,0.71,0.56,0.26,-1.15,1006.02
10.283,-0.18,0.97,-0.05,0.83,0.41,0.71,0.56,0.26,-1.15,1006.02
10.284,-0.18,0.97,-0.05,0.83,0.41,0.71,0.70,0.50,-1.33,1006.02
10.285,-0.18,0.97,-0.05,1.42,0.58,0.25,0.70,0.50,-1.33,1006.02
10.335,-0.22,0.93,-0.13,1.42,0.58,0.25,0.70,0.50,-1.33,1006.02
10.336,-0.28,0.88,-0.16,1.42,0.58,0.25,0.70,0.50,-1.33,1006.02
10.336,-0.29,0.88,-0.14,1.42,0.58,0.25,0.70,0.50,-1.33,1006.02
10.336,-0.29,0.88,-0.14,1.42,0.58,0.25,0.69,0.34,-1.39,1006.02
10.337,-0.29,0.88,-0.14,0.75,0.37,0.76,0.69,0.34,-1.39,1006.02
10.352,-0.29,0.88,-0.14,0.75,0.37,0.76,0.69,0.34,-1.39,1006.01
10.393,-0.30,0.96,-0.09,0.75,0.37,0.76,0.69,0.34,-1.39,1006.01
10.395,-0.30,1.05,-0.08,0.75,0.37,0.76,0.69,0.34,-1.39,1006.01
10.396,-0.30,1.07,-0.13,0.75,0.37,0.76,0.69,0.34,-1.39,1006.01
10.397,-0.30,1.07,-0.13,0.75,0.37,0.76,0.68,0.22,-1.34,1006.01
10.398,-0.30,1.07,-0.13,0.39,0.09,0.53,0.68,0.22,-1.34,1006.01
10.432,-0.30,1.07,-0.13,0.39,0.09,0.53,0.68,0.22,-1.34,1006.00
10.452,-0.15,1.10,-0.18,0.39,0.09,0.53,0.68,0.22,-1.34,1006.00
10.453,0.02,1.18,-0.19,0.39,0.09,0.53,0.68,0.22,-1.34,1006.00
10.453,0.17,1.31,-0.14,0.39,0.09,0.53,0.68,0.22,-1.34,1006.00
10.454,0.17,1.31,-0.14,0.39,0.09,0.53,0.87,-0.07,-1.52,1006.00
10.454,0.17,1.31,-0.14,1.52,2.11,0.90,0.87,-0.07,-1.52,1006.00
10.471,0.17,1.31,-0.14,1.52,2.11,0.90,0.87,-0.07,-1.52,1005.98
10.51,0.42,1.48,-0.03,1.52,2.11,0.90,0.87,-0.07,-1.52,1005.98
10.51,0.61,1.66,-0.22,1.52,2.11,0.90,0.87,-0.07,-1.52,1005.98
10.511,0.79,1.82,-0.27,1.52,2.11,0.90,0.87,-0.07,-1.52,1005.98
10.511,0.79,1.82,-0.27,6.77,5.28,1.85,0.87,-0.07,-1.52,1005.98
10.511,0.79,1.82,-0.27,6.77,5.28,1.85,1.22,1.10,-2.31,1005.98
10.551,0.79,1.82,-0.27,6.77,5.28,1.85,1.22,1.10,-2.31,1005.98
10.568,0.84,1.62,-0.11,6.77,5.28,1.85,1.22,1.10,-2.31,1005.98
10.568,-0.11,1.11,-0.15,6.77,5.28,1.85,1.22,1.10,-2.31,1005.98
10.568,-1.17,1.36,-0.26,6.77,5.28,1.85,1.22,1.10,-2.31,1005.98
10.569,-1.17,1.36,-0.26,6.77,5.28,1.85,1.61,2.50,-2.94,1005.98
10.569,-1.17,1.36,-0.26,12.55,10.03,2.46,1.61,2.50,-2.94,1005.98
10.626,-1.35,1.61,-0.29,12.55,10.03,2.46,1.61,2.50,-2.94,1005.98
10.627,-0.96,1.05,-0.32,12.55,10.03,2.46,1.61,2.50,-2.94,1005.98
10.628,-0.77,0.69,-0.33,12.55,10.03,2.46,1.61,2.50,-2.94,1005.98
10.628,-0.77,0.69,-0.33,12.55,10.03,2.46,1.60,-0.02,-1.42,1005.98
10.628,-0.77,0.69,-0.33,-2.80,7.43,2.64,1.60,-0.02,-1.42,1005.98
10.631,-0.77,0.69,-0.33,-2.80,7.43,2.64,1.60,-0.02,-1.42,1005.96
10.673,-0.77,0.69,-0.33,-2.80,7.43,2.64,1.60,-0.02,-1.42,1005.89
10.685,-0.52,0.53,-0.28,-2.80,7.43,2.64,1.60,-0.02,-1.42,1005.89
10.686,-0.24,0.38,0.01,-2.80,7.43,2.64,1.60,-0.02,-1.42,1005.89
10.686,-0.05,0.13,0.29,-2.80,7.43,2.64,1.60,-0.02,-1.42,1005.89
10.687,-0.05,0.13,0.29,-2.80,7.43,2.64,-0.28,-1.66,1.27,1005.89
10.687,-0.05,0.13,0.29,-1.53,1.02,1.20,-0.28,-1.66,1.27,1005.89
10.744,-0.06,0.07,0.20,-1.53,1.02,1.20,-0.28,-1.66,1.27,1005.89
10.745,-0.37,0.26,-0.01,-1.53,1.02,1.20,-0.28,-1.66,1.27,1005.89
10.745,-0.47,0.58,-0.24,-1.53,1.02,1.20,-0.28,-1.66,1.27,1005.89
10.746,-0.47,0.58,-0.24,-1.53,1.02,1.20,-0.04,-0.40,3.52,1005.89
10.746,-0.47,0.58,-0.24,3.29,-5.47,5.63,-0.04,-0.40,3.52,1005.89
10.752,-0.47,0.58,-0.24,3.29,-5.47,5.63,-0.04,-0.40,3.52,1005.94
10.802,-0.31,0.68,-0.13,3.29,-5.47,5.63,-0.04,-0.40,3.52,1005.94
10.803,-0.35,0.59,0.12,3.29,-5.47,5.63,-0.04,-0.40,3.52,1005.94
10.804,-0.51,0.81,-0.22,3.29,-5.47,5.63,-0.04,-0.40,3.52,1005.94
10.804,-0.51,0.81,-0.22,3.29,-5.47,5.63,-0.62,-1.03,5.52,1005.94
10.805,-0.51,0.81,-0.22,-1.63,-3.55,2.24,-0.62,-1.03,5.52,1005.94
10.833,-0.51,0.81,-0.22,-1.63,-3.55,2.24,-0.62,-1.03,5.52,1006.02
10.862,-0.72,1.08,-0.31,-1.63,-3.55,2.24,-0.62,-1.03,5.52,1006.02
10.863,-0.87,1.19,-0.24,-1.63,-3.55,2.24,-0.62,-1.03,5.52,1006.02
10.864,-0.89,1.26,-0.33,-1.63,-3.55,2.24,-0.62,-1.03,5.52,1006.02
10.864,-0.89,1.26,-0.33,-1.63,-3.55,2.24,-1.20,-3.70,6.59,1006.02
10.864,-0.89,1.26,-0.33,-5.69,-0.89,1.37,-1.20,-3.70,6.59,1006.02
10.875,-0.89,1.26,-0.33,-5.69,-0.89,1.37,-1.20,-3.70,6.59,1005.97
10.917,-0.70,1.37,-0.43,-5.69,-0.89,1.37,-1.20,-3.70,6.59,1005.97
10.919,-0.37,1.46,-0.33,-5.69,-0.89,1.37,-1.20,-3.70,6.59,1005.97
10.919,-0.33,1.43,-0.02,-5.69,-0.89,1.37,-1.20,-3.70,6.59,1005.97
10.92,-0.33,1.43,-0.02,-5.69,-0.89,1.37,-0.89,-8.48,6.88,1005.97
10.92,-0.33,1.43,-0.02,-10.53,3.96,-0.15,-0.89,-8.48,6.88,1005.97
10.953,-0.33,1.43,-0.02,-10.53,3.96,-0.15,-0.89,-8.48,6.88,1005.90
10.976,-0.30,1.36,0.14,-10.53,3.96,-0.15,-0.89,-8.48,6.88,1005.90
10.977,-0.05,1.20,0.30,-10.53,3.96,-0.15,-0.89,-8.48,6.88,1005.90
10.977,-0.14,0.97,0.40,-10.53,3.96,-0.15,-0.89,-8.48,6.88,1005.90
10.978,-0.14,0.97,0.40,-10.53,3.96,-0.15,-1.14,-7.15,3.35,1005.90
10.98,-0.14,0.97,0.40,-5.90,5.58,3.00,-1.14,-7.15,3.35,1005.90
11.032,-0.14,0.97,0.40,-5.90,5.58,3.00,-1.14,-7.15,3.35,1005.88
11.035,-0.48,0.76,0.27,-5.90,5.58,3.00,-1.14,-7.15,3.35,1005.88
11.036,-0.73,0.78,-0.18,-5.90,5.58,3.00,-1.14,-7.15,3.35,1005.88
11.037,-1.23,1.48,0.12,-5.90,5.58,3.00,-1.14,-7.15,3.35,1005.88
11.037,-1.23,1.48,0.12,-5.90,5.58,3.00,-0.35,-2.04,-0.49,1005.88
11.038,-1.23,1.48,0.12,-4.06,1.12,6.86,-0.35,-2.04,-0.49,1005.88
11.073,-1.23,1.48,0.12,-4.06,1.12,6.86,-0.35,-2.04,-0.49,1005.97
11.093,-0.96,1.39,0.81,-4.06,1.12,6.86,-0.35,-2.04,-0.49,1005.97
11.095,-0.13,1.04,0.11,-4.06,1.12,6.86,-0.35,-2.04,-0.49,1005.97
11.096,0.83,1.52,-0.75,-4.06,1.12,6.86,-0.35,-2.04,-0.49,1005.97
11.097,0.83,1.52,-0.75,-4.06,1.12,6.86,-0.86,-1.10,-1.24,1005.97
11.098,0.83,1.52,-0.75,-10.37,3.12,5.70,-0.86,-1.10,-1.24,1005.97
11.151,1.58,1.97,-0.85,-10.37,3.12,5.70,-0.86,-1.10,-1.24,1005.97
11.152,0.33,1.05,-0.48,-10.37,3.12,5.70,-0.86,-1.10,-1.24,1005.97
11.152,-0.69,0.60,-0.19,-10.37,3.12,5.70,-0.86,-1.10,-1.24,1005.97
11.153,-0.69,0.60,-0.19,-10.37,3.12,5.70,-0.55,-1.02,-1.36,1005.97
11.153,-0.69,0.60,-0.19,-10.37,3.12,5.70,-0.55,-1.02,-1.36,1005.95
11.154,-0.69,0.60,-0.19,7.37,5.78,-1.86,-0.55,-1.02,-1.36,1005.95
11.21,-0.87,0.81,-0.01,7.37,5.78,-1.86,-0.55,-1.02,-1.36,1005.95
11.211,-0.44,1.02,0.06,7.37,5.78,-1.86,-0.55,-1.02,-1.36,1005.95
11.212,0.03,0.98,-0.11,7.37,5.78,-1.86,-0.55,-1.02,-1.36,1005.95
11.212,0.03,0.98,-0.11,7.37,5.78,-1.86,-0.37,-0.86,-0.32,1005.95
11.212,0.03,0.98,-0.11,-3.74,-1.01,0.58,-0.37,-0.86,-0.32,1005.95
11.239,0.03,0.98,-0.11,-3.74,-1.01,0.58,-0.37,-0.86,-0.32,1005.94
11.269,0.12,0.98,-0.34,-3.74,-1.01,0.58,-0.37,-0.86,-0.32,1005.94
11.27,-0.04,0.98,-0.34,-3.74,-1.01,0.58,-0.37,-0.86,-0.32,1005.94
11.271,-0.21,0.98,-0.33,-3.74,-1.01,0.58,-0.37,-0.86,-0.32,1005.94
11.272,-0.21,0.98,-0.33,-3.74,-1.01,0.58,-0.09,-0.56,-0.01,1005.94
11.272,-0.21,0.98,-0.33,-0.52,0.68,1.46,-0.09,-0.56,-0.01,1005.94
11.273,-0.21,0.98,-0.33,-0.52,0.68,1.46,-0.09,-0.56,-0.01,1005.99
11.326,-0.23,1.00,-0.37,-0.52,0.68,1.46,-0.09,-0.56,-0.01,1005.99
11.327,0.01,0.96,-0.33,-0.52,0.68,1.46,-0.09,-0.56,-0.01,1005.99
11.328,0.13,0.89,-0.25,-0.52,0.68,1.46,-0.09,-0.56,-0.01,1005.99
11.328,0.13,0.89,-0.25,-0.52,0.68,1.46,-0.14,-0.42,0.25,1005.99
11.329,0.13,0.89,-0.25,-1.21,0.55,-0.74,-0.14,-0.42,0.25,1005.99
11.353,0.13,0.89,-0.25,-1.21,0.55,-0.74,-0.14,-0.42,0.25,1006.00
11.386,-0.02,0.98,-0.21,-1.21,0.55,-0.74,-0.14,-0.42,0.25,1006.00
11.387,-0.07,0.98,-0.20,-1.21,0.55,-0.74,-0.14,-0.42,0.25,1006.00
11.387,-0.07,0.92,-0.23,-1.21,0.55,-0.74,-0.14,-0.42,0.25,1006.00
11.387,-0.07,0.92,-0.23,-1.21,0.55,-0.74,-0.02,-0.16,0.16,1006.00
11.388,-0.07,0.92,-0.23,0.71,0.10,0.07,-0.02,-0.16,0.16,1006.00
11.433,-0.07,0.92,-0.23,0.71,0.10,0.07,-0.02,-0.16,0.16,1005.99
11.456,-0.07,0.92,-0.23,-0.43,0.32,0.55,-0.02,-0.16,0.16,1005.99
11.457,-0.07,0.98,-0.23,-0.43,0.32,0.55,-0.02,-0.16,0.16,1005.99
11.458,0.02,0.94,-0.24,-0.43,0.32,0.55,-0.02,-0.16,0.16,1005.99
11.458,0.02,0.94,-0.22,-0.43,0.32,0.55,-0.02,-0.16,0.16,1005.99
11.459,0.02,0.94,-0.22,-0.43,0.32,0.55,0.12,-0.34,0.23,1005.99
11.471,0.02,0.94,-0.22,-0.43,0.32,0.55,0.12,-0.34,0.23,1005.98
11.5,-0.02,1.01,-0.18,-0.43,0.32,0.55,0.12,-0.34,0.23,1005.98
11.501,-0.03,0.94,-0.22,-0.43,0.32,0.55,0.12,-0.34,0.23,1005.98
11.501,-0.01,0.94,-0.25,-0.43,0.32,0.55,0.12,-0.34,0.23,1005.98
11.502,-0.01,0.94,-0.25,-0.43,0.32,0.55,0.30,-0.55,0.16,1005.98
11.502,-0.01,0.94,-0.25,0.27,0.37,0.75,0.30,-0.55,0.16,1005.98
11.551,-0.01,0.94,-0.25,0.27,0.37,0.75,0.30,-0.55,0.16,1005.98
11.561,0.03,0.93,-0.28,0.27,0.37,0.75,0.30,-0.55,0.16,1005.98
11.562,-0.01,0.93,-0.27,0.27,0.37,0.75,0.30,-0.55,0.16,1005.98
11.563,-0.03,0.97,-0.26,0.27,0.37,0.75,0.30,-0.55,0.16,1005.98
11.563,-0.03,0.97,-0.26,0.27,0.37,0.75,0.51,-0.31,0.10,1005.98
11.563,-0.03,0.97,-0.26,0.18,0.21,0.65,0.51,-0.31,0.10,1005.98
11.619,-0.06,0.96,-0.30,0.18,0.21,0.65,0.51,-0.31,0.10,1005.98
11.621,-0.09,0.97,-0.35,0.18,0.21,0.65,0.51,-0.31,0.10,1005.98
11.622,0.04,0.98,-0.30,0.18,0.21,0.65,0.51,-0.31,0.10,1005.98
11.623,0.04,0.98,-0.30,0.18,0.21,0.65,0.64,-0.18,0.16,1005.98
11.624,0.04,0.98,-0.30,-0.13,0.47,0.70,0.64,-0.18,0.16,1005.98
11.638,0.04,0.98,-0.30,-0.13,0.47,0.70,0.64,-0.18,0.16,1005.98
11.673,0.04,0.98,-0.30,-0.13,0.47,0.70,0.64,-0.18,0.16,1005.99
11.677,0.21,1.03,-0.29,-0.13,0.47,0.70,0.64,-0.18,0.16,1005.99
11.677,0.16,1.11,-0.28,-0.13,0.47,0.70,0.64,-0.18,0.16,1005.99
11.678,-0.02,1.14,-0.30,-0.13,0.47,0.70,0.64,-0.18,0.16,1005.99
11.678,-0.02,1.14,-0.30,-0.13,0.47,0.70,1.08,-0.02,0.17,1005.99
11.678,-0.02,1.14,-0.30,0.59,1.04,0.86,1.08,-0.02,0.17,1005.99
11.737,-0.02,1.14,-0.30,0.78,3.28,1.86,1.08,-0.02,0.17,1005.99
11.738,0.00,1.29,-0.32,0.78,3.28,1.86,1.08,-0.02,0.17,1005.99
11.738,0.42,1.50,-0.15,0.78,3.28,1.86,1.08,-0.02,0.17,1005.99
11.739,0.79,1.58,0.12,0.78,3.28,1.86,1.08,-0.02,0.17,1005.99
11.739,0.79,1.58,0.12,0.78,3.28,1.86,1.80,-1.48,0.31,1005.99
11.751,0.79,1.58,0.12,0.78,3.28,1.86,1.80,-1.48,0.31,1005.98
11.793,0.79,1.57,0.30,0.78,3.28,1.86,1.80,-1.48,0.31,1005.98
11.794,0.33,1.45,0.25,0.78,3.28,1.86,1.80,-1.48,0.31,1005.98
11.795,-0.13,1.47,0.36,0.78,3.28,1.86,1.80,-1.48,0.31,1005.98
11.795,-0.13,1.47,0.36,0.78,3.28,1.86,2.54,-1.71,-0.44,1005.98
11.795,-0.13,1.47,0.36,7.42,7.59,6.62,2.54,-1.71,-0.44,1005.98
11.837,-0.13,1.47,0.36,7.42,7.59,6.62,2.54,-1.71,-0.44,1005.95
11.862,-0.52,1.49,0.23,7.42,7.59,6.62,2.54,-1.71,-0.44,1005.95
11.863,-0.78,1.56,0.03,7.42,7.59,6.62,2.54,-1.71,-0.44,1005.95
11.864,-0.77,1.31,-0.14,7.42,7.59,6.62,2.54,-1.71,-0.44,1005.95
11.864,-0.77,1.31,-0.14,7.42,7.59,6.62,2.35,-2.83,-0.75,1005.95
11.865,-0.77,1.31,-0.14,1.16,7.61,9.07,2.35,-2.83,-0.75,1005.95
11.872,-0.77,1.31,-0.14,1.16,7.61,9.07,2.35,-2.83,-0.75,1005.97
11.91,-0.84,1.08,-0.51,1.16,7.61,9.07,2.35,-2.83,-0.75,1005.97
11.914,-0.69,1.22,-0.63,1.16,7.61,9.07,2.35,-2.83,-0.75,1005.97
11.915,-0.11,1.04,-0.32,1.16,7.61,9.07,2.35,-2.83,-0.75,1005.97
11.916,-0.11,1.04,-0.32,1.16,7.61,9.07,1.52,-5.43,-0.10,1005.97
11.917,-0.11,1.04,-0.32,-3.53,6.57,3.80,1.52,-5.43,-0.10,1005.97
11.952,-0.11,1.04,-0.32,-3.53,6.57,3.80,1.52,-5.43,-0.10,1005.97
11.967,0.19,0.61,0.11,-3.53,6.57,3.80,1.52,-5.43,-0.10,1005.97
11.969,0.03,0.45,0.20,-3.53,6.57,3.80,1.52,-5.43,-0.10,1005.97
11.969,-0.20,0.51,0.03,-3.53,6.57,3.80,1.52,-5.43,-0.10,1005.97
11.969,-0.20,0.51,0.03,-3.53,6.57,3.80,-0.23,-4.42,1.87,1005.97
11.97,-0.20,0.51,0.03,2.89,2.42,1.73,-0.23,-4.42,1.87,1005.97
12.03,-0.21,0.54,-0.03,2.89,2.42,1.73,-0.23,-4.42,1.87,1005.97
12.033,-0.09,0.47,-0.04,2.89,2.42,1.73,-0.23,-4.42,1.87,1005.97
12.034,-0.13,0.48,-0.04,2.89,2.42,1.73,-0.23,-4.42,1.87,1005.97
12.035,-0.13,0.48,-0.04,2.89,2.42,1.73,-0.79,-1.57,3.63,1005.97
12.036,-0.13,0.48,-0.04,2.38,-3.11,4.31,-0.79,-1.57,3.63,1005.97
12.037,-0.13,0.48,-0.04,2.38,-3.11,4.31,-0.79,-1.57,3.63,1005.93
12.073,-0.13,0.48,-0.04,2.38,-3.11,4.31,-0.79,-1.57,3.63,1005.98
12.086,-0.26,0.59,-0.10,2.38,-3.11,4.31,-0.79,-1.57,3.63,1005.98
12.087,-0.32,0.76,-0.16,2.38,-3.11,4.31,-0.79,-1.57,3.63,1005.98
12.088,-0.28,0.96,-0.16,2.38,-3.11,4.31,-0.79,-1.57,3.63,1005.98
12.088,-0.28,0.96,-0.16,2.38,-3.11,4.31,-1.86,0.06,5.32,1005.98
12.088,-0.28,0.96,-0.16,-0.61,-4.00,2.04,-1.86,0.06,5.32,1005.98
12.144,-0.28,0.96,-0.16,-5.34,0.50,-0.70,-1.86,0.06,5.32,1005.98
12.145,-0.29,1.20,-0.17,-5.34,0.50,-0.70,-1.86,0.06,5.32,1005.98
12.146,-0.35,1.59,-0.39,-5.34,0.50,-0.70,-1.86,0.06,5.32,1005.98
12.146,-0.52,1.86,-0.43,-5.34,0.50,-0.70,-1.86,0.06,5.32,1005.98
12.147,-0.52,1.86,-0.43,-5.34,0.50,-0.70,-3.24,0.24,6.47,1005.98
12.152,-0.52,1.86,-0.43,-5.34,0.50,-0.70,-3.24,0.24,6.47,1005.97
12.201,-0.77,2.00,-0.36,-5.34,0.50,-0.70,-3.24,0.24,6.47,1005.97
12.202,-1.16,1.85,-0.25,-5.34,0.50,-0.70,-3.24,0.24,6.47,1005.97
12.202,-1.39,1.24,-0.38,-5.34,0.50,-0.70,-3.24,0.24,6.47,1005.97
12.203,-1.39,1.24,-0.38,-5.34,0.50,-0.70,-2.95,0.83,4.68,1005.97
12.203,-1.39,1.24,-0.38,-10.00,9.56,-4.56,-2.95,0.83,4.68,1005.97
12.235,-1.39,1.24,-0.38,-10.00,9.56,-4.56,-2.95,0.83,4.68,1005.92
12.261,-1.27,0.71,-0.50,-10.00,9.56,-4.56,-2.95,0.83,4.68,1005.92
12.262,-1.23,0.64,-0.53,-10.00,9.56,-4.56,-2.95,0.83,4.68,1005.92
12.262,-1.08,0.92,-1.00,-10.00,9.56,-4.56,-2.95,0.83,4.68,1005.92
12.263,-1.08,0.92,-1.00,-10.00,9.56,-4.56,-0.71,-0.27,-0.53,1005.92
12.264,-1.08,0.92,-1.00,-16.58,4.02,-4.58,-0.71,-0.27,-0.53,1005.92
12.273,-1.08,0.92,-1.00,-16.58,4.02,-4.58,-0.71,-0.27,-0.53,1005.86
12.318,0.77,1.66,-0.26,-16.58,4.02,-4.58,-0.71,-0.27,-0.53,1005.86
12.318,3.18,1.89,-0.21,-16.58,4.02,-4.58,-0.71,-0.27,-0.53,1005.86
12.319,1.50,1.75,-1.36,-16.58,4.02,-4.58,-0.71,-0.27,-0.53,1005.86
12.319,1.50,1.75,-1.36,-16.58,4.02,-4.58,0.03,-3.92,-1.41,1005.86
12.32,1.50,1.75,-1.36,-8.39,1.77,-5.74,0.03,-3.92,-1.41,1005.86
12.352,1.50,1.75,-1.36,-8.39,1.77,-5.74,0.03,-3.92,-1.41,1005.87
12.377,-0.99,1.19,-0.16,-8.39,1.77,-5.74,0.03,-3.92,-1.41,1005.87
12.377,-1.12,0.50,0.45,-8.39,1.77,-5.74,0.03,-3.92,-1.41,1005.87
12.378,-0.29,0.54,0.85,-8.39,1.77,-5.74,0.03,-3.92,-1.41,1005.87
12.378,-0.29,0.54,0.85,-8.39,1.77,-5.74,-0.10,-0.96,-3.43,1005.87
12.379,-0.29,0.54,0.85,10.32,6.42,-5.36,-0.10,-0.96,-3.43,1005.87
12.436,-0.29,0.54,0.85,10.32,6.42,-5.36,-0.10,-0.96,-3.43,1005.87
12.438,0.26,0.91,0.31,10.32,6.42,-5.36,-0.10,-0.96,-3.43,1005.87
12.439,0.24,1.17,-0.37,10.32,6.42,-5.36,-0.10,-0.96,-3.43,1005.87
12.44,-0.34,1.22,-0.47,10.32,6.42,-5.36,-0.10,-0.96,-3.43,1005.87
12.441,-0.34,1.22,-0.47,10.32,6.42,-5.36,0.54,0.43,-1.53,1005.87
12.442,-0.34,1.22,-0.47,-4.58,-3.04,5.77,0.54,0.43,-1.53,1005.87
12.472,-0.34,1.22,-0.47,-4.58,-3.04,5.77,0.54,0.43,-1.53,1005.97
12.493,-0.32,1.14,-0.28,-4.58,-3.04,5.77,0.54,0.43,-1.53,1005.97
12.494,-0.03,1.00,-0.13,-4.58,-3.04,5.77,0.54,0.43,-1.53,1005.97
12.495,-0.00,0.98,0.06,-4.58,-3.04,5.77,0.54,0.43,-1.53,1005.97
12.495,-0.00,0.98,0.06,-4.58,-3.04,5.77,0.14,-0.26,-0.90,1005.97
12.496,-0.00,0.98,0.06,-1.65,2.08,-3.02,0.14,-0.26,-0.90,1005.97
12.552,0.09,1.02,0.09,-1.65,2.08,-3.02,0.14,-0.26,-0.90,1005.97
12.554,0.34,0.97,0.10,-1.65,2.08,-3.02,0.14,-0.26,-0.90,1005.97
12.555,0.39,0.90,0.12,-1.65,2.08,-3.02,0.14,-0.26,-0.90,1005.97
12.556,0.39,0.90,0.12,-1.65,2.08,-3.02,0.30,-0.57,-0.81,1005.97
12.558,0.39,0.90,0.12,0.37,0.33,0.85,0.30,-0.57,-0.81,1005.97
12.559,0.39,0.90,0.12,0.37,0.33,0.85,0.30,-0.57,-0.81,1005.97
12.61,0.05,0.94,0.05,0.37,0.33,0.85,0.30,-0.57,-0.81,1005.97
12.613,-0.26,0.96,-0.04,0.37,0.33,0.85,0.30,-0.57,-0.81,1005.97
12.614,-0.27,1.00,-0.08,0.37,0.33,0.85,0.30,-0.57,-0.81,1005.97
12.615,-0.27,1.00,-0.08,0.37,0.33,0.85,0.56,0.29,-1.50,1005.97
12.616,-0.27,1.00,-0.08,3.48,-0.21,1.96,0.56,0.29,-1.50,1005.97
12.633,-0.27,1.00,-0.08,3.48,-0.21,1.96,0.56,0.29,-1.50,1005.96
12.667,-0.14,1.05,-0.08,3.48,-0.21,1.96,0.56,0.29,-1.50,1005.96
12.668,-0.09,1.05,-0.13,3.48,-0.21,1.96,0.56,0.29,-1.50,1005.96
12.668,-0.10,1.01,-0.21,3.48,-0.21,1.96,0.56,0.29,-1.50,1005.96
12.669,-0.10,1.01,-0.21,3.48,-0.21,1.96,0.61,0.06,-1.29,1005.96
12.669,-0.10,1.01,-0.21,-0.53,0.60,0.71,0.61,0.06,-1.29,1005.96
12.672,-0.10,1.01,-0.21,-0.53,0.60,0.71,0.61,0.06,-1.29,1005.97
12.727,-0.04,0.94,-0.23,-0.53,0.60,0.71,0.61,0.06,-1.29,1005.97
12.728,-0.05,0.94,-0.16,-0.53,0.60,0.71,0.61,0.06,-1.29,1005.97
12.728,-0.08,1.09,-0.08,-0.53,0.60,0.71,0.61,0.06,-1.29,1005.97
12.728,-0.08,1.09,-0.08,-0.53,0.60,0.71,0.68,0.30,-1.58,1005.97
12.729,-0.08,1.09,-0.08,1.68,0.80,-0.05,0.68,0.30,-1.58,1005.97
12.752,-0.08,1.09,-0.08,1.68,0.80,-0.05,0.68,0.30,-1.58,1005.99
12.787,-0.08,1.09,-0.08,2.43,2.06,1.13,0.68,0.30,-1.58,1005.99
12.789,-0.15,1.23,-0.11,2.43,2.06,1.13,0.68,0.30,-1.58,1005.99
12.789,-0.21,1.22,-0.18,2.43,2.06,1.13,0.68,0.30,-1.58,1005.99
12.79,-0.12,1.20,-0.21,2.43,2.06,1.13,0.68,0.30,-1.58,1005.99
12.79,-0.12,1.20,-0.21,2.43,2.06,1.13,1.02,-0.05,-1.89,1005.99
12.832,-0.12,1.20,-0.21,2.43,2.06,1.13,1.02,-0.05,-1.89,1006.00
12.843,0.05,1.34,-0.16,2.43,2.06,1.13,1.02,-0.05,-1.89,1006.00
12.843,0.24,1.56,-0.11,2.43,2.06,1.13,1.02,-0.05,-1.89,1006.00
12.844,0.55,1.83,0.05,2.43,2.06,1.13,1.02,-0.05,-1.89,1006.00
12.844,0.55,1.83,0.05,2.43,2.06,1.13,1.39,0.18,-2.00,1006.00
12.845,0.55,1.83,0.05,3.33,4.25,1.18,1.39,0.18,-2.00,1006.00
12.872,0.55,1.83,0.05,3.33,4.25,1.18,1.39,0.18,-2.00,1005.99
12.901,1.07,1.89,0.08,3.33,4.25,1.18,1.39,0.18,-2.00,1005.99
12.904,0.91,1.49,0.12,3.33,4.25,1.18,1.39,0.18,-2.00,1005.99
12.905,-0.32,1.06,-0.08,3.33,4.25,1.18,1.39,0.18,-2.00,1005.99
12.905,-0.32,1.06,-0.08,3.33,4.25,1.18,1.52,1.42,-2.60,1005.99
12.905,-0.32,1.06,-0.08,11.00,10.08,4.08,1.52,1.42,-2.60,1005.99
12.953,-0.32,1.06,-0.08,11.00,10.08,4.08,1.52,1.42,-2.60,1005.98
12.96,-1.11,1.33,-0.31,11.00,10.08,4.08,1.52,1.42,-2.60,1005.98
12.962,-1.01,1.45,-0.28,11.00,10.08,4.08,1.52,1.42,-2.60,1005.98
12.963,-0.59,0.93,-0.34,11.00,10.08,4.08,1.52,1.42,-2.60,1005.98
12.964,-0.59,0.93,-0.34,11.00,10.08,4.08,1.62,2.07,-2.73,1005.98
12.964,-0.59,0.93,-0.34,3.62,6.62,4.23,1.62,2.07,-2.73,1005.98
13.02,-0.51,0.59,-0.30,3.62,6.62,4.23,1.62,2.07,-2.73,1005.98
13.021,-0.47,0.45,-0.44,3.62,6.62,4.23,1.62,2.07,-2.73,1005.98
13.021,-0.30,0.42,-0.34,3.62,6.62,4.23,1.62,2.07,-2.73,1005.98
13.021,-0.30,0.42,-0.34,3.62,6.62,4.23,-0.23,-0.10,-0.29,1005.98
13.022,-0.30,0.42,-0.34,-1.43,3.63,2.03,-0.23,-0.10,-0.29,1005.98
13.033,-0.30,0.42,-0.34,-1.43,3.63,2.03,-0.23,-0.10,-0.29,1005.94
13.072,-0.30,0.42,-0.34,-1.43,3.63,2.03,-0.23,-0.10,-0.29,1005.93
13.075,-0.18,0.26,-0.12,-1.43,3.63,2.03,-0.23,-0.10,-0.29,1005.93
13.076,-0.16,0.18,-0.11,-1.43,3.63,2.03,-0.23,-0.10,-0.29,1005.93
13.076,-0.19,0.23,-0.23,-1.43,3.63,2.03,-0.23,-0.10,-0.29,1005.93
13.077,-0.19,0.23,-0.23,-1.43,3.63,2.03,-1.96,-0.36,2.17,1005.93
13.078,-0.19,0.23,-0.23,1.62,-3.46,1.20,-1.96,-0.36,2.17,1005.93
13.134,-0.19,0.41,-0.38,1.62,-3.46,1.20,-1.96,-0.36,2.17,1005.93
13.135,-0.05,0.55,-0.44,1.62,-3.46,1.20,-1.96,-0.36,2.17,1005.93
13.135,-0.07,0.60,-0.27,1.62,-3.46,1.20,-1.96,-0.36,2.17,1005.93
13.136,-0.07,0.60,-0.27,1.62,-3.46,1.20,-2.78,-0.28,4.05,1005.93
13.136,-0.07,0.60,-0.27,1.08,-5.84,0.44,-2.78,-0.28,4.05,1005.93
13.152,-0.07,0.60,-0.27,1.08,-5.84,0.44,-2.78,-0.28,4.05,1005.99
13.193,-0.17,0.69,-0.21,1.08,-5.84,0.44,-2.78,-0.28,4.05,1005.99
13.194,-0.18,0.88,-0.32,1.08,-5.84,0.44,-2.78,-0.28,4.05,1005.99
13.195,-0.10,1.21,-0.41,1.08,-5.84,0.44,-2.78,-0.28,4.05,1005.99
13.195,-0.10,1.21,-0.41,1.08,-5.84,0.44,-3.24,0.40,5.35,1005.99
13.195,-0.10,1.21,-0.41,-0.93,-3.27,-1.89,-3.24,0.40,5.35,1005.99
13.233,-0.10,1.21,-0.41,-0.93,-3.27,-1.89,-3.24,0.40,5.35,1005.98
13.25,-0.03,1.66,-0.47,-0.93,-3.27,-1.89,-3.24,0.40,5.35,1005.98
13.251,-0.34,2.09,-0.67,-0.93,-3.27,-1.89,-3.24,0.40,5.35,1005.98
13.251,-0.69,1.83,-0.61,-0.93,-3.27,-1.89,-3.24,0.40,5.35,1005.98
13.251,-0.69,1.83,-0.61,-0.93,-3.27,-1.89,-3.40,1.07,5.58,1005.98
13.251,-0.69,1.83,-0.61,-3.92,3.37,-4.64,-3.40,1.07,5.58,1005.98
13.272,-0.69,1.83,-0.61,-3.92,3.37,-4.64,-3.40,1.07,5.58,1005.94
13.31,-0.85,1.24,-0.40,-3.92,3.37,-4.64,-3.40,1.07,5.58,1005.94
13.311,-0.85,1.08,-0.57,-3.92,3.37,-4.64,-3.40,1.07,5.58,1005.94
13.312,-0.96,0.87,-0.65,-3.92,3.37,-4.64,-3.40,1.07,5.58,1005.94
13.312,-0.96,0.87,-0.65,-3.92,3.37,-4.64,-1.83,0.63,3.08,1005.94
13.312,-0.96,0.87,-0.65,-10.34,8.63,-7.12,-1.83,0.63,3.08,1005.94
13.353,-0.96,0.87,-0.65,-10.34,8.63,-7.12,-1.83,0.63,3.08,1005.90
13.378,-1.09,0.67,-0.56,-10.34,8.63,-7.12,-1.83,0.63,3.08,1005.90
13.379,-0.90,0.92,-0.55,-10.34,8.63,-7.12,-1.83,0.63,3.08,1005.90
13.379,0.15,1.56,0.08,-10.34,8.63,-7.12,-1.83,0.63,3.08,1005.90
13.38,0.15,1.56,0.08,-10.34,8.63,-7.12,0.22,-1.48,-1.39,1005.90
13.38,0.15,1.56,0.08,-12.96,-0.02,-6.89,0.22,-1.48,-1.39,1005.90
13.428,2.85,1.58,1.09,-12.96,-0.02,-6.89,0.22,-1.48,-1.39,1005.90
13.428,1.72,1.43,0.22,-12.96,-0.02,-6.89,0.22,-1.48,-1.39,1005.90
13.429,-0.99,1.40,-0.93,-12.96,-0.02,-6.89,0.22,-1.48,-1.39,1005.90
13.429,-0.99,1.40,-0.93,-12.96,-0.02,-6.89,0.24,-1.13,-1.74,1005.90
13.429,-0.99,1.40,-0.93,4.16,4.32,1.24,0.24,-1.13,-1.74,1005.90
13.434,-0.99,1.40,-0.93,4.16,4.32,1.24,0.24,-1.13,-1.74,1005.91
13.472,-0.99,1.40,-0.93,4.16,4.32,1.24,0.24,-1.13,-1.74,1005.95
13.485,-1.06,1.03,-0.70,4.16,4.32,1.24,0.24,-1.13,-1.74,1005.95
13.486,-0.03,0.81,0.30,4.16,4.32,1.24,0.24,-1.13,-1.74,1005.95
13.486,0.01,0.93,0.23,4.16,4.32,1.24,0.24,-1.13,-1.74,1005.95
13.486,0.01,0.93,0.23,-2.49,3.28,-5.09,0.24,-1.13,-1.74,1005.95
13.487,0.01,0.93,0.23,-2.49,3.28,-5.09,0.41,0.17,-2.29,1005.95
13.543,-0.15,1.05,0.13,-2.49,3.28,-5.09,0.41,0.17,-2.29,1005.95
13.544,-0.15,1.09,0.02,-2.49,3.28,-5.09,0.41,0.17,-2.29,1005.95
13.544,0.10,1.01,0.01,-2.49,3.28,-5.09,0.41,0.17,-2.29,1005.95
13.544,0.10,1.01,0.01,-2.49,3.28,-5.09,0.33,-0.22,-1.18,1005.95
13.544,0.10,1.01,0.01,-1.31,-0.31,1.85,0.33,-0.22,-1.18,1005.95
13.552,0.10,1.01,0.01,-1.31,-0.31,1.85,0.33,-0.22,-1.18,1005.95
13.602,0.26,1.03,-0.03,-1.31,-0.31,1.85,0.33,-0.22,-1.18,1005.95
13.603,0.09,1.05,0.04,-1.31,-0.31,1.85,0.33,-0.22,-1.18,1005.95
13.604,-0.18,1.00,0.10,-1.31,-0.31,1.85,0.33,-0.22,-1.18,1005.95
13.604,-0.18,1.00,0.10,-1.31,-0.31,1.85,0.34,0.29,-1.01,1005.95
13.604,-0.18,1.00,0.10,0.52,0.75,-0.12,0.34,0.29,-1.01,1005.95
13.638,-0.18,1.00,0.10,0.52,0.75,-0.12,0.34,0.29,-1.01,1005.99
13.66,-0.17,0.99,0.10,0.52,0.75,-0.12,0.34,0.29,-1.01,1005.99
13.661,0.12,0.97,0.13,0.52,0.75,-0.12,0.34,0.29,-1.01,1005.99
13.662,0.28,0.96,0.12,0.52,0.75,-0.12,0.34,0.29,-1.01,1005.99
13.662,0.28,0.96,0.12,0.52,0.75,-0.12,0.46,-0.24,-0.87,1005.99
13.663,0.28,0.96,0.12,-0.57,0.47,0.88,0.46,-0.24,-0.87,1005.99
13.673,0.28,0.96,0.12,-0.57,0.47,0.88,0.46,-0.24,-0.87,1005.98
13.717,0.09,0.99,0.03,-0.57,0.47,0.88,0.46,-0.24,-0.87,1005.98
13.718,-0.15,1.01,-0.05,-0.57,0.47,0.88,0.46,-0.24,-0.87,1005.98
13.718,-0.17,1.00,-0.03,-0.57,0.47,0.88,0.46,-0.24,-0.87,1005.98
13.718,-0.17,1.00,-0.03,-0.57,0.47,0.88,0.61,0.26,-1.25,1005.98
13.718,-0.17,1.00,-0.03,2.52,0.15,1.31,0.61,0.26,-1.25,1005.98
13.753,-0.17,1.00,-0.03,2.52,0.15,1.31,0.61,0.26,-1.25,1005.98
13.776,-0.09,1.00,-0.00,2.52,0.15,1.31,0.61,0.26,-1.25,1005.98
13.777,-0.07,1.01,-0.01,2.52,0.15,1.31,0.61,0.26,-1.25,1005.98
13.778,-0.13,1.00,-0.07,2.52,0.15,1.31,0.61,0.26,-1.25,1005.98
13.778,-0.13,1.00,-0.07,2.52,0.15,1.31,0.66,0.22,-1.20,1005.98
13.779,-0.13,1.00,-0.07,0.23,0.54,0.51,0.66,0.22,-1.20,1005.98
13.837,-0.13,1.00,-0.07,0.23,0.54,0.51,0.66,0.22,-1.20,1005.97
13.838,-0.09,0.97,-0.09,0.23,0.54,0.51,0.66,0.22,-1.20,1005.97
13.839,-0.11,0.96,-0.10,0.23,0.54,0.51,0.66,0.22,-1.20,1005.97
13.84,-0.20,0.99,-0.10,0.23,0.54,0.51,0.66,0.22,-1.20,1005.97
13.841,-0.20,0.99,-0.10,0.23,0.54,0.51,0.69,0.28,-1.41,1005.97
13.842,-0.20,0.99,-0.10,1.33,0.61,0.63,0.69,0.28,-1.41,1005.97
13.873,-0.20,0.99,-0.10,1.33,0.61,0.63,0.69,0.28,-1.41,1005.99
13.892,-0.11,1.04,-0.06,1.33,0.61,0.63,0.69,0.28,-1.41,1005.99
13.893,-0.01,1.17,-0.07,1.33,0.61,0.63,0.69,0.28,-1.41,1005.99
13.894,-0.03,1.26,-0.10,1.33,0.61,0.63,0.69,0.28,-1.41,1005.99
13.894,-0.03,1.26,-0.10,1.81,0.99,0.78,0.69,0.28,-1.41,1005.99
13.894,-0.03,1.26,-0.10,1.81,0.99,0.78,0.92,-0.18,-1.71,1005.99
13.952,-0.07,1.23,-0.11,1.81,0.99,0.78,0.92,-0.18,-1.71,1005.99
13.954,0.00,1.37,-0.11,1.81,0.99,0.78,0.92,-0.18,-1.71,1005.99
13.954,0.35,1.81,0.18,1.81,0.99,0.78,0.92,-0.18,-1.71,1005.99
13.955,0.35,1.81,0.18,1.81,0.99,0.78,1.25,0.08,-2.25,1005.99
13.956,0.35,1.81,0.18,3.85,3.77,1.33,1.25,0.08,-2.25,1005.99
13.957,0.35,1.81,0.18,3.85,3.77,1.33,1.25,0.08,-2.25,1005.99
14.009,0.94,1.99,-0.01,3.85,3.77,1.33,1.25,0.08,-2.25,1005.99
14.01,1.15,1.88,-0.17,3.85,3.77,1.33,1.25,0.08,-2.25,1005.99
14.01,0.54,1.32,-0.20,3.85,3.77,1.33,1.25,0.08,-2.25,1005.99
14.011,0.54,1.32,-0.20,3.85,3.77,1.33,1.51,1.78,-2.86,1005.99
14.011,0.54,1.32,-0.20,9.28,9.53,3.55,1.51,1.78,-2.86,1005.99
14.033,0.54,1.32,-0.20,9.28,9.53,3.55,1.51,1.78,-2.86,1006.00
14.068,-0.69,0.85,-0.40,9.28,9.53,3.55,1.51,1.78,-2.86,1006.00
14.069,-1.44,1.03,-0.53,9.28,9.53,3.55,1.51,1.78,-2.86,1006.00
14.069,-1.31,1.08,-0.42,9.28,9.53,3.55,1.51,1.78,-2.86,1006.00
14.069,-1.31,1.08,-0.42,9.28,9.53,3.55,2.00,2.69,-3.37,1006.00
14.07,-1.31,1.08,-0.42,8.80,7.33,2.41,2.00,2.69,-3.37,1006.00
14.073,-1.31,1.08,-0.42,8.80,7.33,2.41,2.00,2.69,-3.37,1005.99
14.126,-0.93,0.54,-0.41,8.80,7.33,2.41,2.00,2.69,-3.37,1005.99
14.127,-0.74,0.27,-0.56,8.80,7.33,2.41,2.00,2.69,-3.37,1005.99
14.127,-0.46,0.23,-0.25,8.80,7.33,2.41,2.00,2.69,-3.37,1005.99
14.128,-0.46,0.23,-0.25,8.80,7.33,2.41,0.31,-0.49,-0.00,1005.99
14.128,-0.46,0.23,-0.25,-6.23,2.78,0.40,0.31,-0.49,-0.00,1005.99
14.154,-0.46,0.23,-0.25,-6.23,2.78,0.40,0.31,-0.49,-0.00,1005.92
14.185,-0.16,0.05,0.13,-6.23,2.78,0.40,0.31,-0.49,-0.00,1005.92
14.186,-0.06,-0.13,0.07,-6.23,2.78,0.40,0.31,-0.49,-0.00,1005.92
14.186,-0.15,-0.04,-0.09,-6.23,2.78,0.40,0.31,-0.49,-0.00,1005.92
14.186,-0.15,-0.04,-0.09,-6.23,2.78,0.40,-0.98,-1.79,2.85,1005.92
14.187,-0.15,-0.04,-0.09,0.69,-5.18,1.64,-0.98,-1.79,2.85,1005.92
14.233,-0.15,-0.04,-0.09,0.69,-5.18,1.64,-0.98,-1.79,2.85,1005.92
14.243,-0.28,0.12,-0.25,0.69,-5.18,1.64,-0.98,-1.79,2.85,1005.92
14.244,-0.40,0.27,-0.38,0.69,-5.18,1.64,-0.98,-1.79,2.85,1005.92
14.244,-0.59,0.40,-0.24,0.69,-5.18,1.64,-0.98,-1.79,2.85,1005.92
14.245,-0.59,0.40,-0.24,0.69,-5.18,1.64,-0.58,-1.66,4.91,1005.92
14.245,-0.59,0.40,-0.24,1.67,-8.28,2.32,-0.58,-1.66,4.91,1005.92
14.272,-0.59,0.40,-0.24,1.67,-8.28,2.32,-0.58,-1.66,4.91,1006.02
14.301,-0.67,0.46,-0.07,1.67,-8.28,2.32,-0.58,-1.66,4.91,1006.02
14.302,-0.72,0.73,-0.30,1.67,-8.28,2.32,-0.58,-1.66,4.91,1006.02
14.302,-0.75,1.30,-0.33,1.67,-8.28,2.32,-0.58,-1.66,4.91,1006.02
14.303,-0.75,1.30,-0.33,1.67,-8.28,2.32,-0.13,-5.21,7.08,1006.02
14.303,-0.75,1.30,-0.33,-4.81,-5.19,0.29,-0.13,-5.21,7.08,1006.02
14.359,-0.75,1.30,-0.33,-4.81,-5.19,0.29,-0.13,-5.21,7.08,1005.98
14.36,-0.76,1.53,-0.40,-4.81,-5.19,0.29,-0.13,-5.21,7.08,1005.98
14.36,-0.54,1.72,-0.35,-4.81,-5.19,0.29,-0.13,-5.21,7.08,1005.98
14.361,-0.28,1.84,-0.10,-4.81,-5.19,0.29,-0.13,-5.21,7.08,1005.98
14.361,-0.28,1.84,-0.10,-4.81,-5.19,0.29,0.62,-8.76,7.15,1005.98
14.362,-0.28,1.84,-0.10,-8.78,3.06,-0.16,0.62,-8.76,7.15,1005.98
14.418,-0.30,1.44,0.29,-8.78,3.06,-0.16,0.62,-8.76,7.15,1005.98
14.419,-0.17,0.94,0.57,-8.78,3.06,-0.16,0.62,-8.76,7.15,1005.98
14.42,0.03,0.51,0.50,-8.78,3.06,-0.16,0.62,-8.76,7.15,1005.98
14.42,0.03,0.51,0.50,-8.78,3.06,-0.16,-1.01,-7.25,2.59,1005.98
14.42,0.03,0.51,0.50,-4.93,7.69,2.81,-1.01,-7.25,2.59,1005.98
14.433,0.03,0.51,0.50,-4.93,7.69,2.81,-1.01,-7.25,2.59,1005.90
14.474,0.03,0.51,0.50,-4.93,7.69,2.81,-1.01,-7.25,2.59,1005.90
14.477,0.03,0.51,0.50,-3.53,-1.04,4.43,-1.01,-7.25,2.59,1005.90
14.477,-0.75,0.91,-0.67,-3.53,-1.04,4.43,-1.01,-7.25,2.59,1005.90
14.478,-0.88,1.25,1.07,-3.53,-1.04,4.43,-1.01,-7.25,2.59,1005.90
14.478,-0.22,0.86,0.23,-3.53,-1.04,4.43,-1.01,-7.25,2.59,1005.90
14.479,-0.22,0.86,0.23,-3.53,-1.04,4.43,-0.27,0.37,-1.24,1005.90
14.536,-0.22,0.86,0.23,-3.69,2.28,5.26,-0.27,0.37,-1.24,1005.90
14.537,0.06,1.30,-0.55,-3.69,2.28,5.26,-0.27,0.37,-1.24,1005.90
14.537,0.04,1.97,-0.94,-3.69,2.28,5.26,-0.27,0.37,-1.24,1005.90
14.538,0.07,1.45,-0.56,-3.69,2.28,5.26,-0.27,0.37,-1.24,1005.90
14.538,0.07,1.45,-0.56,-3.69,2.28,5.26,-0.42,-0.34,-0.44,1005.90
14.553,0.07,1.45,-0.56,-3.69,2.28,5.26,-0.42,-0.34,-0.44,1005.98
14.592,0.36,0.85,-0.32,-3.69,2.28,5.26,-0.42,-0.34,-0.44,1005.98
14.594,0.37,0.78,-0.09,-3.69,2.28,5.26,-0.42,-0.34,-0.44,1005.98
14.594,-0.09,0.99,0.09,-3.69,2.28,5.26,-0.42,-0.34,-0.44,1005.98
14.595,-0.09,0.99,0.09,-3.69,2.28,5.26,-0.49,-1.04,-0.21,1005.98
14.595,-0.09,0.99,0.09,1.50,4.88,-3.32,-0.49,-1.04,-0.21,1005.98
14.633,-0.09,0.99,0.09,1.50,4.88,-3.32,-0.49,-1.04,-0.21,1005.97
14.651,-0.34,1.01,-0.01,1.50,4.88,-3.32,-0.49,-1.04,-0.21,1005.97
14.653,-0.36,1.01,-0.18,1.50,4.88,-3.32,-0.49,-1.04,-0.21,1005.97
14.654,-0.21,1.00,-0.28,1.50,4.88,-3.32,-0.49,-1.04,-0.21,1005.97
14.655,-0.21,1.00,-0.28,1.50,4.88,-3.32,-0.12,-0.20,-0.10,1005.97
14.656,-0.21,1.00,-0.28,-0.16,0.04,2.49,-0.12,-0.20,-0.10,1005.97
14.672,-0.21,1.00,-0.28,-0.16,0.04,2.49,-0.12,-0.20,-0.10,1006.00
14.711,0.01,0.97,-0.31,-0.16,0.04,2.49,-0.12,-0.20,-0.10,1006.00
14.714,0.09,0.93,-0.25,-0.16,0.04,2.49,-0.12,-0.20,-0.10,1006.00
14.715,0.02,0.95,-0.25,-0.16,0.04,2.49,-0.12,-0.20,-0.10,1006.00
14.716,0.02,0.95,-0.25,-0.16,0.04,2.49,-0.07,-1.00,0.45,1006.00
14.717,0.02,0.95,-0.25,-1.85,0.67,-0.02,-0.07,-1.00,0.45,1006.00
14.755,0.02,0.95,-0.25,-1.85,0.67,-0.02,-0.07,-1.00,0.45,1005.98
14.779,0.02,0.95,-0.25,0.40,0.12,-0.15,-0.07,-1.00,0.45,1005.98
14.78,0.04,0.94,-0.30,0.40,0.12,-0.15,-0.07,-1.00,0.45,1005.98
14.781,0.08,0.95,-0.23,0.40,0.12,-0.15,-0.07,-1.00,0.45,1005.98
14.781,0.13,0.96,-0.17,0.40,0.12,-0.15,-0.07,-1.00,0.45,1005.98
14.782,0.13,0.96,-0.17,0.40,0.12,-0.15,-0.07,-0.83,0.35,1005.98
14.827,0.10,0.92,-0.17,0.40,0.12,-0.15,-0.07,-0.83,0.35,1005.98
14.828,0.10,0.96,-0.16,0.40,0.12,-0.15,-0.07,-0.83,0.35,1005.98
14.829,0.15,0.99,-0.18,0.40,0.12,-0.15,-0.07,-0.83,0.35,1005.98
14.829,0.15,0.99,-0.18,0.40,0.12,-0.15,0.18,-0.74,0.04,1005.98
14.829,0.15,0.99,-0.18,0.99,0.15,0.70,0.18,-0.74,0.04,1005.98
14.834,0.15,0.99,-0.18,0.99,0.15,0.70,0.18,-0.74,0.04,1005.97
14.886,0.15,0.99,-0.18,0.99,0.15,0.70,0.18,-0.74,0.04,1005.97
14.887,0.19,1.01,-0.07,0.99,0.15,0.70,0.18,-0.74,0.04,1005.97
14.896,0.21,0.97,-0.07,0.99,0.15,0.70,0.18,-0.74,0.04,1005.97
14.897,-0.05,0.92,-0.21,0.99,0.15,0.70,0.18,-0.74,0.04,1005.97
14.897,-0.05,0.92,-0.21,0.99,0.15,0.70,0.70,-0.58,-0.38,1005.97
14.898,-0.05,0.92,-0.21,1.69,0.70,1.56,0.70,-0.58,-0.38,1005.97
14.943,-0.30,0.93,-0.18,1.69,0.70,1.56,0.70,-0.58,-0.38,1005.97
14.944,-0.20,0.94,-0.19,1.69,0.70,1.56,0.70,-0.58,-0.38,1005.97
14.945,-0.12,0.93,-0.35,1.69,0.70,1.56,0.70,-0.58,-0.38,1005.97
14.945,-0.12,0.93,-0.35,1.69,0.70,1.56,1.17,-0.56,-0.36,1005.97
14.945,-0.12,0.93,-0.35,0.09,0.46,1.94,1.17,-0.56,-0.36,1005.97
14.954,-0.12,0.93,-0.35,0.09,0.46,1.94,1.17,-0.56,-0.36,1005.98
15.002,-0.19,0.97,-0.48,0.09,0.46,1.94,1.17,-0.56,-0.36,1005.98
15.003,-0.13,0.98,-0.51,0.09,0.46,1.94,1.17,-0.56,-0.36,1005.98
15.003,-0.06,1.05,-0.48,0.09,0.46,1.94,1.17,-0.56,-0.36,1005.98
15.003,-0.06,1.05,-0.48,-1.16,0.75,0.63,1.17,-0.56,-0.36,1005.98
15.004,-0.06,1.05,-0.48,-1.16,0.75,0.63,1.10,0.07,0.06,1005.98
15.033,-0.06,1.05,-0.48,-1.16,0.75,0.63,1.10,0.07,0.06,1006.01
15.06,-0.01,1.14,-0.48,-1.16,0.75,0.63,1.10,0.07,0.06,1006.01
15.061,0.09,1.20,-0.44,-1.16,0.75,0.63,1.10,0.07,0.06,1006.01
15.062,0.15,1.37,-0.22,-1.16,0.75,0.63,1.10,0.07,0.06,1006.01
15.063,0.15,1.37,-0.22,-1.16,0.75,0.63,1.36,-0.27,0.38,1006.01
15.064,0.15,1.37,-0.22,-0.25,2.13,-0.17,1.36,-0.27,0.38,1006.01
15.074,0.15,1.37,-0.22,-0.25,2.13,-0.17,1.36,-0.27,0.38,1006.02
15.117,0.35,1.64,0.08,-0.25,2.13,-0.17,1.36,-0.27,0.38,1006.02
15.118,0.73,1.67,0.28,-0.25,2.13,-0.17,1.36,-0.27,0.38,1006.02
15.118,0.57,1.58,0.26,-0.25,2.13,-0.17,1.36,-0.27,0.38,1006.02
15.118,0.57,1.58,0.26,-0.25,2.13,-0.17,2.36,-2.68,0.31,1006.02
15.119,0.57,1.58,0.26,2.91,6.10,3.65,2.36,-2.68,0.31,1006.02
15.154,0.57,1.58,0.26,2.91,6.10,3.65,2.36,-2.68,0.31,1005.98
15.177,-0.05,1.51,0.26,2.91,6.10,3.65,2.36,-2.68,0.31,1005.98
15.178,-0.65,1.47,0.16,2.91,6.10,3.65,2.36,-2.68,0.31,1005.98
15.179,-1.02,1.43,-0.10,2.91,6.10,3.65,2.36,-2.68,0.31,1005.98
15.179,-1.02,1.43,-0.10,2.91,6.10,3.65,2.41,-3.06,-0.93,1005.98
15.18,-1.02,1.43,-0.10,6.44,8.69,8.75,2.41,-3.06,-0.93,1005.98
15.233,-1.02,1.43,-0.10,6.44,8.69,8.75,2.41,-3.06,-0.93,1005.96
15.234,-0.93,1.26,-0.43,6.44,8.69,8.75,2.41,-3.06,-0.93,1005.96
15.235,-0.58,1.27,-0.56,6.44,8.69,8.75,2.41,-3.06,-0.93,1005.96
15.235,-0.16,1.04,-0.28,6.44,8.69,8.75,2.41,-3.06,-0.93,1005.96
15.236,-0.16,1.04,-0.28,6.44,8.69,8.75,1.88,-4.64,-0.27,1005.96
15.236,-0.16,1.04,-0.28,-4.34,7.30,4.66,1.88,-4.64,-0.27,1005.96
15.274,-0.16,1.04,-0.28,-4.34,7.30,4.66,1.88,-4.64,-0.27,1005.99
15.305,-0.16,1.04,-0.28,2.86,3.31,2.22,1.88,-4.64,-0.27,1005.99
15.306,0.04,0.72,0.12,2.86,3.31,2.22,1.88,-4.64,-0.27,1005.99
15.307,-0.17,0.63,0.29,2.86,3.31,2.22,1.88,-4.64,-0.27,1005.99
15.307,-0.37,0.65,0.15,2.86,3.31,2.22,1.88,-4.64,-0.27,1005.99
15.308,-0.37,0.65,0.15,2.86,3.31,2.22,0.41,-5.12,1.49,1005.99
15.356,-0.33,0.60,0.12,2.86,3.31,2.22,0.41,-5.12,1.49,1005.99
15.357,-0.24,0.54,0.12,2.86,3.31,2.22,0.41,-5.12,1.49,1005.99
15.363,-0.27,0.59,0.12,2.86,3.31,2.22,0.41,-5.12,1.49,1005.99
15.363,-0.27,0.59,0.12,2.86,3.31,2.22,0.02,-2.52,3.41,1005.99
15.364,-0.27,0.59,0.12,1.51,-1.42,5.57,0.02,-2.52,3.41,1005.99
15.364,-0.27,0.59,0.12,1.51,-1.42,5.57,0.02,-2.52,3.41,1005.95
15.41,-0.30,0.67,0.13,1.51,-1.42,5.57,0.02,-2.52,3.41,1005.95
15.411,-0.37,0.78,0.04,1.51,-1.42,5.57,0.02,-2.52,3.41,1005.95
15.411,-0.41,0.88,0.01,1.51,-1.42,5.57,0.02,-2.52,3.41,1005.95
15.411,-0.41,0.88,0.01,1.51,-1.42,5.57,-0.81,-0.32,5.07,1005.95
15.411,-0.41,0.88,0.01,-0.63,-2.73,4.38,-0.81,-0.32,5.07,1005.95
15.433,-0.41,0.88,0.01,-0.63,-2.73,4.38,-0.81,-0.32,5.07,1006.00
15.472,-0.45,1.02,-0.01,-0.63,-2.73,4.38,-0.81,-0.32,5.07,1006.00
15.473,-0.54,1.22,-0.07,-0.63,-2.73,4.38,-0.81,-0.32,5.07,1006.00
15.474,-0.61,1.48,-0.22,-0.63,-2.73,4.38,-0.81,-0.32,5.07,1006.00
15.474,-0.61,1.48,-0.22,-0.63,-2.73,4.38,-2.32,-0.75,5.87,1006.00
15.475,-0.61,1.48,-0.22,-4.87,-0.38,2.04,-2.32,-0.75,5.87,1006.00
15.475,-0.61,1.48,-0.22,-4.87,-0.38,2.04,-2.32,-0.75,5.87,1005.97
15.526,-0.65,1.71,-0.11,-4.87,-0.38,2.04,-2.32,-0.75,5.87,1005.97
15.528,-0.74,1.76,-0.00,-4.87,-0.38,2.04,-2.32,-0.75,5.87,1005.97
15.529,-0.81,1.52,0.12,-4.87,-0.38,2.04,-2.32,-0.75,5.87,1005.97
15.53,-0.81,1.52,0.12,-4.87,-0.38,2.04,-3.43,-1.56,5.75,1005.97
15.53,-0.81,1.52,0.12,-9.51,5.71,-0.93,-3.43,-1.56,5.75,1005.97
15.564,-0.81,1.52,0.12,-9.51,5.71,-0.93,-3.43,-1.56,5.75,1005.90
15.592,-0.56,1.16,0.05,-9.51,5.71,-0.93,-3.43,-1.56,5.75,1005.90
15.593,-0.63,1.11,-0.30,-9.51,5.71,-0.93,-3.43,-1.56,5.75,1005.90
15.593,-0.95,0.85,-0.46,-9.51,5.71,-0.93,-3.43,-1.56,5.75,1005.90
15.593,-0.95,0.85,-0.46,-11.39,6.26,-0.31,-3.43,-1.56,5.75,1005.90
15.594,-0.95,0.85,-0.46,-11.39,6.26,-0.31,-2.30,0.43,2.22,1005.90
15.632,-0.95,0.85,-0.46,-11.39,6.26,-0.31,-2.30,0.43,2.22,1005.88
15.643,-1.18,0.58,-0.48,-11.39,6.26,-0.31,-2.30,0.43,2.22,1005.88
15.644,-1.19,0.62,-0.74,-11.39,6.26,-0.31,-2.30,0.43,2.22,1005.88
15.644,-0.73,1.15,-1.26,-11.39,6.26,-0.31,-2.30,0.43,2.22,1005.88
15.645,-0.73,1.15,-1.26,-11.39,6.26,-0.31,-0.04,-0.31,-2.06,1005.88
15.645,-0.73,1.15,-1.26,-12.32,-0.38,-4.78,-0.04,-0.31,-2.06,1005.88
15.674,-0.73,1.15,-1.26,-12.32,-0.38,-4.78,-0.04,-0.31,-2.06,1005.89
15.713,1.39,1.73,-0.02,-12.32,-0.38,-4.78,-0.04,-0.31,-2.06,1005.89
15.714,3.09,1.99,-0.08,-12.32,-0.38,-4.78,-0.04,-0.31,-2.06,1005.89
15.715,0.52,2.03,-0.72,-12.32,-0.38,-4.78,-0.04,-0.31,-2.06,1005.89
15.715,0.52,2.03,-0.72,-4.45,2.48,-6.63,-0.04,-0.31,-2.06,1005.89
15.715,0.52,2.03,-0.72,-4.45,2.48,-6.63,-0.45,-4.63,-1.19,1005.89
15.756,0.52,2.03,-0.72,-4.45,2.48,-6.63,-0.45,-4.63,-1.19,1005.88
15.764,-1.19,1.09,-0.51,-4.45,2.48,-6.63,-0.45,-4.63,-1.19,1005.88
15.765,-0.10,0.19,0.74,-4.45,2.48,-6.63,-0.45,-4.63,-1.19,1005.88
15.765,-0.10,0.65,0.04,-4.45,2.48,-6.63,-0.45,-4.63,-1.19,1005.88
15.765,-0.10,0.65,0.04,-4.45,2.48,-6.63,0.46,0.26,-3.36,1005.88
15.765,-0.10,0.65,0.04,6.86,7.29,-4.02,0.46,0.26,-3.36,1005.88
15.818,-0.57,1.22,-0.04,6.86,7.29,-4.02,0.46,0.26,-3.36,1005.88
15.819,-0.53,1.22,-0.17,6.86,7.29,-4.02,0.46,0.26,-3.36,1005.88
15.82,-0.03,1.03,-0.14,6.86,7.29,-4.02,0.46,0.26,-3.36,1005.88
15.82,-0.03,1.03,-0.14,6.86,7.29,-4.02,0.33,0.11,-1.62,1005.88
15.821,-0.03,1.03,-0.14,-2.65,-2.69,2.84,0.33,0.11,-1.62,1005.88
15.833,-0.03,1.03,-0.14,-2.65,-2.69,2.84,0.33,0.11,-1.62,1005.91
15.873,-0.03,1.03,-0.14,-2.65,-2.69,2.84,0.33,0.11,-1.62,1005.93
15.878,0.22,1.08,-0.17,-2.65,-2.69,2.84,0.33,0.11,-1.62,1005.93
15.881,0.23,1.04,0.02,-2.65,-2.69,2.84,0.33,0.11,-1.62,1005.93
15.882,-0.12,0.97,0.12,-2.65,-2.69,2.84,0.33,0.11,-1.62,1005.93
15.883,-0.12,0.97,0.12,-2.65,-2.69,2.84,0.24,-0.31,-1.15,1005.93
15.884,-0.12,0.97,0.12,-0.56,1.46,-1.02,0.24,-0.31,-1.15,1005.93
15.935,-0.30,0.93,0.07,-0.56,1.46,-1.02,0.24,-0.31,-1.15,1005.93
15.935,-0.12,0.95,0.01,-0.56,1.46,-1.02,0.24,-0.31,-1.15,1005.93
15.936,-0.07,0.98,-0.03,-0.56,1.46,-1.02,0.24,-0.31,-1.15,1005.93
15.936,-0.07,0.98,-0.03,-0.56,1.46,-1.02,0.38,-0.01,-1.18,1005.93
15.937,-0.07,0.98,-0.03,0.55,0.24,1.40,0.38,-0.01,-1.18,1005.93
15.954,-0.07,0.98,-0.03,0.55,0.24,1.40,0.38,-0.01,-1.18,1005.96
15.993,-0.21,1.02,-0.06,0.55,0.24,1.40,0.38,-0.01,-1.18,1005.96
15.995,-0.20,1.05,-0.10,0.55,0.24,1.40,0.38,-0.01,-1.18,1005.96
15.995,-0.12,1.06,-0.12,0.55,0.24,1.40,0.38,-0.01,-1.18,1005.96
15.996,-0.12,1.06,-0.12,0.55,0.24,1.40,0.39,-0.24,-1.12,1005.96
15.997,-0.12,1.06,-0.12,0.47,0.38,0.68,0.39,-0.24,-1.12,1005.96
16.032,-0.12,1.06,-0.12,0.47,0.38,0.68,0.39,-0.24,-1.12,1005.97
16.051,-0.12,1.04,-0.13,0.47,0.38,0.68,0.39,-0.24,-1.12,1005.97
16.052,-0.16,0.99,-0.13,0.47,0.38,0.68,0.39,-0.24,-1.12,1005.97
16.053,-0.18,0.93,-0.13,0.47,0.38,0.68,0.39,-0.24,-1.12,1005.97
16.054,-0.18,0.93,-0.13,0.47,0.38,0.68,0.37,0.17,-1.20,1005.97
16.055,-0.18,0.93,-0.13,0.95,1.19,-0.00,0.37,0.17,-1.20,1005.97
16.081,-0.18,0.93,-0.13,0.95,1.19,-0.00,0.37,0.17,-1.20,1005.97
16.118,-0.22,0.92,-0.12,0.95,1.19,-0.00,0.37,0.17,-1.20,1005.97
16.119,-0.20,0.95,-0.08,0.95,1.19,-0.00,0.37,0.17,-1.20,1005.97
16.12,-0.16,1.03,-0.05,0.95,1.19,-0.00,0.37,0.17,-1.20,1005.97
16.12,-0.16,1.03,-0.05,0.95,1.19,-0.00,0.36,0.38,-1.41,1005.97
16.121,-0.16,1.03,-0.05,1.25,0.44,0.14,0.36,0.38,-1.41,1005.97
16.155,-0.16,1.03,-0.05,1.25,0.44,0.14,0.36,0.38,-1.41,1005.98
16.168,-0.14,1.12,-0.03,1.25,0.44,0.14,0.36,0.38,-1.41,1005.98
16.169,-0.15,1.16,-0.06,1.25,0.44,0.14,0.36,0.38,-1.41,1005.98
16.169,-0.08,1.17,-0.03,1.25,0.44,0.14,0.36,0.38,-1.41,1005.98
16.169,-0.08,1.17,-0.03,1.25,0.44,0.14,0.66,-0.03,-1.74,1005.98
16.17,-0.08,1.17,-0.03,2.31,1.65,1.17,0.66,-0.03,-1.74,1005.98
16.227,0.00,1.23,-0.06,2.31,1.65,1.17,0.66,-0.03,-1.74,1005.98
16.228,0.08,1.43,-0.06,2.31,1.65,1.17,0.66,-0.03,-1.74,1005.98
16.228,0.48,1.89,0.31,2.31,1.65,1.17,0.66,-0.03,-1.74,1005.98
16.228,0.48,1.89,0.31,2.31,1.65,1.17,0.94,0.84,-2.17,1005.98
16.229,0.48,1.89,0.31,4.06,3.80,1.83,0.94,0.84,-2.17,1005.98
16.234,0.48,1.89,0.31,4.06,3.80,1.83,0.94,0.84,-2.17,1005.98
16.279,0.48,1.89,0.31,4.06,3.80,1.83,0.94,0.84,-2.17,1005.97
16.33,0.48,1.89,0.31,11.11,10.48,4.77,0.94,0.84,-2.17,1005.97
16.331,1.19,2.01,0.11,11.11,10.48,4.77,0.94,0.84,-2.17,1005.97
16.332,0.97,1.49,-0.11,11.11,10.48,4.77,0.94,0.84,-2.17,1005.97
16.332,-0.21,1.05,-0.37,11.11,10.48,4.77,0.94,0.84,-2.17,1005.97
16.333,-0.21,1.05,-0.37,11.11,10.48,4.77,1.11,2.83,-2.96,1005.97
16.345,-0.21,1.05,-0.37,4.79,6.90,2.03,1.11,2.83,-2.96,1005.97
16.346,-1.02,1.29,-0.47,4.79,6.90,2.03,1.11,2.83,-2.96,1005.97
16.346,-0.98,1.43,-0.40,4.79,6.90,2.03,1.11,2.83,-2.96,1005.97
16.347,-0.68,0.97,-0.51,4.79,6.90,2.03,1.11,2.83,-2.96,1005.97
16.347,-0.68,0.97,-0.51,4.79,6.90,2.03,1.37,3.39,-3.32,1005.97
16.353,-0.68,0.97,-0.51,4.79,6.90,2.03,1.37,3.39,-3.32,1005.96
16.402,-0.66,0.62,-0.52,4.79,6.90,2.03,1.37,3.39,-3.32,1005.96
16.403,-0.59,0.44,-0.71,4.79,6.90,2.03,1.37,3.39,-3.32,1005.96
16.403,-0.35,0.39,-0.53,4.79,6.90,2.03,1.37,3.39,-3.32,1005.96
16.403,-0.35,0.39,-0.53,4.79,6.90,2.03,-0.75,0.90,-0.83,1005.96
16.404,-0.35,0.39,-0.53,-1.94,4.20,0.53,-0.75,0.90,-0.83,1005.96
16.434,-0.35,0.39,-0.53,-1.94,4.20,0.53,-0.75,0.90,-0.83,1005.90
16.461,-0.03,0.17,-0.28,-1.94,4.20,0.53,-0.75,0.90,-0.83,1005.90
16.461,0.08,0.11,-0.24,-1.94,4.20,0.53,-0.75,0.90,-0.83,1005.90
16.462,-0.00,0.30,-0.41,-1.94,4.20,0.53,-0.75,0.90,-0.83,1005.90
16.462,-0.00,0.30,-0.41,-1.94,4.20,0.53,-2.63,-0.79,2.17,1005.90
16.462,-0.00,0.30,-0.41,1.84,-3.72,-0.97,-2.63,-0.79,2.17,1005.90
16.475,-0.00,0.30,-0.41,1.84,-3.72,-0.97,-2.63,-0.79,2.17,1005.90
16.518,-0.06,0.50,-0.54,1.84,-3.72,-0.97,-2.63,-0.79,2.17,1005.90
16.519,-0.01,0.55,-0.42,1.84,-3.72,-0.97,-2.63,-0.79,2.17,1005.90
16.519,0.04,0.55,-0.40,1.84,-3.72,-0.97,-2.63,-0.79,2.17,1005.90
16.519,0.04,0.55,-0.40,1.84,-3.72,-0.97,-3.06,-0.64,4.06,1005.90
16.52,0.04,0.55,-0.40,3.27,-5.48,-1.42,-3.06,-0.64,4.06,1005.90
16.555,0.04,0.55,-0.40,3.27,-5.48,-1.42,-3.06,-0.64,4.06,1005.98
16.576,0.04,0.55,-0.40,0.40,-3.68,-2.86,-3.06,-0.64,4.06,1005.98
16.577,-0.00,0.60,-0.43,0.40,-3.68,-2.86,-3.06,-0.64,4.06,1005.98
16.577,-0.03,0.86,-0.40,0.40,-3.68,-2.86,-3.06,-0.64,4.06,1005.98
16.578,-0.03,1.22,-0.50,0.40,-3.68,-2.86,-3.06,-0.64,4.06,1005.98
16.578,-0.03,1.22,-0.50,0.40,-3.68,-2.86,-2.71,1.21,5.36,1005.98
16.632,-0.03,1.22,-0.50,0.40,-3.68,-2.86,-2.71,1.21,5.36,1006.00
16.634,-0.15,1.57,-0.46,0.40,-3.68,-2.86,-2.71,1.21,5.36,1006.00
16.635,-0.58,2.03,-0.64,0.40,-3.68,-2.86,-2.71,1.21,5.36,1006.00
16.635,-0.69,1.86,-0.68,0.40,-3.68,-2.86,-2.71,1.21,5.36,1006.00
16.636,-0.69,1.86,-0.68,0.40,-3.68,-2.86,-3.25,1.02,5.57,1006.00
16.636,-0.69,1.86,-0.68,-3.31,2.96,-4.99,-3.25,1.02,5.57,1006.00
16.681,-0.69,1.86,-0.68,-3.31,2.96,-4.99,-3.25,1.02,5.57,1005.95
16.692,-0.69,1.25,-0.29,-3.31,2.96,-4.99,-3.25,1.02,5.57,1005.95
16.693,-0.82,1.02,-0.20,-3.31,2.96,-4.99,-3.25,1.02,5.57,1005.95
16.694,-0.66,0.99,-0.37,-3.31,2.96,-4.99,-3.25,1.02,5.57,1005.95
16.694,-0.66,0.99,-0.37,-3.31,2.96,-4.99,-2.31,-0.39,3.68,1005.95
16.695,-0.66,0.99,-0.37,-10.73,8.59,-6.68,-2.31,-0.39,3.68,1005.95
16.751,-0.79,0.77,-0.38,-10.73,8.59,-6.68,-2.31,-0.39,3.68,1005.95
16.751,-0.92,0.63,-0.32,-10.73,8.59,-6.68,-2.31,-0.39,3.68,1005.95
16.752,-0.79,0.96,-0.46,-10.73,8.59,-6.68,-2.31,-0.39,3.68,1005.95
16.752,-0.79,0.96,-0.46,-10.73,8.59,-6.68,0.13,-0.94,-0.99,1005.95
16.752,-0.79,0.96,-0.46,-11.16,0.64,-4.18,0.13,-0.94,-0.99,1005.95
16.752,-0.79,0.96,-0.46,-11.16,0.64,-4.18,0.13,-0.94,-0.99,1005.91
16.81,0.41,1.73,0.29,-11.16,0.64,-4.18,0.13,-0.94,-0.99,1005.91
16.811,3.23,1.85,1.05,-11.16,0.64,-4.18,0.13,-0.94,-0.99,1005.91
16.811,1.22,1.54,-0.20,-11.16,0.64,-4.18,0.13,-0.94,-0.99,1005.91
16.811,1.22,1.54,-0.20,-11.16,0.64,-4.18,-0.17,-1.75,-1.31,1005.91
16.811,1.22,1.54,-0.20,-7.30,2.11,-2.38,-0.17,-1.75,-1.31,1005.91
16.833,1.22,1.54,-0.20,-7.30,2.11,-2.38,-0.17,-1.75,-1.31,1005.91
16.868,-1.05,1.20,-1.30,-7.30,2.11,-2.38,-0.17,-1.75,-1.31,1005.91
16.869,-0.99,0.91,-0.42,-7.30,2.11,-2.38,-0.17,-1.75,-1.31,1005.91
16.87,0.02,0.76,0.51,-7.30,2.11,-2.38,-0.17,-1.75,-1.31,1005.91
16.87,0.02,0.76,0.51,-7.30,2.11,-2.38,0.60,0.54,-3.27,1005.91
16.871,0.02,0.76,0.51,9.60,5.71,-1.95,0.60,0.54,-3.27,1005.91
16.876,0.02,0.76,0.51,9.60,5.71,-1.95,0.60,0.54,-3.27,1005.92
16.927,0.11,0.91,0.52,9.60,5.71,-1.95,0.60,0.54,-3.27,1005.92
16.928,0.02,0.98,0.20,9.60,5.71,-1.95,0.60,0.54,-3.27,1005.92
16.928,-0.27,1.00,-0.10,9.60,5.71,-1.95,0.60,0.54,-3.27,1005.92
16.929,-0.27,1.00,-0.10,9.60,5.71,-1.95,0.55,-0.57,-1.81,1005.92
16.929,-0.27,1.00,-0.10,-3.28,-0.95,1.81,0.55,-0.57,-1.81,1005.92
16.954,-0.27,1.00,-0.10,-3.28,-0.95,1.81,0.55,-0.57,-1.81,1005.93
16.985,-0.17,1.05,-0.14,-3.28,-0.95,1.81,0.55,-0.57,-1.81,1005.93
16.987,0.01,1.06,-0.10,-3.28,-0.95,1.81,0.55,-0.57,-1.81,1005.93
16.988,0.01,1.04,-0.05,-3.28,-0.95,1.81,0.55,-0.57,-1.81,1005.93
16.989,0.01,1.04,-0.05,-3.28,-0.95,1.81,0.47,0.24,-1.31,1005.93
16.99,0.01,1.04,-0.05,-1.08,0.53,-0.07,0.47,0.24,-1.31,1005.93
17.033,0.01,1.04,-0.05,-1.08,0.53,-0.07,0.47,0.24,-1.31,1005.98
17.041,-0.25,1.02,0.01,-1.08,0.53,-0.07,0.47,0.24,-1.31,1005.98
17.042,-0.37,1.00,-0.00,-1.08,0.53,-0.07,0.47,0.24,-1.31,1005.98
17.042,-0.14,0.97,-0.00,-1.08,0.53,-0.07,0.47,0.24,-1.31,1005.98
17.043,-0.14,0.97,-0.00,-1.08,0.53,-0.07,0.38,-0.18,-0.96,1005.98
17.043,-0.14,0.97,-0.00,0.04,0.82,-0.17,0.38,-0.18,-0.96,1005.98
17.082,-0.14,0.97,-0.00,0.04,0.82,-0.17,0.38,-0.18,-0.96,1005.99
17.112,0.12,0.98,-0.01,0.04,0.82,-0.17,0.38,-0.18,-0.96,1005.99
17.113,0.08,1.02,-0.00,0.04,0.82,-0.17,0.38,-0.18,-0.96,1005.99
17.113,-0.11,1.01,0.00,0.04,0.82,-0.17,0.38,-0.18,-0.96,1005.99
17.113,-0.11,1.01,0.00,0.04,0.82,-0.17,0.35,0.16,-0.81,1005.99
17.114,-0.11,1.01,0.00,-0.03,0.30,0.41,0.35,0.16,-0.81,1005.99
17.153,-0.11,1.01,0.00,-0.03,0.30,0.41,0.35,0.16,-0.81,1005.99
17.16,-0.11,1.01,0.00,1.12,0.71,0.65,0.35,0.16,-0.81,1005.99
17.161,-0.17,1.01,-0.02,1.12,0.71,0.65,0.35,0.16,-0.81,1005.99
17.161,-0.19,1.00,-0.05,1.12,0.71,0.65,0.35,0.16,-0.81,1005.99
17.162,-0.13,0.98,-0.05,1.12,0.71,0.65,0.35,0.16,-0.81,1005.99
17.162,-0.13,0.98,-0.05,1.12,0.71,0.65,0.44,0.17,-0.99,1005.99
17.219,-0.05,0.97,-0.06,1.12,0.71,0.65,0.44,0.17,-0.99,1005.99
17.22,-0.07,0.99,-0.09,1.12,0.71,0.65,0.44,0.17,-0.99,1005.99
17.221,-0.14,0.98,-0.08,1.12,0.71,0.65,0.44,0.17,-0.99,1005.99
17.221,-0.14,0.98,-0.08,1.12,0.60,0.49,0.44,0.17,-0.99,1005.99
17.221,-0.14,0.98,-0.08,1.12,0.60,0.49,0.49,0.31,-1.14,1005.99
17.233,-0.14,0.98,-0.08,1.12,0.60,0.49,0.49,0.31,-1.14,1005.97
17.277,-0.14,0.98,-0.08,1.12,0.60,0.49,0.49,0.31,-1.14,1005.97
17.278,-0.17,1.00,-0.07,1.12,0.60,0.49,0.49,0.31,-1.14,1005.97
17.278,-0.24,1.05,-0.09,1.12,0.60,0.49,0.49,0.31,-1.14,1005.97
17.279,-0.22,1.13,-0.12,1.12,0.60,0.49,0.49,0.31,-1.14,1005.97
17.279,-0.22,1.13,-0.12,1.12,0.60,0.49,0.62,0.29,-1.43,1005.97
17.28,-0.22,1.13,-0.12,1.78,0.86,0.61,0.62,0.29,-1.43,1005.97
17.335,-0.08,1.17,-0.10,1.78,0.86,0.61,0.62,0.29,-1.43,1005.97
17.336,0.06,1.21,-0.02,1.78,0.86,0.61,0.62,0.29,-1.43,1005.97
17.337,0.11,1.24,-0.07,1.78,0.86,0.61,0.62,0.29,-1.43,1005.97
17.34,0.11,1.24,-0.07,2.09,2.52,0.87,0.62,0.29,-1.43,1005.97
17.341,0.11,1.24,-0.07,2.09,2.52,0.87,0.94,0.18,-1.75,1005.97
17.353,0.11,1.24,-0.07,2.09,2.52,0.87,0.94,0.18,-1.75,1005.98
17.392,0.03,1.34,-0.16,2.09,2.52,0.87,0.94,0.18,-1.75,1005.98
17.393,0.22,1.62,-0.17,2.09,2.52,0.87,0.94,0.18,-1.75,1005.98
17.393,0.76,1.84,-0.14,2.09,2.52,0.87,0.94,0.18,-1.75,1005.98
17.394,0.76,1.84,-0.14,2.09,2.52,0.87,1.22,1.18,-2.37,1005.98
17.394,0.76,1.84,-0.14,5.35,4.64,1.88,1.22,1.18,-2.37,1005.98
17.434,0.76,1.84,-0.14,5.35,4.64,1.88,1.22,1.18,-2.37,1005.99
17.452,1.01,1.67,-0.15,5.35,4.64,1.88,1.22,1.18,-2.37,1005.99
17.452,0.14,1.04,-0.13,5.35,4.64,1.88,1.22,1.18,-2.37,1005.99
17.453,-1.03,0.93,-0.35,5.35,4.64,1.88,1.22,1.18,-2.37,1005.99
17.453,-1.03,0.93,-0.35,5.35,4.64,1.88,1.48,2.73,-3.02,1005.99
17.454,-1.03,0.93,-0.35,11.72,10.04,2.57,1.48,2.73,-3.02,1005.99
17.483,-1.03,0.93,-0.35,11.72,10.04,2.57,1.48,2.73,-3.02,1005.98
17.516,-1.52,1.35,-0.45,11.72,10.04,2.57,1.48,2.73,-3.02,1005.98
17.517,-1.21,1.12,-0.32,11.72,10.04,2.57,1.48,2.73,-3.02,1005.98
17.517,-0.92,0.59,-0.34,11.72,10.04,2.57,1.48,2.73,-3.02,1005.98
17.517,-0.92,0.59,-0.34,11.72,10.04,2.57,1.75,0.63,-1.94,1005.98
17.518,-0.92,0.59,-0.34,-2.08,5.14,1.85,1.75,0.63,-1.94,1005.98
17.553,-0.92,0.59,-0.34,-2.08,5.14,1.85,1.75,0.63,-1.94,1005.94
17.567,-0.73,0.45,-0.37,-2.08,5.14,1.85,1.75,0.63,-1.94,1005.94
17.568,-0.42,0.35,-0.11,-2.08,5.14,1.85,1.75,0.63,-1.94,1005.94
17.568,-0.12,0.06,0.31,-2.08,5.14,1.85,1.75,0.63,-1.94,1005.94
17.569,-0.12,0.06,0.31,-3.43,0.80,0.81,1.75,0.63,-1.94,1005.94
17.569,-0.12,0.06,0.31,-3.43,0.80,0.81,-0.22,-1.90,1.38,1005.94
17.627,-0.02,-0.11,0.16,-3.43,0.80,0.81,-0.22,-1.90,1.38,1005.94
17.628,-0.21,0.05,-0.05,-3.43,0.80,0.81,-0.22,-1.90,1.38,1005.94
17.628,-0.31,0.27,-0.23,-3.43,0.80,0.81,-0.22,-1.90,1.38,1005.94
17.628,-0.31,0.27,-0.23,-3.43,0.80,0.81,0.16,-1.43,3.78,1005.94
17.628,-0.31,0.27,-0.23,2.82,-6.30,4.87,0.16,-1.43,3.78,1005.94
17.632,-0.31,0.27,-0.23,2.82,-6.30,4.87,0.16,-1.43,3.78,1005.90
17.677,-0.31,0.27,-0.23,2.82,-6.30,4.87,0.16,-1.43,3.78,1006.02
17.684,-0.33,0.40,-0.24,2.82,-6.30,4.87,0.16,-1.43,3.78,1006.02
17.685,-0.54,0.53,-0.09,2.82,-6.30,4.87,0.16,-1.43,3.78,1006.02
17.685,-0.72,0.69,-0.16,2.82,-6.30,4.87,0.16,-1.43,3.78,1006.02
17.685,-0.72,0.69,-0.16,2.82,-6.30,4.87,0.12,-2.04,5.73,1006.02
17.686,-0.72,0.69,-0.16,-0.36,-6.03,1.58,0.12,-2.04,5.73,1006.02
17.744,-0.80,0.90,-0.22,-0.36,-6.03,1.58,0.12,-2.04,5.73,1006.02
17.745,-0.79,1.18,-0.22,-0.36,-6.03,1.58,0.12,-2.04,5.73,1006.02
17.746,-0.61,1.33,-0.35,-0.36,-6.03,1.58,0.12,-2.04,5.73,1006.02
17.746,-0.61,1.33,-0.35,-0.36,-6.03,1.58,0.17,-6.27,7.22,1006.02
17.746,-0.61,1.33,-0.35,-6.70,-1.88,1.40,0.17,-6.27,7.22,1006.02
17.756,-0.61,1.33,-0.35,-6.70,-1.88,1.40,0.17,-6.27,7.22,1006.03
17.8,-0.27,1.52,-0.25,-6.70,-1.88,1.40,0.17,-6.27,7.22,1006.03
17.801,-0.01,1.72,-0.03,-6.70,-1.88,1.40,0.17,-6.27,7.22,1006.03
17.801,0.06,1.55,0.29,-6.70,-1.88,1.40,0.17,-6.27,7.22,1006.03
17.802,0.06,1.55,0.29,-6.70,-1.88,1.40,0.43,-9.14,6.29,1006.03
17.802,0.06,1.55,0.29,-6.76,4.68,0.94,0.43,-9.14,6.29,1006.03
17.835,0.06,1.55,0.29,-6.76,4.68,0.94,0.43,-9.14,6.29,1005.94
17.86,-0.13,1.27,0.44,-6.76,4.68,0.94,0.43,-9.14,6.29,1005.94
17.862,-0.30,0.96,0.50,-6.76,4.68,0.94,0.43,-9.14,6.29,1005.94
17.864,-0.46,0.82,0.16,-6.76,4.68,0.94,0.43,-9.14,6.29,1005.94
17.864,-0.46,0.82,0.16,-1.74,6.27,5.80,0.43,-9.14,6.29,1005.94
17.865,-0.46,0.82,0.16,-1.74,6.27,5.80,-0.80,-4.33,2.27,1005.94
17.874,-0.46,0.82,0.16,-1.74,6.27,5.80,-0.80,-4.33,2.27,1005.90
17.923,-0.51,0.83,0.20,-1.74,6.27,5.80,-0.80,-4.33,2.27,1005.90
17.924,-0.76,0.82,0.01,-1.74,6.27,5.80,-0.80,-4.33,2.27,1005.90
17.925,-1.01,1.10,-0.48,-1.74,6.27,5.80,-0.80,-4.33,2.27,1005.90
17.925,-1.01,1.10,-0.48,-1.74,6.27,5.80,-0.31,-0.18,-0.36,1005.90
17.926,-1.01,1.10,-0.48,-5.32,-0.11,6.05,-0.31,-0.18,-0.36,1005.90
17.954,-1.01,1.10,-0.48,-5.32,-0.11,6.05,-0.31,-0.18,-0.36,1005.94
17.976,-0.79,1.28,0.00,-5.32,-0.11,6.05,-0.31,-0.18,-0.36,1005.94
17.977,0.24,1.46,-0.50,-5.32,-0.11,6.05,-0.31,-0.18,-0.36,1005.94
17.978,0.89,1.83,-0.57,-5.32,-0.11,6.05,-0.31,-0.18,-0.36,1005.94
17.978,0.89,1.83,-0.57,-5.32,-0.11,6.05,-0.72,-0.16,-0.58,1005.94
17.978,0.89,1.83,-0.57,-9.06,1.62,1.33,-0.72,-0.16,-0.58,1005.94
18.035,0.89,1.83,-0.57,-9.06,1.62,1.33,-0.72,-0.16,-0.58,1005.96
18.036,0.45,1.17,-0.54,-9.06,1.62,1.33,-0.72,-0.16,-0.58,1005.96
18.036,0.24,0.69,-0.12,-9.06,1.62,1.33,-0.72,-0.16,-0.58,1005.96
18.036,0.05,0.86,-0.01,-9.06,1.62,1.33,-0.72,-0.16,-0.58,1005.96
18.036,0.05,0.86,-0.01,4.93,5.56,-2.58,-0.72,-0.16,-0.58,1005.96
18.036,0.05,0.86,-0.01,4.93,5.56,-2.58,-0.51,-1.31,-0.59,1005.96
18.075,0.05,0.86,-0.01,4.93,5.56,-2.58,-0.51,-1.31,-0.59,1005.93
18.092,-0.23,1.04,-0.01,4.93,5.56,-2.58,-0.51,-1.31,-0.59,1005.93
18.094,-0.28,1.00,-0.15,4.93,5.56,-2.58,-0.51,-1.31,-0.59,1005.93
18.094,-0.17,0.98,-0.25,4.93,5.56,-2.58,-0.51,-1.31,-0.59,1005.93
18.094,-0.17,0.98,-0.25,4.93,5.56,-2.58,-0.14,-0.08,-0.49,1005.93
18.095,-0.17,0.98,-0.25,0.22,-0.58,2.12,-0.14,-0.08,-0.49,1005.93
18.151,-0.06,0.97,-0.32,0.22,-0.58,2.12,-0.14,-0.08,-0.49,1005.93
18.152,-0.13,0.95,-0.34,0.22,-0.58,2.12,-0.14,-0.08,-0.49,1005.93
18.153,-0.13,0.96,-0.31,0.22,-0.58,2.12,-0.14,-0.08,-0.49,1005.93
18.153,-0.13,0.96,-0.31,0.22,-0.58,2.12,0.01,-0.58,0.06,1005.93
18.154,-0.13,0.96,-0.31,-1.57,0.57,0.23,0.01,-0.58,0.06,1005.93
18.154,-0.13,0.96,-0.31,-1.57,0.57,0.23,0.01,-0.58,0.06,1005.99
18.209,-0.02,0.97,-0.27,-1.57,0.57,0.23,0.01,-0.58,0.06,1005.99
18.21,0.10,0.96,-0.22,-1.57,0.57,0.23,0.01,-0.58,0.06,1005.99
18.21,0.13,0.94,-0.18,-1.57,0.57,0.23,0.01,-0.58,0.06,1005.99
18.211,0.13,0.94,-0.18,-0.89,0.35,-0.43,0.01,-0.58,0.06,1005.99
18.211,0.13,0.94,-0.18,-0.89,0.35,-0.43,-0.02,-0.55,0.32,1005.99
18.236,0.13,0.94,-0.18,-0.89,0.35,-0.43,-0.02,-0.55,0.32,1005.98
18.268,0.02,0.97,-0.20,-0.89,0.35,-0.43,-0.02,-0.55,0.32,1005.98
18.269,0.04,0.98,-0.18,-0.89,0.35,-0.43,-0.02,-0.55,0.32,1005.98
18.269,0.17,0.94,-0.20,-0.89,0.35,-0.43,-0.02,-0.55,0.32,1005.98
18.269,0.17,0.94,-0.20,-0.89,0.35,-0.43,0.21,-0.52,0.11,1005.98
18.27,0.17,0.94,-0.20,0.88,0.35,0.68,0.21,-0.52,0.11,1005.98
18.273,0.17,0.94,-0.20,0.88,0.35,0.68,0.21,-0.52,0.11,1005.97
18.325,0.07,0.93,-0.27,0.88,0.35,0.68,0.21,-0.52,0.11,1005.97
18.326,-0.18,1.01,-0.22,0.88,0.35,0.68,0.21,-0.52,0.11,1005.97
18.327,-0.08,0.97,-0.23,0.88,0.35,0.68,0.21,-0.52,0.11,1005.97
18.327,-0.08,0.97,-0.23,0.88,0.35,0.68,0.52,-0.77,-0.02,1005.97
18.328,-0.08,0.97,-0.23,1.06,0.36,0.81,0.52,-0.77,-0.02,1005.97
18.354,-0.08,0.97,-0.23,1.06,0.36,0.81,0.52,-0.77,-0.02,1005.97
18.385,-0.08,0.97,-0.23,-0.30,0.61,1.00,0.52,-0.77,-0.02,1005.97
18.386,0.09,0.91,-0.27,-0.30,0.61,1.00,0.52,-0.77,-0.02,1005.97
18.386,0.07,1.02,-0.32,-0.30,0.61,1.00,0.52,-0.77,-0.02,1005.97
18.386,0.00,1.05,-0.27,-0.30,0.61,1.00,0.52,-0.77,-0.02,1005.97
18.387,0.00,1.05,-0.27,-0.30,0.61,1.00,0.85,-0.63,0.08,1005.97
18.435,0.00,1.05,-0.27,-0.30,0.61,1.00,0.85,-0.63,0.08,1005.98
18.443,-0.05,1.01,-0.29,-0.30,0.61,1.00,0.85,-0.63,0.08,1005.98
18.444,-0.11,1.03,-0.31,-0.30,0.61,1.00,0.85,-0.63,0.08,1005.98
18.444,0.05,1.07,-0.30,-0.30,0.61,1.00,0.85,-0.63,0.08,1005.98
18.445,0.05,1.07,-0.30,-0.30,0.61,1.00,1.04,0.01,0.13,1005.98
18.445,0.05,1.07,-0.30,0.24,1.45,0.95,1.04,0.01,0.13,1005.98
18.487,0.05,1.07,-0.30,0.24,1.45,0.95,1.04,0.01,0.13,1005.99
18.51,0.21,1.15,-0.29,0.24,1.45,0.95,1.04,0.01,0.13,1005.99
18.51,0.20,1.32,-0.18,0.24,1.45,0.95,1.04,0.01,0.13,1005.99
18.511,0.27,1.53,0.05,0.24,1.45,0.95,1.04,0.01,0.13,1005.99
18.511,0.27,1.53,0.05,0.24,1.45,0.95,1.66,-0.94,0.32,1005.99
18.511,0.27,1.53,0.05,0.74,2.37,1.68,1.66,-0.94,0.32,1005.99
18.553,0.27,1.53,0.05,0.74,2.37,1.68,1.66,-0.94,0.32,1005.96
18.559,0.37,1.57,0.20,0.74,2.37,1.68,1.66,-0.94,0.32,1005.96
18.56,0.04,1.43,0.29,0.74,2.37,1.68,1.66,-0.94,0.32,1005.96
18.56,-0.42,1.33,0.50,0.74,2.37,1.68,1.66,-0.94,0.32,1005.96
18.561,-0.42,1.33,0.50,0.74,2.37,1.68,2.31,-2.05,0.13,1005.96
18.561,-0.42,1.33,0.50,3.47,6.78,5.76,2.31,-2.05,0.13,1005.96
18.617,-0.81,1.30,0.18,3.47,6.78,5.76,2.31,-2.05,0.13,1005.96
18.619,-1.17,1.44,-0.15,3.47,6.78,5.76,2.31,-2.05,0.13,1005.96
18.619,-0.91,1.36,-0.44,3.47,6.78,5.76,2.31,-2.05,0.13,1005.96
18.62,-0.91,1.36,-0.44,3.47,6.78,5.76,2.29,-3.97,-0.42,1005.96
18.62,-0.91,1.36,-0.44,-1.57,6.32,9.16,2.29,-3.97,-0.42,1005.96
18.634,-0.91,1.36,-0.44,-1.57,6.32,9.16,2.29,-3.97,-0.42,1005.96
18.674,-0.91,1.36,-0.44,-1.57,6.32,9.16,2.29,-3.97,-0.42,1005.97
18.677,-0.47,1.37,-0.61,-1.57,6.32,9.16,2.29,-3.97,-0.42,1005.97
18.678,-0.11,1.16,-0.23,-1.57,6.32,9.16,2.29,-3.97,-0.42,1005.97
18.678,-0.05,0.81,0.08,-1.57,6.32,9.16,2.29,-3.97,-0.42,1005.97
18.678,-0.05,0.81,0.08,-4.17,6.89,1.47,2.29,-3.97,-0.42,1005.97
18.679,-0.05,0.81,0.08,-4.17,6.89,1.47,1.34,-5.94,0.57,1005.97
18.734,-0.02,0.63,0.08,-4.17,6.89,1.47,1.34,-5.94,0.57,1005.97
18.734,-0.08,0.63,0.10,-4.17,6.89,1.47,1.34,-5.94,0.57,1005.97
