
time,gFx,gFy,gFz,ax,ay,az,wx,wy,wz,
0.059645,0.0000,0.0000,0.0000,-0.0453,0.0192,0.0609,0.0000,0.0000,0.0000,
0.060314,0.0474,0.9745,0.1917,-0.0453,0.0192,0.0609,0.0000,0.0000,0.0000,
0.060667,0.0474,0.9745,0.1917,-0.0453,0.0192,0.0609,0.0000,0.0000,0.0000,
0.060907,0.0474,0.9745,0.1917,-0.0453,0.0192,0.0609,0.0000,0.0000,0.0000,
0.061148,0.0474,0.9745,0.1917,-0.0453,0.0192,0.0609,-0.1106,0.2608,0.0265,
0.118813,0.0474,0.9745,0.1917,-0.1084,-0.0215,-0.2108,-0.1106,0.2608,0.0265,
0.119951,0.0671,0.9334,0.1069,-0.1084,-0.0215,-0.2108,-0.1106,0.2608,0.0265,
0.120681,0.0364,0.9715,0.1416,-0.1084,-0.0215,-0.2108,-0.1106,0.2608,0.0265,
0.121357,-0.0090,1.0086,0.1819,-0.1084,-0.0215,-0.2108,-0.1106,0.2608,0.0265,
0.121965,-0.0090,1.0086,0.1819,-0.1084,-0.0215,-0.2108,0.1598,-0.2113,-0.1077,
0.176238,-0.0168,1.0074,0.1590,-0.1084,-0.0215,-0.2108,0.1598,-0.2113,-0.1077,
0.177108,-0.0129,0.9642,0.1218,-0.1084,-0.0215,-0.2108,0.1598,-0.2113,-0.1077,
0.177697,-0.0042,0.9388,0.1008,-0.1084,-0.0215,-0.2108,0.1598,-0.2113,-0.1077,
0.178270,-0.0042,0.9388,0.1008,-0.1084,-0.0215,-0.2108,0.1496,0.0242,-0.0378,
0.178775,-0.0042,0.9388,0.1008,-0.3786,-0.0349,-0.2157,0.1496,0.0242,-0.0378,
0.234875,-0.0042,0.9388,0.1008,-0.0474,0.2985,-0.0122,0.1496,0.0242,-0.0378,
0.235735,0.0049,0.9745,0.1128,-0.0474,0.2985,-0.0122,0.1496,0.0242,-0.0378,
0.236228,0.0181,1.0279,0.1504,-0.0474,0.2985,-0.0122,0.1496,0.0242,-0.0378,
0.236765,0.0439,1.0340,0.1721,-0.0474,0.2985,-0.0122,0.1496,0.0242,-0.0378,
0.237240,0.0439,1.0340,0.1721,-0.0474,0.2985,-0.0122,0.0472,0.0888,0.0316,
0.292622,0.0808,1.0404,0.1580,-0.0474,0.2985,-0.0122,0.0472,0.0888,0.0316,
0.293489,0.0994,1.0304,0.1631,-0.0474,0.2985,-0.0122,0.0472,0.0888,0.0316,
0.294107,0.0850,0.9950,0.2129,-0.0474,0.2985,-0.0122,0.0472,0.0888,0.0316,
0.294677,0.0850,0.9950,0.2129,0.4942,0.3223,0.3023,0.0472,0.0888,0.0316,
0.295316,0.0850,0.9950,0.2129,0.4942,0.3223,0.3023,0.0973,0.1240,0.0310,
0.351592,0.0674,0.9569,0.2395,0.4942,0.3223,0.3023,0.0973,0.1240,0.0310,
0.352492,0.0625,0.9210,0.2224,0.4942,0.3223,0.3023,0.0973,0.1240,0.0310,
0.353046,0.0999,0.9491,0.1746,0.4942,0.3223,0.3023,0.0973,0.1240,0.0310,
0.353587,0.0999,0.9491,0.1746,0.4942,0.3223,0.3023,0.2066,0.1953,-0.0818,
0.354078,0.0999,0.9491,0.1746,0.3777,-0.4081,0.6431,0.2066,0.1953,-0.0818,
0.409864,0.0999,0.9491,0.1746,0.9771,0.1633,0.0812,0.2066,0.1953,-0.0818,
0.410775,0.1428,1.0238,0.1399,0.9771,0.1633,0.0812,0.2066,0.1953,-0.0818,
0.411410,0.1568,1.0292,0.1328,0.9771,0.1633,0.0812,0.2066,0.1953,-0.0818,
0.411958,0.1091,0.9676,0.1211,0.9771,0.1633,0.0812,0.2066,0.1953,-0.0818,
0.412374,0.1091,0.9676,0.1211,0.9771,0.1633,0.0812,0.4390,0.2731,-0.2366,
0.467646,-0.0186,0.9630,0.1109,0.9771,0.1633,0.0812,0.4390,0.2731,-0.2366,
0.468914,-0.1414,0.9669,0.1653,0.9771,0.1633,0.0812,0.4390,0.2731,-0.2366,
0.470087,-0.1834,1.0223,0.0940,0.9771,0.1633,0.0812,0.4390,0.2731,-0.2366,
0.470773,-0.1834,1.0223,0.0940,0.9771,0.1633,0.0812,0.5880,0.2633,-0.4217,
0.471308,-0.1834,1.0223,0.0940,-1.0882,-0.0901,0.2966,0.5880,0.2633,-0.4217,
0.525593,-0.0403,1.0443,0.1287,-1.0882,-0.0901,0.2966,0.5880,0.2633,-0.4217,
0.526361,0.0098,1.0133,0.1221,-1.0882,-0.0901,0.2966,0.5880,0.2633,-0.4217,
0.527060,-0.0442,0.9762,0.1033,-1.0882,-0.0901,0.2966,0.5880,0.2633,-0.4217,
0.527471,-0.0442,0.9762,0.1033,-1.0882,-0.0901,0.2966,0.6797,-0.0061,-0.1503,
0.528018,-0.0442,0.9762,0.1033,-0.1126,0.1336,0.5674,0.6797,-0.0061,-0.1503,
0.584206,-0.1238,0.9522,0.0757,-0.1126,0.1336,0.5674,0.6797,-0.0061,-0.1503,
0.585542,-0.1555,0.9815,-0.0298,-0.1126,0.1336,0.5674,0.6797,-0.0061,-0.1503,
0.586326,-0.0835,1.0333,-0.0711,-0.1126,0.1336,0.5674,0.6797,-0.0061,-0.1503,
0.587654,-0.0835,1.0333,-0.0711,-0.1126,0.1336,0.5674,0.9900,-0.0580,-0.0859,
0.588330,-0.0835,1.0333,-0.0711,-0.9143,-0.0919,-0.0967,0.9900,-0.0580,-0.0859,
0.643101,0.0142,1.0524,0.0278,-0.9143,-0.0919,-0.0967,0.9900,-0.0580,-0.0859,
0.644258,0.0259,1.0206,0.1443,-0.9143,-0.0919,-0.0967,0.9900,-0.0580,-0.0859,
0.645035,0.0110,1.0336,0.1917,-0.9143,-0.0919,-0.0967,0.9900,-0.0580,-0.0859,
0.645582,0.0110,1.0336,0.1917,-0.9143,-0.0919,-0.0967,1.1152,-0.4137,0.0994,
0.646196,0.0110,1.0336,0.1917,0.3568,0.3499,1.6535,1.1152,-0.4137,0.0994,
0.700796,0.0205,1.1178,0.1172,0.3568,0.3499,1.6535,1.1152,-0.4137,0.0994,
0.701898,-0.0469,1.2455,0.0659,0.3568,0.3499,1.6535,1.1152,-0.4137,0.0994,
0.702718,-0.0483,1.2391,0.1494,0.3568,0.3499,1.6535,1.1152,-0.4137,0.0994,
0.703541,-0.0483,1.2391,0.1494,0.3568,0.3499,1.6535,1.7322,-0.6915,0.0906,
0.704245,-0.0483,1.2391,0.1494,-0.0618,1.9065,2.3354,1.7322,-0.6915,0.0906,
0.759057,-0.1318,1.2450,0.1616,-0.0618,1.9065,2.3354,1.7322,-0.6915,0.0906,
0.760149,-0.2823,1.3690,0.0928,-0.0618,1.9065,2.3354,1.7322,-0.6915,0.0906,
0.760706,-0.2664,1.5903,0.0444,-0.0618,1.9065,2.3354,1.7322,-0.6915,0.0906,
0.761237,-0.2664,1.5903,0.0444,-0.0618,1.9065,2.3354,1.8020,-1.3264,0.0788,
0.761756,-0.2664,1.5903,0.0444,-1.8078,3.7666,3.0048,1.8020,-1.3264,0.0788,
0.817708,-0.0164,1.5317,-0.0564,-1.8078,3.7666,3.0048,1.8020,-1.3264,0.0788,
0.819225,0.1919,1.3007,-0.1052,-1.8078,3.7666,3.0048,1.8020,-1.3264,0.0788,
0.820277,0.3738,1.0216,0.1194,-1.8078,3.7666,3.0048,1.8020,-1.3264,0.0788,
0.821839,0.3738,1.0216,0.1194,-1.8078,3.7666,3.0048,0.6178,-3.6237,0.3152,
0.822992,0.3738,1.0216,0.1194,2.3324,2.5109,1.9888,0.6178,-3.6237,0.3152,
0.875886,0.5775,0.8097,0.1345,2.3324,2.5109,1.9888,0.6178,-3.6237,0.3152,
0.876821,0.6751,0.6976,0.1077,2.3324,2.5109,1.9888,0.6178,-3.6237,0.3152,
0.877477,0.6400,0.6412,0.0925,2.3324,2.5109,1.9888,0.6178,-3.6237,0.3152,
0.877966,0.6400,0.6412,0.0925,6.1243,-2.9583,2.5835,0.6178,-3.6237,0.3152,
0.878610,0.6400,0.6412,0.0925,6.1243,-2.9583,2.5835,-0.5883,-4.1223,1.1106,
0.933692,0.5147,0.6763,0.0899,6.1243,-2.9583,2.5835,-0.5883,-4.1223,1.1106,
0.935157,0.4153,0.6883,-0.0107,6.1243,-2.9583,2.5835,-0.5883,-4.1223,1.1106,
0.936158,0.3853,0.6868,-0.0964,6.1243,-2.9583,2.5835,-0.5883,-4.1223,1.1106,
0.937360,0.3853,0.6868,-0.0964,6.1243,-2.9583,2.5835,-0.5628,-2.6129,2.2584,
0.938255,0.3853,0.6868,-0.0964,2.9486,-3.0510,1.1110,-0.5628,-2.6129,2.2584,
0.992040,0.3606,0.7625,-0.0986,2.9486,-3.0510,1.1110,-0.5628,-2.6129,2.2584,
0.993562,0.2510,0.9063,-0.0916,2.9486,-3.0510,1.1110,-0.5628,-2.6129,2.2584,
0.994593,0.1016,1.0116,-0.0862,2.9486,-3.0510,1.1110,-0.5628,-2.6129,2.2584,
0.995490,0.1016,1.0116,-0.0862,2.9486,-3.0510,1.1110,-0.7153,-1.6860,3.3207,
0.996284,0.1016,1.0116,-0.0862,-0.7264,-0.5770,0.0665,-0.7153,-1.6860,3.3207,
1.050955,-0.0085,1.0729,-0.1057,-0.7264,-0.5770,0.0665,-0.7153,-1.6860,3.3207,
1.052677,-0.0877,1.1180,-0.0798,-0.7264,-0.5770,0.0665,-0.7153,-1.6860,3.3207,
1.053931,-0.1150,1.0824,-0.0234,-0.7264,-0.5770,0.0665,-0.7153,-1.6860,3.3207,
1.056588,-0.1150,1.0824,-0.0234,-0.7264,-0.5770,0.0665,-1.0859,-1.4538,3.2832,
1.058697,-0.1150,1.0824,-0.0234,-5.1159,1.9435,0.0428,-1.0859,-1.4538,3.2832,
1.108779,-0.3040,1.0362,0.0051,-5.1159,1.9435,0.0428,-1.0859,-1.4538,3.2832,
1.109752,-0.6304,1.0069,-0.0364,-5.1159,1.9435,0.0428,-1.0859,-1.4538,3.2832,
1.110238,-0.9207,0.9112,-0.1094,-5.1159,1.9435,0.0428,-1.0859,-1.4538,3.2832,
1.110622,-0.9207,0.9112,-0.1094,-5.1159,1.9435,0.0428,-1.0128,-0.9892,1.1519,
1.111128,-0.9207,0.9112,-0.1094,-10.4774,1.1224,0.0331,-1.0128,-0.9892,1.1519,
1.167378,-1.0475,0.6307,-0.3792,-10.4774,1.1224,0.0331,-1.0128,-0.9892,1.1519,
1.168407,-1.1151,1.0079,-1.3942,-10.4774,1.1224,0.0331,-1.0128,-0.9892,1.1519,
1.168983,-0.6151,3.0804,-0.8585,-10.4774,1.1224,0.0331,-1.0128,-0.9892,1.1519,
1.169557,-0.6151,3.0804,-0.8585,-10.4774,1.1224,0.0331,-0.4472,-2.0281,-2.1993,
1.170100,-0.6151,3.0804,-0.8585,-11.7073,6.0784,-7.4928,-0.4472,-2.0281,-2.1993,
1.226632,1.7634,2.3176,0.4273,-11.7073,6.0784,-7.4928,-0.4472,-2.0281,-2.1993,
1.227547,0.7840,0.0071,-1.3866,-11.7073,6.0784,-7.4928,-0.4472,-2.0281,-2.1993,
1.228064,-0.3604,0.4988,0.2837,-11.7073,6.0784,-7.4928,-0.4472,-2.0281,-2.1993,
1.228499,-0.3604,0.4988,0.2837,-11.7073,6.0784,-7.4928,-0.2275,-2.5194,-2.3930,
1.229010,-0.3604,0.4988,0.2837,5.7367,-0.3750,-0.9090,-0.2275,-2.5194,-2.3930,
1.284862,-0.6947,1.1749,0.0596,5.7367,-0.3750,-0.9090,-0.2275,-2.5194,-2.3930,
1.285829,-0.7164,1.1036,-0.0654,5.7367,-0.3750,-0.9090,-0.2275,-2.5194,-2.3930,
1.286311,-0.4971,1.0436,-0.2197,5.7367,-0.3750,-0.9090,-0.2275,-2.5194,-2.3930,
1.286707,-0.4971,1.0436,-0.2197,5.7367,-0.3750,-0.9090,0.0763,0.3684,-2.3227,
1.287153,-0.4971,1.0436,-0.2197,-6.0840,1.1077,0.5797,0.0763,0.3684,-2.3227,
1.342809,-0.1626,1.0641,-0.2744,-6.0840,1.1077,0.5797,0.0763,0.3684,-2.3227,
1.343896,-0.0557,1.0777,-0.3555,-6.0840,1.1077,0.5797,0.0763,0.3684,-2.3227,
1.344384,-0.0562,1.0919,-0.1997,-6.0840,1.1077,0.5797,0.0763,0.3684,-2.3227,
1.345009,-0.0562,1.0919,-0.1997,-6.0840,1.1077,0.5797,0.1399,-0.2580,-1.1201,
1.345530,-0.0562,1.0919,-0.1997,-0.0870,0.8250,-1.2690,0.1399,-0.2580,-1.1201,
1.400897,-0.1279,1.0453,-0.0483,-0.0870,0.8250,-1.2690,0.1399,-0.2580,-1.1201,
1.402075,-0.1751,1.0448,-0.0254,-0.0870,0.8250,-1.2690,0.1399,-0.2580,-1.1201,
1.402680,-0.1731,1.0052,-0.1284,-0.0870,0.8250,-1.2690,0.1399,-0.2580,-1.1201,
1.403457,-0.1731,1.0052,-0.1284,-0.0870,0.8250,-1.2690,0.2295,-0.0175,-1.0731,
1.406186,-0.1731,1.0052,-0.1284,-0.1318,0.4443,0.8738,0.2295,-0.0175,-1.0731,
1.459256,-0.1616,0.9469,-0.1504,-0.1318,0.4443,0.8738,0.2295,-0.0175,-1.0731,
1.461184,-0.1812,1.0121,-0.0696,-0.1318,0.4443,0.8738,0.2295,-0.0175,-1.0731,
1.461759,-0.2490,1.0594,-0.0337,-0.1318,0.4443,0.8738,0.2295,-0.0175,-1.0731,
1.462355,-0.2490,1.0594,-0.0337,-0.1318,0.4443,0.8738,0.2604,-0.1063,-1.0038,
1.462967,-0.2490,1.0594,-0.0337,0.0602,0.3052,0.8082,0.2604,-0.1063,-1.0038,
1.517022,-0.2796,1.0199,-0.0117,0.0602,0.3052,0.8082,0.2604,-0.1063,-1.0038,
1.518031,-0.3152,0.9608,-0.0784,0.0602,0.3052,0.8082,0.2604,-0.1063,-1.0038,
1.518595,-0.2510,0.9320,-0.1304,0.0602,0.3052,0.8082,0.2604,-0.1063,-1.0038,
1.520501,-0.2510,0.9320,-0.1304,-0.2487,0.0959,0.9831,0.2604,-0.1063,-1.0038,
1.521519,-0.2510,0.9320,-0.1304,-0.2487,0.0959,0.9831,0.2010,-0.0544,-0.9140,
1.576334,-0.0994,0.9325,-0.1626,-0.2487,0.0959,0.9831,0.2010,-0.0544,-0.9140,
1.577309,0.0239,0.9393,-0.2390,-0.2487,0.0959,0.9831,0.2010,-0.0544,-0.9140,
1.578224,0.1756,0.9630,-0.2732,-0.2487,0.0959,0.9831,0.2010,-0.0544,-0.9140,
1.578916,0.1756,0.9630,-0.2732,-0.2487,0.0959,0.9831,0.3199,0.5545,-0.9725,
1.580255,0.1756,0.9630,-0.2732,3.1924,0.0307,-0.2285,0.3199,0.5545,-0.9725,
1.634069,0.2449,1.1227,-0.1897,3.1924,0.0307,-0.2285,0.3199,0.5545,-0.9725,
1.637134,0.2686,1.3056,-0.1399,3.1924,0.0307,-0.2285,0.3199,0.5545,-0.9725,
1.638510,0.3470,1.4516,-0.0520,3.1924,0.0307,-0.2285,0.3199,0.5545,-0.9725,
1.640253,0.3470,1.4516,-0.0520,3.1924,0.0307,-0.2285,0.7827,-0.0875,-1.9045,
1.643346,0.3470,1.4516,-0.0520,6.4583,3.7835,1.0817,0.7827,-0.0875,-1.9045,
1.696548,0.5875,1.6965,0.1331,6.4583,3.7835,1.0817,0.7827,-0.0875,-1.9045,
1.698389,1.2137,2.0185,0.3562,6.4583,3.7835,1.0817,0.7827,-0.0875,-1.9045,
1.699554,1.2489,1.7724,0.1411,6.4583,3.7835,1.0817,0.7827,-0.0875,-1.9045,
1.700317,1.2489,1.7724,0.1411,6.4583,3.7835,1.0817,1.1765,0.0851,-2.4455,
1.701417,1.2489,1.7724,0.1411,14.3191,9.4961,4.8275,1.1765,0.0851,-2.4455,
1.750700,0.0889,1.6125,-0.0437,14.3191,9.4961,4.8275,1.1765,0.0851,-2.4455,
1.751814,-0.6226,1.7609,-0.1509,14.3191,9.4961,4.8275,1.1765,0.0851,-2.4455,
1.752503,-0.9747,1.3832,-0.0691,14.3191,9.4961,4.8275,1.1765,0.0851,-2.4455,
1.753130,-0.9747,1.3832,-0.0691,14.3191,9.4961,4.8275,1.5496,1.8184,-4.2793,
1.754021,-0.9747,1.3832,-0.0691,0.9454,8.4268,3.0573,1.5496,1.8184,-4.2793,
1.810663,-1.1525,1.0670,-0.4068,0.9454,8.4268,3.0573,1.5496,1.8184,-4.2793,
1.812708,-0.9435,0.8678,-0.4795,0.9454,8.4268,3.0573,1.5496,1.8184,-4.2793,
1.814120,-0.5806,0.5523,-0.5062,0.9454,8.4268,3.0573,1.5496,1.8184,-4.2793,
1.816397,-0.5806,0.5523,-0.5062,0.9454,8.4268,3.0573,0.8531,-0.4620,-1.5630,
1.818551,-0.5806,0.5523,-0.5062,-2.0760,1.7241,-0.4597,0.8531,-0.4620,-1.5630,
1.867696,-0.3848,0.2024,-0.2473,-2.0760,1.7241,-0.4597,0.8531,-0.4620,-1.5630,
1.868908,-0.3326,0.1025,-0.0120,-2.0760,1.7241,-0.4597,0.8531,-0.4620,-1.5630,
1.869762,-0.1550,0.0547,-0.0234,-2.0760,1.7241,-0.4597,0.8531,-0.4620,-1.5630,
1.870322,-0.1550,0.0547,-0.0234,-2.0760,1.7241,-0.4597,-1.1330,-1.0885,2.7966,
1.872200,-0.1550,0.0547,-0.0234,2.8159,-6.2876,2.2275,-1.1330,-1.0885,2.7966,
1.927157,-0.0642,0.1763,-0.2124,2.8159,-6.2876,2.2275,-1.1330,-1.0885,2.7966,
1.929637,-0.0855,0.3582,-0.3948,2.8159,-6.2876,2.2275,-1.1330,-1.0885,2.7966,
1.931050,-0.1824,0.4864,-0.2620,2.8159,-6.2876,2.2275,-1.1330,-1.0885,2.7966,
1.932253,-0.1824,0.4864,-0.2620,2.8159,-6.2876,2.2275,-1.2826,-0.9045,4.9578,
1.934260,-0.1824,0.4864,-0.2620,2.2581,-5.4910,-0.5380,-1.2826,-0.9045,4.9578,
1.984075,-0.1936,0.5428,-0.1724,2.2581,-5.4910,-0.5380,-1.2826,-0.9045,4.9578,
1.985191,-0.0767,0.6717,-0.2630,2.2581,-5.4910,-0.5380,-1.2826,-0.9045,4.9578,
1.986048,0.0083,0.9813,-0.3389,2.2581,-5.4910,-0.5380,-1.2826,-0.9045,4.9578,
1.986751,0.0083,0.9813,-0.3389,2.2581,-5.4910,-0.5380,-1.6276,0.4262,6.5589,
1.987370,0.0083,0.9813,-0.3389,-1.0952,-2.3615,-1.0654,-1.6276,0.4262,6.5589,
2.044232,-0.2315,1.5085,-0.5403,-1.0952,-2.3615,-1.0654,-1.6276,0.4262,6.5589,
2.045928,-0.7635,1.9697,-0.7625,-1.0952,-2.3615,-1.0654,-1.6276,0.4262,6.5589,
2.046859,-1.1825,1.8283,-0.7371,-1.0952,-2.3615,-1.0654,-1.6276,0.4262,6.5589,
2.047632,-1.1825,1.8283,-0.7371,-1.0952,-2.3615,-1.0654,-1.8666,1.1991,6.3176,
2.048362,-1.1825,1.8283,-0.7371,-10.5474,8.2084,-6.1923,-1.8666,1.1991,6.3176,
2.100651,-1.4713,1.4828,-0.5049,-10.5474,8.2084,-6.1923,-1.8666,1.1991,6.3176,
2.102081,-1.2980,1.2526,-0.2554,-10.5474,8.2084,-6.1923,-1.8666,1.1991,6.3176,
2.102902,-1.2142,1.1066,-0.3142,-10.5474,8.2084,-6.1923,-1.8666,1.1991,6.3176,
2.103673,-1.2142,1.1066,-0.3142,-10.5474,8.2084,-6.1923,-1.4944,-0.3862,3.9967,
2.104552,-1.2142,1.1066,-0.3142,-17.9681,4.3351,-3.5728,-1.4944,-0.3862,3.9967,
2.162182,-1.2220,0.9420,-0.2271,-17.9681,4.3351,-3.5728,-1.4944,-0.3862,3.9967,
2.163649,-0.7608,0.9855,-0.1314,-17.9681,4.3351,-3.5728,-1.4944,-0.3862,3.9967,
2.164400,-0.2273,1.5641,-0.3335,-17.9681,4.3351,-3.5728,-1.4944,-0.3862,3.9967,
2.165347,-0.2273,1.5641,-0.3335,-11.0735,2.6880,-1.9560,-1.4944,-0.3862,3.9967,
2.166112,-0.2273,1.5641,-0.3335,-11.0735,2.6880,-1.9560,-0.1906,-1.4600,-1.6235,
2.217186,1.8818,1.8041,0.4690,-11.0735,2.6880,-1.9560,-0.1906,-1.4600,-1.6235,
2.218593,2.4649,1.7287,-0.1585,-11.0735,2.6880,-1.9560,-0.1906,-1.4600,-1.6235,
2.219349,-0.2647,1.4098,-1.3812,-11.0735,2.6880,-1.9560,-0.1906,-1.4600,-1.6235,
2.220137,-0.2647,1.4098,-1.3812,-11.0735,2.6880,-1.9560,-0.0764,-0.4887,-2.0808,
2.220835,-0.2647,1.4098,-1.3812,10.3043,6.8446,-3.0522,-0.0764,-0.4887,-2.0808,
2.276600,-1.4054,0.8167,-0.3223,10.3043,6.8446,-3.0522,-0.0764,-0.4887,-2.0808,
2.278216,-1.2455,0.4859,0.4092,10.3043,6.8446,-3.0522,-0.0764,-0.4887,-2.0808,
2.279629,-0.4539,0.8861,0.3499,10.3043,6.8446,-3.0522,-0.0764,-0.4887,-2.0808,
2.280413,-0.4539,0.8861,0.3499,10.3043,6.8446,-3.0522,0.0519,0.1191,-3.4119,
2.281215,-0.4539,0.8861,0.3499,-10.9955,-2.5016,1.8447,0.0519,0.1191,-3.4119,
2.333783,0.1939,1.0765,0.1441,-10.9955,-2.5016,1.8447,0.0519,0.1191,-3.4119,
2.335239,0.1665,1.1280,-0.1572,-10.9955,-2.5016,1.8447,0.0519,0.1191,-3.4119,
2.336089,-0.1028,1.0170,-0.1846,-10.9955,-2.5016,1.8447,0.0519,0.1191,-3.4119,
2.336625,-0.1028,1.0170,-0.1846,-10.9955,-2.5016,1.8447,0.1989,-0.5011,-1.3225,
2.337232,-0.1028,1.0170,-0.1846,0.7303,0.8206,-0.1047,0.1989,-0.5011,-1.3225,
2.392841,-0.2598,1.0265,-0.2241,0.7303,0.8206,-0.1047,0.1989,-0.5011,-1.3225,
2.394019,-0.2556,1.0467,-0.0657,0.7303,0.8206,-0.1047,0.1989,-0.5011,-1.3225,
2.394886,-0.1970,1.0296,0.0054,0.7303,0.8206,-0.1047,0.1989,-0.5011,-1.3225,
2.395855,-0.1970,1.0296,0.0054,0.7303,0.8206,-0.1047,0.1584,0.1047,-1.2221,
2.397106,-0.1970,1.0296,0.0054,-1.7097,0.4442,-0.2878,0.1584,0.1047,-1.2221,
2.450822,-0.0742,1.0231,-0.0276,-1.7097,0.4442,-0.2878,0.1584,0.1047,-1.2221,
2.451756,0.0049,1.0033,-0.0593,-1.7097,0.4442,-0.2878,0.1584,0.1047,-1.2221,
2.452278,-0.0149,0.9820,-0.0559,-1.7097,0.4442,-0.2878,0.1584,0.1047,-1.2221,
2.452728,-0.0149,0.9820,-0.0559,-1.7097,0.4442,-0.2878,0.2333,-0.2012,-0.9102,
2.454074,-0.0149,0.9820,-0.0559,0.8439,0.1872,0.2882,0.2333,-0.2012,-0.9102,
2.509201,-0.0696,0.9681,-0.0757,0.8439,0.1872,0.2882,0.2333,-0.2012,-0.9102,
2.510191,-0.1734,0.9549,-0.0474,0.8439,0.1872,0.2882,0.2333,-0.2012,-0.9102,
2.510644,-0.2664,0.9833,-0.0523,0.8439,0.1872,0.2882,0.2333,-0.2012,-0.9102,
2.511081,-0.2664,0.9833,-0.0523,0.8439,0.1872,0.2882,0.2763,0.1352,-1.2111,
2.511835,-0.2664,0.9833,-0.0523,0.1234,-0.0290,0.3413,0.2763,0.1352,-1.2111,
2.567433,-0.2320,0.9972,-0.0610,0.1234,-0.0290,0.3413,0.2763,0.1352,-1.2111,
2.568519,-0.1846,0.9781,-0.1111,0.1234,-0.0290,0.3413,0.2763,0.1352,-1.2111,
2.568994,-0.1463,0.9750,-0.1629,0.1234,-0.0290,0.3413,0.2763,0.1352,-1.2111,
2.569405,-0.1463,0.9750,-0.1629,0.1234,-0.0290,0.3413,0.3406,0.1045,-1.1932,
2.569977,-0.1463,0.9750,-0.1629,0.5864,0.2755,0.0196,0.3406,0.1045,-1.1932,
2.626822,-0.0923,1.0448,-0.1787,0.5864,0.2755,0.0196,0.3406,0.1045,-1.1932,
2.627870,-0.0110,1.1039,-0.1607,0.5864,0.2755,0.0196,0.3406,0.1045,-1.1932,
2.628686,-0.0845,1.1271,-0.1216,0.5864,0.2755,0.0196,0.3406,0.1045,-1.1932,
2.630189,-0.0845,1.1271,-0.1216,0.5864,0.2755,0.0196,0.4429,0.0126,-1.5620,
2.631057,-0.0845,1.1271,-0.1216,2.5933,1.5945,-0.1487,0.4429,0.0126,-1.5620,
2.684037,-0.1907,1.2054,-0.1184,2.5933,1.5945,-0.1487,0.4429,0.0126,-1.5620,
2.684850,-0.0874,1.2267,-0.1318,2.5933,1.5945,-0.1487,0.4429,0.0126,-1.5620,
2.685547,-0.0098,1.2208,-0.1975,2.5933,1.5945,-0.1487,0.4429,0.0126,-1.5620,
2.686118,-0.0098,1.2208,-0.1975,2.5933,1.5945,-0.1487,0.7562,0.0778,-2.0887,
2.687593,-0.0098,1.2208,-0.1975,3.2669,3.2810,0.2954,0.7562,0.0778,-2.0887,
2.743964,0.0593,1.2770,-0.2007,3.2669,3.2810,0.2954,0.7562,0.0778,-2.0887,
2.745000,0.1665,1.6760,-0.1118,3.2669,3.2810,0.2954,0.7562,0.0778,-2.0887,
2.745492,0.6458,2.1181,0.0615,3.2669,3.2810,0.2954,0.7562,0.0778,-2.0887,
2.746069,0.6458,2.1181,0.0615,3.2669,3.2810,0.2954,1.0761,0.7121,-2.2396,
2.746650,0.6458,2.1181,0.0615,7.8814,8.4819,1.6224,1.0761,0.7121,-2.2396,
2.800403,1.1310,1.7131,0.1770,7.8814,8.4819,1.6224,1.0761,0.7121,-2.2396,
2.801354,0.2195,1.1964,0.1179,7.8814,8.4819,1.6224,1.0761,0.7121,-2.2396,
2.801943,-0.7611,1.3422,-0.0862,7.8814,8.4819,1.6224,1.0761,0.7121,-2.2396,
2.803476,-0.7611,1.3422,-0.0862,7.8814,8.4819,1.6224,1.0863,1.2531,-3.0981,
2.804328,-0.7611,1.3422,-0.0862,7.9383,6.8631,3.9328,1.0863,1.2531,-3.0981,
2.859324,-1.0162,1.4684,-0.0994,7.9383,6.8631,3.9328,1.0863,1.2531,-3.0981,
2.860383,-0.9105,1.0152,-0.3045,7.9383,6.8631,3.9328,1.0863,1.2531,-3.0981,
2.861029,-0.8971,0.7371,-0.2945,7.9383,6.8631,3.9328,1.0863,1.2531,-3.0981,
2.861709,-0.8971,0.7371,-0.2945,-2.3844,4.6387,1.7407,1.0863,1.2531,-3.0981,
2.863167,-0.8971,0.7371,-0.2945,-2.3844,4.6387,1.7407,1.2586,0.9025,-2.5868,
2.917386,-0.7852,0.5357,-0.3267,-2.3844,4.6387,1.7407,1.2586,0.9025,-2.5868,
2.918432,-0.5469,0.3662,-0.1751,-2.3844,4.6387,1.7407,1.2586,0.9025,-2.5868,
2.918998,-0.4060,0.0955,0.1497,-2.3844,4.6387,1.7407,1.2586,0.9025,-2.5868,
2.919518,-0.4060,0.0955,0.1497,-2.3844,4.6387,1.7407,-0.3724,-0.7959,1.1006,
2.920681,-0.4060,0.0955,0.1497,0.9269,-3.0775,2.3754,-0.3724,-0.7959,1.1006,
2.976649,-0.1658,0.0095,0.1450,0.9269,-3.0775,2.3754,-0.3724,-0.7959,1.1006,
2.978545,-0.0364,0.0752,-0.0022,0.9269,-3.0775,2.3754,-0.3724,-0.7959,1.1006,
2.979591,-0.2334,0.3416,-0.2654,0.9269,-3.0775,2.3754,-0.3724,-0.7959,1.1006,
2.981931,-0.2334,0.3416,-0.2654,0.9269,-3.0775,2.3754,-0.3048,-1.7986,4.1765,
2.982970,-0.2334,0.3416,-0.2654,3.7034,-6.3234,2.3294,-0.3048,-1.7986,4.1765,
3.034244,-0.3472,0.4671,-0.2451,3.7034,-6.3234,2.3294,-0.3048,-1.7986,4.1765,
3.035687,-0.4312,0.4571,-0.2991,3.7034,-6.3234,2.3294,-0.3048,-1.7986,4.1765,
3.036442,-0.5113,0.5457,-0.2193,3.7034,-6.3234,2.3294,-0.3048,-1.7986,4.1765,
3.037065,-0.5113,0.5457,-0.2193,3.7034,-6.3234,2.3294,0.0594,-2.3475,5.9815,
3.037649,-0.5113,0.5457,-0.2193,-1.6740,-4.1738,-0.2587,0.0594,-2.3475,5.9815,
3.093531,-0.5113,0.5457,-0.2193,-9.8711,1.4933,-1.1037,0.0594,-2.3475,5.9815,
3.094932,-0.6705,0.8350,-0.2879,-9.8711,1.4933,-1.1037,0.0594,-2.3475,5.9815,
3.095624,-1.1019,1.1615,-0.2788,-9.8711,1.4933,-1.1037,0.0594,-2.3475,5.9815,
3.096313,-1.1256,1.2860,-0.5850,-9.8711,1.4933,-1.1037,0.0594,-2.3475,5.9815,
3.097347,-1.1256,1.2860,-0.5850,-9.8711,1.4933,-1.1037,1.2268,-5.2060,7.1417,
3.150456,-0.8314,1.3683,-0.7103,-9.8711,1.4933,-1.1037,1.2268,-5.2060,7.1417,
3.151470,-0.5176,1.4259,-0.5254,-9.8711,1.4933,-1.1037,1.2268,-5.2060,7.1417,
3.152003,-0.2378,1.4315,-0.0596,-9.8711,1.4933,-1.1037,1.2268,-5.2060,7.1417,
3.153183,-0.2378,1.4315,-0.0596,-6.9300,5.3594,0.1405,1.2268,-5.2060,7.1417,
3.153896,-0.2378,1.4315,-0.0596,-6.9300,5.3594,0.1405,1.8664,-9.3176,6.4928,
3.210149,-0.2368,1.2406,0.5462,-6.9300,5.3594,0.1405,1.8664,-9.3176,6.4928,
3.211199,-0.0564,0.8348,0.6417,-6.9300,5.3594,0.1405,1.8664,-9.3176,6.4928,
3.211787,-0.1680,1.0248,0.2439,-6.9300,5.3594,0.1405,1.8664,-9.3176,6.4928,
3.212325,-0.1680,1.0248,0.2439,-2.1098,1.8356,9.4891,1.8664,-9.3176,6.4928,
3.212910,-0.1680,1.0248,0.2439,-2.1098,1.8356,9.4891,-0.0969,-8.2469,2.4918,
3.267117,-0.1851,1.7072,1.3681,-2.1098,1.8356,9.4891,-0.0969,-8.2469,2.4918,
3.268426,0.7952,1.5605,1.2518,-2.1098,1.8356,9.4891,-0.0969,-8.2469,2.4918,
3.269067,0.3474,1.3856,0.4344,-2.1098,1.8356,9.4891,-0.0969,-8.2469,2.4918,
3.269850,0.3474,1.3856,0.4344,-2.1098,1.8356,9.4891,-1.1261,-0.8509,-0.7682,
3.271214,0.3474,1.3856,0.4344,3.1001,6.4914,14.0189,-1.1261,-0.8509,-0.7682,
3.332372,0.3474,1.3856,0.4344,-4.2134,3.8871,-6.2983,-1.1261,-0.8509,-0.7682,
3.333775,-0.0518,1.2011,-1.2284,-4.2134,3.8871,-6.2983,-1.1261,-0.8509,-0.7682,
3.334565,-0.5403,1.3136,-1.4228,-4.2134,3.8871,-6.2983,-1.1261,-0.8509,-0.7682,
3.335394,-0.8133,1.4162,-0.4207,-4.2134,3.8871,-6.2983,-1.1261,-0.8509,-0.7682,
3.336030,-0.8133,1.4162,-0.4207,-4.2134,3.8871,-6.2983,-0.8361,1.1383,-1.1313,
3.384158,-0.2256,1.1351,-0.4466,-4.2134,3.8871,-6.2983,-0.8361,1.1383,-1.1313,
3.385638,0.1851,0.8475,-0.1294,-4.2134,3.8871,-6.2983,-0.8361,1.1383,-1.1313,
3.386489,0.2317,0.7999,0.0747,-4.2134,3.8871,-6.2983,-0.8361,1.1383,-1.1313,
3.387095,0.2317,0.7999,0.0747,-4.2134,3.8871,-6.2983,-0.9741,-1.9006,0.7080,
3.387750,0.2317,0.7999,0.0747,0.9855,-0.0767,1.5116,-0.9741,-1.9006,0.7080,
3.442779,0.1636,1.0013,0.0628,0.9855,-0.0767,1.5116,-0.9741,-1.9006,0.7080,
3.444345,-0.0352,1.0548,-0.2818,0.9855,-0.0767,1.5116,-0.9741,-1.9006,0.7080,
3.445187,-0.1697,1.0108,-0.3777,0.9855,-0.0767,1.5116,-0.9741,-1.9006,0.7080,
3.445832,-0.1697,1.0108,-0.3777,0.9855,-0.0767,1.5116,-0.3891,0.2725,0.2242,
3.446564,-0.1697,1.0108,-0.3777,0.0591,0.7663,0.9771,-0.3891,0.2725,0.2242,
3.500519,-0.1145,0.9361,-0.4031,0.0591,0.7663,0.9771,-0.3891,0.2725,0.2242,
3.502459,-0.0693,0.9415,-0.2688,0.0591,0.7663,0.9771,-0.3891,0.2725,0.2242,
3.503207,0.0774,0.9342,-0.1030,0.0591,0.7663,0.9771,-0.3891,0.2725,0.2242,
3.503906,0.0774,0.9342,-0.1030,0.0591,0.7663,0.9771,-0.3456,-0.3186,0.3040,
3.504675,0.0774,0.9342,-0.1030,-0.2620,-0.1245,0.2022,-0.3456,-0.3186,0.3040,
3.558744,0.1997,0.8636,-0.0784,-0.2620,-0.1245,0.2022,-0.3456,-0.3186,0.3040,
3.560331,0.1648,0.9303,-0.1365,-0.2620,-0.1245,0.2022,-0.3456,-0.3186,0.3040,
3.561140,0.1184,0.9774,-0.1626,-0.2620,-0.1245,0.2022,-0.3456,-0.3186,0.3040,
3.561802,0.1184,0.9774,-0.1626,-0.2620,-0.1245,0.2022,-0.2122,-0.4233,0.0067,
3.562488,0.1184,0.9774,-0.1626,1.6969,-0.2852,1.3597,-0.2122,-0.4233,0.0067,
3.617282,0.0513,0.9823,-0.0903,1.6969,-0.2852,1.3597,-0.2122,-0.4233,0.0067,
3.619124,-0.0752,0.9754,-0.1118,1.6969,-0.2852,1.3597,-0.2122,-0.4233,0.0067,
3.620032,-0.0559,0.9881,-0.0713,1.6969,-0.2852,1.3597,-0.2122,-0.4233,0.0067,
3.620749,-0.0559,0.9881,-0.0713,1.6969,-0.2852,1.3597,0.0751,-0.5825,-0.4848,
3.621472,-0.0559,0.9881,-0.0713,0.2070,0.3000,1.7020,0.0751,-0.5825,-0.4848,
3.676681,0.0794,0.9667,-0.0242,0.2070,0.3000,1.7020,0.0751,-0.5825,-0.4848,
3.679617,-0.0010,0.9300,-0.1182,0.2070,0.3000,1.7020,0.0751,-0.5825,-0.4848,
3.682010,-0.3135,0.9320,-0.2202,0.2070,0.3000,1.7020,0.0751,-0.5825,-0.4848,
3.683675,-0.3135,0.9320,-0.2202,0.2070,0.3000,1.7020,0.4498,-0.5227,-0.6880,
3.685850,-0.3135,0.9320,-0.2202,0.1519,0.0159,1.6064,0.4498,-0.5227,-0.6880,
3.734550,-0.4634,0.9750,-0.1887,0.1519,0.0159,1.6064,0.4498,-0.5227,-0.6880,
3.737701,-0.2727,0.9364,-0.2459,0.1519,0.0159,1.6064,0.4498,-0.5227,-0.6880,
3.739781,-0.1865,0.9474,-0.3020,0.1519,0.0159,1.6064,0.4498,-0.5227,-0.6880,
3.741617,-0.1865,0.9474,-0.3020,0.1519,0.0159,1.6064,0.6186,-0.4807,-0.3659,
3.744082,-0.1865,0.9474,-0.3020,-1.7860,0.2386,0.6734,0.6186,-0.4807,-0.3659,
3.792527,-0.1636,0.9398,-0.3670,-1.7860,0.2386,0.6734,0.6186,-0.4807,-0.3659,
3.793892,-0.2913,0.9251,-0.3538,-1.7860,0.2386,0.6734,0.6186,-0.4807,-0.3659,
3.794669,-0.2830,0.9359,-0.2976,-1.7860,0.2386,0.6734,0.6186,-0.4807,-0.3659,
3.795250,-0.2830,0.9359,-0.2976,-1.7860,0.2386,0.6734,0.6326,-0.3182,-0.0708,
3.795924,-0.2830,0.9359,-0.2976,-1.0669,0.1712,0.0615,0.6326,-0.3182,-0.0708,
3.850611,-0.1763,0.9566,-0.2285,-1.0669,0.1712,0.0615,0.6326,-0.3182,-0.0708,
3.852037,-0.1340,0.9815,-0.2317,-1.0669,0.1712,0.0615,0.6326,-0.3182,-0.0708,
3.852473,-0.0996,0.9852,-0.2547,-1.0669,0.1712,0.0615,0.6326,-0.3182,-0.0708,
3.853057,-0.0996,0.9852,-0.2547,-1.0669,0.1712,0.0615,0.7876,-0.2453,0.1855,
3.853651,-0.0996,0.9852,-0.2547,-0.0401,0.7097,1.4187,0.7876,-0.2453,0.1855,
3.909069,0.0178,1.0223,-0.2718,-0.0401,0.7097,1.4187,0.7876,-0.2453,0.1855,
3.910344,0.1148,1.0680,-0.2818,-0.0401,0.7097,1.4187,0.7876,-0.2453,0.1855,
3.910947,0.1253,1.1254,-0.2898,-0.0401,0.7097,1.4187,0.7876,-0.2453,0.1855,
3.911521,0.1253,1.1254,-0.2898,-0.0401,0.7097,1.4187,1.2402,-0.1195,0.0306,
3.912064,0.1253,1.1254,-0.2898,2.1175,1.9237,1.5926,1.2402,-0.1195,0.0306,
3.967413,0.1587,1.2294,-0.2967,2.1175,1.9237,1.5926,1.2402,-0.1195,0.0306,
3.968911,0.2075,1.5663,-0.2241,2.1175,1.9237,1.5926,1.2402,-0.1195,0.0306,
3.969484,0.4102,1.7905,-0.1082,2.1175,1.9237,1.5926,1.2402,-0.1195,0.0306,
3.970100,0.4102,1.7905,-0.1082,4.1156,6.8844,3.1598,1.2402,-0.1195,0.0306,
3.970753,0.4102,1.7905,-0.1082,4.1156,6.8844,3.1598,2.0419,-0.7947,-0.3087,
4.026117,0.4664,1.5829,0.0012,4.1156,6.8844,3.1598,2.0419,-0.7947,-0.3087,
4.027408,0.1514,1.5341,0.3286,4.1156,6.8844,3.1598,2.0419,-0.7947,-0.3087,
4.027965,-0.5342,1.4584,0.3089,4.1156,6.8844,3.1598,2.0419,-0.7947,-0.3087,
4.028530,-0.5342,1.4584,0.3089,4.1156,6.8844,3.1598,2.4135,-2.3856,-0.9851,
4.029101,-0.5342,1.4584,0.3089,3.0275,7.6393,7.9399,2.4135,-2.3856,-0.9851,
4.083878,-1.1913,1.5248,-0.1223,3.0275,7.6393,7.9399,2.4135,-2.3856,-0.9851,
4.085233,-1.2743,1.3839,-0.2549,3.0275,7.6393,7.9399,2.4135,-2.3856,-0.9851,
4.085738,-0.7332,1.2936,-0.6622,3.0275,7.6393,7.9399,2.4135,-2.3856,-0.9851,
4.086342,-0.7332,1.2936,-0.6622,3.0275,7.6393,7.9399,2.2675,-4.1991,-1.6943,
4.086905,-0.7332,1.2936,-0.6622,-5.4877,7.4555,2.3752,2.2675,-4.1991,-1.6943,
4.142335,-0.1111,1.0389,-0.5237,-5.4877,7.4555,2.3752,2.2675,-4.1991,-1.6943,
4.143559,0.2598,0.5333,0.1641,-5.4877,7.4555,2.3752,2.2675,-4.1991,-1.6943,
4.144057,0.1174,0.3423,0.3567,-5.4877,7.4555,2.3752,2.2675,-4.1991,-1.6943,
4.144686,0.1174,0.3423,0.3567,7.0393,-0.1901,3.9404,2.2675,-4.1991,-1.6943,
4.145978,0.1174,0.3423,0.3567,7.0393,-0.1901,3.9404,0.6683,-5.9476,1.1000,
4.201041,-0.1433,0.4847,0.2652,7.0393,-0.1901,3.9404,0.6683,-5.9476,1.1000,
4.202315,-0.1631,0.5709,0.2122,7.0393,-0.1901,3.9404,0.6683,-5.9476,1.1000,
4.202802,-0.1460,0.5242,0.1721,7.0393,-0.1901,3.9404,0.6683,-5.9476,1.1000,
4.203254,-0.1460,0.5242,0.1721,7.0393,-0.1901,3.9404,0.5310,-3.6833,2.4557,
4.203832,-0.1460,0.5242,0.1721,4.3659,-2.0263,4.8726,0.5310,-3.6833,2.4557,
4.258945,-0.1477,0.5503,0.1558,4.3659,-2.0263,4.8726,0.5310,-3.6833,2.4557,
4.260177,-0.1738,0.6780,0.1563,4.3659,-2.0263,4.8726,0.5310,-3.6833,2.4557,
4.260696,-0.2754,0.8336,0.1082,4.3659,-2.0263,4.8726,0.5310,-3.6833,2.4557,
4.261234,-0.2754,0.8336,0.1082,2.0693,-1.6243,3.8719,0.5310,-3.6833,2.4557,
4.262543,-0.2754,0.8336,0.1082,2.0693,-1.6243,3.8719,0.4569,-1.2555,4.3427,
4.317234,-0.2981,0.9459,0.0786,2.0693,-1.6243,3.8719,0.4569,-1.2555,4.3427,
4.318429,-0.2620,1.0575,0.0823,2.0693,-1.6243,3.8719,0.4569,-1.2555,4.3427,
4.318968,-0.2732,1.2140,0.0930,2.0693,-1.6243,3.8719,0.4569,-1.2555,4.3427,
4.320313,-0.2732,1.2140,0.0930,2.0693,-1.6243,3.8719,-0.4293,-0.2407,5.6819,
4.321396,-0.2732,1.2140,0.0930,-1.5875,1.2090,3.0000,-0.4293,-0.2407,5.6819,
4.375817,-0.3404,1.4914,0.0364,-1.5875,1.2090,3.0000,-0.4293,-0.2407,5.6819,
4.377592,-0.4058,1.7556,-0.0112,-1.5875,1.2090,3.0000,-0.4293,-0.2407,5.6819,
4.378473,-0.4881,1.7326,-0.0327,-1.5875,1.2090,3.0000,-0.4293,-0.2407,5.6819,
4.379252,-0.4881,1.7326,-0.0327,-1.5875,1.2090,3.0000,-1.4979,-0.0226,6.2451,
4.380086,-0.4881,1.7326,-0.0327,-6.2030,6.9026,1.3022,-1.4979,-0.0226,6.2451,
4.433568,-0.5064,1.4892,-0.0110,-6.2030,6.9026,1.3022,-1.4979,-0.0226,6.2451,
4.435305,-0.5889,1.3480,-0.0159,-6.2030,6.9026,1.3022,-1.4979,-0.0226,6.2451,
4.436391,-0.8109,1.2741,-0.4444,-6.2030,6.9026,1.3022,-1.4979,-0.0226,6.2451,
4.438084,-0.8109,1.2741,-0.4444,-6.2030,6.9026,1.3022,-1.5820,2.0839,4.1645,
4.439242,-0.8109,1.2741,-0.4444,-10.4953,4.7255,-1.4583,-1.5820,2.0839,4.1645,
4.492167,-1.2531,0.8490,-0.6592,-10.4953,4.7255,-1.4583,-1.5820,2.0839,4.1645,
4.493788,-1.5946,0.5101,-0.5760,-10.4953,4.7255,-1.4583,-1.5820,2.0839,4.1645,
4.494866,-1.6374,0.5753,-0.7811,-10.4953,4.7255,-1.4583,-1.5820,2.0839,4.1645,
4.495747,-1.6374,0.5753,-0.7811,-10.4953,4.7255,-1.4583,-0.5129,1.1817,-0.8414,
4.496541,-1.6374,0.5753,-0.7811,-18.1638,-2.5364,-6.9435,-0.5129,1.1817,-0.8414,
4.550504,-0.9452,1.3219,-1.2706,-18.1638,-2.5364,-6.9435,-0.5129,1.1817,-0.8414,
4.552043,1.2777,1.7973,0.1248,-18.1638,-2.5364,-6.9435,-0.5129,1.1817,-0.8414,
4.552818,2.8501,1.9528,-0.1773,-18.1638,-2.5364,-6.9435,-0.5129,1.1817,-0.8414,
4.554755,2.8501,1.9528,-0.1773,-18.1638,-2.5364,-6.9435,-0.6477,-3.6255,-0.3626,
4.555972,2.8501,1.9528,-0.1773,6.9141,7.5222,-4.2237,-0.6477,-3.6255,-0.3626,
4.609216,0.8961,2.0832,-0.6314,6.9141,7.5222,-4.2237,-0.6477,-3.6255,-0.3626,
4.610710,-0.5001,0.8311,0.0269,6.9141,7.5222,-4.2237,-0.6477,-3.6255,-0.3626,
4.611481,-0.4324,0.2686,0.5860,6.9141,7.5222,-4.2237,-0.6477,-3.6255,-0.3626,
4.612064,-0.4324,0.2686,0.5860,6.9141,7.5222,-4.2237,-0.0914,-0.8621,-2.9487,
4.612837,-0.4324,0.2686,0.5860,-1.9613,0.8741,0.1496,-0.0914,-0.8621,-2.9487,
4.667001,-0.4278,0.7774,0.4165,-1.9613,0.8741,0.1496,-0.0914,-0.8621,-2.9487,
4.668741,-0.3015,1.1092,0.0134,-1.9613,0.8741,0.1496,-0.0914,-0.8621,-2.9487,
4.669509,-0.3955,1.2089,-0.4031,-1.9613,0.8741,0.1496,-0.0914,-0.8621,-2.9487,
4.670234,-0.3955,1.2089,-0.4031,-4.3628,0.4375,0.4006,-0.0914,-0.8621,-2.9487,
4.670851,-0.3955,1.2089,-0.4031,-4.3628,0.4375,0.4006,0.2333,0.3840,-1.9397,
4.725565,-0.2498,1.1759,-0.3589,-4.3628,0.4375,0.4006,0.2333,0.3840,-1.9397,
4.726730,-0.0623,1.1112,-0.1426,-4.3628,0.4375,0.4006,0.2333,0.3840,-1.9397,
4.727320,0.0918,1.0091,0.0964,-4.3628,0.4375,0.4006,0.2333,0.3840,-1.9397,
4.727879,0.0918,1.0091,0.0964,-4.3628,0.4375,0.4006,-0.0790,-0.0411,-0.7285,
4.729950,0.0918,1.0091,0.0964,-0.9789,1.0534,-1.0373,-0.0790,-0.0411,-0.7285,
4.783831,0.1641,1.0033,0.1643,-0.9789,1.0534,-1.0373,-0.0790,-0.0411,-0.7285,
4.785095,0.1944,0.9930,0.1799,-0.9789,1.0534,-1.0373,-0.0790,-0.0411,-0.7285,
4.786071,0.1834,0.9295,0.1238,-0.9789,1.0534,-1.0373,-0.0790,-0.0411,-0.7285,
4.786891,0.1834,0.9295,0.1238,1.8979,-0.1547,1.8260,-0.0790,-0.0411,-0.7285,
4.788550,0.1834,0.9295,0.1238,1.8979,-0.1547,1.8260,0.0737,-0.1291,-0.7357,
4.842434,0.1275,0.9342,0.0928,1.8979,-0.1547,1.8260,0.0737,-0.1291,-0.7357,
4.843652,0.0168,0.9696,0.0625,1.8979,-0.1547,1.8260,0.0737,-0.1291,-0.7357,
4.844245,-0.0884,1.0360,0.0120,1.8979,-0.1547,1.8260,0.0737,-0.1291,-0.7357,
4.844965,-0.0884,1.0360,0.0120,1.8979,-0.1547,1.8260,0.2620,0.3694,-1.2453,
4.845542,-0.0884,1.0360,0.0120,0.9898,-0.0677,0.9863,0.2620,0.3694,-1.2453,
4.900698,-0.1218,1.0834,-0.0115,0.9898,-0.0677,0.9863,0.2620,0.3694,-1.2453,
4.902207,-0.0374,1.0260,-0.0212,0.9898,-0.0677,0.9863,0.2620,0.3694,-1.2453,
4.902813,-0.0125,0.9686,-0.0034,0.9898,-0.0677,0.9863,0.2620,0.3694,-1.2453,
4.903451,-0.0125,0.9686,-0.0034,0.9898,-0.0677,0.9863,0.3189,0.2547,-1.3315,
4.904072,-0.0125,0.9686,-0.0034,0.9696,0.4771,0.5092,0.3189,0.2547,-1.3315,
4.958784,-0.1040,0.9828,-0.0447,0.9696,0.4771,0.5092,0.3189,0.2547,-1.3315,
4.960155,-0.1204,1.0282,-0.1035,0.9696,0.4771,0.5092,0.3189,0.2547,-1.3315,
4.960910,-0.0877,1.0350,-0.1209,0.9696,0.4771,0.5092,0.3189,0.2547,-1.3315,
4.961433,-0.0877,1.0350,-0.1209,0.9696,0.4771,0.5092,0.3282,0.5905,-1.5901,
4.962329,-0.0877,1.0350,-0.1209,1.3418,0.5592,-0.0015,0.3282,0.5905,-1.5901,
5.017126,-0.1480,1.0978,-0.0752,1.3418,0.5592,-0.0015,0.3282,0.5905,-1.5901,
5.018281,-0.1966,1.1862,-0.0833,1.3418,0.5592,-0.0015,0.3282,0.5905,-1.5901,
5.018997,-0.0813,1.2191,-0.1155,1.3418,0.5592,-0.0015,0.3282,0.5905,-1.5901,
5.020611,-0.0813,1.2191,-0.1155,1.9095,2.3412,0.2412,0.3282,0.5905,-1.5901,
5.021567,-0.0813,1.2191,-0.1155,1.9095,2.3412,0.2412,0.4278,0.2069,-1.8259,
5.076202,0.0720,1.2567,-0.1077,1.9095,2.3412,0.2412,0.4278,0.2069,-1.8259,
5.077096,0.1909,1.4054,-0.0835,1.9095,2.3412,0.2412,0.4278,0.2069,-1.8259,
5.077740,0.4944,1.7282,0.1546,1.9095,2.3412,0.2412,0.4278,0.2069,-1.8259,
5.078262,0.4944,1.7282,0.1546,1.9095,2.3412,0.2412,0.7167,0.1975,-2.1517,
5.078953,0.4944,1.7282,0.1546,6.7561,5.6838,1.4066,0.7167,0.1975,-2.1517,
5.134684,1.0101,1.9553,0.0176,6.7561,5.6838,1.4066,0.7167,0.1975,-2.1517,
5.136288,1.3439,1.7514,-0.1221,6.7561,5.6838,1.4066,0.7167,0.1975,-2.1517,
5.136914,0.7940,1.2645,-0.0339,6.7561,5.6838,1.4066,0.7167,0.1975,-2.1517,
5.137464,0.7940,1.2645,-0.0339,6.7561,5.6838,1.4066,0.7471,1.2515,-2.8869,
5.138062,0.7940,1.2645,-0.0339,15.5469,8.3506,1.7671,0.7471,1.2515,-2.8869,
5.192598,0.7940,1.2645,-0.0339,-0.8387,6.0435,1.2803,0.7471,1.2515,-2.8869,
5.194376,-0.3162,1.0904,-0.1538,-0.8387,6.0435,1.2803,0.7471,1.2515,-2.8869,
5.195700,-0.9745,1.3622,-0.3094,-0.8387,6.0435,1.2803,0.7471,1.2515,-2.8869,
5.196413,-0.9640,1.3222,-0.2915,-0.8387,6.0435,1.2803,0.7471,1.2515,-2.8869,
5.197010,-0.9640,1.3222,-0.2915,-0.8387,6.0435,1.2803,1.0741,3.1645,-4.3689,
5.250465,-0.7755,0.7718,-0.2769,-0.8387,6.0435,1.2803,1.0741,3.1645,-4.3689,
5.251764,-0.8062,0.5528,-0.3355,-0.8387,6.0435,1.2803,1.0741,3.1645,-4.3689,
5.252340,-0.5941,0.3250,-0.5064,-0.8387,6.0435,1.2803,1.0741,3.1645,-4.3689,
5.252880,-0.5941,0.3250,-0.5064,-0.8387,6.0435,1.2803,0.0804,1.1108,-1.2018,
5.253976,-0.5941,0.3250,-0.5064,-0.4104,-0.4104,0.5423,0.0804,1.1108,-1.2018,
5.308944,-0.4002,0.2974,-0.1829,-0.4104,-0.4104,0.5423,0.0804,1.1108,-1.2018,
5.310346,-0.2454,0.1235,-0.0049,-0.4104,-0.4104,0.5423,0.0804,1.1108,-1.2018,
5.310915,-0.1944,0.0862,-0.0010,-0.4104,-0.4104,0.5423,0.0804,1.1108,-1.2018,
5.311348,-0.1944,0.0862,-0.0010,-0.4104,-0.4104,0.5423,-1.5632,-0.1472,2.2360,
5.312210,-0.1944,0.0862,-0.0010,3.0945,-5.2314,2.9007,-1.5632,-0.1472,2.2360,
5.367048,-0.2239,0.1685,-0.1008,3.0945,-5.2314,2.9007,-1.5632,-0.1472,2.2360,
5.368466,-0.2613,0.2935,-0.2205,3.0945,-5.2314,2.9007,-1.5632,-0.1472,2.2360,
5.369335,-0.1983,0.3863,-0.2234,3.0945,-5.2314,2.9007,-1.5632,-0.1472,2.2360,
5.370147,-0.1983,0.3863,-0.2234,3.0945,-5.2314,2.9007,-1.6190,-0.7754,4.3392,
5.370849,-0.1983,0.3863,-0.2234,1.7568,-5.5690,0.7782,-1.6190,-0.7754,4.3392,
5.425844,-0.1655,0.4849,-0.1069,1.7568,-5.5690,0.7782,-1.6190,-0.7754,4.3392,
5.427327,-0.1924,0.6251,0.0315,1.7568,-5.5690,0.7782,-1.6190,-0.7754,4.3392,
5.427988,-0.1648,0.8680,-0.0027,1.7568,-5.5690,0.7782,-1.6190,-0.7754,4.3392,
5.428700,-0.1648,0.8680,-0.0027,1.7568,-5.5690,0.7782,-1.9153,-0.0323,6.2054,
5.433042,-0.1648,0.8680,-0.0027,-0.9512,-2.9279,1.2610,-1.9153,-0.0323,6.2054,
5.484036,-0.0955,1.4247,-0.2425,-0.9512,-2.9279,1.2610,-1.9153,-0.0323,6.2054,
5.485749,-0.2837,2.2380,-0.4273,-0.9512,-2.9279,1.2610,-1.9153,-0.0323,6.2054,
5.486446,-0.6878,2.4111,-0.3912,-0.9512,-2.9279,1.2610,-1.9153,-0.0323,6.2054,
5.487156,-0.6878,2.4111,-0.3912,-6.2821,10.5845,-2.9695,-1.9153,-0.0323,6.2054,
5.487860,-0.6878,2.4111,-0.3912,-6.2821,10.5845,-2.9695,-1.8577,0.6952,6.6369,
5.542439,-1.0265,1.7902,-0.1362,-6.2821,10.5845,-2.9695,-1.8577,0.6952,6.6369,
5.543897,-1.0531,1.1796,-0.2290,-6.2821,10.5845,-2.9695,-1.8577,0.6952,6.6369,
5.544730,-1.0951,0.9686,-0.5677,-6.2821,10.5845,-2.9695,-1.8577,0.6952,6.6369,
5.546652,-1.0951,0.9686,-0.5677,-14.7235,4.2952,-3.5917,-1.8577,0.6952,6.6369,
5.547904,-1.0951,0.9686,-0.5677,-14.7235,4.2952,-3.5917,-1.7848,0.7909,3.4787,
5.600321,-1.3515,0.6768,-0.4578,-14.7235,4.2952,-3.5917,-1.7848,0.7909,3.4787,
5.602011,-1.3676,0.6905,-0.6990,-14.7235,4.2952,-3.5917,-1.7848,0.7909,3.4787,
5.602860,-0.2947,1.4599,-0.8685,-14.7235,4.2952,-3.5917,-1.7848,0.7909,3.4787,
5.603644,-0.2947,1.4599,-0.8685,-14.7235,4.2952,-3.5917,-0.3307,-2.3003,-1.8419,
5.604397,-0.2947,1.4599,-0.8685,-13.0897,0.2509,-6.6696,-0.3307,-2.3003,-1.8419,
5.658884,2.0774,1.6655,0.2097,-13.0897,0.2509,-6.6696,-0.3307,-2.3003,-1.8419,
5.660573,3.1671,1.6081,0.1192,-13.0897,0.2509,-6.6696,-0.3307,-2.3003,-1.8419,
5.661380,-0.0271,1.8740,-1.0575,-13.0897,0.2509,-6.6696,-0.3307,-2.3003,-1.8419,
5.662117,-0.0271,1.8740,-1.0575,-13.0897,0.2509,-6.6696,-0.7483,-2.5363,-0.5487,
5.662866,-0.0271,1.8740,-1.0575,13.8520,7.6026,-2.3391,-0.7483,-2.5363,-0.5487,
5.717126,-1.0270,0.9422,-0.1590,13.8520,7.6026,-2.3391,-0.7483,-2.5363,-0.5487,
5.718598,-0.5162,0.2757,0.4607,13.8520,7.6026,-2.3391,-0.7483,-2.5363,-0.5487,
5.719388,-0.3567,0.9391,0.2268,13.8520,7.6026,-2.3391,-0.7483,-2.5363,-0.5487,
5.720056,-0.3567,0.9391,0.2268,13.8520,7.6026,-2.3391,0.0855,0.8980,-3.2730,
5.720642,-0.3567,0.9391,0.2268,-7.4644,-2.5614,1.6913,0.0855,0.8980,-3.2730,
5.775709,-0.0398,1.1341,0.1958,-7.4644,-2.5614,1.6913,0.0855,0.8980,-3.2730,
5.776871,-0.0225,1.1317,-0.0686,-7.4644,-2.5614,1.6913,0.0855,0.8980,-3.2730,
5.777407,0.1270,1.0104,-0.0637,-7.4644,-2.5614,1.6913,0.0855,0.8980,-3.2730,
5.778445,0.1270,1.0104,-0.0637,-7.4644,-2.5614,1.6913,0.1710,-0.3781,-1.3119,
5.779291,0.1270,1.0104,-0.0637,-0.3028,1.0098,0.2765,0.1710,-0.3781,-1.3119,
5.833642,0.0637,0.9542,-0.0217,-0.3028,1.0098,0.2765,0.1710,-0.3781,-1.3119,
5.834973,-0.1111,1.0177,0.0593,-0.3028,1.0098,0.2765,0.1710,-0.3781,-1.3119,
5.835502,-0.1423,1.0213,0.0679,-0.3028,1.0098,0.2765,0.1710,-0.3781,-1.3119,
5.836108,-0.1423,1.0213,0.0679,-0.3028,1.0098,0.2765,0.1720,0.0678,-1.1657,
5.836685,-0.1423,1.0213,0.0679,-0.4670,0.0727,0.5032,0.1720,0.0678,-1.1657,
5.892033,-0.0066,0.9884,0.0317,-0.4670,0.0727,0.5032,0.1720,0.0678,-1.1657,
5.893154,0.0608,0.9789,0.0442,-0.4670,0.0727,0.5032,0.1720,0.0678,-1.1657,
5.893741,0.0569,0.9715,0.0281,-0.4670,0.0727,0.5032,0.1720,0.0678,-1.1657,
5.894234,0.0569,0.9715,0.0281,-0.4670,0.0727,0.5032,0.2107,-0.0051,-0.9998,
5.894855,0.0569,0.9715,0.0281,1.0632,-0.0757,0.6070,0.2107,-0.0051,-0.9998,
5.950291,-0.0481,0.9732,-0.0068,1.0632,-0.0757,0.6070,0.2107,-0.0051,-0.9998,
5.951435,-0.1751,1.0028,-0.0183,1.0632,-0.0757,0.6070,0.2107,-0.0051,-0.9998,
5.951957,-0.1758,1.0401,-0.0305,1.0632,-0.0757,0.6070,0.2107,-0.0051,-0.9998,
5.952551,-0.1758,1.0401,-0.0305,0.0541,0.2485,0.2307,0.2107,-0.0051,-0.9998,
5.953118,-0.1758,1.0401,-0.0305,0.0541,0.2485,0.2307,0.2203,0.4030,-1.1842,
6.009133,-0.1074,1.0365,-0.0190,0.0541,0.2485,0.2307,0.2203,0.4030,-1.1842,
6.010098,-0.0298,0.9962,-0.0300,0.0541,0.2485,0.2307,0.2203,0.4030,-1.1842,
6.010700,0.0161,0.9532,-0.0982,0.0541,0.2485,0.2307,0.2203,0.4030,-1.1842,
6.011200,0.0161,0.9532,-0.0982,0.0541,0.2485,0.2307,0.2142,0.2061,-1.1551,
6.011804,0.0161,0.9532,-0.0982,1.5727,0.2641,0.0693,0.2142,0.2061,-1.1551,
6.067061,-0.0144,0.9855,-0.0574,1.5727,0.2641,0.0693,0.2142,0.2061,-1.1551,
6.068189,-0.0635,1.1105,-0.0139,1.5727,0.2641,0.0693,0.2142,0.2061,-1.1551,
6.068867,-0.0767,1.1742,-0.0125,1.5727,0.2641,0.0693,0.2142,0.2061,-1.1551,
6.069347,-0.0767,1.1742,-0.0125,1.5727,0.2641,0.0693,0.2832,0.1647,-1.7189,
6.069907,-0.0767,1.1742,-0.0125,2.3568,1.4232,0.4469,0.2832,0.1647,-1.7189,
6.126590,-0.0767,1.1742,-0.0125,3.2715,3.0467,0.3771,0.2832,0.1647,-1.7189,
6.127844,-0.0308,1.1434,-0.0161,3.2715,3.0467,0.3771,0.2832,0.1647,-1.7189,
6.128439,-0.0962,1.1652,-0.0603,3.2715,3.0467,0.3771,0.2832,0.1647,-1.7189,
6.129048,-0.0884,1.3295,-0.1126,3.2715,3.0467,0.3771,0.2832,0.1647,-1.7189,
6.129527,-0.0884,1.3295,-0.1126,3.2715,3.0467,0.3771,0.4848,0.1267,-2.2299,
6.183733,0.1489,1.7040,-0.0574,3.2715,3.0467,0.3771,0.4848,0.1267,-2.2299,
6.185107,0.7120,1.9074,-0.1255,3.2715,3.0467,0.3771,0.4848,0.1267,-2.2299,
6.185774,1.0985,1.7370,-0.3411,3.2715,3.0467,0.3771,0.4848,0.1267,-2.2299,
6.186322,1.0985,1.7370,-0.3411,3.2715,3.0467,0.3771,0.6245,0.9648,-2.4703,
6.186919,1.0985,1.7370,-0.3411,11.3363,9.1827,-0.1440,0.6245,0.9648,-2.4703,
6.243117,0.5975,1.1405,-0.3250,11.3363,9.1827,-0.1440,0.6245,0.9648,-2.4703,
6.244547,-0.4507,0.7171,-0.2190,11.3363,9.1827,-0.1440,0.6245,0.9648,-2.4703,
6.245321,-1.1815,0.8255,-0.4087,11.3363,9.1827,-0.1440,0.6245,0.9648,-2.4703,
6.246075,-1.1815,0.8255,-0.4087,11.3363,9.1827,-0.1440,0.9664,2.5154,-3.8509,
6.246825,-1.1815,0.8255,-0.4087,2.8957,1.8433,-0.2723,0.9664,2.5154,-3.8509,
6.300484,-1.3930,0.9933,-0.3572,2.8957,1.8433,-0.2723,0.9664,2.5154,-3.8509,
6.301655,-1.1569,0.7037,-0.1721,2.8957,1.8433,-0.2723,0.9664,2.5154,-3.8509,
6.302244,-0.9960,0.4439,-0.2014,2.8957,1.8433,-0.2723,0.9664,2.5154,-3.8509,
6.302925,-0.9960,0.4439,-0.2014,2.8957,1.8433,-0.2723,0.9912,0.5726,-2.1156,
6.303659,-0.9960,0.4439,-0.2014,-4.5361,1.0546,1.0197,0.9912,0.5726,-2.1156,
6.359573,-0.6688,0.2884,-0.2354,-4.5361,1.0546,1.0197,0.9912,0.5726,-2.1156,
6.360937,-0.1658,0.0535,0.0325,-4.5361,1.0546,1.0197,0.9912,0.5726,-2.1156,
6.361459,0.3138,-0.2715,0.0977,-4.5361,1.0546,1.0197,0.9912,0.5726,-2.1156,
6.362029,0.3138,-0.2715,0.0977,-4.5361,1.0546,1.0197,0.0556,-1.4329,1.9481,
6.362623,0.3138,-0.2715,0.0977,4.8108,-6.3660,2.4637,0.0556,-1.4329,1.9481,
6.417357,0.1084,-0.1011,-0.1961,4.8108,-6.3660,2.4637,0.0556,-1.4329,1.9481,
6.418830,-0.2959,0.2876,-0.3189,4.8108,-6.3660,2.4637,0.0556,-1.4329,1.9481,
6.419495,-0.5628,0.4549,-0.2415,4.8108,-6.3660,2.4637,0.0556,-1.4329,1.9481,
6.420094,-0.5628,0.4549,-0.2415,4.8108,-6.3660,2.4637,1.3229,-2.2299,3.5608,
6.420695,-0.5628,0.4549,-0.2415,2.8741,-5.4435,0.1118,1.3229,-2.2299,3.5608,
6.475522,-0.5648,0.4183,-0.1394,2.8741,-5.4435,0.1118,1.3229,-2.2299,3.5608,
6.477082,-0.2791,0.3633,-0.1958,2.8741,-5.4435,0.1118,1.3229,-2.2299,3.5608,
6.477761,-0.2915,0.5972,-0.4214,2.8741,-5.4435,0.1118,1.3229,-2.2299,3.5608,
6.478265,-0.2915,0.5972,-0.4214,2.8741,-5.4435,0.1118,1.9808,-4.3178,5.9774,
6.478864,-0.2915,0.5972,-0.4214,-0.6078,-4.1562,-0.0072,1.9808,-4.3178,5.9774,
6.533889,-0.4205,1.0809,-0.4397,-0.6078,-4.1562,-0.0072,1.9808,-4.3178,5.9774,
6.535706,-0.4024,1.4188,-0.4546,-0.6078,-4.1562,-0.0072,1.9808,-4.3178,5.9774,
6.536365,-0.3296,1.7353,-0.3145,-0.6078,-4.1562,-0.0072,1.9808,-4.3178,5.9774,
6.536955,-0.3296,1.7353,-0.3145,-0.6078,-4.1562,-0.0072,3.0051,-7.5811,6.8035,
6.537599,-0.3296,1.7353,-0.3145,-2.9212,4.8259,-0.7274,3.0051,-7.5811,6.8035,
6.592028,-0.5162,1.8801,-0.0664,-2.9212,4.8259,-0.7274,3.0051,-7.5811,6.8035,
6.593274,-0.3665,1.5124,0.4466,-2.9212,4.8259,-0.7274,3.0051,-7.5811,6.8035,
6.593900,0.0977,1.0055,0.9220,-2.9212,4.8259,-0.7274,3.0051,-7.5811,6.8035,
6.594398,0.0977,1.0055,0.9220,-2.9212,4.8259,-0.7274,1.2423,-9.3783,4.5787,
6.595111,0.0977,1.0055,0.9220,-2.1631,5.3918,7.7456,1.2423,-9.3783,4.5787,
6.650453,-0.6429,1.4806,0.7835,-2.1631,5.3918,7.7456,1.2423,-9.3783,4.5787,
6.651692,0.4261,1.1642,1.8237,-2.1631,5.3918,7.7456,1.2423,-9.3783,4.5787,
6.652312,1.7043,0.8680,0.9584,-2.1631,5.3918,7.7456,1.2423,-9.3783,4.5787,
6.652786,1.7043,0.8680,0.9584,-2.1631,5.3918,7.7456,-0.6402,-2.9368,0.6498,
6.654197,1.7043,0.8680,0.9584,5.4176,2.3263,14.4835,-0.6402,-2.9368,0.6498,
6.708629,0.8031,1.6017,-0.2735,5.4176,2.3263,14.4835,-0.6402,-2.9368,0.6498,
6.710169,-0.1773,1.7209,-1.1932,5.4176,2.3263,14.4835,-0.6402,-2.9368,0.6498,
6.710795,-0.9938,1.1705,-1.1044,5.4176,2.3263,14.4835,-0.6402,-2.9368,0.6498,
6.711552,-0.9938,1.1705,-1.1044,5.4176,2.3263,14.4835,-0.3105,1.1348,-1.5750,
6.713181,-0.9938,1.1705,-1.1044,0.0164,5.4707,-5.5654,-0.3105,1.1348,-1.5750,
6.767070,-0.6375,0.9278,-0.5413,0.0164,5.4707,-5.5654,-0.3105,1.1348,-1.5750,
6.768718,-0.0449,0.8753,-0.1045,0.0164,5.4707,-5.5654,-0.3105,1.1348,-1.5750,
6.769743,-0.0505,0.8849,0.2574,0.0164,5.4707,-5.5654,-0.3105,1.1348,-1.5750,
6.770646,-0.0505,0.8849,0.2574,0.0164,5.4707,-5.5654,-0.6225,-1.5139,-0.1942,
6.771379,-0.0505,0.8849,0.2574,-0.8308,-0.4988,1.0812,-0.6225,-1.5139,-0.1942,
6.825603,-0.0918,0.9459,0.1519,-0.8308,-0.4988,1.0812,-0.6225,-1.5139,-0.1942,
6.827008,-0.3203,0.9481,-0.0669,-0.8308,-0.4988,1.0812,-0.6225,-1.5139,-0.1942,
6.827887,-0.4512,0.9601,-0.3096,-0.8308,-0.4988,1.0812,-0.6225,-1.5139,-0.1942,
6.828670,-0.4512,0.9601,-0.3096,-1.1504,0.0437,1.5339,-0.6225,-1.5139,-0.1942,
6.829306,-0.4512,0.9601,-0.3096,-1.1504,0.0437,1.5339,-0.0383,-0.3816,-0.0657,
6.883849,-0.3518,0.9591,-0.3284,-1.1504,0.0437,1.5339,-0.0383,-0.3816,-0.0657,
6.885858,-0.2488,0.9715,-0.3011,-1.1504,0.0437,1.5339,-0.0383,-0.3816,-0.0657,
6.886592,-0.2205,1.0011,-0.2112,-1.1504,0.0437,1.5339,-0.0383,-0.3816,-0.0657,
6.887207,-0.2205,1.0011,-0.2112,-1.1942,0.2583,-0.4731,-0.0383,-0.3816,-0.0657,
6.887869,-0.2205,1.0011,-0.2112,-1.1942,0.2583,-0.4731,0.0517,-0.3296,0.4527,
6.941968,-0.1563,0.9852,-0.1629,-1.1942,0.2583,-0.4731,0.0517,-0.3296,0.4527,
6.943018,-0.0295,0.9400,-0.1978,-1.1942,0.2583,-0.4731,0.0517,-0.3296,0.4527,
6.943646,0.0474,0.9337,-0.1738,-1.1942,0.2583,-0.4731,0.0517,-0.3296,0.4527,
6.944058,0.0474,0.9337,-0.1738,-1.1942,0.2583,-0.4731,0.1114,-0.5033,0.6315,
6.945040,0.0474,0.9337,-0.1738,0.7464,-0.0141,0.5391,0.1114,-0.5033,0.6315,
7.000441,0.0078,0.9635,-0.1719,0.7464,-0.0141,0.5391,0.1114,-0.5033,0.6315,
7.001716,-0.0628,0.9803,-0.2376,0.7464,-0.0141,0.5391,0.1114,-0.5033,0.6315,
7.002293,-0.1309,1.0052,-0.2200,0.7464,-0.0141,0.5391,0.1114,-0.5033,0.6315,
7.002791,-0.1309,1.0052,-0.2200,0.7464,-0.0141,0.5391,0.2433,-0.1338,0.2892,
7.003337,-0.1309,1.0052,-0.2200,0.4445,0.2895,0.3466,0.2433,-0.1338,0.2892,
7.058786,-0.0852,0.9752,-0.2215,0.4445,0.2895,0.3466,0.2433,-0.1338,0.2892,
7.060305,-0.0933,0.9359,-0.1892,0.4445,0.2895,0.3466,0.2433,-0.1338,0.2892,
7.060724,-0.0955,0.9498,-0.1570,0.4445,0.2895,0.3466,0.2433,-0.1338,0.2892,
7.061244,-0.0955,0.9498,-0.1570,0.4445,0.2895,0.3466,0.3590,-0.3663,0.2344,
7.061839,-0.0955,0.9498,-0.1570,0.0809,0.0393,0.7103,0.3590,-0.3663,0.2344,
7.117095,-0.0554,0.9637,-0.2139,0.0809,0.0393,0.7103,0.3590,-0.3663,0.2344,
7.118137,-0.0005,0.9718,-0.2246,0.0809,0.0393,0.7103,0.3590,-0.3663,0.2344,
7.118833,0.0896,1.0270,-0.1516,0.0809,0.0393,0.7103,0.3590,-0.3663,0.2344,
7.119437,0.0896,1.0270,-0.1516,0.0809,0.0393,0.7103,0.6027,-0.2447,0.1819,
7.119943,0.0896,1.0270,-0.1516,1.0089,0.4491,0.9332,0.6027,-0.2447,0.1819,
7.176093,0.2539,1.0343,-0.1607,1.0089,0.4491,0.9332,0.6027,-0.2447,0.1819,
7.177514,0.1521,1.0187,-0.2556,1.0089,0.4491,0.9332,0.6027,-0.2447,0.1819,
7.178034,0.0706,1.0734,-0.2371,1.0089,0.4491,0.9332,0.6027,-0.2447,0.1819,
7.178611,0.0706,1.0734,-0.2371,1.0089,0.4491,0.9332,1.1582,0.1692,-0.3404,
7.179086,0.0706,1.0734,-0.2371,2.5607,1.1977,1.3297,1.1582,0.1692,-0.3404,
7.233616,0.2061,1.1197,-0.2647,2.5607,1.1977,1.3297,1.1582,0.1692,-0.3404,
7.234833,0.2119,1.2523,-0.4161,2.5607,1.1977,1.3297,1.1582,0.1692,-0.3404,
7.235515,0.2146,1.5158,-0.4583,2.5607,1.1977,1.3297,1.1582,0.1692,-0.3404,
7.236585,0.2146,1.5158,-0.4583,3.4512,4.1300,0.7319,1.1582,0.1692,-0.3404,
7.237320,0.2146,1.5158,-0.4583,3.4512,4.1300,0.7319,1.9627,-0.0328,-0.8432,
7.292068,0.3286,1.8796,-0.3992,3.4512,4.1300,0.7319,1.9627,-0.0328,-0.8432,
7.293329,0.7113,1.9814,-0.0339,3.4512,4.1300,0.7319,1.9627,-0.0328,-0.8432,
7.293878,0.7335,1.7236,0.4776,3.4512,4.1300,0.7319,1.9627,-0.0328,-0.8432,
7.297080,0.7335,1.7236,0.4776,7.9879,10.4258,5.6520,1.9627,-0.0328,-0.8432,
7.298060,0.7335,1.7236,0.4776,7.9879,10.4258,5.6520,2.8861,-1.9839,-0.7403,
7.350282,-0.1797,1.5226,0.7557,7.9879,10.4258,5.6520,2.8861,-1.9839,-0.7403,
7.351422,-1.0931,1.5658,0.4708,7.9879,10.4258,5.6520,2.8861,-1.9839,-0.7403,
7.352029,-1.6244,1.6564,0.0461,7.9879,10.4258,5.6520,2.8861,-1.9839,-0.7403,
7.353076,-1.6244,1.6564,0.0461,7.9879,10.4258,5.6520,2.4013,-4.1062,-2.0690,
7.353752,-1.6244,1.6564,0.0461,-4.9437,8.7399,9.7233,2.4013,-4.1062,-2.0690,
7.408481,-1.4569,1.1871,-0.4573,-4.9437,8.7399,9.7233,2.4013,-4.1062,-2.0690,
7.409829,-0.4466,0.7816,-0.3372,-4.9437,8.7399,9.7233,2.4013,-4.1062,-2.0690,
7.410370,0.1865,0.6463,-0.1912,-4.9437,8.7399,9.7233,2.4013,-4.1062,-2.0690,
7.410856,0.1865,0.6463,-0.1912,-4.9437,8.7399,9.7233,1.7579,-4.8538,0.1401,
7.411913,0.1865,0.6463,-0.1912,0.3337,2.2239,1.4761,1.7579,-4.8538,0.1401,
7.466919,0.2476,0.4454,0.3199,0.3337,2.2239,1.4761,1.7579,-4.8538,0.1401,
7.468187,-0.2657,0.3868,0.4754,0.3337,2.2239,1.4761,1.7579,-4.8538,0.1401,
7.468746,-0.4827,0.3443,0.3008,0.3337,2.2239,1.4761,1.7579,-4.8538,0.1401,
7.469338,-0.4827,0.3443,0.3008,0.3337,2.2239,1.4761,0.7049,-3.1368,1.8809,
7.470664,-0.4827,0.3443,0.3008,4.3032,-2.9151,7.3041,0.7049,-3.1368,1.8809,
7.525346,-0.4366,0.3489,0.1885,4.3032,-2.9151,7.3041,0.7049,-3.1368,1.8809,
7.526624,-0.2823,0.3860,0.0913,4.3032,-2.9151,7.3041,0.7049,-3.1368,1.8809,
7.527241,-0.2207,0.4659,0.1145,4.3032,-2.9151,7.3041,0.7049,-3.1368,1.8809,
7.529035,-0.2207,0.4659,0.1145,4.3032,-2.9151,7.3041,0.0698,-1.7752,4.1040,
7.529886,-0.2207,0.4659,0.1145,1.4327,-4.0204,4.3985,0.0698,-1.7752,4.1040,
7.583598,-0.1907,0.5538,0.0967,1.4327,-4.0204,4.3985,0.0698,-1.7752,4.1040,
7.584815,-0.1843,0.6971,0.0706,1.4327,-4.0204,4.3985,0.0698,-1.7752,4.1040,
7.585524,-0.2046,0.9029,0.0359,1.4327,-4.0204,4.3985,0.0698,-1.7752,4.1040,
7.586028,-0.2046,0.9029,0.0359,1.4327,-4.0204,4.3985,-0.7666,-0.6866,5.6754,
7.587985,-0.2046,0.9029,0.0359,-0.1210,-2.0539,3.1868,-0.7666,-0.6866,5.6754,
7.642280,-0.2483,1.1481,0.0256,-0.1210,-2.0539,3.1868,-0.7666,-0.6866,5.6754,
7.643817,-0.2490,1.4354,-0.0051,-0.1210,-2.0539,3.1868,-0.7666,-0.6866,5.6754,
7.644741,-0.4285,1.7765,-0.0369,-0.1210,-2.0539,3.1868,-0.7666,-0.6866,5.6754,
7.645634,-0.4285,1.7765,-0.0369,-0.1210,-2.0539,3.1868,-1.6135,-0.5174,6.4396,
7.646949,-0.4285,1.7765,-0.0369,-4.6062,4.8505,1.5605,-1.6135,-0.5174,6.4396,
7.698622,-0.6807,1.9360,-0.1336,-4.6062,4.8505,1.5605,-1.6135,-0.5174,6.4396,
7.700157,-0.9200,1.7897,-0.1914,-4.6062,4.8505,1.5605,-1.6135,-0.5174,6.4396,
7.702170,-0.9200,1.7897,-0.1914,-12.1098,7.9985,-0.6955,-1.6135,-0.5174,6.4396,
7.703566,-0.9200,1.7897,-0.1914,-12.1098,7.9985,-0.6955,-1.9798,0.5502,5.3193,
7.759102,-0.8155,1.3898,-0.0315,-12.1098,7.9985,-0.6955,-1.9798,0.5502,5.3193,
7.760665,-0.8297,1.1498,-0.2688,-12.1098,7.9985,-0.6955,-1.9798,0.5502,5.3193,
7.761386,-1.2120,0.9049,-0.4151,-12.1098,7.9985,-0.6955,-1.9798,0.5502,5.3193,
7.762132,-1.4406,0.7049,-0.3575,-12.1098,7.9985,-0.6955,-1.9798,0.5502,5.3193,
7.762844,-1.4406,0.7049,-0.3575,-12.1098,7.9985,-0.6955,-1.1812,0.3790,0.8554,
7.764361,-1.4406,0.7049,-0.3575,-15.7570,0.5063,-3.5617,-1.1812,0.3790,0.8554,
7.816764,-1.3104,0.8988,-0.6463,-15.7570,0.5063,-3.5617,-1.1812,0.3790,0.8554,
7.818396,-0.4375,1.6288,-1.2714,-15.7570,0.5063,-3.5617,-1.1812,0.3790,0.8554,
7.819222,1.6733,1.8076,-0.4817,-15.7570,0.5063,-3.5617,-1.1812,0.3790,0.8554,
7.819992,1.6733,1.8076,-0.4817,-15.7570,0.5063,-3.5617,-0.5718,-3.1346,-1.4375,
7.821688,1.6733,1.8076,-0.4817,-3.8281,5.2291,-7.4183,-0.5718,-3.1346,-1.4375,
7.878132,3.0860,1.5343,-0.7537,-3.8281,5.2291,-7.4183,-0.5718,-3.1346,-1.4375,
7.879700,0.4456,1.6945,-0.7935,-3.8281,5.2291,-7.4183,-0.5718,-3.1346,-1.4375,
7.880562,-0.7020,0.8412,-0.1189,-3.8281,5.2291,-7.4183,-0.5718,-3.1346,-1.4375,
7.881432,-0.7020,0.8412,-0.1189,-3.8281,5.2291,-7.4183,-0.4964,-2.3899,-1.6986,
7.882350,-0.7020,0.8412,-0.1189,6.5238,3.9733,-4.7683,-0.4964,-2.3899,-1.6986,
7.933954,-0.7711,0.2864,0.9041,6.5238,3.9733,-4.7683,-0.4964,-2.3899,-1.6986,
7.935383,-0.1673,0.7008,0.5772,6.5238,3.9733,-4.7683,-0.4964,-2.3899,-1.6986,
7.936152,0.2183,1.1127,-0.0518,6.5238,3.9733,-4.7683,-0.4964,-2.3899,-1.6986,
7.936786,0.2183,1.1127,-0.0518,6.5238,3.9733,-4.7683,-0.2118,0.1635,-2.1089,
7.937973,0.2183,1.1127,-0.0518,-3.8456,-2.6877,5.1348,-0.2118,0.1635,-2.1089,
7.991977,-0.0447,1.2291,-0.3536,-3.8456,-2.6877,5.1348,-0.2118,0.1635,-2.1089,
7.993420,-0.0982,1.1906,-0.2371,-3.8456,-2.6877,5.1348,-0.2118,0.1635,-2.1089,
7.994055,0.2163,1.0377,-0.1599,-3.8456,-2.6877,5.1348,-0.2118,0.1635,-2.1089,
7.994777,0.2163,1.0377,-0.1599,-3.8456,-2.6877,5.1348,-0.0387,0.1633,-1.2757,
7.996474,0.2163,1.0377,-0.1599,-0.5347,1.6336,-1.9855,-0.0387,0.1633,-1.2757,
8.050846,0.1409,0.9740,0.1106,-0.5347,1.6336,-1.9855,-0.0387,0.1633,-1.2757,
8.052300,0.0005,0.9435,0.1648,-0.5347,1.6336,-1.9855,-0.0387,0.1633,-1.2757,
8.052990,0.0686,0.9195,0.1318,-0.5347,1.6336,-1.9855,-0.0387,0.1633,-1.2757,
8.053685,0.0686,0.9195,0.1318,-0.5347,1.6336,-1.9855,0.0360,-0.3893,-1.2185,
8.054256,0.0686,0.9195,0.1318,0.5997,-0.4154,1.7945,0.0360,-0.3893,-1.2185,
8.108570,0.0698,0.9417,0.0388,0.5997,-0.4154,1.7945,0.0360,-0.3893,-1.2185,
8.110046,-0.0764,1.0228,-0.0698,0.5997,-0.4154,1.7945,0.0360,-0.3893,-1.2185,
8.110668,-0.1270,1.0611,-0.1089,0.5997,-0.4154,1.7945,0.0360,-0.3893,-1.2185,
8.111316,-0.1270,1.0611,-0.1089,0.2360,0.2259,0.1054,0.0360,-0.3893,-1.2185,
8.111881,-0.1270,1.0611,-0.1089,0.2360,0.2259,0.1054,0.1718,0.0841,-1.3563,
8.166899,-0.0364,1.0682,-0.0654,0.2360,0.2259,0.1054,0.1718,0.0841,-1.3563,
8.168406,-0.0869,1.0660,-0.0354,0.2360,0.2259,0.1054,0.1718,0.0841,-1.3563,
8.169009,-0.1382,1.0094,-0.0247,0.2360,0.2259,0.1054,0.1718,0.0841,-1.3563,
8.169552,-0.1382,1.0094,-0.0247,0.5848,0.6921,0.2569,0.1718,0.0841,-1.3563,
8.170068,-0.1382,1.0094,-0.0247,0.5848,0.6921,0.2569,0.1948,-0.0026,-1.3838,
8.225533,-0.0796,0.9613,-0.0359,0.5848,0.6921,0.2569,0.1948,-0.0026,-1.3838,
8.226692,-0.0728,0.9845,-0.0535,0.5848,0.6921,0.2569,0.1948,-0.0026,-1.3838,
8.227212,-0.1448,1.0067,-0.1079,0.5848,0.6921,0.2569,0.1948,-0.0026,-1.3838,
8.227737,-0.1448,1.0067,-0.1079,0.5848,0.6921,0.2569,0.2130,0.3309,-1.5280,
8.228320,-0.1448,1.0067,-0.1079,1.2788,0.2384,0.1746,0.2130,0.3309,-1.5280,
8.284082,-0.1743,1.0077,-0.1218,1.2788,0.2384,0.1746,0.2130,0.3309,-1.5280,
8.285523,-0.1665,1.0858,-0.1138,1.2788,0.2384,0.1746,0.2130,0.3309,-1.5280,
8.286129,-0.1262,1.2184,-0.1069,1.2788,0.2384,0.1746,0.2130,0.3309,-1.5280,
8.286653,-0.1262,1.2184,-0.1069,1.2788,0.2384,0.1746,0.3125,0.1658,-1.7910,
8.287214,-0.1262,1.2184,-0.1069,1.6546,1.6859,-0.1039,0.3125,0.1658,-1.7910,
8.341842,-0.0015,1.2938,-0.0816,1.6546,1.6859,-0.1039,0.3125,0.1658,-1.7910,
8.343437,0.1599,1.3363,-0.0632,1.6546,1.6859,-0.1039,0.3125,0.1658,-1.7910,
8.344096,0.3528,1.4411,-0.0076,1.6546,1.6859,-0.1039,0.3125,0.1658,-1.7910,
8.344732,0.3528,1.4411,-0.0076,1.6546,1.6859,-0.1039,0.6237,-0.1211,-2.1403,
8.345370,0.3528,1.4411,-0.0076,5.8695,4.5982,0.7988,0.6237,-0.1211,-2.1403,
8.400685,0.7393,1.7170,0.0808,5.8695,4.5982,0.7988,0.6237,-0.1211,-2.1403,
8.401814,1.0223,1.9274,-0.0452,5.8695,4.5982,0.7988,0.6237,-0.1211,-2.1403,
8.402408,1.0802,1.5959,-0.0139,5.8695,4.5982,0.7988,0.6237,-0.1211,-2.1403,
8.402978,1.0802,1.5959,-0.0139,5.8695,4.5982,0.7988,0.8073,1.1615,-2.7552,
8.403533,1.0802,1.5959,-0.0139,14.4563,9.1159,2.0566,0.8073,1.1615,-2.7552,
8.458966,0.1682,1.1324,-0.0603,14.4563,9.1159,2.0566,0.8073,1.1615,-2.7552,
8.460226,-0.7508,1.2015,-0.2908,14.4563,9.1159,2.0566,0.8073,1.1615,-2.7552,
8.460803,-1.0585,1.3600,-0.3369,14.4563,9.1159,2.0566,0.8073,1.1615,-2.7552,
8.461428,-1.0585,1.3600,-0.3369,14.4563,9.1159,2.0566,1.0016,3.1637,-4.3168,
8.461954,-1.0585,1.3600,-0.3369,1.1032,5.6122,1.2339,1.0016,3.1637,-4.3168,
8.516910,-0.9923,1.0170,-0.3582,1.1032,5.6122,1.2339,1.0016,3.1637,-4.3168,
8.518571,-0.9144,0.6719,-0.3350,1.1032,5.6122,1.2339,1.0016,3.1637,-4.3168,
8.519134,-0.6614,0.4556,-0.5738,1.1032,5.6122,1.2339,1.0016,3.1637,-4.3168,
8.519841,-0.6614,0.4556,-0.5738,-1.5184,1.2516,-0.1550,1.0016,3.1637,-4.3168,
8.520416,-0.6614,0.4556,-0.5738,-1.5184,1.2516,-0.1550,0.2254,1.0788,-1.7355,
8.575983,-0.3533,0.2893,-0.3843,-1.5184,1.2516,-0.1550,0.2254,1.0788,-1.7355,
8.577280,-0.0874,0.1113,-0.1233,-1.5184,1.2516,-0.1550,0.2254,1.0788,-1.7355,
8.577839,0.0493,0.0645,-0.1162,-1.5184,1.2516,-0.1550,0.2254,1.0788,-1.7355,
8.578411,0.0493,0.0645,-0.1162,-1.5184,1.2516,-0.1550,-1.7756,0.0617,1.9872,
8.579192,0.0493,0.0645,-0.1162,4.7581,-5.2812,1.3002,-1.7756,0.0617,1.9872,
8.633795,-0.0747,0.2361,-0.2373,4.7581,-5.2812,1.3002,-1.7756,0.0617,1.9872,
8.635728,-0.2134,0.4441,-0.4187,4.7581,-5.2812,1.3002,-1.7756,0.0617,1.9872,
8.636603,-0.1284,0.5272,-0.3643,4.7581,-5.2812,1.3002,-1.7756,0.0617,1.9872,
8.638374,-0.1284,0.5272,-0.3643,4.7581,-5.2812,1.3002,-1.8729,-0.4842,3.8461,
8.639177,-0.1284,0.5272,-0.3643,2.9999,-4.2757,-0.9487,-1.8729,-0.4842,3.8461,
8.692097,-0.0754,0.5814,-0.2307,2.9999,-4.2757,-0.9487,-1.8729,-0.4842,3.8461,
8.693629,-0.0762,0.6133,-0.1792,2.9999,-4.2757,-0.9487,-1.8729,-0.4842,3.8461,
8.694349,-0.0347,0.7899,-0.2127,2.9999,-4.2757,-0.9487,-1.8729,-0.4842,3.8461,
8.695172,-0.0347,0.7899,-0.2127,2.9999,-4.2757,-0.9487,-2.0621,0.4738,5.6705,
8.695900,-0.0347,0.7899,-0.2127,0.7453,-2.8747,-0.6389,-2.0621,0.4738,5.6705,
8.750208,-0.0413,1.0922,-0.2979,0.7453,-2.8747,-0.6389,-2.0621,0.4738,5.6705,
8.752070,-0.1687,1.5343,-0.4234,0.7453,-2.8747,-0.6389,-2.0621,0.4738,5.6705,
8.752779,-0.5264,2.1323,-0.5420,0.7453,-2.8747,-0.6389,-2.0621,0.4738,5.6705,
8.753467,-0.5264,2.1323,-0.5420,-4.4999,6.1406,-3.7077,-2.0621,0.4738,5.6705,
8.754346,-0.5264,2.1323,-0.5420,-4.4999,6.1406,-3.7077,-1.8269,1.0043,6.3048,
8.809003,-0.7930,2.1279,-0.3968,-4.4999,6.1406,-3.7077,-1.8269,1.0043,6.3048,
8.810604,-0.8907,1.5041,0.1184,-4.4999,6.1406,-3.7077,-1.8269,1.0043,6.3048,
8.811326,-0.8199,1.1954,-0.2171,-4.4999,6.1406,-3.7077,-1.8269,1.0043,6.3048,
8.812028,-0.8199,1.1954,-0.2171,-4.4999,6.1406,-3.7077,-1.7654,0.0878,5.3384,
8.812709,-0.8199,1.1954,-0.2171,-12.8418,7.3425,-2.0885,-1.7654,0.0878,5.3384,
8.866918,-0.9466,1.0333,-0.3980,-12.8418,7.3425,-2.0885,-1.7654,0.0878,5.3384,
8.868796,-1.2870,0.7674,-0.1646,-12.8418,7.3425,-2.0885,-1.7654,0.0878,5.3384,
8.869517,-1.4530,0.8250,-0.3040,-12.8418,7.3425,-2.0885,-1.7654,0.0878,5.3384,
8.870181,-1.4530,0.8250,-0.3040,-16.2600,0.0535,-3.1692,-1.7654,0.0878,5.3384,
8.870885,-1.4530,0.8250,-0.3040,-16.2600,0.0535,-3.1692,-0.5009,-1.1478,-0.4142,
8.925787,-0.7342,1.6257,-0.8275,-16.2600,0.0535,-3.1692,-0.5009,-1.1478,-0.4142,
8.927400,1.7692,1.8168,0.2671,-16.2600,0.0535,-3.1692,-0.5009,-1.1478,-0.4142,
8.928192,3.2994,1.4604,-0.4092,-16.2600,0.0535,-3.1692,-0.5009,-1.1478,-0.4142,
8.929001,3.2994,1.4604,-0.4092,9.9599,7.2744,-2.9271,-0.5009,-1.1478,-0.4142,
8.929751,3.2994,1.4604,-0.4092,9.9599,7.2744,-2.9271,-0.6828,-3.6214,-0.4080,
8.983781,0.5521,1.5038,-0.9010,9.9599,7.2744,-2.9271,-0.6828,-3.6214,-0.4080,
8.985158,-0.8624,1.1371,-0.4678,9.9599,7.2744,-2.9271,-0.6828,-3.6214,-0.4080,
8.985811,-1.0399,0.5840,0.6229,9.9599,7.2744,-2.9271,-0.6828,-3.6214,-0.4080,
8.986471,-1.0399,0.5840,0.6229,9.9599,7.2744,-2.9271,-0.3140,-0.0953,-3.9112,
8.988621,-1.0399,0.5840,0.6229,-6.4115,1.0492,-2.2690,-0.3140,-0.0953,-3.9112,
9.042410,-0.3035,0.6871,0.3702,-6.4115,1.0492,-2.2690,-0.3140,-0.0953,-3.9112,
9.043879,-0.0217,0.9981,0.0332,-6.4115,1.0492,-2.2690,-0.3140,-0.0953,-3.9112,
9.044707,-0.0356,1.1957,-0.1116,-6.4115,1.0492,-2.2690,-0.3140,-0.0953,-3.9112,
9.045416,-0.0356,1.1957,-0.1116,-6.4115,1.0492,-2.2690,0.0908,-0.0175,-1.6125,
9.045952,-0.0356,1.1957,-0.1116,-2.2415,-0.2160,1.1542,0.0908,-0.0175,-1.6125,
9.100202,0.1682,1.1508,-0.1629,-2.2415,-0.2160,1.1542,0.0908,-0.0175,-1.6125,
9.101314,0.2700,1.0182,-0.0308,-2.2415,-0.2160,1.1542,0.0908,-0.0175,-1.6125,
9.101901,-0.0430,0.9444,0.0212,-2.2415,-0.2160,1.1542,0.0908,-0.0175,-1.6125,
9.103547,-0.0430,0.9444,0.0212,0.8908,0.4863,-0.2794,0.0908,-0.0175,-1.6125,
9.104577,-0.0430,0.9444,0.0212,0.8908,0.4863,-0.2794,0.1387,0.0059,-1.2022,
9.158729,-0.2234,0.9525,0.1087,0.8908,0.4863,-0.2794,0.1387,0.0059,-1.2022,
9.159818,0.0400,0.9891,0.0291,0.8908,0.4863,-0.2794,0.1387,0.0059,-1.2022,
9.160224,0.2090,0.9925,-0.0088,0.8908,0.4863,-0.2794,0.1387,0.0059,-1.2022,
9.161533,0.2090,0.9925,-0.0088,0.8908,0.4863,-0.2794,0.1784,-0.3738,-1.0938,
9.162352,0.2090,0.9925,-0.0088,0.3036,-0.0997,0.7929,0.1784,-0.3738,-1.0938,
9.217108,0.1309,0.9820,-0.0159,0.3036,-0.0997,0.7929,0.1784,-0.3738,-1.0938,
9.218274,-0.0071,0.9977,-0.0215,0.3036,-0.0997,0.7929,0.1784,-0.3738,-1.0938,
9.218926,-0.1582,1.0367,-0.0730,0.3036,-0.0997,0.7929,0.1784,-0.3738,-1.0938,
9.219508,-0.1582,1.0367,-0.0730,0.3036,-0.0997,0.7929,0.2378,0.0945,-1.3816,
9.220042,-0.1582,1.0367,-0.0730,0.8684,0.2206,0.1478,0.2378,0.0945,-1.3816,
9.275395,-0.2207,1.0428,-0.0899,0.8684,0.2206,0.1478,0.2378,0.0945,-1.3816,
9.276928,-0.1336,0.9811,-0.0703,0.8684,0.2206,0.1478,0.2378,0.0945,-1.3816,
9.277487,-0.0564,0.9251,-0.0586,0.8684,0.2206,0.1478,0.2378,0.0945,-1.3816,
9.277911,-0.0564,0.9251,-0.0586,0.3660,0.1105,-0.0602,0.2378,0.0945,-1.3816,
9.278515,-0.0564,0.9251,-0.0586,0.3660,0.1105,-0.0602,0.2160,0.3004,-1.3298,
9.333913,-0.0652,0.9454,-0.1021,0.3660,0.1105,-0.0602,0.2160,0.3004,-1.3298,
9.335448,-0.0234,0.9715,-0.1301,0.3660,0.1105,-0.0602,0.2160,0.3004,-1.3298,
9.336049,-0.0232,1.0865,-0.0686,0.3660,0.1105,-0.0602,0.2160,0.3004,-1.3298,
9.336674,-0.0232,1.0865,-0.0686,0.3660,0.1105,-0.0602,0.2117,0.3661,-1.5860,
9.337291,-0.0232,1.0865,-0.0686,2.1622,0.4870,-0.1633,0.2117,0.3661,-1.5860,
9.392084,-0.0649,1.2291,0.0098,2.1622,0.4870,-0.1633,0.2117,0.3661,-1.5860,
9.393191,-0.0161,1.2860,0.0305,2.1622,0.4870,-0.1633,0.2117,0.3661,-1.5860,
9.393809,0.0249,1.2733,-0.0469,2.1622,0.4870,-0.1633,0.2117,0.3661,-1.5860,
9.394365,0.0249,1.2733,-0.0469,2.1622,0.4870,-0.1633,0.5267,-0.1649,-2.1814,
9.395041,0.0249,1.2733,-0.0469,3.4566,3.4191,1.0278,0.5267,-0.1649,-2.1814,
9.450535,0.0457,1.3275,-0.1836,3.4566,3.4191,1.0278,0.5267,-0.1649,-2.1814,
9.452185,0.2903,1.6454,-0.0999,3.4566,3.4191,1.0278,0.5267,-0.1649,-2.1814,
9.452770,0.8744,1.8874,-0.1873,3.4566,3.4191,1.0278,0.5267,-0.1649,-2.1814,
9.453362,0.8744,1.8874,-0.1873,3.4566,3.4191,1.0278,0.8756,0.5125,-2.5709,
9.453959,0.8744,1.8874,-0.1873,8.6981,7.5028,0.0812,0.8756,0.5125,-2.5709,
9.509945,1.1058,1.7011,-0.3614,8.6981,7.5028,0.0812,0.8756,0.5125,-2.5709,
9.511162,0.5963,1.1415,-0.1209,8.6981,7.5028,0.0812,0.8756,0.5125,-2.5709,
9.511645,-0.4632,0.7887,-0.0293,8.6981,7.5028,0.0812,0.8756,0.5125,-2.5709,
9.512167,-0.4632,0.7887,-0.0293,8.6981,7.5028,0.0812,1.0810,2.1588,-3.2539,
9.512728,-0.4632,0.7887,-0.0293,9.8285,4.5697,1.1079,1.0810,2.1588,-3.2539,
9.566925,-1.2880,1.0685,-0.3057,9.8285,4.5697,1.1079,1.0810,2.1588,-3.2539,
9.568325,-1.5600,1.1952,-0.3885,9.8285,4.5697,1.1079,1.0810,2.1588,-3.2539,
9.569085,-1.2599,0.7066,-0.1809,9.8285,4.5697,1.1079,1.0810,2.1588,-3.2539,
9.569655,-1.2599,0.7066,-0.1809,9.8285,4.5697,1.1079,1.4787,1.3209,-3.1087,
9.570245,-1.2599,0.7066,-0.1809,-6.5788,3.7725,0.9509,1.4787,1.3209,-3.1087,
9.626115,-0.9034,0.3418,-0.3025,-6.5788,3.7725,0.9509,1.4787,1.3209,-3.1087,
9.627692,-0.6041,0.2459,-0.2998,-6.5788,3.7725,0.9509,1.4787,1.3209,-3.1087,
9.628298,-0.1555,0.0720,0.0269,-6.5788,3.7725,0.9509,1.4787,1.3209,-3.1087,
9.628712,-0.1555,0.0720,0.0269,1.2561,-4.1616,1.3603,1.4787,1.3209,-3.1087,
9.629299,-0.1555,0.0720,0.0269,1.2561,-4.1616,1.3603,0.0167,-1.3757,1.1672,
9.683620,0.1602,-0.2176,0.1870,1.2561,-4.1616,1.3603,0.0167,-1.3757,1.1672,
9.684829,0.0845,-0.1233,0.0149,1.2561,-4.1616,1.3603,0.0167,-1.3757,1.1672,
9.685362,-0.1909,0.1428,-0.2449,1.2561,-4.1616,1.3603,0.0167,-1.3757,1.1672,
9.686362,-0.1909,0.1428,-0.2449,5.5443,-8.0982,2.5922,0.0167,-1.3757,1.1672,
9.687035,-0.1909,0.1428,-0.2449,5.5443,-8.0982,2.5922,0.3767,-1.7169,3.7467,
9.741888,-0.4429,0.3973,-0.4366,5.5443,-8.0982,2.5922,0.3767,-1.7169,3.7467,
9.743130,-0.5428,0.4820,-0.1856,5.5443,-8.0982,2.5922,0.3767,-1.7169,3.7467,
9.743741,-0.4866,0.4832,-0.1526,5.5443,-8.0982,2.5922,0.3767,-1.7169,3.7467,
9.745363,-0.4866,0.4832,-0.1526,5.5443,-8.0982,2.5922,1.1395,-2.8014,5.4893,
9.746206,-0.4866,0.4832,-0.1526,-1.5871,-4.1386,0.0401,1.1395,-2.8014,5.4893,
9.800416,-0.4500,0.6968,-0.3858,-1.5871,-4.1386,0.0401,1.1395,-2.8014,5.4893,
9.802044,-0.5518,1.2155,-0.3230,-1.5871,-4.1386,0.0401,1.1395,-2.8014,5.4893,
9.802794,-0.5941,1.6178,-0.3057,-1.5871,-4.1386,0.0401,1.1395,-2.8014,5.4893,
9.803315,-0.5941,1.6178,-0.3057,-4.6692,2.4483,-0.3504,1.1395,-2.8014,5.4893,
9.803932,-0.5941,1.6178,-0.3057,-4.6692,2.4483,-0.3504,2.0055,-6.4473,7.2435,
9.858446,-0.4783,1.9189,-0.3052,-4.6692,2.4483,-0.3504,2.0055,-6.4473,7.2435,
9.859830,-0.4383,1.9023,0.1826,-4.6692,2.4483,-0.3504,2.0055,-6.4473,7.2435,
9.860443,-0.1150,1.4862,0.7366,-4.6692,2.4483,-0.3504,2.0055,-6.4473,7.2435,
9.860978,-0.1150,1.4862,0.7366,-4.6692,2.4483,-0.3504,1.5157,-9.6532,5.6223,
9.861565,-0.1150,1.4862,0.7366,-3.7794,8.4500,5.7546,1.5157,-9.6532,5.6223,
9.916806,0.3628,1.0067,0.7855,-3.7794,8.4500,5.7546,1.5157,-9.6532,5.6223,
9.917919,0.2112,0.7779,0.7938,-3.7794,8.4500,5.7546,1.5157,-9.6532,5.6223,
9.918521,-1.1642,1.4958,0.2595,-3.7794,8.4500,5.7546,1.5157,-9.6532,5.6223,
9.919677,-1.1642,1.4958,0.2595,-3.7794,8.4500,5.7546,-0.4024,-3.7410,1.3448,
9.921138,-1.1642,1.4958,0.2595,-2.1650,1.7461,9.4803,-0.4024,-3.7410,1.3448,
9.975489,-0.8160,1.4682,1.5617,-2.1650,1.7461,9.4803,-0.4024,-3.7410,1.3448,
9.977010,0.6287,0.8192,0.3028,-2.1650,1.7461,9.4803,-0.4024,-3.7410,1.3448,
9.977646,0.3645,1.0480,-0.8546,-2.1650,1.7461,9.4803,-0.4024,-3.7410,1.3448,
9.978875,0.3645,1.0480,-0.8546,-2.1650,1.7461,9.4803,-0.6675,0.2507,-0.7452,
9.979633,0.3645,1.0480,-0.8546,0.6825,1.7667,6.3190,-0.6675,0.2507,-0.7452,
10.033586,-0.2361,1.5253,-1.1561,0.6825,1.7667,6.3190,-0.6675,0.2507,-0.7452,
10.035397,-0.4678,1.3642,-0.7811,0.6825,1.7667,6.3190,-0.6675,0.2507,-0.7452,
10.036252,0.1648,0.9471,-0.3667,0.6825,1.7667,6.3190,-0.6675,0.2507,-0.7452,
10.037012,0.1648,0.9471,-0.3667,0.6825,1.7667,6.3190,-0.4565,-1.0252,-0.5595,
10.038712,0.1648,0.9471,-0.3667,-1.1681,3.2819,-4.6933,-0.4565,-1.0252,-0.5595,
10.091837,0.2991,0.8612,0.0034,-1.1681,3.2819,-4.6933,-0.4565,-1.0252,-0.5595,
10.093351,-0.0010,0.9239,0.2031,-1.1681,3.2819,-4.6933,-0.4565,-1.0252,-0.5595,
10.094137,-0.3626,0.9154,0.0720,-1.1681,3.2819,-4.6933,-0.4565,-1.0252,-0.5595,
10.094864,-0.3626,0.9154,0.0720,-1.1681,3.2819,-4.6933,-0.3735,-0.8984,-0.4634,
10.096364,-0.3626,0.9154,0.0720,0.7621,-0.4593,3.4413,-0.3735,-0.8984,-0.4634,
10.150186,-0.5604,0.9327,-0.1416,0.7621,-0.4593,3.4413,-0.3735,-0.8984,-0.4634,
10.151678,-0.4058,0.9581,-0.2981,0.7621,-0.4593,3.4413,-0.3735,-0.8984,-0.4634,
10.152320,-0.2329,0.9869,-0.3352,0.7621,-0.4593,3.4413,-0.3735,-0.8984,-0.4634,
10.153515,-0.2329,0.9869,-0.3352,-2.8132,0.1370,0.0369,-0.3735,-0.8984,-0.4634,
10.154675,-0.2329,0.9869,-0.3352,-2.8132,0.1370,0.0369,0.1222,-0.4671,-0.0271,
10.208514,-0.1150,1.0023,-0.3316,-2.8132,0.1370,0.0369,0.1222,-0.4671,-0.0271,
10.209813,-0.1177,0.9906,-0.2891,-2.8132,0.1370,0.0369,0.1222,-0.4671,-0.0271,
10.210415,-0.1655,0.9364,-0.2449,-2.8132,0.1370,0.0369,0.1222,-0.4671,-0.0271,
10.210832,-0.1655,0.9364,-0.2449,-2.8132,0.1370,0.0369,0.1631,-0.6369,0.4427,
10.212129,-0.1655,0.9364,-0.2449,-0.3343,0.2981,-0.2063,0.1631,-0.6369,0.4427,
10.266844,-0.1665,0.9039,-0.2385,-0.3343,0.2981,-0.2063,0.1631,-0.6369,0.4427,
10.267973,-0.0601,0.9320,-0.2505,-0.3343,0.2981,-0.2063,0.1631,-0.6369,0.4427,
10.268574,0.0164,1.0084,-0.2642,-0.3343,0.2981,-0.2063,0.1631,-0.6369,0.4427,
10.269068,0.0164,1.0084,-0.2642,-0.3343,0.2981,-0.2063,0.2134,-0.4107,0.4999,
10.270372,0.0164,1.0084,-0.2642,0.0721,0.0279,0.2507,0.2134,-0.4107,0.4999,
10.325323,0.0349,1.0104,-0.2759,0.0721,0.0279,0.2507,0.2134,-0.4107,0.4999,
10.326424,-0.0549,0.9222,-0.2788,0.0721,0.0279,0.2507,0.2134,-0.4107,0.4999,
10.326995,-0.1306,0.9122,-0.2278,0.0721,0.0279,0.2507,0.2134,-0.4107,0.4999,
10.328285,-0.1306,0.9122,-0.2278,0.0721,0.0279,0.2507,0.3325,-0.3160,0.2468,
10.329102,-0.1306,0.9122,-0.2278,0.1819,0.0722,0.3157,0.3325,-0.3160,0.2468,
10.383503,-0.0820,0.9398,-0.2337,0.1819,0.0722,0.3157,0.3325,-0.3160,0.2468,
10.384848,-0.0742,0.9769,-0.1968,0.1819,0.0722,0.3157,0.3325,-0.3160,0.2468,
10.385367,-0.0249,0.9950,-0.2034,0.1819,0.0722,0.3157,0.3325,-0.3160,0.2468,
10.386490,-0.0249,0.9950,-0.2034,0.1819,0.0722,0.3157,0.5239,-0.2462,0.2474,
10.387533,-0.0249,0.9950,-0.2034,-0.0073,0.3673,1.0550,0.5239,-0.2462,0.2474,
10.441827,0.0952,0.9850,-0.1834,-0.0073,0.3673,1.0550,0.5239,-0.2462,0.2474,
10.443067,0.0894,1.0433,-0.2041,-0.0073,0.3673,1.0550,0.5239,-0.2462,0.2474,
10.443594,0.0300,1.0939,-0.3028,-0.0073,0.3673,1.0550,0.5239,-0.2462,0.2474,
10.444073,0.0300,1.0939,-0.3028,-0.0073,0.3673,1.0550,0.9464,-0.0822,0.1128,
10.445611,0.0300,1.0939,-0.3028,1.2209,1.2169,1.3453,0.9464,-0.0822,0.1128,
10.500477,-0.0002,1.0904,-0.4378,1.2209,1.2169,1.3453,0.9464,-0.0822,0.1128,
10.501662,-0.0671,1.0350,-0.5579,1.2209,1.2169,1.3453,0.9464,-0.0822,0.1128,
10.502174,-0.1262,1.1425,-0.4900,1.2209,1.2169,1.3453,0.9464,-0.0822,0.1128,
10.502688,-0.1262,1.1425,-0.4900,1.2209,1.2169,1.3453,1.4473,-0.1154,-0.0165,
10.503920,-0.1262,1.1425,-0.4900,-0.0764,1.9953,-0.5035,1.4473,-0.1154,-0.0165,
10.558563,0.2029,1.3222,-0.3003,-0.0764,1.9953,-0.5035,1.4473,-0.1154,-0.0165,
10.559850,0.5938,1.5480,-0.0420,-0.0764,1.9953,-0.5035,1.4473,-0.1154,-0.0165,
10.560401,0.8150,1.6435,0.1878,-0.0764,1.9953,-0.5035,1.4473,-0.1154,-0.0165,
10.560993,0.8150,1.6435,0.1878,-0.0764,1.9953,-0.5035,1.9992,-2.2466,0.2222,
10.563631,0.8150,1.6435,0.1878,6.2427,6.5040,4.6410,1.9992,-2.2466,0.2222,
10.617280,0.4778,1.6032,0.3697,6.2427,6.5040,4.6410,1.9992,-2.2466,0.2222,
10.618533,0.1184,1.5277,0.5948,6.2427,6.5040,4.6410,1.9992,-2.2466,0.2222,
10.619077,-0.3924,1.4933,0.2950,6.2427,6.5040,4.6410,1.9992,-2.2466,0.2222,
10.619627,-0.3924,1.4933,0.2950,6.2427,6.5040,4.6410,2.0554,-2.8778,-1.1643,
10.620865,-0.3924,1.4933,0.2950,3.0484,7.5191,9.7603,2.0554,-2.8778,-1.1643,
10.676748,-0.8973,1.4335,0.1201,3.0484,7.5191,9.7603,2.0554,-2.8778,-1.1643,
10.677967,-1.1239,1.2350,-0.2757,3.0484,7.5191,9.7603,2.0554,-2.8778,-1.1643,
10.678569,-0.7930,1.2455,-0.5953,3.0484,7.5191,9.7603,2.0554,-2.8778,-1.1643,
10.679044,-0.7930,1.2455,-0.5953,3.0484,7.5191,9.7603,1.6960,-3.9537,-1.7752,
10.679545,-0.7930,1.2455,-0.5953,-4.6842,6.0137,3.0635,1.6960,-3.9537,-1.7752,
10.733961,-0.2027,1.0450,-0.3147,-4.6842,6.0137,3.0635,1.6960,-3.9537,-1.7752,
10.735301,0.2552,0.6231,0.1111,-4.6842,6.0137,3.0635,1.6960,-3.9537,-1.7752,
10.735972,0.0459,0.5379,0.2349,-4.6842,6.0137,3.0635,1.6960,-3.9537,-1.7752,
10.736564,0.0459,0.5379,0.2349,-4.6842,6.0137,3.0635,0.2073,-5.3950,0.8595,
10.737157,0.0459,0.5379,0.2349,5.9047,0.2252,3.9885,0.2073,-5.3950,0.8595,
10.792119,-0.1773,0.6485,0.2200,5.9047,0.2252,3.9885,0.2073,-5.3950,0.8595,
10.793227,-0.2141,0.6780,0.1875,5.9047,0.2252,3.9885,0.2073,-5.3950,0.8595,
10.793803,-0.1585,0.5772,0.0974,5.9047,0.2252,3.9885,0.2073,-5.3950,0.8595,
10.794872,-0.1585,0.5772,0.0974,5.9047,0.2252,3.9885,-0.1804,-3.3168,2.4812,
10.795909,-0.1585,0.5772,0.0974,3.3041,-1.5594,4.3169,-0.1804,-3.3168,2.4812,
10.850640,-0.1025,0.5406,0.0889,3.3041,-1.5594,4.3169,-0.1804,-3.3168,2.4812,
10.852231,-0.1751,0.6553,0.0574,3.3041,-1.5594,4.3169,-0.1804,-3.3168,2.4812,
10.852986,-0.2786,0.8023,0.0212,3.3041,-1.5594,4.3169,-0.1804,-3.3168,2.4812,
10.853628,-0.2786,0.8023,0.0212,3.3041,-1.5594,4.3169,-0.0269,-1.3384,4.3647,
10.854255,-0.2786,0.8023,0.0212,1.3265,-2.2823,2.8038,-0.0269,-1.3384,4.3647,
10.909009,-0.3289,0.9291,-0.0085,1.3265,-2.2823,2.8038,-0.0269,-1.3384,4.3647,
10.910625,-0.3196,1.0465,-0.0344,1.3265,-2.2823,2.8038,-0.0269,-1.3384,4.3647,
10.911351,-0.2835,1.2196,-0.0371,1.3265,-2.2823,2.8038,-0.0269,-1.3384,4.3647,
10.912026,-0.2835,1.2196,-0.0371,1.3265,-2.2823,2.8038,-0.6325,-0.8302,6.0806,
10.912724,-0.2835,1.2196,-0.0371,-3.0184,0.9739,1.5393,-0.6325,-0.8302,6.0806,
10.966800,-0.2920,1.5238,-0.1321,-3.0184,0.9739,1.5393,-0.6325,-0.8302,6.0806,
10.968260,-0.3377,1.7133,-0.2605,-3.0184,0.9739,1.5393,-0.6325,-0.8302,6.0806,
10.969311,-0.5460,1.6994,-0.1463,-3.0184,0.9739,1.5393,-0.6325,-0.8302,6.0806,
10.970202,-0.5460,1.6994,-0.1463,-7.2358,7.1047,-0.6553,-0.6325,-0.8302,6.0806,
10.971122,-0.5460,1.6994,-0.1463,-7.2358,7.1047,-0.6553,-1.4258,-0.6620,6.6434,
11.025241,-0.8968,1.5683,-0.0234,-7.2358,7.1047,-0.6553,-1.4258,-0.6620,6.6434,
11.027251,-1.0355,1.3087,-0.2005,-7.2358,7.1047,-0.6553,-1.4258,-0.6620,6.6434,
11.028072,-1.1212,1.0807,-0.2771,-7.2358,7.1047,-0.6553,-1.4258,-0.6620,6.6434,
11.028795,-1.1212,1.0807,-0.2771,-7.2358,7.1047,-0.6553,-1.3079,0.8882,3.4311,
11.029523,-1.1212,1.0807,-0.2771,-14.8787,4.6336,-1.4061,-1.3079,0.8882,3.4311,
11.083661,-1.3099,0.8524,-0.2923,-14.8787,4.6336,-1.4061,-1.3079,0.8882,3.4311,
11.086020,-1.2506,0.7486,-0.3885,-14.8787,4.6336,-1.4061,-1.3079,0.8882,3.4311,
11.086797,-0.7740,1.3864,-0.9139,-14.8787,4.6336,-1.4061,-1.3079,0.8882,3.4311,
11.087576,-0.7740,1.3864,-0.9139,-14.8787,4.6336,-1.4061,-0.0992,0.1884,-1.6778,
11.088208,-0.7740,1.3864,-0.9139,-14.7145,1.0059,-4.9946,-0.0992,0.1884,-1.6778,
11.142065,0.9664,1.7170,-0.0103,-14.7145,1.0059,-4.9946,-0.0992,0.1884,-1.6778,
11.143342,2.6118,1.5798,-0.0906,-14.7145,1.0059,-4.9946,-0.0992,0.1884,-1.6778,
11.144171,0.7550,1.5619,-0.7843,-14.7145,1.0059,-4.9946,-0.0992,0.1884,-1.6778,
11.145098,0.7550,1.5619,-0.7843,-14.7145,1.0059,-4.9946,-0.3623,-2.4868,-0.6786,
11.146020,0.7550,1.5619,-0.7843,10.5589,6.8510,-2.3099,-0.3623,-2.4868,-0.6786,
11.200785,-0.6746,1.1881,-0.5716,10.5589,6.8510,-2.3099,-0.3623,-2.4868,-0.6786,
11.202426,-0.7198,0.6920,0.2632,10.5589,6.8510,-2.3099,-0.3623,-2.4868,-0.6786,
11.203077,-0.3186,0.7174,0.4429,10.5589,6.8510,-2.3099,-0.3623,-2.4868,-0.6786,
11.203605,-0.3186,0.7174,0.4429,10.5589,6.8510,-2.3099,-0.2022,-0.0694,-3.2740,
11.204262,-0.3186,0.7174,0.4429,-7.2874,-1.0417,0.9285,-0.2022,-0.0694,-3.2740,
11.258807,-0.0662,1.0091,0.4605,-7.2874,-1.0417,0.9285,-0.2022,-0.0694,-3.2740,
11.259988,0.0847,1.0509,-0.0879,-7.2874,-1.0417,0.9285,-0.2022,-0.0694,-3.2740,
11.260859,0.0383,1.0602,-0.2583,-7.2874,-1.0417,0.9285,-0.2022,-0.0694,-3.2740,
11.261548,0.0383,1.0602,-0.2583,-7.2874,-1.0417,0.9285,0.0912,-0.0529,-1.5428,
11.263040,0.0383,1.0602,-0.2583,-0.6300,0.5460,0.9020,0.0912,-0.0529,-1.5428,
11.317053,-0.0671,1.0953,-0.1099,-0.6300,0.5460,0.9020,0.0912,-0.0529,-1.5428,
11.318230,0.0261,1.0585,-0.0916,-0.6300,0.5460,0.9020,0.0912,-0.0529,-1.5428,
11.318906,-0.1174,0.9862,0.0154,-0.6300,0.5460,0.9020,0.0912,-0.0529,-1.5428,
11.319504,-0.1174,0.9862,0.0154,-0.6300,0.5460,0.9020,0.0273,0.0438,-1.3223,
11.320015,-0.1174,0.9862,0.0154,-0.5795,0.5676,-0.0634,0.0273,0.0438,-1.3223,
11.375402,-0.1594,0.9818,0.0957,-0.5795,0.5676,-0.0634,0.0273,0.0438,-1.3223,
11.376889,-0.0342,0.9859,0.0220,-0.5795,0.5676,-0.0634,0.0273,0.0438,-1.3223,
11.377439,0.0691,0.9933,-0.0078,-0.5795,0.5676,-0.0634,0.0273,0.0438,-1.3223,
11.377986,0.0691,0.9933,-0.0078,-0.5795,0.5676,-0.0634,0.0751,-0.1431,-1.0356,
11.378531,0.0691,0.9933,-0.0078,0.1193,-0.0005,0.9274,0.0751,-0.1431,-1.0356,
11.433769,0.0459,1.0489,-0.0335,0.1193,-0.0005,0.9274,0.0751,-0.1431,-1.0356,
11.434904,-0.1204,1.0655,-0.0847,0.1193,-0.0005,0.9274,0.0751,-0.1431,-1.0356,
11.435597,-0.1951,1.0543,-0.0816,0.1193,-0.0005,0.9274,0.0751,-0.1431,-1.0356,
11.436171,-0.1951,1.0543,-0.0816,0.1193,-0.0005,0.9274,0.1452,0.0517,-1.2024,
11.436675,-0.1951,1.0543,-0.0816,0.3145,0.7316,0.0009,0.1452,0.0517,-1.2024,
11.494043,-0.1419,1.0487,-0.0505,0.3145,0.7316,0.0009,0.1452,0.0517,-1.2024,
11.495355,-0.1133,1.0243,-0.0251,0.3145,0.7316,0.0009,0.1452,0.0517,-1.2024,
11.496049,-0.0750,1.0157,-0.0095,0.3145,0.7316,0.0009,0.1452,0.0517,-1.2024,
11.496666,-0.0750,1.0157,-0.0095,0.3145,0.7316,0.0009,0.1820,0.0833,-1.1741,
11.497277,-0.0750,1.0157,-0.0095,0.7556,0.5720,0.4760,0.1820,0.0833,-1.1741,
11.550414,-0.0439,1.0372,-0.0327,0.7556,0.5720,0.4760,0.1820,0.0833,-1.1741,
11.551546,-0.0359,1.0348,-0.0552,0.7556,0.5720,0.4760,0.1820,0.0833,-1.1741,
11.552119,-0.0339,1.0309,-0.0837,0.7556,0.5720,0.4760,0.1820,0.0833,-1.1741,
11.552600,-0.0339,1.0309,-0.0837,0.7556,0.5720,0.4760,0.2517,0.2873,-1.4756,
11.553166,-0.0339,1.0309,-0.0837,2.2216,0.8094,0.3638,0.2517,0.2873,-1.4756,
11.608770,-0.0640,1.1302,-0.0654,2.2216,0.8094,0.3638,0.2517,0.2873,-1.4756,
11.610008,-0.0862,1.2369,-0.0496,2.2216,0.8094,0.3638,0.2517,0.2873,-1.4756,
11.610538,0.0366,1.2640,-0.0754,2.2216,0.8094,0.3638,0.2517,0.2873,-1.4756,
11.611082,0.0366,1.2640,-0.0754,2.2216,0.8094,0.3638,0.4811,-0.0267,-1.9713,
11.611650,0.0366,1.2640,-0.0754,3.2210,2.8752,0.5431,0.4811,-0.0267,-1.9713,
11.666911,0.2154,1.3717,-0.0796,3.2210,2.8752,0.5431,0.4811,-0.0267,-1.9713,
11.667994,0.4693,1.6635,0.0378,3.2210,2.8752,0.5431,0.4811,-0.0267,-1.9713,
11.668631,0.9938,2.0046,0.0813,3.2210,2.8752,0.5431,0.4811,-0.0267,-1.9713,
11.669220,0.9938,2.0046,0.0813,3.2210,2.8752,0.5431,0.8792,0.1389,-2.3347,
11.670424,0.9938,2.0046,0.0813,10.0751,7.9836,1.7443,0.8792,0.1389,-2.3347,
11.725350,1.5282,1.8647,0.0032,10.0751,7.9836,1.7443,0.8792,0.1389,-2.3347,
11.726656,0.9483,1.2721,0.1248,10.0751,7.9836,1.7443,0.8792,0.1389,-2.3347,
11.727326,-0.3799,1.1486,-0.0979,10.0751,7.9836,1.7443,0.8792,0.1389,-2.3347,
11.728712,-0.3799,1.1486,-0.0979,12.5581,6.5665,2.6868,0.8792,0.1389,-2.3347,
11.729729,-0.3799,1.1486,-0.0979,12.5581,6.5665,2.6868,0.6964,2.2197,-3.4793,
11.783913,-1.1205,1.4203,-0.3240,12.5581,6.5665,2.6868,0.6964,2.2197,-3.4793,
11.785376,-1.0882,1.2589,-0.4087,12.5581,6.5665,2.6868,0.6964,2.2197,-3.4793,
11.785926,-0.8553,0.8180,-0.3279,12.5581,6.5665,2.6868,0.6964,2.2197,-3.4793,
11.786517,-0.8553,0.8180,-0.3279,12.5581,6.5665,2.6868,0.8857,2.4716,-3.7114,
11.787151,-0.8553,0.8180,-0.3279,-3.2568,5.4181,0.3636,0.8857,2.4716,-3.7114,
11.841839,-0.6732,0.5931,-0.3767,-3.2568,5.4181,0.3636,0.8857,2.4716,-3.7114,
11.843089,-0.3880,0.2935,-0.5398,-3.2568,5.4181,0.3636,0.8857,2.4716,-3.7114,
11.843664,-0.2329,0.1626,-0.1687,-3.2568,5.4181,0.3636,0.8857,2.4716,-3.7114,
11.844293,-0.2329,0.1626,-0.1687,-3.2568,5.4181,0.3636,-1.0692,0.5085,0.2291,
11.845892,-0.2329,0.1626,-0.1687,2.2835,-2.8559,0.1050,-1.0692,0.5085,0.2291,
11.900614,-0.1311,0.0549,-0.1170,2.2835,-2.8559,0.1050,-1.0692,0.5085,0.2291,
11.902096,-0.1079,0.0857,-0.2422,2.2835,-2.8559,0.1050,-1.0692,0.5085,0.2291,
11.902835,-0.2295,0.2571,-0.4312,2.2835,-2.8559,0.1050,-1.0692,0.5085,0.2291,
11.903522,-0.2295,0.2571,-0.4312,3.6915,-6.3103,0.1934,-1.0692,0.5085,0.2291,
11.904220,-0.2295,0.2571,-0.4312,3.6915,-6.3103,0.1934,-1.8090,-0.4023,3.1635,
11.958472,-0.1724,0.3921,-0.4693,3.6915,-6.3103,0.1934,-1.8090,-0.4023,3.1635,
11.959916,-0.0586,0.4461,-0.3416,3.6915,-6.3103,0.1934,-1.8090,-0.4023,3.1635,
11.960643,-0.0711,0.5320,-0.1011,3.6915,-6.3103,0.1934,-1.8090,-0.4023,3.1635,
11.962064,-0.0711,0.5320,-0.1011,3.6915,-6.3103,0.1934,-2.0584,-0.6915,5.4435,
11.963063,-0.0711,0.5320,-0.1011,1.6093,-4.5798,-1.3523,-2.0584,-0.6915,5.4435,
12.016950,-0.0034,0.7432,-0.2542,1.6093,-4.5798,-1.3523,-2.0584,-0.6915,5.4435,
12.018398,-0.0203,1.1493,-0.4888,1.6093,-4.5798,-1.3523,-2.0584,-0.6915,5.4435,
12.019156,-0.1848,1.6003,-0.6248,1.6093,-4.5798,-1.3523,-2.0584,-0.6915,5.4435,
12.019845,-0.1848,1.6003,-0.6248,1.6093,-4.5798,-1.3523,-1.2334,0.8416,6.5695,
12.020546,-0.1848,1.6003,-0.6248,-1.7075,1.9251,-3.4418,-1.2334,0.8416,6.5695,
12.075435,-0.6746,1.9726,-0.4720,-1.7075,1.9251,-3.4418,-1.2334,0.8416,6.5695,
12.076918,-1.1002,2.0368,-0.3555,-1.7075,1.9251,-3.4418,-1.2334,0.8416,6.5695,
12.077702,-1.1879,1.5805,-0.0891,-1.7075,1.9251,-3.4418,-1.2334,0.8416,6.5695,
12.078806,-1.1879,1.5805,-0.0891,-13.5668,9.4346,-2.9981,-1.2334,0.8416,6.5695,
12.079997,-1.1879,1.5805,-0.0891,-13.5668,9.4346,-2.9981,-1.7353,1.0008,5.7286,
12.133825,-1.0072,1.0633,-0.2447,-13.5668,9.4346,-2.9981,-1.7353,1.0008,5.7286,
12.136269,-1.0633,0.8453,-0.3926,-13.5668,9.4346,-2.9981,-1.7353,1.0008,5.7286,
12.137227,-1.3168,0.8387,-0.1492,-13.5668,9.4346,-2.9981,-1.7353,1.0008,5.7286,
12.137997,-1.3168,0.8387,-0.1492,-13.5668,9.4346,-2.9981,-0.7603,-0.7487,1.3329,
12.138769,-1.3168,0.8387,-0.1492,-15.3765,0.4766,-2.7103,-0.7603,-0.7487,1.3329,
12.192226,-1.1373,1.3434,-0.5203,-15.3765,0.4766,-2.7103,-0.7603,-0.7487,1.3329,
12.193802,0.8663,1.7221,0.3138,-15.3765,0.4766,-2.7103,-0.7603,-0.7487,1.3329,
12.194830,2.9307,1.7277,0.0054,-15.3765,0.4766,-2.7103,-0.7603,-0.7487,1.3329,
12.196025,2.9307,1.7277,0.0054,-15.3765,0.4766,-2.7103,-0.6091,-2.3754,-0.9763,
12.196936,2.9307,1.7277,0.0054,4.7832,6.8140,-0.5202,-0.6091,-2.3754,-0.9763,
12.250205,1.5592,1.6523,-0.8827,4.7832,6.8140,-0.5202,-0.6091,-2.3754,-0.9763,
12.251842,-0.7159,1.0839,-0.3704,4.7832,6.8140,-0.5202,-0.6091,-2.3754,-0.9763,
12.252686,-0.9964,0.4600,0.4356,4.7832,6.8140,-0.5202,-0.6091,-2.3754,-0.9763,
12.253408,-0.9964,0.4600,0.4356,4.7832,6.8140,-0.5202,0.0930,-0.2356,-3.7322,
12.253999,-0.9964,0.4600,0.4356,-2.3606,0.9479,-2.3786,0.0930,-0.2356,-3.7322,
12.308572,-0.6412,0.7327,0.2342,-2.3606,0.9479,-2.3786,0.0930,-0.2356,-3.7322,
12.310083,-0.1043,1.0370,0.0940,-2.3606,0.9479,-2.3786,0.0930,-0.2356,-3.7322,
12.310663,-0.1394,1.1317,-0.0884,-2.3606,0.9479,-2.3786,0.0930,-0.2356,-3.7322,
12.311078,-0.1394,1.1317,-0.0884,-2.3606,0.9479,-2.3786,0.1763,-0.3470,-2.1195,
12.311602,-0.1394,1.1317,-0.0884,-3.5001,-0.1649,1.1773,0.1763,-0.3470,-2.1195,
12.366664,-0.0989,1.0917,-0.1277,-3.5001,-0.1649,1.1773,0.1763,-0.3470,-2.1195,
12.368062,0.0530,1.0409,-0.1470,-3.5001,-0.1649,1.1773,0.1763,-0.3470,-2.1195,
12.368559,-0.0828,1.0116,-0.0752,-3.5001,-0.1649,1.1773,0.1763,-0.3470,-2.1195,
12.369041,-0.0828,1.0116,-0.0752,-3.5001,-0.1649,1.1773,0.2148,-0.0682,-1.3887,
12.370323,-0.0828,1.0116,-0.0752,-0.2423,0.6057,-0.6158,0.2148,-0.0682,-1.3887,
12.425154,-0.2320,1.0377,-0.0322,-0.2423,0.6057,-0.6158,0.2148,-0.0682,-1.3887,
12.426341,-0.1936,1.0033,-0.0381,-0.2423,0.6057,-0.6158,0.2148,-0.0682,-1.3887,
12.426934,-0.0530,0.9889,-0.0381,-0.2423,0.6057,-0.6158,0.2148,-0.0682,-1.3887,
12.427484,-0.0530,0.9889,-0.0381,-0.2423,0.6057,-0.6158,0.1474,-0.1262,-1.0533,
12.428004,-0.0530,0.9889,-0.0381,-0.7748,0.2622,0.2481,0.1474,-0.1262,-1.0533,
12.483471,0.0044,1.0011,-0.0244,-0.7748,0.2622,0.2481,0.1474,-0.1262,-1.0533,
12.484750,-0.0640,0.9957,-0.0308,-0.7748,0.2622,0.2481,0.1474,-0.1262,-1.0533,
12.485307,-0.1233,0.9767,-0.0315,-0.7748,0.2622,0.2481,0.1474,-0.1262,-1.0533,
12.485806,-0.1233,0.9767,-0.0315,-0.7748,0.2622,0.2481,0.1454,0.0686,-0.9804,
12.486256,-0.1233,0.9767,-0.0315,0.7254,0.1418,0.3985,0.1454,0.0686,-0.9804,
12.541986,-0.1675,0.9923,-0.0337,0.7254,0.1418,0.3985,0.1454,0.0686,-0.9804,
12.543209,-0.1734,1.0025,-0.0320,0.7254,0.1418,0.3985,0.1454,0.0686,-0.9804,
12.543702,-0.1345,0.9823,-0.0239,0.7254,0.1418,0.3985,0.1454,0.0686,-0.9804,
12.544251,-0.1345,0.9823,-0.0239,0.7254,0.1418,0.3985,0.1596,0.1432,-1.0566,
12.544954,-0.1345,0.9823,-0.0239,0.3448,0.2557,0.4831,0.1596,0.1432,-1.0566,
12.600156,-0.0696,0.9469,-0.0466,0.3448,0.2557,0.4831,0.1596,0.1432,-1.0566,
12.601201,-0.0852,0.9566,-0.0925,0.3448,0.2557,0.4831,0.1596,0.1432,-1.0566,
12.601642,-0.1463,1.0055,-0.1243,0.3448,0.2557,0.4831,0.1596,0.1432,-1.0566,
12.602259,-0.1463,1.0055,-0.1243,0.3448,0.2557,0.4831,0.1895,0.2352,-1.2751,
12.602898,-0.1463,1.0055,-0.1243,1.5740,0.2057,0.0491,0.1895,0.2352,-1.2751,
12.658484,-0.1450,1.0780,-0.1492,1.5740,0.2057,0.0491,0.1895,0.2352,-1.2751,
12.659706,-0.0996,1.1429,-0.1216,1.5740,0.2057,0.0491,0.1895,0.2352,-1.2751,
12.660268,-0.0012,1.1913,-0.0298,1.5740,0.2057,0.0491,0.1895,0.2352,-1.2751,
12.660826,-0.0012,1.1913,-0.0298,1.5740,0.2057,0.0491,0.3305,-0.0454,-1.6626,
12.661404,-0.0012,1.1913,-0.0298,2.6002,2.1241,0.0934,0.3305,-0.0454,-1.6626,
12.716736,0.1021,1.1937,-0.0139,2.6002,2.1241,0.0934,0.3305,-0.0454,-1.6626,
12.718009,0.1409,1.2943,-0.1025,2.6002,2.1241,0.0934,0.3305,-0.0454,-1.6626,
12.718518,0.2779,1.5326,-0.2429,2.6002,2.1241,0.0934,0.3305,-0.0454,-1.6626,
12.719084,0.2779,1.5326,-0.2429,2.6002,2.1241,0.0934,0.5518,0.0874,-2.2956,
12.719632,0.2779,1.5326,-0.2429,6.1658,4.6080,0.2002,0.5518,0.0874,-2.2956,
12.776453,0.6795,1.8664,-0.2725,6.1658,4.6080,0.2002,0.5518,0.0874,-2.2956,
12.778106,1.2059,1.8349,-0.3518,6.1658,4.6080,0.2002,0.5518,0.0874,-2.2956,
12.778689,0.5262,1.2460,-0.1304,6.1658,4.6080,0.2002,0.5518,0.0874,-2.2956,
12.779190,0.5262,1.2460,-0.1304,6.1658,4.6080,0.2002,0.7829,1.7675,-2.7807,
12.779931,0.5262,1.2460,-0.1304,13.2413,8.3945,-0.1898,0.7829,1.7675,-2.7807,
12.833603,-0.7203,0.8495,-0.0405,13.2413,8.3945,-0.1898,0.7829,1.7675,-2.7807,
12.834895,-1.5021,1.0533,-0.3555,13.2413,8.3945,-0.1898,0.7829,1.7675,-2.7807,
12.835558,-1.7101,1.0824,-0.4185,13.2413,8.3945,-0.1898,0.7829,1.7675,-2.7807,
12.836149,-1.7101,1.0824,-0.4185,13.2413,8.3945,-0.1898,1.6424,1.5217,-4.0694,
12.836773,-1.7101,1.0824,-0.4185,-5.9846,3.6490,0.8002,1.6424,1.5217,-4.0694,
12.891912,-1.1542,0.6331,-0.2022,-5.9846,3.6490,0.8002,1.6424,1.5217,-4.0694,
12.893346,-0.7569,0.3184,-0.2315,-5.9846,3.6490,0.8002,1.6424,1.5217,-4.0694,
12.893913,-0.4178,0.1008,-0.1077,-5.9846,3.6490,0.8002,1.6424,1.5217,-4.0694,
12.894402,-0.4178,0.1008,-0.1077,-5.9846,3.6490,0.8002,0.4553,-1.1189,0.0503,
12.895191,-0.4178,0.1008,-0.1077,-0.5325,-2.5533,1.3646,0.4553,-1.1189,0.0503,
12.950214,-0.0711,-0.1177,0.2464,-0.5325,-2.5533,1.3646,0.4553,-1.1189,0.0503,
12.951375,0.1709,-0.2600,0.2119,-0.5325,-2.5533,1.3646,0.4553,-1.1189,0.0503,
12.951893,0.0378,-0.0234,0.0056,-0.5325,-2.5533,1.3646,0.4553,-1.1189,0.0503,
12.952314,0.0378,-0.0234,0.0056,-0.5325,-2.5533,1.3646,0.0291,-1.1902,2.9611,
12.952863,0.0378,-0.0234,0.0056,6.4823,-8.3027,4.1208,0.0291,-1.1902,2.9611,
13.009223,-0.2427,0.2991,-0.2737,6.4823,-8.3027,4.1208,0.0291,-1.1902,2.9611,
13.010441,-0.4749,0.5608,-0.3172,6.4823,-8.3027,4.1208,0.0291,-1.1902,2.9611,
13.011050,-0.6173,0.5125,-0.1292,6.4823,-8.3027,4.1208,0.0291,-1.1902,2.9611,
13.011581,-0.6173,0.5125,-0.1292,6.4823,-8.3027,4.1208,0.8689,-1.5658,4.2649,
13.012165,-0.6173,0.5125,-0.1292,0.0068,-3.6199,0.1618,0.8689,-1.5658,4.2649,
13.066771,-0.6905,0.5145,-0.1902,0.0068,-3.6199,0.1618,0.8689,-1.5658,4.2649,
13.068008,-0.7015,0.7430,-0.1157,0.0068,-3.6199,0.1618,0.8689,-1.5658,4.2649,
13.068618,-0.6226,1.0123,-0.1077,0.0068,-3.6199,0.1618,0.8689,-1.5658,4.2649,
13.069090,-0.6226,1.0123,-0.1077,0.0068,-3.6199,0.1618,1.5123,-4.7436,6.1582,
13.070494,-0.6226,1.0123,-0.1077,-4.5696,-1.5828,1.0534,1.5123,-4.7436,6.1582,
13.125290,-0.4737,1.2604,-0.2283,-4.5696,-1.5828,1.0534,1.5123,-4.7436,6.1582,
13.126659,-0.2771,1.6840,-0.2486,-4.5696,-1.5828,1.0534,1.5123,-4.7436,6.1582,
13.127224,-0.3658,2.0183,-0.0520,-4.5696,-1.5828,1.0534,1.5123,-4.7436,6.1582,
13.128959,-0.3658,2.0183,-0.0520,-4.5696,-1.5828,1.0534,2.4207,-7.4990,6.0185,
13.129911,-0.3658,2.0183,-0.0520,-3.5373,7.1511,1.5360,2.4207,-7.4990,6.0185,
13.183468,-0.4593,1.6423,0.3789,-3.5373,7.1511,1.5360,2.4207,-7.4990,6.0185,
13.184690,-0.2002,1.1324,0.7476,-3.5373,7.1511,1.5360,2.4207,-7.4990,6.0185,
13.185229,-0.3416,0.8612,0.6365,-3.5373,7.1511,1.5360,2.4207,-7.4990,6.0185,
13.185742,-0.3416,0.8612,0.6365,-3.5373,7.1511,1.5360,0.1590,-6.4919,3.0191,
13.187252,-0.3416,0.8612,0.6365,-3.3918,2.8226,9.0113,0.1590,-6.4919,3.0191,
13.241764,-1.3336,1.4525,-0.1519,-3.3918,2.8226,9.0113,0.1590,-6.4919,3.0191,
13.243062,-0.5884,1.0983,1.1178,-3.3918,2.8226,9.0113,0.1590,-6.4919,3.0191,
13.243650,1.0350,0.4461,0.9635,-3.3918,2.8226,9.0113,0.1590,-6.4919,3.0191,
13.244077,1.0350,0.4461,0.9635,-3.3918,2.8226,9.0113,-0.4443,-1.4402,-0.4748,
13.246389,1.0350,0.4461,0.9635,-2.4527,0.6534,9.1705,-0.4443,-1.4402,-0.4748,
13.300914,0.7003,1.0475,-0.5010,-2.4527,0.6534,9.1705,-0.4443,-1.4402,-0.4748,
13.302339,-0.2781,1.5849,-0.7833,-2.4527,0.6534,9.1705,-0.4443,-1.4402,-0.4748,
13.303106,-0.6680,1.5443,-0.8648,-2.4527,0.6534,9.1705,-0.4443,-1.4402,-0.4748,
13.304746,-0.6680,1.5443,-0.8648,-2.4527,0.6534,9.1705,-0.5009,0.5290,-1.0547,
13.306172,-0.6680,1.5443,-0.8648,0.1210,4.3964,-4.3214,-0.5009,0.5290,-1.0547,
13.358430,-0.2776,1.1119,-0.3548,0.1210,4.3964,-4.3214,-0.5009,0.5290,-1.0547,
13.359903,0.2600,0.9364,-0.2110,0.1210,4.3964,-4.3214,-0.5009,0.5290,-1.0547,
13.360564,0.1043,0.8875,-0.0037,0.1210,4.3964,-4.3214,-0.5009,0.5290,-1.0547,
13.361297,0.1043,0.8875,-0.0037,0.1210,4.3964,-4.3214,-0.5596,-1.3425,-0.4152,
13.362860,0.1043,0.8875,-0.0037,1.5983,0.2824,0.4357,-0.5596,-1.3425,-0.4152,
13.417005,-0.2600,0.9330,0.1255,1.5983,0.2824,0.4357,-0.5596,-1.3425,-0.4152,
13.418463,-0.4419,0.9596,0.0952,1.5983,0.2824,0.4357,-0.5596,-1.3425,-0.4152,
13.419145,-0.4136,0.9535,-0.1004,1.5983,0.2824,0.4357,-0.5596,-1.3425,-0.4152,
13.419892,-0.4136,0.9535,-0.1004,1.5983,0.2824,0.4357,-0.1658,-0.4995,-0.5834,
13.420530,-0.4136,0.9535,-0.1004,-1.9155,0.0186,2.5140,-0.1658,-0.4995,-0.5834,
13.475939,-0.3594,0.9593,-0.2298,-1.9155,0.0186,2.5140,-0.1658,-0.4995,-0.5834,
13.477422,-0.2959,0.9759,-0.2359,-1.9155,0.0186,2.5140,-0.1658,-0.4995,-0.5834,
13.478185,-0.2432,0.9911,-0.2180,-1.9155,0.0186,2.5140,-0.1658,-0.4995,-0.5834,
13.478850,-0.2432,0.9911,-0.2180,-1.9155,0.0186,2.5140,0.1521,-0.5170,0.0870,
13.479394,-0.2432,0.9911,-0.2180,-1.1696,0.2860,-0.0822,0.1521,-0.5170,0.0870,
13.533592,-0.2207,0.9828,-0.2376,-1.1696,0.2860,-0.0822,0.1521,-0.5170,0.0870,
13.535500,-0.1458,0.9813,-0.2586,-1.1696,0.2860,-0.0822,0.1521,-0.5170,0.0870,
13.536149,-0.0801,0.9476,-0.2029,-1.1696,0.2860,-0.0822,0.1521,-0.5170,0.0870,
13.537483,-0.0801,0.9476,-0.2029,-1.1696,0.2860,-0.0822,0.1800,-0.5386,0.3356,
13.538249,-0.0801,0.9476,-0.2029,0.1901,0.2237,-0.0876,0.1800,-0.5386,0.3356,
13.591718,-0.0962,0.9747,-0.2180,0.1901,0.2237,-0.0876,0.1800,-0.5386,0.3356,
13.592783,-0.0613,0.9974,-0.2586,0.1901,0.2237,-0.0876,0.1800,-0.5386,0.3356,
13.593283,-0.1607,0.9593,-0.2373,0.1901,0.2237,-0.0876,0.1800,-0.5386,0.3356,
13.593670,-0.1607,0.9593,-0.2373,0.1901,0.2237,-0.0876,0.1926,-0.2187,0.1644,
13.596180,-0.1607,0.9593,-0.2373,0.5399,0.2929,-0.0517,0.1926,-0.2187,0.1644,
13.650418,-0.2588,0.9491,-0.1978,0.5399,0.2929,-0.0517,0.1926,-0.2187,0.1644,
13.651787,-0.2295,0.9759,-0.1416,0.5399,0.2929,-0.0517,0.1926,-0.2187,0.1644,
13.652219,-0.1572,0.9684,-0.1695,0.5399,0.2929,-0.0517,0.1926,-0.2187,0.1644,
13.652933,-0.1572,0.9684,-0.1695,0.5399,0.2929,-0.0517,0.3254,-0.3805,0.1283,
13.653557,-0.1572,0.9684,-0.1695,-0.5378,0.1980,0.7468,0.3254,-0.3805,0.1283,
13.708683,-0.1267,0.9251,-0.2512,-0.5378,0.1980,0.7468,0.3254,-0.3805,0.1283,
13.710157,-0.1900,0.9439,-0.2188,-0.5378,0.1980,0.7468,0.3254,-0.3805,0.1283,
13.710792,-0.2632,0.9554,-0.1863,-0.5378,0.1980,0.7468,0.3254,-0.3805,0.1283,
13.711410,-0.2632,0.9554,-0.1863,-0.5378,0.1980,0.7468,0.4592,-0.3748,0.1941,
13.711928,-0.2632,0.9554,-0.1863,-0.3666,0.0225,0.4703,0.4592,-0.3748,0.1941,
13.766793,-0.2190,0.9779,-0.2154,-0.3666,0.0225,0.4703,0.4592,-0.3748,0.1941,
13.767996,-0.1155,1.0030,-0.2991,-0.3666,0.0225,0.4703,0.4592,-0.3748,0.1941,
13.768522,-0.0359,0.9925,-0.3181,-0.3666,0.0225,0.4703,0.4592,-0.3748,0.1941,
13.769032,-0.0359,0.9925,-0.3181,-0.3666,0.0225,0.4703,0.6090,-0.3176,0.3775,
13.770175,-0.0359,0.9925,-0.3181,0.1640,0.5656,0.1899,0.6090,-0.3176,0.3775,
13.825341,0.0144,0.9935,-0.2698,0.1640,0.5656,0.1899,0.6090,-0.3176,0.3775,
13.826673,0.0129,1.0174,-0.2569,0.1640,0.5656,0.1899,0.6090,-0.3176,0.3775,
13.827222,-0.0232,1.0301,-0.3086,0.1640,0.5656,0.1899,0.6090,-0.3176,0.3775,
13.827759,-0.0232,1.0301,-0.3086,0.1640,0.5656,0.1899,0.8857,-0.1309,0.1684,
13.828194,-0.0232,1.0301,-0.3086,1.2996,0.9199,0.6293,0.8857,-0.1309,0.1684,
13.883508,-0.0720,1.0306,-0.2510,1.2996,0.9199,0.6293,0.8857,-0.1309,0.1684,
13.884814,0.0000,1.0504,-0.1956,1.2996,0.9199,0.6293,0.8857,-0.1309,0.1684,
13.885332,0.2212,1.1339,-0.1760,1.2996,0.9199,0.6293,0.8857,-0.1309,0.1684,
13.886868,0.2212,1.1339,-0.1760,1.9032,1.7602,1.9565,0.8857,-0.1309,0.1684,
13.887711,0.2212,1.1339,-0.1760,1.9032,1.7602,1.9565,1.3728,-0.5610,-0.0788,
13.942168,0.4913,1.3886,-0.1362,1.9032,1.7602,1.9565,1.3728,-0.5610,-0.0788,
13.943370,0.6666,1.6952,-0.1355,1.9032,1.7602,1.9565,1.3728,-0.5610,-0.0788,
13.944168,0.4986,1.6491,-0.1485,1.9032,1.7602,1.9565,1.3728,-0.5610,-0.0788,
13.944980,0.4986,1.6491,-0.1485,1.9032,1.7602,1.9565,2.1120,-1.0307,-0.6259,
13.945695,0.4986,1.6491,-0.1485,7.2804,7.2101,3.4980,2.1120,-1.0307,-0.6259,
14.000356,0.1155,1.4916,0.1372,7.2804,7.2101,3.4980,2.1120,-1.0307,-0.6259,
14.001520,-0.2678,1.3817,0.4336,7.2804,7.2101,3.4980,2.1120,-1.0307,-0.6259,
14.002229,-0.9049,1.4025,0.2012,7.2804,7.2101,3.4980,2.1120,-1.0307,-0.6259,
14.002920,-0.9049,1.4025,0.2012,7.2804,7.2101,3.4980,2.3062,-1.9989,-1.5522,
14.003520,-0.9049,1.4025,0.2012,-0.2580,6.5460,8.0130,2.3062,-1.9989,-1.5522,
14.058731,-1.4159,1.4005,-0.0994,-0.2580,6.5460,8.0130,2.3062,-1.9989,-1.5522,
14.059968,-1.1603,1.1720,-0.3079,-0.2580,6.5460,8.0130,2.3062,-1.9989,-1.5522,
14.060598,-0.5574,1.0839,-0.5262,-0.2580,6.5460,8.0130,2.3062,-1.9989,-1.5522,
14.061146,-0.5574,1.0839,-0.5262,-0.2580,6.5460,8.0130,1.8617,-4.4544,-0.9841,
14.061730,-0.5574,1.0839,-0.5262,-5.1397,5.2536,2.0891,1.8617,-4.4544,-0.9841,
14.116687,-0.0012,0.9122,-0.3472,-5.1397,5.2536,2.0891,1.8617,-4.4544,-0.9841,
14.117606,0.3238,0.5608,0.1863,-5.1397,5.2536,2.0891,1.8617,-4.4544,-0.9841,
14.118188,0.1394,0.4498,0.3836,-5.1397,5.2536,2.0891,1.8617,-4.4544,-0.9841,
14.118730,0.1394,0.4498,0.3836,-5.1397,5.2536,2.0891,0.7171,-5.3602,1.7339,
14.120504,0.1394,0.4498,0.3836,7.1911,-0.7724,4.3308,0.7171,-5.3602,1.7339,
14.175278,-0.1382,0.4517,0.2691,7.1911,-0.7724,4.3308,0.7171,-5.3602,1.7339,
14.176465,-0.2005,0.5071,0.2720,7.1911,-0.7724,4.3308,0.7171,-5.3602,1.7339,
14.176957,-0.2039,0.5904,0.2608,7.1911,-0.7724,4.3308,0.7171,-5.3602,1.7339,
14.178493,-0.2039,0.5904,0.2608,7.1911,-0.7724,4.3308,0.5927,-3.5312,3.2264,
14.179294,-0.2039,0.5904,0.2608,3.0929,-2.8490,5.2700,0.5927,-3.5312,3.2264,
14.233713,-0.1753,0.6849,0.2229,3.0929,-2.8490,5.2700,0.5927,-3.5312,3.2264,
14.235042,-0.1209,0.7647,0.1480,3.0929,-2.8490,5.2700,0.5927,-3.5312,3.2264,
14.235578,-0.1152,0.8980,0.1611,3.0929,-2.8490,5.2700,0.5927,-3.5312,3.2264,
14.236128,-0.1152,0.8980,0.1611,3.0929,-2.8490,5.2700,0.1940,-1.5996,5.1044,
14.237753,-0.1152,0.8980,0.1611,1.1997,-1.3142,4.0337,0.1940,-1.5996,5.1044,
14.291594,-0.1626,1.0577,0.1765,1.1997,-1.3142,4.0337,0.1940,-1.5996,5.1044,
14.292681,-0.2237,1.2526,0.2009,1.1997,-1.3142,4.0337,0.1940,-1.5996,5.1044,
14.293170,-0.3743,1.5207,0.1194,1.1997,-1.3142,4.0337,0.1940,-1.5996,5.1044,
14.293700,-0.3743,1.5207,0.1194,1.1997,-1.3142,4.0337,-1.0362,-0.6440,6.0491,
14.295837,-0.3743,1.5207,0.1194,-3.0901,3.0195,3.2465,-1.0362,-0.6440,6.0491,
14.350163,-0.4886,1.7458,-0.0146,-3.0901,3.0195,3.2465,-1.0362,-0.6440,6.0491,
14.351602,-0.4598,1.6108,0.0073,-3.0901,3.0195,3.2465,-1.0362,-0.6440,6.0491,
14.352381,-0.6302,1.4936,-0.0227,-3.0901,3.0195,3.2465,-1.0362,-0.6440,6.0491,
14.353132,-0.6302,1.4936,-0.0227,-3.0901,3.0195,3.2465,-1.5840,0.2812,5.9277,
14.354954,-0.6302,1.4936,-0.0227,-8.8291,6.8936,0.6103,-1.5840,0.2812,5.9277,
14.408282,-1.0299,1.5688,-0.1409,-8.8291,6.8936,0.6103,-1.5840,0.2812,5.9277,
14.409882,-1.2772,1.3170,-0.2688,-8.8291,6.8936,0.6103,-1.5840,0.2812,5.9277,
14.410678,-1.3178,0.8109,-0.3369,-8.8291,6.8936,0.6103,-1.5840,0.2812,5.9277,
14.412484,-1.3178,0.8109,-0.3369,-8.8291,6.8936,0.6103,-1.2146,0.6323,2.3289,
14.413647,-1.3178,0.8109,-0.3369,-16.4261,3.6216,-2.4659,-1.2146,0.6323,2.3289,
14.466720,-1.3092,0.5887,-0.5059,-16.4261,3.6216,-2.4659,-1.2146,0.6323,2.3289,
14.468345,-1.1488,1.0284,-0.8853,-16.4261,3.6216,-2.4659,-1.2146,0.6323,2.3289,
14.469182,-0.0596,1.6711,-0.9520,-16.4261,3.6216,-2.4659,-1.2146,0.6323,2.3289,
14.471609,-0.0596,1.6711,-0.9520,-16.4261,3.6216,-2.4659,-0.4478,-2.3763,-1.5278,
14.472845,-0.0596,1.6711,-0.9520,-11.8225,1.8808,-7.1888,-0.4478,-2.3763,-1.5278,
14.525199,2.0896,1.5732,-0.1714,-11.8225,1.8808,-7.1888,-0.4478,-2.3763,-1.5278,
14.526742,2.9485,1.4159,-0.3999,-11.8225,1.8808,-7.1888,-0.4478,-2.3763,-1.5278,
14.527536,-0.0271,1.5526,-0.3133,-11.8225,1.8808,-7.1888,-0.4478,-2.3763,-1.5278,
14.528301,-0.0271,1.5526,-0.3133,-11.8225,1.8808,-7.1888,-0.6842,-3.1671,-0.2901,
14.530372,-0.0271,1.5526,-0.3133,12.8170,5.7936,-2.1134,-0.6842,-3.1671,-0.2901,
14.583999,-0.8641,0.9542,-0.3924,12.8170,5.7936,-2.1134,-0.6842,-3.1671,-0.2901,
14.585454,-0.5411,0.3611,0.6883,12.8170,5.7936,-2.1134,-0.6842,-3.1671,-0.2901,
14.586272,-0.1094,0.8048,0.1480,12.8170,5.7936,-2.1134,-0.6842,-3.1671,-0.2901,
14.586816,-0.1094,0.8048,0.1480,12.8170,5.7936,-2.1134,-0.2295,0.1018,-3.0924,
14.587398,-0.1094,0.8048,0.1480,-6.7076,-2.5723,2.0779,-0.2295,0.1018,-3.0924,
14.641883,0.0481,1.1959,-0.0869,-6.7076,-2.5723,2.0779,-0.2295,0.1018,-3.0924,
14.643315,-0.1443,1.2032,-0.1633,-6.7076,-2.5723,2.0779,-0.2295,0.1018,-3.0924,
14.644026,-0.1150,1.0526,-0.1182,-6.7076,-2.5723,2.0779,-0.2295,0.1018,-3.0924,
14.644749,-0.1150,1.0526,-0.1182,-6.7076,-2.5723,2.0779,-0.0004,0.0705,-1.3728,
14.647318,-0.1150,1.0526,-0.1182,-1.6590,1.6396,-0.5717,-0.0004,0.0705,-1.3728,
14.700165,0.1426,1.0111,-0.1799,-1.6590,1.6396,-0.5717,-0.0004,0.0705,-1.3728,
14.701598,0.1052,0.9881,-0.0195,-1.6590,1.6396,-0.5717,-0.0004,0.0705,-1.3728,
14.702311,0.0269,0.9747,0.0960,-1.6590,1.6396,-0.5717,-0.0004,0.0705,-1.3728,
14.703715,0.0269,0.9747,0.0960,-1.6590,1.6396,-0.5717,-0.0340,-0.3606,-0.9057,
14.705358,0.0269,0.9747,0.0960,0.4443,0.0393,0.2831,-0.0340,-0.3606,-0.9057,
14.758319,0.0706,0.9706,0.0601,0.4443,0.0393,0.2831,-0.0340,-0.3606,-0.9057,
14.759706,0.2183,0.9674,0.0095,0.4443,0.0393,0.2831,-0.0340,-0.3606,-0.9057,
14.760304,0.1677,0.9925,0.0061,0.4443,0.0393,0.2831,-0.0340,-0.3606,-0.9057,
14.760879,0.1677,0.9925,0.0061,0.4443,0.0393,0.2831,0.1352,-0.2600,-1.0517,
14.762613,0.1677,0.9925,0.0061,1.6148,-0.1049,0.9318,0.1352,-0.2600,-1.0517,
14.816669,-0.0654,1.0116,-0.0410,1.6148,-0.1049,0.9318,0.1352,-0.2600,-1.0517,
14.817823,-0.1167,1.0191,-0.0786,1.6148,-0.1049,0.9318,0.1352,-0.2600,-1.0517,
14.818386,-0.0269,1.0323,-0.0715,1.6148,-0.1049,0.9318,0.1352,-0.2600,-1.0517,
14.819059,-0.0269,1.0323,-0.0715,1.6148,-0.1049,0.9318,0.2372,-0.1751,-1.3811,
14.819855,-0.0269,1.0323,-0.0715,0.2226,0.3739,0.1857,0.2372,-0.1751,-1.3811,
14.875388,-0.0166,1.0279,-0.0400,0.2226,0.3739,0.1857,0.2372,-0.1751,-1.3811,
14.876970,-0.1184,1.0060,-0.0251,0.2226,0.3739,0.1857,0.2372,-0.1751,-1.3811,
14.877510,-0.1734,0.9759,-0.0908,0.2226,0.3739,0.1857,0.2372,-0.1751,-1.3811,
14.878007,-0.1734,0.9759,-0.0908,0.6972,0.3244,0.4897,0.2372,-0.1751,-1.3811,
14.878569,-0.1734,0.9759,-0.0908,0.6972,0.3244,0.4897,0.3270,0.1774,-1.4699,
14.933651,-0.1638,1.0018,-0.1160,0.6972,0.3244,0.4897,0.3270,0.1774,-1.4699,
14.935326,-0.1358,1.0492,-0.1550,0.6972,0.3244,0.4897,0.3270,0.1774,-1.4699,
14.935803,-0.1516,1.0362,-0.1936,0.6972,0.3244,0.4897,0.3270,0.1774,-1.4699,
14.936203,-0.1516,1.0362,-0.1936,0.6972,0.3244,0.4897,0.3256,0.3313,-1.5703,
14.936774,-0.1516,1.0362,-0.1936,1.0530,0.7799,-0.2931,0.3256,0.3313,-1.5703,
14.992355,-0.1758,1.0895,-0.1611,1.0530,0.7799,-0.2931,0.3256,0.3313,-1.5703,
14.993514,-0.1450,1.2489,-0.1113,1.0530,0.7799,-0.2931,0.3256,0.3313,-1.5703,
14.993949,0.0813,1.3651,-0.0840,1.0530,0.7799,-0.2931,0.3256,0.3313,-1.5703,
14.994688,0.0813,1.3651,-0.0840,1.0530,0.7799,-0.2931,0.5384,-0.2922,-1.8116,
14.995382,0.0813,1.3651,-0.0840,2.6877,3.1020,0.2877,0.5384,-0.2922,-1.8116,
15.050083,0.3133,1.4899,-0.0837,2.6877,3.1020,0.2877,0.5384,-0.2922,-1.8116,
15.051375,0.6693,1.7621,0.0510,2.6877,3.1020,0.2877,0.5384,-0.2922,-1.8116,
15.051942,0.9557,1.9721,-0.0339,2.6877,3.1020,0.2877,0.5384,-0.2922,-1.8116,
15.052480,0.9557,1.9721,-0.0339,2.6877,3.1020,0.2877,0.9373,0.1293,-2.4192,
15.053039,0.9557,1.9721,-0.0339,10.8288,8.5935,1.7124,0.9373,0.1293,-2.4192,
15.108349,1.1908,1.8889,-0.0779,10.8288,8.5935,1.7124,0.9373,0.1293,-2.4192,
15.109871,0.8131,1.3346,0.0415,10.8288,8.5935,1.7124,0.9373,0.1293,-2.4192,
15.110421,-0.3081,0.9215,-0.0574,10.8288,8.5935,1.7124,0.9373,0.1293,-2.4192,
15.110952,-0.3081,0.9215,-0.0574,11.1316,6.1590,2.7068,0.9373,0.1293,-2.4192,
15.111534,-0.3081,0.9215,-0.0574,11.1316,6.1590,2.7068,0.9004,2.3211,-3.5259,
15.166852,-1.0411,1.1061,-0.3247,11.1316,6.1590,2.7068,0.9004,2.3211,-3.5259,
15.168114,-1.2406,1.0992,-0.5423,11.1316,6.1590,2.7068,0.9004,2.3211,-3.5259,
15.168732,-0.9974,0.7235,-0.3457,11.1316,6.1590,2.7068,0.9004,2.3211,-3.5259,
15.169349,-0.9974,0.7235,-0.3457,11.1316,6.1590,2.7068,0.9623,2.2983,-3.6102,
15.169920,-0.9974,0.7235,-0.3457,-4.1300,3.6097,0.2368,0.9623,2.2983,-3.6102,
15.225161,-0.6988,0.3943,-0.4625,-4.1300,3.6097,0.2368,0.9623,2.2983,-3.6102,
15.226517,-0.4561,0.2190,-0.6026,-4.1300,3.6097,0.2368,0.9623,2.2983,-3.6102,
15.227135,-0.2237,0.1240,-0.2068,-4.1300,3.6097,0.2368,0.9623,2.2983,-3.6102,
15.227550,-0.2237,0.1240,-0.2068,1.7110,-3.9412,-0.1169,0.9623,2.2983,-3.6102,
15.228175,-0.2237,0.1240,-0.2068,1.7110,-3.9412,-0.1169,-1.1413,0.6331,0.4885,
15.283689,-0.1128,0.0664,-0.1853,1.7110,-3.9412,-0.1169,-1.1413,0.6331,0.4885,
15.285731,-0.0544,0.1104,-0.2285,1.7110,-3.9412,-0.1169,-1.1413,0.6331,0.4885,
15.286589,-0.0979,0.2715,-0.3494,1.7110,-3.9412,-0.1169,-1.1413,0.6331,0.4885,
15.287283,-0.0979,0.2715,-0.3494,1.7110,-3.9412,-0.1169,-2.0191,-0.8405,3.0617,
15.287963,-0.0979,0.2715,-0.3494,4.1755,-6.2089,0.4321,-2.0191,-0.8405,3.0617,
15.342707,-0.0906,0.4227,-0.4004,4.1755,-6.2089,0.4321,-2.0191,-0.8405,3.0617,
15.344063,0.0027,0.5452,-0.3352,4.1755,-6.2089,0.4321,-2.0191,-0.8405,3.0617,
15.344753,0.0225,0.6351,-0.2827,4.1755,-6.2089,0.4321,-2.0191,-0.8405,3.0617,
15.345700,0.0225,0.6351,-0.2827,4.1755,-6.2089,0.4321,-2.1602,-0.5263,4.9839,
15.346610,0.0225,0.6351,-0.2827,2.4009,-3.7978,-1.5619,-2.1602,-0.5263,4.9839,
15.400460,0.0430,0.7410,-0.1995,2.4009,-3.7978,-1.5619,-2.1602,-0.5263,4.9839,
15.402194,0.1143,0.9894,-0.3348,2.4009,-3.7978,-1.5619,-2.1602,-0.5263,4.9839,
15.403007,0.0217,1.4428,-0.4622,2.4009,-3.7978,-1.5619,-2.1602,-0.5263,4.9839,
15.403734,0.0217,1.4428,-0.4622,2.4009,-3.7978,-1.5619,-1.4413,1.0939,5.9232,
15.404393,0.0217,1.4428,-0.4622,-0.1182,0.8627,-2.1998,-1.4413,1.0939,5.9232,
15.458777,-0.4722,1.9943,-0.4622,-0.1182,0.8627,-2.1998,-1.4413,1.0939,5.9232,
15.460144,-0.7569,2.0368,-0.4947,-0.1182,0.8627,-2.1998,-1.4413,1.0939,5.9232,
15.460744,-0.8214,1.5419,-0.3164,-0.1182,0.8627,-2.1998,-1.4413,1.0939,5.9232,
15.461516,-0.8214,1.5419,-0.3164,-10.2560,9.2180,-4.1211,-1.4413,1.0939,5.9232,
15.462323,-0.8214,1.5419,-0.3164,-10.2560,9.2180,-4.1211,-1.7933,0.9308,5.5553,
15.516797,-0.7525,1.1586,0.0684,-10.2560,9.2180,-4.1211,-1.7933,0.9308,5.5553,
15.518429,-0.4651,1.1886,-0.0899,-10.2560,9.2180,-4.1211,-1.7933,0.9308,5.5553,
15.519334,-0.6155,1.0328,-0.2410,-10.2560,9.2180,-4.1211,-1.7933,0.9308,5.5553,
15.520795,-0.6155,1.0328,-0.2410,-10.8513,2.7597,-1.2233,-1.7933,0.9308,5.5553,
15.522110,-0.6155,1.0328,-0.2410,-10.8513,2.7597,-1.2233,-1.1171,-0.4897,2.9359,
15.575262,-0.8705,0.8241,-0.0903,-10.8513,2.7597,-1.2233,-1.1171,-0.4897,2.9359,
15.576837,-0.8380,0.9100,-0.1653,-10.8513,2.7597,-1.2233,-1.1171,-0.4897,2.9359,
15.577823,-0.4832,1.4613,-0.4710,-10.8513,2.7597,-1.2233,-1.1171,-0.4897,2.9359,
15.581580,-0.4832,1.4613,-0.4710,-10.9045,1.6411,-2.4689,-1.1171,-0.4897,2.9359,
15.583040,-0.4832,1.4613,-0.4710,-10.9045,1.6411,-2.4689,-0.0100,-0.8676,-1.9045,
15.633558,1.1725,1.5487,0.1926,-10.9045,1.6411,-2.4689,-0.0100,-0.8676,-1.9045,
15.635528,2.7439,1.1056,0.0691,-10.9045,1.6411,-2.4689,-0.0100,-0.8676,-1.9045,
15.636531,0.6802,1.4264,-0.7630,-10.9045,1.6411,-2.4689,-0.0100,-0.8676,-1.9045,
15.637355,0.6802,1.4264,-0.7630,-10.9045,1.6411,-2.4689,-0.5001,-2.7161,-0.4254,
15.638050,0.6802,1.4264,-0.7630,11.3089,4.3668,-1.4041,-0.5001,-2.7161,-0.4254,
15.691939,-0.9088,1.3876,-0.6727,11.3089,4.3668,-1.4041,-0.5001,-2.7161,-0.4254,
15.694613,-0.8905,0.9198,0.0117,11.3089,4.3668,-1.4041,-0.5001,-2.7161,-0.4254,
15.695472,0.2193,0.7642,0.4476,11.3089,4.3668,-1.4041,-0.5001,-2.7161,-0.4254,
15.696185,0.2193,0.7642,0.4476,11.3089,4.3668,-1.4041,-0.5111,-0.4919,-3.0095,
15.696861,0.2193,0.7642,0.4476,-7.1167,0.5469,-0.6238,-0.5111,-0.4919,-3.0095,
15.750310,0.3267,0.9762,0.1362,-7.1167,0.5469,-0.6238,-0.5111,-0.4919,-3.0095,
15.751862,-0.0095,1.0980,-0.1174,-7.1167,0.5469,-0.6238,-0.5111,-0.4919,-3.0095,
15.752518,-0.1868,1.0819,-0.0364,-7.1167,0.5469,-0.6238,-0.5111,-0.4919,-3.0095,
15.753761,-0.1868,1.0819,-0.0364,-7.1167,0.5469,-0.6238,-0.0446,0.1073,-1.6194,
15.754666,-0.1868,1.0819,-0.0364,-0.6158,0.6692,-0.0148,-0.0446,0.1073,-1.6194,
15.808953,-0.0225,1.0521,-0.0698,-0.6158,0.6692,-0.0148,-0.0446,0.1073,-1.6194,
15.810303,0.1887,1.0287,-0.0830,-0.6158,0.6692,-0.0148,-0.0446,0.1073,-1.6194,
15.811019,-0.0071,1.0045,0.0110,-0.6158,0.6692,-0.0148,-0.0446,0.1073,-1.6194,
15.811619,-0.0071,1.0045,0.0110,-0.6158,0.6692,-0.0148,-0.0212,-0.0676,-1.1065,
15.812192,-0.0071,1.0045,0.0110,0.1009,0.3842,-0.4233,-0.0212,-0.0676,-1.1065,
15.867262,-0.0977,0.9955,0.0640,0.1009,0.3842,-0.4233,-0.0212,-0.0676,-1.1065,
15.868651,0.1138,0.9879,0.0261,0.1009,0.3842,-0.4233,-0.0212,-0.0676,-1.1065,
15.869406,0.1699,0.9579,0.0586,0.1009,0.3842,-0.4233,-0.0212,-0.0676,-1.1065,
15.870313,0.1699,0.9579,0.0586,0.7417,-0.0926,0.5437,-0.0212,-0.0676,-1.1065,
15.871006,0.1699,0.9579,0.0586,0.7417,-0.0926,0.5437,0.0468,-0.0700,-0.9994,
15.925346,0.0247,0.9742,0.0774,0.7417,-0.0926,0.5437,0.0468,-0.0700,-0.9994,
15.926609,-0.0757,0.9996,-0.0039,0.7417,-0.0926,0.5437,0.0468,-0.0700,-0.9994,
15.927191,-0.1177,1.0152,-0.0479,0.7417,-0.0926,0.5437,0.0468,-0.0700,-0.9994,
15.927672,-0.1177,1.0152,-0.0479,0.7417,-0.0926,0.5437,0.1478,0.1988,-1.2266,
15.928183,-0.1177,1.0152,-0.0479,0.2699,0.0973,0.2277,0.1478,0.1988,-1.2266,
15.983430,-0.1248,1.0128,-0.0298,0.2699,0.0973,0.2277,0.1478,0.1988,-1.2266,
15.984697,-0.0859,0.9950,-0.0098,0.2699,0.0973,0.2277,0.1478,0.1988,-1.2266,
15.986013,-0.0203,0.9808,-0.0164,0.2699,0.0973,0.2277,0.1478,0.1988,-1.2266,
15.986901,-0.0203,0.9808,-0.0164,0.2699,0.0973,0.2277,0.1543,0.1939,-1.1614,
15.987526,-0.0203,0.9808,-0.0164,0.7051,0.1723,0.0599,0.1543,0.1939,-1.1614,
16.041696,-0.0642,0.9696,-0.0039,0.7051,0.1723,0.0599,0.1543,0.1939,-1.1614,
16.042642,-0.1568,0.9576,-0.0107,0.7051,0.1723,0.0599,0.1543,0.1939,-1.1614,
16.043301,-0.2154,0.9874,-0.0757,0.7051,0.1723,0.0599,0.1543,0.1939,-1.1614,
16.043784,-0.2154,0.9874,-0.0757,0.7051,0.1723,0.0599,0.1468,0.3380,-1.3813,
16.045425,-0.2154,0.9874,-0.0757,0.7820,0.0801,0.0645,0.1468,0.3380,-1.3813,
16.099970,-0.1592,1.0509,-0.1089,0.7820,0.0801,0.0645,0.1468,0.3380,-1.3813,
16.101109,-0.0957,1.1293,-0.0933,0.7820,0.0801,0.0645,0.1468,0.3380,-1.3813,
16.101718,-0.0459,1.1700,-0.0288,0.7820,0.0801,0.0645,0.1468,0.3380,-1.3813,
16.103156,-0.0459,1.1700,-0.0288,0.7820,0.0801,0.0645,0.1763,0.1257,-1.5135,
16.104077,-0.0459,1.1700,-0.0288,2.0115,1.7097,-0.2759,0.1763,0.1257,-1.5135,
16.158188,0.0305,1.1805,0.0178,2.0115,1.7097,-0.2759,0.1763,0.1257,-1.5135,
16.159294,0.0884,1.1940,0.0305,2.0115,1.7097,-0.2759,0.1763,0.1257,-1.5135,
16.159804,0.1033,1.3226,-0.0115,2.0115,1.7097,-0.2759,0.1763,0.1257,-1.5135,
16.160795,0.1033,1.3226,-0.0115,2.0115,1.7097,-0.2759,0.4473,0.1983,-2.1193,
16.161636,0.1033,1.3226,-0.0115,4.7471,3.2434,0.8606,0.4473,0.1983,-2.1193,
16.216679,0.1692,1.6073,-0.1035,4.7471,3.2434,0.8606,0.4473,0.1983,-2.1193,
16.217849,0.5562,1.7944,-0.3245,4.7471,3.2434,0.8606,0.4473,0.1983,-2.1193,
16.218511,1.0072,1.7270,-0.4988,4.7471,3.2434,0.8606,0.4473,0.1983,-2.1193,
16.219041,1.0072,1.7270,-0.4988,4.7471,3.2434,0.8606,0.7098,1.3855,-2.6100,
16.219547,1.0072,1.7270,-0.4988,10.7006,8.5270,-1.5304,0.7098,1.3855,-2.6100,
16.275067,1.0616,1.3417,-0.3682,10.7006,8.5270,-1.5304,0.7098,1.3855,-2.6100,
16.276391,-0.1343,0.9383,-0.1248,10.7006,8.5270,-1.5304,0.7098,1.3855,-2.6100,
16.276942,-1.2711,1.1410,-0.2300,10.7006,8.5270,-1.5304,0.7098,1.3855,-2.6100,
16.277488,-1.2711,1.1410,-0.2300,5.1440,4.2852,0.5407,0.7098,1.3855,-2.6100,
16.278060,-1.2711,1.1410,-0.2300,5.1440,4.2852,0.5407,0.9853,2.9110,-3.8305,
16.333567,-1.4381,1.2335,-0.2515,5.1440,4.2852,0.5407,0.9853,2.9110,-3.8305,
16.335121,-1.0196,0.8328,-0.1201,5.1440,4.2852,0.5407,0.9853,2.9110,-3.8305,
16.335785,-0.8475,0.4651,-0.2471,5.1440,4.2852,0.5407,0.9853,2.9110,-3.8305,
16.336368,-0.8475,0.4651,-0.2471,5.1440,4.2852,0.5407,1.0633,0.4893,-2.0167,
16.336907,-0.8475,0.4651,-0.2471,-3.7963,2.3173,1.4321,1.0633,0.4893,-2.0167,
16.391911,-0.6673,0.3641,-0.2740,-3.7963,2.3173,1.4321,1.0633,0.4893,-2.0167,
16.393177,-0.3841,0.2615,-0.0188,-3.7963,2.3173,1.4321,1.0633,0.4893,-2.0167,
16.393736,-0.0618,0.0212,0.2635,-3.7963,2.3173,1.4321,1.0633,0.4893,-2.0167,
16.395594,-0.0618,0.0212,0.2635,2.9161,-4.5243,2.6358,1.0633,0.4893,-2.0167,
16.396520,-0.0618,0.0212,0.2635,2.9161,-4.5243,2.6358,-0.5695,-1.1635,1.6569,
16.450731,0.0327,-0.0606,0.2095,2.9161,-4.5243,2.6358,-0.5695,-1.1635,1.6569,
16.452535,-0.0735,0.0481,0.0107,2.9161,-4.5243,2.6358,-0.5695,-1.1635,1.6569,
16.453340,-0.3028,0.3133,-0.3037,2.9161,-4.5243,2.6358,-0.5695,-1.1635,1.6569,
16.454069,-0.3028,0.3133,-0.3037,2.9161,-4.5243,2.6358,0.3056,-1.0116,3.7514,
16.455377,-0.3028,0.3133,-0.3037,3.9209,-6.7774,2.2046,0.3056,-1.0116,3.7514,
16.508375,-0.4578,0.5621,-0.3086,3.9209,-6.7774,2.2046,0.3056,-1.0116,3.7514,
16.509689,-0.5240,0.5084,0.0449,3.9209,-6.7774,2.2046,0.3056,-1.0116,3.7514,
16.510326,-0.6275,0.5743,-0.1795,3.9209,-6.7774,2.2046,0.3056,-1.0116,3.7514,
16.510819,-0.6275,0.5743,-0.1795,3.9209,-6.7774,2.2046,0.6897,-2.3388,5.5608,
16.511395,-0.6275,0.5743,-0.1795,-2.5761,-3.4880,0.8336,0.6897,-2.3388,5.5608,
16.566727,-0.7396,0.9195,-0.3518,-2.5761,-3.4880,0.8336,0.6897,-2.3388,5.5608,
16.568034,-0.8634,1.3725,-0.3799,-2.5761,-3.4880,0.8336,0.6897,-2.3388,5.5608,
16.568715,-0.6907,1.5502,-0.4876,-2.5761,-3.4880,0.8336,0.6897,-2.3388,5.5608,
16.569383,-0.6907,1.5502,-0.4876,-2.5761,-3.4880,0.8336,1.6324,-6.3634,6.9786,
16.569994,-0.6907,1.5502,-0.4876,-7.4909,3.3604,-1.2377,1.6324,-6.3634,6.9786,
16.625138,-0.3902,1.8037,-0.4058,-7.4909,3.3604,-1.2377,1.6324,-6.3634,6.9786,
16.626423,-0.2056,1.7653,-0.0496,-7.4909,3.3604,-1.2377,1.6324,-6.3634,6.9786,
16.627034,0.0693,1.3380,0.3965,-7.4909,3.3604,-1.2377,1.6324,-6.3634,6.9786,
16.627571,0.0693,1.3380,0.3965,-7.4909,3.3604,-1.2377,1.1254,-9.9798,5.2775,
16.628087,0.0693,1.3380,0.3965,-2.5678,7.1189,3.4685,1.1254,-9.9798,5.2775,
16.683813,0.3863,0.8702,0.6129,-2.5678,7.1189,3.4685,1.1254,-9.9798,5.2775,
16.685001,0.0967,0.5650,0.4476,-2.5678,7.1189,3.4685,1.1254,-9.9798,5.2775,
16.685549,-1.1403,1.3468,-0.0701,-2.5678,7.1189,3.4685,1.1254,-9.9798,5.2775,
16.686145,-1.1403,1.3468,-0.0701,-2.5678,7.1189,3.4685,-0.2904,-4.5728,1.0025,
16.686974,-1.1403,1.3468,-0.0701,-2.4663,0.1609,6.8268,-0.2904,-4.5728,1.0025,
16.742005,-0.9877,1.2994,1.5514,-2.4663,0.1609,6.8268,-0.2904,-4.5728,1.0025,
16.743524,-0.0496,0.7657,1.0441,-2.4663,0.1609,6.8268,-0.2904,-4.5728,1.0025,
16.744260,-0.0325,1.0377,0.0803,-2.4663,0.1609,6.8268,-0.2904,-4.5728,1.0025,
16.745028,-0.0325,1.0377,0.0803,-2.4663,0.1609,6.8268,-0.9232,-0.8253,-0.6532,
16.745816,-0.0325,1.0377,0.0803,-3.2420,1.0123,11.6620,-0.9232,-0.8253,-0.6532,
16.800446,0.0342,1.7512,-1.0585,-3.2420,1.0123,11.6620,-0.9232,-0.8253,-0.6532,
16.801878,0.2744,1.9140,-1.0941,-3.2420,1.0123,11.6620,-0.9232,-0.8253,-0.6532,
16.802627,0.2376,1.0839,-0.6395,-3.2420,1.0123,11.6620,-0.9232,-0.8253,-0.6532,
16.803255,0.2376,1.0839,-0.6395,-3.2420,1.0123,11.6620,-0.5292,-1.1126,0.0090,
16.803928,0.2376,1.0839,-0.6395,2.1729,6.1984,-6.3982,-0.5292,-1.1126,0.0090,
16.858720,0.1404,0.7213,-0.2805,2.1729,6.1984,-6.3982,-0.5292,-1.1126,0.0090,
16.860331,-0.0332,0.8751,0.1597,2.1729,6.1984,-6.3982,-0.5292,-1.1126,0.0090,
16.861663,-0.1260,1.0243,0.1121,2.1729,6.1984,-6.3982,-0.5292,-1.1126,0.0090,
16.862364,-0.1260,1.0243,0.1121,2.1729,6.1984,-6.3982,-0.5697,-1.1735,-0.1971,
16.863164,-0.1260,1.0243,0.1121,0.5993,-0.8190,2.3079,-0.5697,-1.1735,-0.1971,
16.917149,-0.0637,0.9549,-0.0903,0.5993,-0.8190,2.3079,-0.5697,-1.1735,-0.1971,
16.918486,-0.1692,0.9281,-0.2500,0.5993,-0.8190,2.3079,-0.5697,-1.1735,-0.1971,
16.919397,-0.3645,0.9557,-0.2906,0.5993,-0.8190,2.3079,-0.5697,-1.1735,-0.1971,
16.920075,-0.3645,0.9557,-0.2906,-1.1457,-0.0924,0.2831,-0.5697,-1.1735,-0.1971,
16.920711,-0.3645,0.9557,-0.2906,-1.1457,-0.0924,0.2831,0.0181,0.0397,-0.2400,
16.975445,-0.4424,0.9837,-0.3479,-1.1457,-0.0924,0.2831,0.0181,0.0397,-0.2400,
16.976705,-0.2510,0.9877,-0.2678,-1.1457,-0.0924,0.2831,0.0181,0.0397,-0.2400,
16.977166,-0.0215,0.9681,-0.1362,-1.1457,-0.0924,0.2831,0.0181,0.0397,-0.2400,
16.979041,-0.0215,0.9681,-0.1362,-1.1457,-0.0924,0.2831,-0.0200,-0.7275,0.3841,
16.980210,-0.0215,0.9681,-0.1362,-1.6134,0.2138,-0.1531,-0.0200,-0.7275,0.3841,
17.033687,0.1294,0.9161,-0.1826,-1.6134,0.2138,-0.1531,-0.0200,-0.7275,0.3841,
17.035426,0.0962,0.9620,-0.2066,-1.6134,0.2138,-0.1531,-0.0200,-0.7275,0.3841,
17.036167,0.0298,1.0069,-0.1753,-1.6134,0.2138,-0.1531,-0.0200,-0.7275,0.3841,
17.036668,0.0298,1.0069,-0.1753,-1.6134,0.2138,-0.1531,0.1397,-0.6927,0.3061,
17.037275,0.0298,1.0069,-0.1753,1.4577,0.0420,0.4999,0.1397,-0.6927,0.3061,
17.092285,-0.0418,0.9754,-0.2483,1.4577,0.0420,0.4999,0.1397,-0.6927,0.3061,
17.093977,-0.1392,0.9942,-0.2364,1.4577,0.0420,0.4999,0.1397,-0.6927,0.3061,
17.094879,-0.0662,1.0065,-0.1504,1.4577,0.0420,0.4999,0.1397,-0.6927,0.3061,
17.095471,-0.0662,1.0065,-0.1504,1.4577,0.0420,0.4999,0.3667,-0.3834,-0.0537,
17.096008,-0.0662,1.0065,-0.1504,-0.0989,0.3872,0.4476,0.3667,-0.3834,-0.0537,
17.150132,0.0090,0.9635,-0.2122,-0.0989,0.3872,0.4476,0.3667,-0.3834,-0.0537,
17.151068,-0.1646,0.9356,-0.3162,-0.0989,0.3872,0.4476,0.3667,-0.3834,-0.0537,
17.151756,-0.2281,1.0204,-0.2263,-0.0989,0.3872,0.4476,0.3667,-0.3834,-0.0537,
17.152327,-0.2281,1.0204,-0.2263,-0.0989,0.3872,0.4476,0.5667,-0.3347,-0.0684,
17.152844,-0.2281,1.0204,-0.2263,-0.4482,0.2885,0.3433,0.5667,-0.3347,-0.0684,
17.208300,-0.0454,1.0104,-0.1861,-0.4482,0.2885,0.3433,0.5667,-0.3347,-0.0684,
17.209643,0.0254,1.0423,-0.2534,-0.4482,0.2885,0.3433,0.5667,-0.3347,-0.0684,
17.210270,-0.0310,1.0494,-0.3785,-0.4482,0.2885,0.3433,0.5667,-0.3347,-0.0684,
17.210825,-0.0310,1.0494,-0.3785,-0.4482,0.2885,0.3433,0.8949,-0.0991,0.1110,
17.211391,-0.0310,1.0494,-0.3785,0.5859,1.0217,0.6009,0.8949,-0.0991,0.1110,
17.267161,-0.0110,0.9791,-0.3484,0.5859,1.0217,0.6009,0.8949,-0.0991,0.1110,
17.268393,0.0684,1.0641,-0.2664,0.5859,1.0217,0.6009,0.8949,-0.0991,0.1110,
17.268808,0.1897,1.1693,-0.2774,0.5859,1.0217,0.6009,0.8949,-0.0991,0.1110,
17.269407,0.1897,1.1693,-0.2774,0.5859,1.0217,0.6009,1.4738,-0.9303,-0.0710,
17.269980,0.1897,1.1693,-0.2774,1.7658,1.6704,1.0637,1.4738,-0.9303,-0.0710,
17.325526,0.3760,1.3009,-0.2608,1.7658,1.6704,1.0637,1.4738,-0.9303,-0.0710,
17.326846,0.5274,1.4838,-0.0713,1.7658,1.6704,1.0637,1.4738,-0.9303,-0.0710,
17.327394,0.6282,1.5846,0.1570,1.7658,1.6704,1.0637,1.4738,-0.9303,-0.0710,
17.327931,0.6282,1.5846,0.1570,1.7658,1.6704,1.0637,2.1559,-1.9252,-0.4709,
17.328566,0.6282,1.5846,0.1570,6.5863,5.9457,4.2602,2.1559,-1.9252,-0.4709,
17.383492,0.4014,1.5815,0.2090,6.5863,5.9457,4.2602,2.1559,-1.9252,-0.4709,
17.384776,-0.1170,1.5268,0.4185,6.5863,5.9457,4.2602,2.1559,-1.9252,-0.4709,
17.385380,-0.8358,1.4853,0.3670,6.5863,5.9457,4.2602,2.1559,-1.9252,-0.4709,
17.385990,-0.8358,1.4853,0.3670,1.1612,7.4357,8.6608,2.1559,-1.9252,-0.4709,
17.386574,-0.8358,1.4853,0.3670,1.1612,7.4357,8.6608,2.2107,-2.2425,-1.5569,
17.441906,-1.2899,1.4528,0.1201,1.1612,7.4357,8.6608,2.2107,-2.2425,-1.5569,
17.443150,-1.1866,1.2916,-0.3970,1.1612,7.4357,8.6608,2.2107,-2.2425,-1.5569,
17.443797,-0.4910,1.1940,-0.6732,1.1612,7.4357,8.6608,2.2107,-2.2425,-1.5569,
17.444321,-0.4910,1.1940,-0.6732,-4.6125,6.0033,1.8281,2.2107,-2.2425,-1.5569,
17.445020,-0.4910,1.1940,-0.6732,-4.6125,6.0033,1.8281,1.7326,-4.9914,-1.1963,
17.500348,0.2500,0.9171,-0.2854,-4.6125,6.0033,1.8281,1.7326,-4.9914,-1.1963,
17.501703,0.6910,0.6331,0.1604,-4.6125,6.0033,1.8281,1.7326,-4.9914,-1.1963,
17.502255,0.3135,0.5980,0.3372,-4.6125,6.0033,1.8281,1.7326,-4.9914,-1.1963,
17.502851,0.3135,0.5980,0.3372,-4.6125,6.0033,1.8281,0.4638,-4.8466,1.3462,
17.503417,0.3135,0.5980,0.3372,9.6839,-0.1606,4.1732,0.4638,-4.8466,1.3462,
17.558998,-0.0877,0.6763,0.2578,9.6839,-0.1606,4.1732,0.4638,-4.8466,1.3462,
17.560562,-0.1890,0.7049,0.1277,9.6839,-0.1606,4.1732,0.4638,-4.8466,1.3462,
17.561162,-0.1292,0.6387,0.0071,9.6839,-0.1606,4.1732,0.4638,-4.8466,1.3462,
17.561575,-0.1292,0.6387,0.0071,9.6839,-0.1606,4.1732,0.1773,-1.9541,2.4193,
17.562174,-0.1292,0.6387,0.0071,3.5023,-1.2735,4.1512,0.1773,-1.9541,2.4193,
17.616887,-0.0874,0.6129,0.0195,3.5023,-1.2735,4.1512,0.1773,-1.9541,2.4193,
17.617797,-0.1372,0.7135,-0.0188,3.5023,-1.2735,4.1512,0.1773,-1.9541,2.4193,
17.618444,-0.2132,0.8587,-0.1265,3.5023,-1.2735,4.1512,0.1773,-1.9541,2.4193,
17.618932,-0.2132,0.8587,-0.1265,3.5023,-1.2735,4.1512,-0.3498,0.1878,4.5109,
17.619782,-0.2132,0.8587,-0.1265,1.1297,-1.7486,2.2641,-0.3498,0.1878,4.5109,
17.675936,-0.2588,0.9732,-0.2222,1.1297,-1.7486,2.2641,-0.3498,0.1878,4.5109,
17.677273,-0.3011,1.1100,-0.2654,1.1297,-1.7486,2.2641,-0.3498,0.1878,4.5109,
17.677938,-0.3601,1.3151,-0.3103,1.1297,-1.7486,2.2641,-0.3498,0.1878,4.5109,
17.678652,-0.3601,1.3151,-0.3103,1.1297,-1.7486,2.2641,-1.3555,0.3649,5.9141,
17.679335,-0.3601,1.3151,-0.3103,-3.6201,1.6724,-0.6340,-1.3555,0.3649,5.9141,
17.733522,-0.4964,1.6332,-0.4734,-3.6201,1.6724,-0.6340,-1.3555,0.3649,5.9141,
17.735081,-0.6451,1.7416,-0.4395,-3.6201,1.6724,-0.6340,-1.3555,0.3649,5.9141,
17.735994,-1.0260,1.6005,-0.1533,-3.6201,1.6724,-0.6340,-1.3555,0.3649,5.9141,
17.736985,-1.0260,1.6005,-0.1533,-3.6201,1.6724,-0.6340,-1.7296,-1.0171,6.3191,
17.737950,-1.0260,1.6005,-0.1533,-10.8106,7.3868,-2.2416,-1.7296,-1.0171,6.3191,
17.791647,-1.4796,1.4955,0.0784,-10.8106,7.3868,-2.2416,-1.7296,-1.0171,6.3191,
17.793226,-1.4201,1.1949,-0.0579,-10.8106,7.3868,-2.2416,-1.7296,-1.0171,6.3191,
17.794026,-1.0670,0.9842,-0.1067,-10.8106,7.3868,-2.2416,-1.7296,-1.0171,6.3191,
17.795481,-1.0670,0.9842,-0.1067,-10.8106,7.3868,-2.2416,-1.1808,-1.1376,2.8135,
17.796692,-1.0670,0.9842,-0.1067,-17.7219,3.7252,0.6650,-1.1808,-1.1376,2.8135,
17.850124,-1.0907,0.8297,-0.0925,-17.7219,3.7252,0.6650,-1.1808,-1.1376,2.8135,
17.851698,-1.0084,1.0968,-0.6573,-17.7219,3.7252,0.6650,-1.1808,-1.1376,2.8135,
17.852523,0.4527,1.6449,-0.5020,-17.7219,3.7252,0.6650,-1.1808,-1.1376,2.8135,
17.853255,0.4527,1.6449,-0.5020,-17.7219,3.7252,0.6650,-0.4044,-1.3498,-1.7503,
17.854684,0.4527,1.6449,-0.5020,-9.0403,2.8794,-2.9379,-0.4044,-1.3498,-1.7503,
17.908726,2.4595,1.5749,-0.1458,-9.0403,2.8794,-2.9379,-0.4044,-1.3498,-1.7503,
17.910092,1.6613,1.4286,-0.7259,-9.0403,2.8794,-2.9379,-0.4044,-1.3498,-1.7503,
17.910793,-0.7042,1.5070,-0.7332,-9.0403,2.8794,-2.9379,-0.4044,-1.3498,-1.7503,
17.911343,-0.7042,1.5070,-0.7332,-9.0403,2.8794,-2.9379,-0.3822,-1.9906,-1.1364,
17.911962,-0.7042,1.5070,-0.7332,8.0965,5.6052,-3.8471,-0.3822,-1.9906,-1.1364,
17.966561,-1.1368,0.7977,-0.0164,8.0965,5.6052,-3.8471,-0.3822,-1.9906,-1.1364,
17.967916,-0.4197,0.5047,0.8336,8.0965,5.6052,-3.8471,-0.3822,-1.9906,-1.1364,
17.968675,0.2119,0.8331,0.7000,8.0965,5.6052,-3.8471,-0.3822,-1.9906,-1.1364,
17.969874,0.2119,0.8331,0.7000,8.0965,5.6052,-3.8471,-0.7208,-0.5603,-2.3351,
17.970830,0.2119,0.8331,0.7000,-6.0384,-2.4912,5.9479,-0.7208,-0.5603,-2.3351,
18.025077,0.5430,1.0213,-0.0781,-6.0384,-2.4912,5.9479,-0.7208,-0.5603,-2.3351,
18.026445,0.0203,1.1354,-0.5809,-6.0384,-2.4912,5.9479,-0.7208,-0.5603,-2.3351,
18.027073,-0.3191,1.2096,-0.4390,-6.0384,-2.4912,5.9479,-0.7208,-0.5603,-2.3351,
18.027735,-0.3191,1.2096,-0.4390,-6.0384,-2.4912,5.9479,0.1893,0.0232,-1.5117,
18.028720,-0.3191,1.2096,-0.4390,-0.0100,1.4092,-2.4473,0.1893,0.0232,-1.5117,
