time,gFx,gFy,gFz,ax,ay,az,wx,wy,wz,P
0.002,0.16,0.97,0.04,0.02,0.01,-0.01,-0.00,-0.00,0.00,1005.97
0.024,0.16,0.98,0.03,0.02,0.01,-0.01,-0.00,-0.00,0.00,1005.97
0.025,0.16,1.00,0.05,0.02,0.01,-0.01,-0.00,-0.00,0.00,1005.97
0.025,0.17,1.00,0.04,0.02,0.01,-0.01,-0.00,-0.00,0.00,1005.97
0.025,0.17,1.00,0.04,0.01,-0.09,0.08,-0.00,-0.00,0.00,1005.97
0.025,0.17,1.00,0.04,0.01,-0.09,0.08,0.02,-0.03,-0.02,1005.97
0.025,0.17,1.00,0.04,0.01,-0.09,0.08,0.02,-0.03,-0.02,1005.97
0.082,0.15,0.98,0.02,0.01,-0.09,0.08,0.02,-0.03,-0.02,1005.97
0.083,0.13,0.98,0.01,0.01,-0.09,0.08,0.02,-0.03,-0.02,1005.97
0.083,0.13,0.98,0.02,0.01,-0.09,0.08,0.02,-0.03,-0.02,1005.97
0.083,0.13,0.98,0.02,0.01,-0.09,0.08,0.03,-0.04,-0.02,1005.97
0.084,0.13,0.98,0.02,0.05,0.03,0.13,0.03,-0.04,-0.02,1005.97
0.104,0.13,0.98,0.02,0.05,0.03,0.13,0.03,-0.04,-0.02,1005.97
0.14,0.13,0.98,0.02,0.05,0.03,0.13,0.03,-0.04,-0.02,1005.97
0.141,0.11,0.98,0.02,0.05,0.03,0.13,0.03,-0.04,-0.02,1005.97
0.141,0.13,0.98,0.03,0.05,0.03,0.13,0.03,-0.04,-0.02,1005.97
0.141,0.13,0.98,0.03,0.05,0.03,0.13,0.01,-0.15,0.03,1005.97
0.142,0.13,0.98,0.03,-0.26,-0.09,-0.05,0.01,-0.15,0.03,1005.97
0.185,0.13,0.98,0.03,-0.26,-0.09,-0.05,0.01,-0.15,0.03,1005.96
0.199,0.13,0.98,0.03,-0.23,-0.06,0.09,0.01,-0.15,0.03,1005.96
0.2,0.16,0.99,0.03,-0.23,-0.06,0.09,0.01,-0.15,0.03,1005.96
0.2,0.20,1.00,0.02,-0.23,-0.06,0.09,0.01,-0.15,0.03,1005.96
0.2,0.19,1.00,0.02,-0.23,-0.06,0.09,0.01,-0.15,0.03,1005.96
0.2,0.19,1.00,0.02,-0.23,-0.06,0.09,0.02,-0.22,0.07,1005.96
0.225,0.19,1.00,0.02,-0.23,-0.06,0.09,0.02,-0.22,0.07,1005.95
0.258,0.19,1.00,0.02,0.26,0.07,0.01,0.02,-0.22,0.07,1005.95
0.258,0.18,0.98,0.01,0.26,0.07,0.01,0.02,-0.22,0.07,1005.95
0.259,0.17,0.98,0.00,0.26,0.07,0.01,0.02,-0.22,0.07,1005.95
0.259,0.16,1.00,0.01,0.26,0.07,0.01,0.02,-0.22,0.07,1005.95
0.259,0.16,1.00,0.01,0.26,0.07,0.01,0.03,-0.14,0.01,1005.95
0.305,0.16,1.00,0.01,0.26,0.07,0.01,0.03,-0.14,0.01,1005.94
0.317,0.16,1.00,0.01,-0.07,0.12,0.05,0.03,-0.14,0.01,1005.94
0.317,0.15,1.03,0.04,-0.07,0.12,0.05,0.03,-0.14,0.01,1005.94
0.318,0.16,1.01,0.02,-0.07,0.12,0.05,0.03,-0.14,0.01,1005.94
0.318,0.21,0.98,-0.01,-0.07,0.12,0.05,0.03,-0.14,0.01,1005.94
0.318,0.21,0.98,-0.01,-0.07,0.12,0.05,0.04,-0.14,0.05,1005.94
0.373,0.19,0.97,-0.01,-0.07,0.12,0.05,0.04,-0.14,0.05,1005.94
0.374,0.13,0.98,-0.01,-0.07,0.12,0.05,0.04,-0.14,0.05,1005.94
0.374,0.13,0.97,0.00,-0.07,0.12,0.05,0.04,-0.14,0.05,1005.94
0.374,0.13,0.97,0.00,-0.07,0.12,0.05,0.07,-0.06,0.03,1005.94
0.374,0.13,0.97,0.00,0.18,-0.01,-0.07,0.07,-0.06,0.03,1005.94
0.385,0.13,0.97,0.00,0.18,-0.01,-0.07,0.07,-0.06,0.03,1005.95
0.424,0.13,0.97,0.00,0.18,-0.01,-0.07,0.07,-0.06,0.03,1005.95
0.432,0.13,0.97,0.00,-0.32,-0.08,0.00,0.07,-0.06,0.03,1005.95
0.433,0.16,0.99,0.00,-0.32,-0.08,0.00,0.07,-0.06,0.03,1005.95
0.433,0.14,1.00,0.03,-0.32,-0.08,0.00,0.07,-0.06,0.03,1005.95
0.433,0.11,0.99,0.02,-0.32,-0.08,0.00,0.07,-0.06,0.03,1005.95
0.434,0.11,0.99,0.02,-0.32,-0.08,0.00,0.10,-0.19,0.08,1005.95
0.493,0.12,0.95,-0.00,-0.32,-0.08,0.00,0.10,-0.19,0.08,1005.95
0.494,0.14,0.94,-0.03,-0.32,-0.08,0.00,0.10,-0.19,0.08,1005.95
0.494,0.16,0.95,-0.04,-0.32,-0.08,0.00,0.10,-0.19,0.08,1005.95
0.495,0.16,0.95,-0.04,-0.32,-0.08,0.00,0.08,-0.10,0.14,1005.95
0.495,0.16,0.95,-0.04,-0.50,-0.05,0.20,0.08,-0.10,0.14,1005.95
0.513,0.16,0.95,-0.04,-0.50,-0.05,0.20,0.08,-0.10,0.14,1005.95
0.548,0.20,0.99,-0.03,-0.50,-0.05,0.20,0.08,-0.10,0.14,1005.95
0.549,0.26,1.05,-0.04,-0.50,-0.05,0.20,0.08,-0.10,0.14,1005.95
0.549,0.24,1.05,-0.01,-0.50,-0.05,0.20,0.08,-0.10,0.14,1005.95
0.55,0.24,1.05,-0.01,-0.50,-0.05,0.20,-0.08,0.01,0.05,1005.95
0.55,0.24,1.05,-0.01,-0.10,-0.25,-0.29,-0.08,0.01,0.05,1005.95
0.585,0.24,1.05,-0.01,-0.10,-0.25,-0.29,-0.08,0.01,0.05,1005.95
0.607,0.18,1.00,0.01,-0.10,-0.25,-0.29,-0.08,0.01,0.05,1005.95
0.608,0.18,1.00,0.05,-0.10,-0.25,-0.29,-0.08,0.01,0.05,1005.95
0.608,0.19,0.98,0.11,-0.10,-0.25,-0.29,-0.08,0.01,0.05,1005.95
0.609,0.19,0.98,0.11,-0.10,-0.25,-0.29,-0.04,-0.04,-0.00,1005.95
0.61,0.19,0.98,0.11,0.43,0.46,-0.11,-0.04,-0.04,-0.00,1005.95
0.624,0.19,0.98,0.11,0.43,0.46,-0.11,-0.04,-0.04,-0.00,1005.96
0.667,0.22,0.98,0.07,0.43,0.46,-0.11,-0.04,-0.04,-0.00,1005.96
0.668,0.26,0.97,-0.00,0.43,0.46,-0.11,-0.04,-0.04,-0.00,1005.96
0.668,0.30,0.88,-0.02,0.43,0.46,-0.11,-0.04,-0.04,-0.00,1005.96
0.668,0.30,0.88,-0.02,0.43,0.46,-0.11,0.15,0.11,-0.05,1005.96
0.669,0.30,0.88,-0.02,0.17,-0.03,0.80,0.15,0.11,-0.05,1005.96
0.706,0.30,0.88,-0.02,0.17,-0.03,0.80,0.15,0.11,-0.05,1005.96
0.725,0.38,0.85,0.01,0.17,-0.03,0.80,0.15,0.11,-0.05,1005.96
0.725,0.35,0.96,0.06,0.17,-0.03,0.80,0.15,0.11,-0.05,1005.96
0.726,0.24,1.07,0.07,0.17,-0.03,0.80,0.15,0.11,-0.05,1005.96
0.726,0.24,1.07,0.07,0.17,-0.03,0.80,0.11,0.19,-0.30,1005.96
0.726,0.24,1.07,0.07,1.44,-0.85,0.05,0.11,0.19,-0.30,1005.96
0.782,0.14,1.09,0.10,1.44,-0.85,0.05,0.11,0.19,-0.30,1005.96
0.783,0.08,1.01,0.05,1.44,-0.85,0.05,0.11,0.19,-0.30,1005.96
0.783,0.09,0.92,0.03,1.44,-0.85,0.05,0.11,0.19,-0.30,1005.96
0.783,0.09,0.92,0.03,1.44,-0.85,0.05,0.27,-0.18,-0.49,1005.96
0.784,0.09,0.92,0.03,1.00,0.47,0.96,0.27,-0.18,-0.49,1005.96
0.785,0.09,0.92,0.03,1.00,0.47,0.96,0.27,-0.18,-0.49,1005.97
0.826,0.09,0.92,0.03,1.00,0.47,0.96,0.27,-0.18,-0.49,1005.99
0.84,0.13,0.94,0.07,1.00,0.47,0.96,0.27,-0.18,-0.49,1005.99
0.841,0.11,1.01,0.01,1.00,0.47,0.96,0.27,-0.18,-0.49,1005.99
0.842,0.06,1.03,-0.02,1.00,0.47,0.96,0.27,-0.18,-0.49,1005.99
0.842,0.06,1.03,-0.02,1.00,0.47,0.96,0.49,0.00,-0.40,1005.99
0.843,0.06,1.03,-0.02,-0.18,-0.34,0.94,0.49,0.00,-0.40,1005.99
0.899,0.01,1.02,-0.02,-0.18,-0.34,0.94,0.49,0.00,-0.40,1005.99
0.9,-0.01,0.99,-0.09,-0.18,-0.34,0.94,0.49,0.00,-0.40,1005.99
0.901,0.00,0.98,-0.12,-0.18,-0.34,0.94,0.49,0.00,-0.40,1005.99
0.901,0.00,0.98,-0.12,-0.18,-0.34,0.94,0.70,-0.19,-0.34,1005.99
0.902,0.00,0.98,-0.12,-0.37,0.27,0.74,0.70,-0.19,-0.34,1005.99
0.905,0.00,0.98,-0.12,-0.37,0.27,0.74,0.70,-0.19,-0.34,1005.99
0.957,0.01,1.01,-0.14,-0.37,0.27,0.74,0.70,-0.19,-0.34,1005.99
0.958,0.05,1.03,-0.11,-0.37,0.27,0.74,0.70,-0.19,-0.34,1005.99
0.958,0.07,1.04,-0.09,-0.37,0.27,0.74,0.70,-0.19,-0.34,1005.99
0.959,0.07,1.04,-0.09,-0.37,0.27,0.74,0.68,-0.52,-0.17,1005.99
0.959,0.07,1.04,-0.09,-0.78,0.01,0.10,0.68,-0.52,-0.17,1005.99
0.985,0.07,1.04,-0.09,-0.78,0.01,0.10,0.68,-0.52,-0.17,1005.97
1.015,0.07,1.01,-0.08,-0.78,0.01,0.10,0.68,-0.52,-0.17,1005.97
1.016,0.06,1.04,-0.07,-0.78,0.01,0.10,0.68,-0.52,-0.17,1005.97
1.016,0.04,1.12,-0.13,-0.78,0.01,0.10,0.68,-0.52,-0.17,1005.97
1.017,0.04,1.12,-0.13,-0.78,0.01,0.10,0.84,-0.55,-0.22,1005.97
1.017,0.04,1.12,-0.13,0.02,0.41,0.79,0.84,-0.55,-0.22,1005.97
1.028,0.04,1.12,-0.13,0.02,0.41,0.79,0.84,-0.55,-0.22,1005.97
1.073,-0.00,1.25,-0.16,0.02,0.41,0.79,0.84,-0.55,-0.22,1005.97
1.074,-0.09,1.31,-0.04,0.02,0.41,0.79,0.84,-0.55,-0.22,1005.97
1.075,-0.05,1.45,0.09,0.02,0.41,0.79,0.84,-0.55,-0.22,1005.97
1.075,-0.05,1.45,0.09,0.02,0.41,0.79,0.97,-0.81,-0.12,1005.97
1.076,-0.05,1.45,0.09,-0.13,1.52,1.06,0.97,-0.81,-0.12,1005.97
1.105,-0.05,1.45,0.09,-0.13,1.52,1.06,0.97,-0.81,-0.12,1005.96
1.132,0.13,1.46,0.03,-0.13,1.52,1.06,0.97,-0.81,-0.12,1005.96
1.132,0.52,1.27,-0.05,-0.13,1.52,1.06,0.97,-0.81,-0.12,1005.96
1.133,0.75,1.06,0.09,-0.13,1.52,1.06,0.97,-0.81,-0.12,1005.96
1.133,0.75,1.06,0.09,-0.13,1.52,1.06,0.69,-3.04,0.41,1005.96
1.134,0.75,1.06,0.09,-0.24,4.14,2.85,0.69,-3.04,0.41,1005.96
1.185,0.75,1.06,0.09,-0.24,4.14,2.85,0.69,-3.04,0.41,1005.96
1.191,0.55,0.95,0.15,-0.24,4.14,2.85,0.69,-3.04,0.41,1005.96
1.192,0.43,0.86,0.09,-0.24,4.14,2.85,0.69,-3.04,0.41,1005.96
1.192,0.43,0.80,0.04,-0.24,4.14,2.85,0.69,-3.04,0.41,1005.96
1.192,0.43,0.80,0.04,-0.24,4.14,2.85,-0.04,-3.03,0.63,1005.96
1.193,0.43,0.80,0.04,5.64,1.03,3.13,-0.04,-3.03,0.63,1005.96
1.228,0.43,0.80,0.04,5.64,1.03,3.13,-0.04,-3.03,0.63,1005.96
1.249,0.38,0.78,-0.01,5.64,1.03,3.13,-0.04,-3.03,0.63,1005.96
1.251,0.29,0.86,-0.09,5.64,1.03,3.13,-0.04,-3.03,0.63,1005.96
1.251,0.21,0.92,-0.15,5.64,1.03,3.13,-0.04,-3.03,0.63,1005.96
1.251,0.21,0.92,-0.15,5.64,1.03,3.13,-0.15,-1.61,1.31,1005.96
1.251,0.21,0.92,-0.15,3.15,-1.63,2.75,-0.15,-1.61,1.31,1005.96
1.305,0.21,0.92,-0.15,3.15,-1.63,2.75,-0.15,-1.61,1.31,1005.96
1.308,0.18,0.87,-0.19,3.15,-1.63,2.75,-0.15,-1.61,1.31,1005.96
1.308,0.16,0.81,-0.20,3.15,-1.63,2.75,-0.15,-1.61,1.31,1005.96
1.309,0.13,0.80,-0.23,3.15,-1.63,2.75,-0.15,-1.61,1.31,1005.96
1.309,0.13,0.80,-0.23,3.15,-1.63,2.75,-0.54,-1.12,1.75,1005.96
1.309,0.13,0.80,-0.23,0.49,-0.86,0.75,-0.54,-1.12,1.75,1005.96
1.365,0.10,0.82,-0.26,0.49,-0.86,0.75,-0.54,-1.12,1.75,1005.96
1.366,0.06,0.86,-0.26,0.49,-0.86,0.75,-0.54,-1.12,1.75,1005.96
1.366,0.02,0.84,-0.23,0.49,-0.86,0.75,-0.54,-1.12,1.75,1005.96
1.367,0.02,0.84,-0.23,0.49,-0.86,0.75,-0.77,-1.32,1.85,1005.96
1.367,0.02,0.84,-0.23,-1.29,-1.37,-0.39,-0.77,-1.32,1.85,1005.96
1.385,0.02,0.84,-0.23,-1.29,-1.37,-0.39,-0.77,-1.32,1.85,1005.95
1.423,0.02,0.80,-0.22,-1.29,-1.37,-0.39,-0.77,-1.32,1.85,1005.95
1.424,0.03,0.76,-0.23,-1.29,-1.37,-0.39,-0.77,-1.32,1.85,1005.95
1.425,0.00,0.75,-0.22,-1.29,-1.37,-0.39,-0.77,-1.32,1.85,1005.95
1.425,0.00,0.75,-0.22,-1.29,-1.37,-0.39,-0.81,-1.23,1.59,1005.95
1.425,0.00,0.75,-0.22,-2.87,-0.95,-0.66,-0.81,-1.23,1.59,1005.95
1.427,0.00,0.75,-0.22,-2.87,-0.95,-0.66,-0.81,-1.23,1.59,1005.94
1.482,-0.12,0.79,-0.25,-2.87,-0.95,-0.66,-0.81,-1.23,1.59,1005.94
1.482,-0.27,0.85,-0.25,-2.87,-0.95,-0.66,-0.81,-1.23,1.59,1005.94
1.483,-0.47,0.92,-0.21,-2.87,-0.95,-0.66,-0.81,-1.23,1.59,1005.94
1.483,-0.47,0.92,-0.21,-2.87,-0.95,-0.66,-0.68,-1.25,1.02,1005.94
1.483,-0.47,0.92,-0.21,-3.77,-1.44,-0.70,-0.68,-1.25,1.02,1005.94
1.506,-0.47,0.92,-0.21,-3.77,-1.44,-0.70,-0.68,-1.25,1.02,1005.95
1.541,-0.57,0.99,-0.04,-3.77,-1.44,-0.70,-0.68,-1.25,1.02,1005.95
1.542,-0.44,0.93,-0.07,-3.77,-1.44,-0.70,-0.68,-1.25,1.02,1005.95
1.543,-0.38,0.91,-0.59,-3.77,-1.44,-0.70,-0.68,-1.25,1.02,1005.95
1.544,-0.38,0.91,-0.59,-3.77,-1.44,-0.70,-0.56,-1.84,-0.44,1005.95
1.544,-0.38,0.91,-0.59,-7.21,-0.05,0.03,-0.56,-1.84,-0.44,1005.95
1.585,-0.38,0.91,-0.59,-7.21,-0.05,0.03,-0.56,-1.84,-0.44,1005.95
1.6,-0.16,1.87,-1.25,-7.21,-0.05,0.03,-0.56,-1.84,-0.44,1005.95
1.601,1.48,2.25,-0.21,-7.21,-0.05,0.03,-0.56,-1.84,-0.44,1005.95
1.602,1.31,1.11,-0.52,-7.21,-0.05,0.03,-0.56,-1.84,-0.44,1005.95
1.603,1.31,1.11,-0.52,-5.17,2.81,-4.35,-0.56,-1.84,-0.44,1005.95
1.604,1.31,1.11,-0.52,-5.17,2.81,-4.35,-0.18,-1.50,-1.21,1005.95
1.625,1.31,1.11,-0.52,-5.17,2.81,-4.35,-0.18,-1.50,-1.21,1005.94
1.657,-0.44,0.35,-0.47,-5.17,2.81,-4.35,-0.18,-1.50,-1.21,1005.94
1.659,-0.91,0.69,0.20,-5.17,2.81,-4.35,-0.18,-1.50,-1.21,1005.94
1.659,-0.43,1.23,0.19,-5.17,2.81,-4.35,-0.18,-1.50,-1.21,1005.94
1.66,-0.43,1.23,0.19,-5.17,2.81,-4.35,-0.27,-0.83,-2.65,1005.94
1.66,-0.43,1.23,0.19,7.05,2.50,-2.09,-0.27,-0.83,-2.65,1005.94
1.705,-0.43,1.23,0.19,7.05,2.50,-2.09,-0.27,-0.83,-2.65,1005.91
1.715,0.03,1.12,0.01,7.05,2.50,-2.09,-0.27,-0.83,-2.65,1005.91
1.716,-0.06,0.98,-0.09,7.05,2.50,-2.09,-0.27,-0.83,-2.65,1005.91
1.716,-0.14,1.00,-0.34,7.05,2.50,-2.09,-0.27,-0.83,-2.65,1005.91
1.717,-0.14,1.00,-0.34,7.05,2.50,-2.09,0.12,-0.41,-1.39,1005.91
1.717,-0.14,1.00,-0.34,-3.98,0.29,3.19,0.12,-0.41,-1.39,1005.91
1.774,-0.21,1.01,-0.35,-3.98,0.29,3.19,0.12,-0.41,-1.39,1005.91
1.775,-0.22,1.00,-0.22,-3.98,0.29,3.19,0.12,-0.41,-1.39,1005.91
1.775,-0.21,0.97,-0.21,-3.98,0.29,3.19,0.12,-0.41,-1.39,1005.91
1.775,-0.21,0.97,-0.21,-3.98,0.29,3.19,0.19,-0.42,-1.21,1005.91
1.776,-0.21,0.97,-0.21,-0.30,0.19,-0.60,0.19,-0.42,-1.21,1005.91
1.785,-0.21,0.97,-0.21,-0.30,0.19,-0.60,0.19,-0.42,-1.21,1005.97
1.825,-0.21,0.97,-0.21,-0.30,0.19,-0.60,0.19,-0.42,-1.21,1005.95
1.833,-0.21,0.97,-0.26,-0.30,0.19,-0.60,0.19,-0.42,-1.21,1005.95
1.834,-0.23,0.99,-0.25,-0.30,0.19,-0.60,0.19,-0.42,-1.21,1005.95
1.834,-0.23,0.96,-0.25,-0.30,0.19,-0.60,0.19,-0.42,-1.21,1005.95
1.835,-0.23,0.96,-0.25,-0.30,0.19,-0.60,0.20,-0.29,-1.00,1005.95
1.835,-0.23,0.96,-0.25,-0.45,0.14,-0.18,0.20,-0.29,-1.00,1005.95
1.896,-0.22,0.99,-0.26,-0.45,0.14,-0.18,0.20,-0.29,-1.00,1005.95
1.897,-0.23,0.98,-0.26,-0.45,0.14,-0.18,0.20,-0.29,-1.00,1005.95
1.898,-0.26,0.93,-0.22,-0.45,0.14,-0.18,0.20,-0.29,-1.00,1005.95
1.898,-0.26,0.93,-0.22,-0.45,0.14,-0.18,0.19,-0.16,-0.91,1005.95
1.898,-0.26,0.93,-0.22,-0.04,0.27,-0.31,0.19,-0.16,-0.91,1005.95
1.911,-0.26,0.93,-0.22,-0.04,0.27,-0.31,0.19,-0.16,-0.91,1005.96
1.954,-0.30,0.97,-0.17,-0.04,0.27,-0.31,0.19,-0.16,-0.91,1005.96
1.955,-0.30,0.95,-0.17,-0.04,0.27,-0.31,0.19,-0.16,-0.91,1005.96
1.955,-0.23,0.92,-0.15,-0.04,0.27,-0.31,0.19,-0.16,-0.91,1005.96
1.956,-0.23,0.92,-0.15,-0.04,0.27,-0.31,0.21,0.03,-0.86,1005.96
1.956,-0.23,0.92,-0.15,0.06,0.23,0.15,0.21,0.03,-0.86,1005.96
1.985,-0.23,0.92,-0.15,0.06,0.23,0.15,0.21,0.03,-0.86,1005.96
2.007,-0.13,0.97,-0.11,0.06,0.23,0.15,0.21,0.03,-0.86,1005.96
2.008,-0.09,1.02,-0.16,0.06,0.23,0.15,0.21,0.03,-0.86,1005.96
2.008,-0.02,1.02,-0.20,0.06,0.23,0.15,0.21,0.03,-0.86,1005.96
2.009,-0.02,1.02,-0.20,0.97,0.26,1.05,0.21,0.03,-0.86,1005.96
2.011,-0.02,1.02,-0.20,0.97,0.26,1.05,0.31,0.24,-1.06,1005.96
2.028,-0.02,1.02,-0.20,0.97,0.26,1.05,0.31,0.24,-1.06,1005.95
2.066,-0.02,1.15,-0.23,0.97,0.26,1.05,0.31,0.24,-1.06,1005.95
2.066,-0.05,1.37,-0.22,0.97,0.26,1.05,0.31,0.24,-1.06,1005.95
2.067,0.14,1.43,-0.17,0.97,0.26,1.05,0.31,0.24,-1.06,1005.95
2.067,0.14,1.43,-0.17,0.97,0.26,1.05,0.83,-0.25,-1.67,1005.95
2.067,0.14,1.43,-0.17,3.54,1.86,0.86,0.83,-0.25,-1.67,1005.95
2.106,0.14,1.43,-0.17,3.54,1.86,0.86,0.83,-0.25,-1.67,1005.95
2.124,0.41,1.46,-0.10,3.54,1.86,0.86,0.83,-0.25,-1.67,1005.95
2.129,0.65,1.83,-0.06,3.54,1.86,0.86,0.83,-0.25,-1.67,1005.95
2.129,1.23,2.05,0.12,3.54,1.86,0.86,0.83,-0.25,-1.67,1005.95
2.129,1.23,2.05,0.12,3.54,1.86,0.86,1.32,0.26,-2.11,1005.95
2.13,1.23,2.05,0.12,6.39,6.02,1.87,1.32,0.26,-2.11,1005.95
2.182,0.95,1.52,0.16,6.39,6.02,1.87,1.32,0.26,-2.11,1005.95
2.183,-0.24,1.19,-0.06,6.39,6.02,1.87,1.32,0.26,-2.11,1005.95
2.184,-0.95,1.45,-0.27,6.39,6.02,1.87,1.32,0.26,-2.11,1005.95
2.184,-0.95,1.45,-0.27,6.39,6.02,1.87,1.54,1.76,-3.67,1005.95
2.184,-0.95,1.45,-0.27,14.82,11.00,5.29,1.54,1.76,-3.67,1005.95
2.185,-0.95,1.45,-0.27,14.82,11.00,5.29,1.54,1.76,-3.67,1005.94
2.225,-0.95,1.45,-0.27,14.82,11.00,5.29,1.54,1.76,-3.67,1005.96
2.242,-1.31,1.35,-0.42,14.82,11.00,5.29,1.54,1.76,-3.67,1005.96
2.243,-1.13,0.90,-0.62,14.82,11.00,5.29,1.54,1.76,-3.67,1005.96
2.243,-0.86,0.74,-0.43,14.82,11.00,5.29,1.54,1.76,-3.67,1005.96
2.243,-0.86,0.74,-0.43,-1.79,7.53,2.65,1.54,1.76,-3.67,1005.96
2.244,-0.86,0.74,-0.43,-1.79,7.53,2.65,1.46,0.34,-2.40,1005.96
2.298,-0.56,0.49,-0.62,-1.79,7.53,2.65,1.46,0.34,-2.40,1005.96
2.299,-0.34,0.25,-0.19,-1.79,7.53,2.65,1.46,0.34,-2.40,1005.96
2.299,-0.27,0.11,-0.02,-1.79,7.53,2.65,1.46,0.34,-2.40,1005.96
2.299,-0.27,0.11,-0.02,-1.79,7.53,2.65,-1.16,-1.17,1.51,1005.96
2.3,-0.27,0.11,-0.02,-2.14,0.57,-1.13,-1.16,-1.17,1.51,1005.96
2.306,-0.27,0.11,-0.02,-2.14,0.57,-1.13,-1.16,-1.17,1.51,1005.94
2.357,-0.16,0.11,-0.05,-2.14,0.57,-1.13,-1.16,-1.17,1.51,1005.94
2.358,-0.14,0.23,-0.20,-2.14,0.57,-1.13,-1.16,-1.17,1.51,1005.94
2.358,-0.11,0.40,-0.41,-2.14,0.57,-1.13,-1.16,-1.17,1.51,1005.94
2.359,-0.11,0.40,-0.41,-2.14,0.57,-1.13,-1.65,-0.91,4.05,1005.94
2.359,-0.11,0.40,-0.41,2.09,-6.39,2.40,-1.65,-0.91,4.05,1005.94
2.385,-0.11,0.40,-0.41,2.09,-6.39,2.40,-1.65,-0.91,4.05,1005.92
2.415,-0.18,0.51,-0.21,2.09,-6.39,2.40,-1.65,-0.91,4.05,1005.92
2.416,-0.24,0.56,-0.13,2.09,-6.39,2.40,-1.65,-0.91,4.05,1005.92
2.416,-0.19,0.71,-0.33,2.09,-6.39,2.40,-1.65,-0.91,4.05,1005.92
2.417,-0.19,0.71,-0.33,2.09,-6.39,2.40,-2.11,0.33,5.51,1005.92
2.419,-0.19,0.71,-0.33,0.38,-5.49,-0.42,-2.11,0.33,5.51,1005.92
2.427,-0.19,0.71,-0.33,0.38,-5.49,-0.42,-2.11,0.33,5.51,1005.96
2.477,-0.13,0.98,-0.42,0.38,-5.49,-0.42,-2.11,0.33,5.51,1005.96
2.478,-0.45,1.41,-0.47,0.38,-5.49,-0.42,-2.11,0.33,5.51,1005.96
2.479,-0.88,1.88,-0.68,0.38,-5.49,-0.42,-2.11,0.33,5.51,1005.96
2.48,-0.88,1.88,-0.68,0.38,-5.49,-0.42,-2.62,1.52,5.84,1005.96
2.48,-0.88,1.88,-0.68,-3.35,-2.12,-2.05,-2.62,1.52,5.84,1005.96
2.505,-0.88,1.88,-0.68,-3.35,-2.12,-2.05,-2.62,1.52,5.84,1005.97
2.532,-0.93,1.71,-0.83,-3.35,-2.12,-2.05,-2.62,1.52,5.84,1005.97
2.533,-0.97,1.36,-0.32,-3.35,-2.12,-2.05,-2.62,1.52,5.84,1005.97
2.533,-0.67,1.24,-0.20,-3.35,-2.12,-2.05,-2.62,1.52,5.84,1005.97
2.533,-0.67,1.24,-0.20,-3.35,-2.12,-2.05,-2.72,0.02,5.33,1005.97
2.534,-0.67,1.24,-0.20,-11.52,7.64,-6.94,-2.72,0.02,5.33,1005.97
2.585,-0.67,1.24,-0.20,-11.52,7.64,-6.94,-2.72,0.02,5.33,1005.94
2.595,-0.67,1.24,-0.20,-12.01,3.50,-4.09,-2.72,0.02,5.33,1005.94
2.596,-0.66,1.05,-0.49,-12.01,3.50,-4.09,-2.72,0.02,5.33,1005.94
2.596,-0.94,0.80,-0.43,-12.01,3.50,-4.09,-2.72,0.02,5.33,1005.94
2.597,-0.96,0.72,-0.37,-12.01,3.50,-4.09,-2.72,0.02,5.33,1005.94
2.597,-0.96,0.72,-0.37,-12.01,3.50,-4.09,-1.00,-0.36,1.10,1005.94
2.628,-0.96,0.72,-0.37,-12.01,3.50,-4.09,-1.00,-0.36,1.10,1005.91
2.648,-0.84,0.83,-0.46,-12.01,3.50,-4.09,-1.00,-0.36,1.10,1005.91
2.649,-0.60,1.33,-0.71,-12.01,3.50,-4.09,-1.00,-0.36,1.10,1005.91
2.649,1.21,1.78,0.39,-12.01,3.50,-4.09,-1.00,-0.36,1.10,1005.91
2.65,1.21,1.78,0.39,-12.01,3.50,-4.09,0.09,-1.00,-2.16,1005.91
2.65,1.21,1.78,0.39,-12.17,-1.23,-4.54,0.09,-1.00,-2.16,1005.91
2.705,1.21,1.78,0.39,-12.17,-1.23,-4.54,0.09,-1.00,-2.16,1005.92
2.707,2.70,1.60,0.48,-12.17,-1.23,-4.54,0.09,-1.00,-2.16,1005.92
2.708,0.21,1.54,-0.79,-12.17,-1.23,-4.54,0.09,-1.00,-2.16,1005.92
2.708,-1.16,1.33,-0.93,-12.17,-1.23,-4.54,0.09,-1.00,-2.16,1005.92
2.708,-1.16,1.33,-0.93,8.30,6.11,0.29,0.09,-1.00,-2.16,1005.92
2.709,-1.16,1.33,-0.93,8.30,6.11,0.29,0.07,-0.86,-1.66,1005.92
2.765,-0.30,0.61,0.41,8.30,6.11,0.29,0.07,-0.86,-1.66,1005.92
2.766,-0.02,0.79,0.18,8.30,6.11,0.29,0.07,-0.86,-1.66,1005.92
2.767,-0.23,1.11,0.18,8.30,6.11,0.29,0.07,-0.86,-1.66,1005.92
2.767,-0.23,1.11,0.18,8.30,6.11,0.29,0.10,-0.09,-2.07,1005.92
2.768,-0.23,1.11,0.18,-5.36,1.81,-4.38,0.10,-0.09,-2.07,1005.92
2.785,-0.23,1.11,0.18,-5.36,1.81,-4.38,0.10,-0.09,-2.07,1005.90
2.833,-0.26,1.09,-0.02,-5.36,1.81,-4.38,0.10,-0.09,-2.07,1005.90
2.835,-0.06,1.00,-0.13,-5.36,1.81,-4.38,0.10,-0.09,-2.07,1005.90
2.835,0.07,1.03,-0.11,-5.36,1.81,-4.38,0.10,-0.09,-2.07,1005.90
2.835,0.07,1.03,-0.11,-5.36,1.81,-4.38,0.21,-0.16,-1.17,1005.90
2.836,0.07,1.03,-0.11,-2.23,0.16,1.10,0.21,-0.16,-1.17,1005.90
2.836,0.07,1.03,-0.11,-2.23,0.16,1.10,0.21,-0.16,-1.17,1005.94
2.884,0.03,1.05,-0.03,-2.23,0.16,1.10,0.21,-0.16,-1.17,1005.94
2.885,-0.07,1.02,0.04,-2.23,0.16,1.10,0.21,-0.16,-1.17,1005.94
2.885,-0.01,1.02,0.05,-2.23,0.16,1.10,0.21,-0.16,-1.17,1005.94
2.885,-0.01,1.02,0.05,-2.23,0.16,1.10,0.18,-0.05,-1.01,1005.94
2.886,-0.01,1.02,0.05,0.15,0.43,-0.75,0.18,-0.05,-1.01,1005.94
2.906,-0.01,1.02,0.05,0.15,0.43,-0.75,0.18,-0.05,-1.01,1005.97
2.951,0.10,0.98,0.04,0.15,0.43,-0.75,0.18,-0.05,-1.01,1005.97
2.952,0.12,0.95,0.06,0.15,0.43,-0.75,0.18,-0.05,-1.01,1005.97
2.953,0.01,0.97,0.02,0.15,0.43,-0.75,0.18,-0.05,-1.01,1005.97
2.953,0.01,0.97,0.02,0.15,0.43,-0.75,0.35,0.13,-1.15,1005.97
2.954,0.01,0.97,0.02,0.71,0.24,0.73,0.35,0.13,-1.15,1005.97
2.986,0.01,0.97,0.02,0.71,0.24,0.73,0.35,0.13,-1.15,1005.97
2.999,-0.10,0.99,-0.02,0.71,0.24,0.73,0.35,0.13,-1.15,1005.97
2.999,-0.19,1.01,-0.07,0.71,0.24,0.73,0.35,0.13,-1.15,1005.97
3.0,-0.24,1.01,-0.09,0.71,0.24,0.73,0.35,0.13,-1.15,1005.97
3.0,-0.24,1.01,-0.09,0.71,0.24,0.73,0.45,0.33,-1.41,1005.97
3.0,-0.24,1.01,-0.09,1.47,0.00,0.74,0.45,0.33,-1.41,1005.97
3.027,-0.24,1.01,-0.09,1.47,0.00,0.74,0.45,0.33,-1.41,1005.98
3.057,-0.16,0.97,-0.05,1.47,0.00,0.74,0.45,0.33,-1.41,1005.98
3.057,-0.08,0.94,-0.02,1.47,0.00,0.74,0.45,0.33,-1.41,1005.98
3.058,-0.13,0.97,-0.06,1.47,0.00,0.74,0.45,0.33,-1.41,1005.98
3.058,-0.13,0.97,-0.06,1.47,0.00,0.74,0.48,0.34,-1.39,1005.98
3.058,-0.13,0.97,-0.06,0.21,0.37,0.16,0.48,0.34,-1.39,1005.98
3.106,-0.13,0.97,-0.06,0.21,0.37,0.16,0.48,0.34,-1.39,1005.97
3.116,-0.14,1.03,-0.15,0.21,0.37,0.16,0.48,0.34,-1.39,1005.97
3.117,-0.10,1.09,-0.17,0.21,0.37,0.16,0.48,0.34,-1.39,1005.97
3.117,-0.06,1.19,-0.14,0.21,0.37,0.16,0.48,0.34,-1.39,1005.97
3.117,-0.06,1.19,-0.14,1.89,0.50,0.43,0.48,0.34,-1.39,1005.97
3.117,-0.06,1.19,-0.14,1.89,0.50,0.43,0.54,0.27,-1.71,1005.97
3.175,0.02,1.25,-0.11,1.89,0.50,0.43,0.54,0.27,-1.71,1005.97
3.176,0.10,1.33,-0.04,1.89,0.50,0.43,0.54,0.27,-1.71,1005.97
3.176,0.22,1.50,-0.04,1.89,0.50,0.43,0.54,0.27,-1.71,1005.97
3.176,0.22,1.50,-0.04,1.89,0.50,0.43,0.88,0.02,-2.26,1005.97
3.177,0.22,1.50,-0.04,3.63,2.93,0.29,0.88,0.02,-2.26,1005.97
3.186,0.22,1.50,-0.04,3.63,2.93,0.29,0.88,0.02,-2.26,1005.97
3.226,0.22,1.50,-0.04,3.63,2.93,0.29,0.88,0.02,-2.26,1005.98
3.232,0.64,1.83,0.18,3.63,2.93,0.29,0.88,0.02,-2.26,1005.98
3.234,1.12,1.98,-0.05,3.63,2.93,0.29,0.88,0.02,-2.26,1005.98
3.235,1.00,1.62,-0.22,3.63,2.93,0.29,0.88,0.02,-2.26,1005.98
3.236,1.00,1.62,-0.22,3.63,2.93,0.29,1.15,1.17,-2.98,1005.98
3.237,1.00,1.62,-0.22,8.33,7.46,2.76,1.15,1.17,-2.98,1005.98
3.292,0.03,1.01,-0.25,8.33,7.46,2.76,1.15,1.17,-2.98,1005.98
3.294,-0.87,0.96,-0.50,8.33,7.46,2.76,1.15,1.17,-2.98,1005.98
3.295,-1.13,1.27,-0.33,8.33,7.46,2.76,1.15,1.17,-2.98,1005.98
3.296,-1.13,1.27,-0.33,8.33,7.46,2.76,1.48,3.60,-3.99,1005.98
3.299,-1.13,1.27,-0.33,12.95,8.78,2.53,1.48,3.60,-3.99,1005.98
3.306,-1.13,1.27,-0.33,12.95,8.78,2.53,1.48,3.60,-3.99,1005.98
3.348,-0.86,0.99,-0.26,12.95,8.78,2.53,1.48,3.60,-3.99,1005.98
3.35,-0.81,0.47,-0.36,12.95,8.78,2.53,1.48,3.60,-3.99,1005.98
3.35,-0.99,0.34,-0.57,12.95,8.78,2.53,1.48,3.60,-3.99,1005.98
3.35,-0.99,0.34,-0.57,12.95,8.78,2.53,0.66,1.05,-1.24,1005.98
3.351,-0.99,0.34,-0.57,-3.21,4.80,1.29,0.66,1.05,-1.24,1005.98
3.386,-0.99,0.34,-0.57,-3.21,4.80,1.29,0.66,1.05,-1.24,1005.93
3.408,-0.80,0.38,-0.62,-3.21,4.80,1.29,0.66,1.05,-1.24,1005.93
3.41,-0.41,0.27,-0.08,-3.21,4.80,1.29,0.66,1.05,-1.24,1005.93
3.41,-0.11,0.08,-0.01,-3.21,4.80,1.29,0.66,1.05,-1.24,1005.93
3.411,-0.11,0.08,-0.01,-3.21,4.80,1.29,-1.71,-1.02,1.96,1005.93
3.411,-0.11,0.08,-0.01,-2.80,-2.90,-1.20,-1.71,-1.02,1.96,1005.93
3.426,-0.11,0.08,-0.01,-2.80,-2.90,-1.20,-1.71,-1.02,1.96,1005.93
3.468,0.06,0.08,0.04,-2.80,-2.90,-1.20,-1.71,-1.02,1.96,1005.93
3.47,0.11,0.35,-0.31,-2.80,-2.90,-1.20,-1.71,-1.02,1.96,1005.93
3.471,-0.14,0.65,-0.35,-2.80,-2.90,-1.20,-1.71,-1.02,1.96,1005.93
3.472,-0.14,0.65,-0.35,-2.80,-2.90,-1.20,-1.77,-0.88,4.28,1005.93
3.473,-0.14,0.65,-0.35,2.45,-6.85,2.62,-1.77,-0.88,4.28,1005.93
3.505,-0.14,0.65,-0.35,2.45,-6.85,2.62,-1.77,-0.88,4.28,1005.96
3.524,-0.37,0.70,-0.16,2.45,-6.85,2.62,-1.77,-0.88,4.28,1005.96
3.525,-0.37,0.68,-0.32,2.45,-6.85,2.62,-1.77,-0.88,4.28,1005.96
3.525,-0.38,1.00,-0.32,2.45,-6.85,2.62,-1.77,-0.88,4.28,1005.96
3.526,-0.38,1.00,-0.32,-0.04,-3.66,-0.77,-1.77,-0.88,4.28,1005.96
3.526,-0.38,1.00,-0.32,-0.04,-3.66,-0.77,-1.61,-0.18,5.23,1005.96
3.583,-0.45,1.39,-0.22,-0.04,-3.66,-0.77,-1.61,-0.18,5.23,1005.96
3.584,-0.53,1.53,-0.26,-0.04,-3.66,-0.77,-1.61,-0.18,5.23,1005.96
3.584,-0.68,1.64,-0.39,-0.04,-3.66,-0.77,-1.61,-0.18,5.23,1005.96
3.585,-0.68,1.64,-0.39,-0.04,-3.66,-0.77,-1.68,-1.15,6.14,1005.96
3.585,-0.68,1.64,-0.39,-5.78,0.80,-1.77,-1.68,-1.15,6.14,1005.96
3.585,-0.68,1.64,-0.39,-5.78,0.80,-1.77,-1.68,-1.15,6.14,1005.98
3.63,-0.68,1.64,-0.39,-5.78,0.80,-1.77,-1.68,-1.15,6.14,1005.95
3.641,-0.67,1.59,-0.34,-5.78,0.80,-1.77,-1.68,-1.15,6.14,1005.95
3.642,-0.44,1.13,-0.11,-5.78,0.80,-1.77,-1.68,-1.15,6.14,1005.95
3.645,-0.22,0.87,0.05,-5.78,0.80,-1.77,-1.68,-1.15,6.14,1005.95
3.646,-0.22,0.87,0.05,-5.78,0.80,-1.77,-1.52,-2.51,4.81,1005.95
3.647,-0.22,0.87,0.05,-10.21,6.97,-2.44,-1.52,-2.51,4.81,1005.95
3.699,-0.55,0.93,-0.18,-10.21,6.97,-2.44,-1.52,-2.51,4.81,1005.95
3.7,-1.04,0.97,-0.20,-10.21,6.97,-2.44,-1.52,-2.51,4.81,1005.95
3.7,-1.05,0.77,-0.24,-10.21,6.97,-2.44,-1.52,-2.51,4.81,1005.95
3.701,-1.05,0.77,-0.24,-10.21,6.97,-2.44,-0.67,-1.42,0.77,1005.95
3.701,-1.05,0.77,-0.24,-8.22,1.16,0.06,-0.67,-1.42,0.77,1005.95
3.706,-1.05,0.77,-0.24,-8.22,1.16,0.06,-0.67,-1.42,0.77,1005.92
3.757,-0.67,0.76,-0.35,-8.22,1.16,0.06,-0.67,-1.42,0.77,1005.92
3.758,-0.23,0.94,-0.65,-8.22,1.16,0.06,-0.67,-1.42,0.77,1005.92
3.758,1.07,1.49,-0.32,-8.22,1.16,0.06,-0.67,-1.42,0.77,1005.92
3.759,1.07,1.49,-0.32,-8.22,1.16,0.06,-0.41,-2.25,-1.24,1005.92
3.759,1.07,1.49,-0.32,-12.35,-0.56,-1.40,-0.41,-2.25,-1.24,1005.92
3.785,1.07,1.49,-0.32,-12.35,-0.56,-1.40,-0.41,-2.25,-1.24,1005.95
3.816,2.49,2.54,0.85,-12.35,-0.56,-1.40,-0.41,-2.25,-1.24,1005.95
3.818,-0.05,1.95,-0.46,-12.35,-0.56,-1.40,-0.41,-2.25,-1.24,1005.95
3.819,-0.87,0.61,-1.21,-12.35,-0.56,-1.40,-0.41,-2.25,-1.24,1005.95
3.82,-0.87,0.61,-1.21,-12.35,-0.56,-1.40,-0.31,-0.18,-2.21,1005.95
3.821,-0.87,0.61,-1.21,8.59,7.02,0.67,-0.31,-0.18,-2.21,1005.95
3.826,-0.87,0.61,-1.21,8.59,7.02,0.67,-0.31,-0.18,-2.21,1005.93
3.873,-0.35,0.20,0.31,8.59,7.02,0.67,-0.31,-0.18,-2.21,1005.93
3.874,-0.40,0.89,0.26,8.59,7.02,0.67,-0.31,-0.18,-2.21,1005.93
3.875,-0.40,1.22,0.06,8.59,7.02,0.67,-0.31,-0.18,-2.21,1005.93
3.875,-0.40,1.22,0.06,8.59,7.02,0.67,-0.10,-0.58,-1.83,1005.93
3.876,-0.40,1.22,0.06,-5.31,-0.37,-3.34,-0.10,-0.58,-1.83,1005.93
3.907,-0.40,1.22,0.06,-5.31,-0.37,-3.34,-0.10,-0.58,-1.83,1005.95
3.933,-0.26,1.06,-0.23,-5.31,-0.37,-3.34,-0.10,-0.58,-1.83,1005.95
3.935,-0.08,0.93,-0.31,-5.31,-0.37,-3.34,-0.10,-0.58,-1.83,1005.95
3.936,-0.06,1.01,-0.19,-5.31,-0.37,-3.34,-0.10,-0.58,-1.83,1005.95
3.937,-0.06,1.01,-0.19,-5.31,-0.37,-3.34,0.21,-0.41,-0.62,1005.95
3.938,-0.06,1.01,-0.19,-4.20,0.91,1.52,0.21,-0.41,-0.62,1005.95
3.986,-0.06,1.01,-0.19,-4.20,0.91,1.52,0.21,-0.41,-0.62,1005.97
3.991,-0.07,1.07,-0.20,-4.20,0.91,1.52,0.21,-0.41,-0.62,1005.97
3.992,-0.05,1.02,-0.20,-4.20,0.91,1.52,0.21,-0.41,-0.62,1005.97
3.993,-0.03,0.99,-0.15,-4.20,0.91,1.52,0.21,-0.41,-0.62,1005.97
3.994,-0.03,0.99,-0.15,-4.20,0.91,1.52,0.04,-0.43,-0.08,1005.97
3.995,-0.03,0.99,-0.15,-1.33,0.39,-1.01,0.04,-0.43,-0.08,1005.97
4.026,-0.03,0.99,-0.15,-1.33,0.39,-1.01,0.04,-0.43,-0.08,1005.96
4.051,0.05,0.96,-0.19,-1.33,0.39,-1.01,0.04,-0.43,-0.08,1005.96
4.053,0.10,0.95,-0.15,-1.33,0.39,-1.01,0.04,-0.43,-0.08,1005.96
4.054,0.11,0.99,-0.13,-1.33,0.39,-1.01,0.04,-0.43,-0.08,1005.96
4.055,0.11,0.99,-0.13,-0.76,0.26,-0.50,0.04,-0.43,-0.08,1005.96
4.056,0.11,0.99,-0.13,-0.76,0.26,-0.50,-0.05,-0.38,0.09,1005.96
4.106,0.11,0.99,-0.13,-0.76,0.26,-0.50,-0.05,-0.38,0.09,1005.96
4.107,0.19,1.00,-0.08,-0.76,0.26,-0.50,-0.05,-0.38,0.09,1005.96
4.108,0.28,0.99,0.04,-0.76,0.26,-0.50,-0.05,-0.38,0.09,1005.96
4.109,0.32,0.96,0.15,-0.76,0.26,-0.50,-0.05,-0.38,0.09,1005.96
4.109,0.32,0.96,0.15,-0.76,0.26,-0.50,0.05,-0.23,-0.21,1005.96
4.11,0.32,0.96,0.15,0.79,0.14,0.12,0.05,-0.23,-0.21,1005.96
4.167,0.31,0.95,0.11,0.79,0.14,0.12,0.05,-0.23,-0.21,1005.96
4.168,0.23,0.97,0.01,0.79,0.14,0.12,0.05,-0.23,-0.21,1005.96
4.169,0.21,1.00,-0.07,0.79,0.14,0.12,0.05,-0.23,-0.21,1005.96
4.169,0.21,1.00,-0.07,0.79,0.14,0.12,0.62,-0.31,-0.98,1005.96
4.169,0.21,1.00,-0.07,2.97,0.03,2.60,0.62,-0.31,-0.98,1005.96
4.186,0.21,1.00,-0.07,2.97,0.03,2.60,0.62,-0.31,-0.98,1005.97
4.225,0.24,1.01,-0.14,2.97,0.03,2.60,0.62,-0.31,-0.98,1005.97
4.227,0.29,1.06,-0.02,2.97,0.03,2.60,0.62,-0.31,-0.98,1005.97
4.228,0.48,1.26,0.04,2.97,0.03,2.60,0.62,-0.31,-0.98,1005.97
4.229,0.48,1.26,0.04,2.97,0.03,2.60,1.26,-0.12,-1.80,1005.97
4.23,0.48,1.26,0.04,3.17,0.54,1.60,1.26,-0.12,-1.80,1005.97
4.231,0.48,1.26,0.04,3.17,0.54,1.60,1.26,-0.12,-1.80,1005.99
4.282,0.49,1.49,-0.16,3.17,0.54,1.60,1.26,-0.12,-1.80,1005.99
4.284,-0.11,1.63,-0.43,3.17,0.54,1.60,1.26,-0.12,-1.80,1005.99
4.284,-0.66,1.33,-0.30,3.17,0.54,1.60,1.26,-0.12,-1.80,1005.99
4.285,-0.66,1.33,-0.30,3.17,0.54,1.60,2.28,-0.76,-2.81,1005.99
4.286,-0.66,1.33,-0.30,6.53,3.85,2.89,2.28,-0.76,-2.81,1005.99
4.306,-0.66,1.33,-0.30,6.53,3.85,2.89,2.28,-0.76,-2.81,1005.99
4.342,-1.06,0.86,-0.46,6.53,3.85,2.89,2.28,-0.76,-2.81,1005.99
4.343,-1.25,0.65,-0.66,6.53,3.85,2.89,2.28,-0.76,-2.81,1005.99
4.345,-0.57,0.44,-0.63,6.53,3.85,2.89,2.28,-0.76,-2.81,1005.99
4.345,-0.57,0.44,-0.63,6.53,3.85,2.89,2.24,-3.24,-1.20,1005.99
4.346,-0.57,0.44,-0.63,-2.23,4.47,-0.08,2.24,-3.24,-1.20,1005.99
4.385,-0.57,0.44,-0.63,-2.23,4.47,-0.08,2.24,-3.24,-1.20,1005.97
4.399,0.27,0.19,-0.39,-2.23,4.47,-0.08,2.24,-3.24,-1.20,1005.97
4.4,0.61,0.02,-0.36,-2.23,4.47,-0.08,2.24,-3.24,-1.20,1005.97
4.401,0.18,0.16,-0.27,-2.23,4.47,-0.08,2.24,-3.24,-1.20,1005.97
4.401,0.18,0.16,-0.27,-2.23,4.47,-0.08,1.52,-6.15,2.94,1005.97
4.402,0.18,0.16,-0.27,-1.46,-4.10,-2.30,1.52,-6.15,2.94,1005.97
4.426,0.18,0.16,-0.27,-1.46,-4.10,-2.30,1.52,-6.15,2.94,1005.95
4.458,-0.11,0.38,-0.09,-1.46,-4.10,-2.30,1.52,-6.15,2.94,1005.95
4.459,-0.25,0.58,0.04,-1.46,-4.10,-2.30,1.52,-6.15,2.94,1005.95
4.46,-0.17,0.72,-0.09,-1.46,-4.10,-2.30,1.52,-6.15,2.94,1005.95
4.461,-0.17,0.72,-0.09,-1.46,-4.10,-2.30,2.07,-6.84,4.80,1005.95
4.462,-0.17,0.72,-0.09,4.58,-6.86,0.61,2.07,-6.84,4.80,1005.95
4.506,-0.17,0.72,-0.09,4.58,-6.86,0.61,2.07,-6.84,4.80,1005.98
4.516,-0.04,0.97,-0.11,4.58,-6.86,0.61,2.07,-6.84,4.80,1005.98
4.518,-0.12,1.36,0.14,4.58,-6.86,0.61,2.07,-6.84,4.80,1005.98
4.519,-1.16,2.19,0.56,4.58,-6.86,0.61,2.07,-6.84,4.80,1005.98
4.52,-1.16,2.19,0.56,4.58,-6.86,0.61,1.28,-4.00,5.10,1005.98
4.521,-1.16,2.19,0.56,-0.99,-1.45,2.70,1.28,-4.00,5.10,1005.98
4.574,-3.14,2.37,0.08,-0.99,-1.45,2.70,1.28,-4.00,5.10,1005.98
4.575,-0.33,0.02,1.23,-0.99,-1.45,2.70,1.28,-4.00,5.10,1005.98
4.575,1.58,0.33,-1.07,-0.99,-1.45,2.70,1.28,-4.00,5.10,1005.98
4.576,1.58,0.33,-1.07,-13.84,10.25,5.54,1.28,-4.00,5.10,1005.98
4.58,1.58,0.33,-1.07,-13.84,10.25,5.54,-0.29,0.75,0.00,1005.98
4.586,1.58,0.33,-1.07,-13.84,10.25,5.54,-0.29,0.75,0.00,1005.96
4.626,1.58,0.33,-1.07,-13.84,10.25,5.54,-0.29,0.75,0.00,1005.87
4.633,0.85,1.83,-0.10,-13.84,10.25,5.54,-0.29,0.75,0.00,1005.87
4.635,-0.40,1.36,-0.56,-13.84,10.25,5.54,-0.29,0.75,0.00,1005.87
4.636,-0.34,0.74,-0.30,-13.84,10.25,5.54,-0.29,0.75,0.00,1005.87
4.637,-0.34,0.74,-0.30,-13.84,10.25,5.54,-0.02,-0.39,-0.16,1005.87
4.638,-0.34,0.74,-0.30,7.46,-1.94,3.12,-0.02,-0.39,-0.16,1005.87
4.69,-0.44,0.95,-0.29,7.46,-1.94,3.12,-0.02,-0.39,-0.16,1005.87
4.692,-0.11,1.00,-0.15,7.46,-1.94,3.12,-0.02,-0.39,-0.16,1005.87
4.692,0.17,0.92,-0.11,7.46,-1.94,3.12,-0.02,-0.39,-0.16,1005.87
4.693,0.17,0.92,-0.11,7.46,-1.94,3.12,0.12,-0.85,0.21,1005.87
4.693,0.17,0.92,-0.11,-3.15,0.93,-0.80,0.12,-0.85,0.21,1005.87
4.706,0.17,0.92,-0.11,-3.15,0.93,-0.80,0.12,-0.85,0.21,1005.89
4.767,-0.01,0.97,-0.24,-3.15,0.93,-0.80,0.12,-0.85,0.21,1005.89
4.769,-0.20,0.97,-0.38,-3.15,0.93,-0.80,0.12,-0.85,0.21,1005.89
4.769,-0.12,0.95,-0.31,-3.15,0.93,-0.80,0.12,-0.85,0.21,1005.89
4.77,-0.12,0.95,-0.31,-3.15,0.93,-0.80,0.35,-0.07,-0.07,1005.89
4.77,-0.12,0.95,-0.31,0.92,0.43,1.46,0.35,-0.07,-0.07,1005.89
4.786,-0.12,0.95,-0.31,0.92,0.43,1.46,0.35,-0.07,-0.07,1005.92
4.808,-0.10,0.96,-0.16,0.92,0.43,1.46,0.35,-0.07,-0.07,1005.92
4.809,-0.22,0.92,-0.26,0.92,0.43,1.46,0.35,-0.07,-0.07,1005.92
4.809,-0.27,0.92,-0.37,0.92,0.43,1.46,0.35,-0.07,-0.07,1005.92
4.81,-0.27,0.92,-0.37,0.92,0.43,1.46,0.41,-0.42,0.02,1005.92
4.81,-0.27,0.92,-0.37,-0.58,0.47,0.50,0.41,-0.42,0.02,1005.92
4.827,-0.27,0.92,-0.37,-0.58,0.47,0.50,0.41,-0.42,0.02,1005.96
4.872,-0.09,0.94,-0.33,-0.58,0.47,0.50,0.41,-0.42,0.02,1005.96
4.873,-0.01,0.92,-0.36,-0.58,0.47,0.50,0.41,-0.42,0.02,1005.96
4.873,-0.15,0.95,-0.34,-0.58,0.47,0.50,0.41,-0.42,0.02,1005.96
4.874,-0.15,0.95,-0.34,-0.58,0.47,0.50,0.43,-0.16,0.20,1005.96
4.874,-0.15,0.95,-0.34,-1.13,0.22,0.34,0.43,-0.16,0.20,1005.96
4.906,-0.15,0.95,-0.34,-1.13,0.22,0.34,0.43,-0.16,0.20,1005.96
4.924,-0.18,0.98,-0.31,-1.13,0.22,0.34,0.43,-0.16,0.20,1005.96
4.926,-0.07,0.98,-0.32,-1.13,0.22,0.34,0.43,-0.16,0.20,1005.96
4.926,0.01,0.96,-0.30,-1.13,0.22,0.34,0.43,-0.16,0.20,1005.96
4.927,0.01,0.96,-0.30,-1.13,0.22,0.34,0.62,-0.14,0.25,1005.96
4.928,0.01,0.96,-0.30,-0.46,0.60,0.52,0.62,-0.14,0.25,1005.96
4.983,0.06,1.00,-0.29,-0.46,0.60,0.52,0.62,-0.14,0.25,1005.96
4.985,0.05,1.06,-0.24,-0.46,0.60,0.52,0.62,-0.14,0.25,1005.96
4.987,0.03,1.06,-0.34,-0.46,0.60,0.52,0.62,-0.14,0.25,1005.96
4.988,0.03,1.06,-0.34,-0.46,0.60,0.52,1.12,-0.11,0.10,1005.96
4.989,0.03,1.06,-0.34,0.60,1.15,1.34,1.12,-0.11,0.10,1005.96
4.989,0.03,1.06,-0.34,0.60,1.15,1.34,1.12,-0.11,0.10,1005.97
5.027,0.03,1.06,-0.34,0.60,1.15,1.34,1.12,-0.11,0.10,1005.97
5.042,0.01,1.07,-0.34,0.60,1.15,1.34,1.12,-0.11,0.10,1005.97
5.044,-0.02,1.13,-0.31,0.60,1.15,1.34,1.12,-0.11,0.10,1005.97
5.045,0.05,1.33,-0.24,0.60,1.15,1.34,1.12,-0.11,0.10,1005.97
5.046,0.05,1.33,-0.24,0.60,1.15,1.34,1.63,-0.23,0.04,1005.97
5.047,0.05,1.33,-0.24,0.97,2.36,2.08,1.63,-0.23,0.04,1005.97
5.1,0.05,1.33,-0.24,2.48,5.82,3.85,1.63,-0.23,0.04,1005.97
5.101,0.35,1.61,-0.08,2.48,5.82,3.85,1.63,-0.23,0.04,1005.97
5.101,0.63,1.71,0.12,2.48,5.82,3.85,1.63,-0.23,0.04,1005.97
5.102,0.41,1.56,0.22,2.48,5.82,3.85,1.63,-0.23,0.04,1005.97
5.102,0.41,1.56,0.22,2.48,5.82,3.85,2.24,-2.06,0.10,1005.97
5.106,0.41,1.56,0.22,2.48,5.82,3.85,2.24,-2.06,0.10,1005.96
5.157,-0.02,1.43,0.43,2.48,5.82,3.85,2.24,-2.06,0.10,1005.96
5.158,-0.48,1.32,0.21,2.48,5.82,3.85,2.24,-2.06,0.10,1005.96
5.159,-0.87,1.39,-0.10,2.48,5.82,3.85,2.24,-2.06,0.10,1005.96
5.159,-0.87,1.39,-0.10,2.48,5.82,3.85,2.23,-2.66,-1.20,1005.96
5.159,-0.87,1.39,-0.10,5.94,8.70,8.90,2.23,-2.66,-1.20,1005.96
5.186,-0.87,1.39,-0.10,5.94,8.70,8.90,2.23,-2.66,-1.20,1005.95
5.217,-0.84,1.25,-0.40,5.94,8.70,8.90,2.23,-2.66,-1.20,1005.95
5.218,-0.55,1.18,-0.61,5.94,8.70,8.90,2.23,-2.66,-1.20,1005.95
5.218,-0.18,0.97,-0.44,5.94,8.70,8.90,2.23,-2.66,-1.20,1005.95
5.219,-0.18,0.97,-0.44,5.94,8.70,8.90,1.82,-3.94,-0.60,1005.95
5.219,-0.18,0.97,-0.44,-2.80,6.97,5.24,1.82,-3.94,-0.60,1005.95
5.226,-0.18,0.97,-0.44,-2.80,6.97,5.24,1.82,-3.94,-0.60,1005.97
5.274,-0.01,0.65,-0.03,-2.80,6.97,5.24,1.82,-3.94,-0.60,1005.97
5.275,-0.26,0.58,0.10,-2.80,6.97,5.24,1.82,-3.94,-0.60,1005.97
5.275,-0.30,0.59,0.01,-2.80,6.97,5.24,1.82,-3.94,-0.60,1005.97
5.276,-0.30,0.59,0.01,-2.80,6.97,5.24,-0.17,-3.54,1.50,1005.97
5.276,-0.30,0.59,0.01,2.52,2.65,1.56,-0.17,-3.54,1.50,1005.97
5.306,-0.30,0.59,0.01,2.52,2.65,1.56,-0.17,-3.54,1.50,1005.94
5.332,-0.16,0.59,0.01,2.52,2.65,1.56,-0.17,-3.54,1.50,1005.94
5.335,-0.09,0.56,-0.09,2.52,2.65,1.56,-0.17,-3.54,1.50,1005.94
5.335,-0.17,0.65,-0.18,2.52,2.65,1.56,-0.17,-3.54,1.50,1005.94
5.336,-0.17,0.65,-0.18,2.52,2.65,1.56,-0.91,-1.44,3.18,1005.94
5.336,-0.17,0.65,-0.18,1.65,-1.83,4.62,-0.91,-1.44,3.18,1005.94
5.386,-0.17,0.65,-0.18,1.65,-1.83,4.62,-0.91,-1.44,3.18,1005.93
5.39,-0.21,0.79,-0.19,1.65,-1.83,4.62,-0.91,-1.44,3.18,1005.93
5.391,-0.29,0.89,-0.26,1.65,-1.83,4.62,-0.91,-1.44,3.18,1005.93
5.391,-0.42,0.96,-0.28,1.65,-1.83,4.62,-0.91,-1.44,3.18,1005.93
5.391,-0.42,0.96,-0.28,1.65,-1.83,4.62,-1.67,0.52,4.24,1005.93
5.392,-0.42,0.96,-0.28,0.33,-2.09,1.95,-1.67,0.52,4.24,1005.93
5.427,-0.42,0.96,-0.28,0.33,-2.09,1.95,-1.67,0.52,4.24,1005.97
5.452,-0.55,1.05,-0.28,0.33,-2.09,1.95,-1.67,0.52,4.24,1005.97
5.453,-0.63,1.17,-0.40,0.33,-2.09,1.95,-1.67,0.52,4.24,1005.97
5.453,-0.54,1.32,-0.49,0.33,-2.09,1.95,-1.67,0.52,4.24,1005.97
5.454,-0.54,1.32,-0.49,0.33,-2.09,1.95,-2.76,-0.52,5.22,1005.97
5.454,-0.54,1.32,-0.49,-4.83,0.22,-0.66,-2.76,-0.52,5.22,1005.97
5.507,-0.54,1.32,-0.49,-4.83,0.22,-0.66,-2.76,-0.52,5.22,1005.95
5.508,-0.32,1.40,-0.51,-4.83,0.22,-0.66,-2.76,-0.52,5.22,1005.95
5.508,-0.19,1.30,-0.35,-4.83,0.22,-0.66,-2.76,-0.52,5.22,1005.95
5.508,-0.34,1.32,-0.20,-4.83,0.22,-0.66,-2.76,-0.52,5.22,1005.95
5.509,-0.34,1.32,-0.20,-4.83,0.22,-0.66,-2.81,-1.47,5.67,1005.95
5.509,-0.34,1.32,-0.20,-8.35,3.91,-3.77,-2.81,-1.47,5.67,1005.95
5.566,-0.34,1.32,-0.20,-8.70,4.25,-2.47,-2.81,-1.47,5.67,1005.95
5.567,-0.79,1.26,-0.25,-8.70,4.25,-2.47,-2.81,-1.47,5.67,1005.95
5.568,-1.02,0.96,-0.41,-8.70,4.25,-2.47,-2.81,-1.47,5.67,1005.95
5.568,-1.02,0.85,-0.40,-8.70,4.25,-2.47,-2.81,-1.47,5.67,1005.95
5.569,-1.02,0.85,-0.40,-8.70,4.25,-2.47,-1.51,-0.06,2.15,1005.95
5.586,-1.02,0.85,-0.40,-8.70,4.25,-2.47,-1.51,-0.06,2.15,1005.92
5.625,-1.07,0.71,-0.40,-8.70,4.25,-2.47,-1.51,-0.06,2.15,1005.92
5.626,-1.01,0.82,-0.64,-8.70,4.25,-2.47,-1.51,-0.06,2.15,1005.92
5.626,-0.28,1.61,-1.02,-8.70,4.25,-2.47,-1.51,-0.06,2.15,1005.92
5.627,-0.28,1.61,-1.02,-8.70,4.25,-2.47,-0.05,-0.98,-1.76,1005.92
5.627,-0.28,1.61,-1.02,-13.42,-0.57,-3.61,-0.05,-0.98,-1.76,1005.92
5.627,-0.28,1.61,-1.02,-13.42,-0.57,-3.61,-0.05,-0.98,-1.76,1005.92
5.683,-0.28,1.61,-1.02,0.04,4.86,-3.10,-0.05,-0.98,-1.76,1005.92
5.684,2.09,1.85,0.47,0.04,4.86,-3.10,-0.05,-0.98,-1.76,1005.92
5.685,1.95,1.67,-0.18,0.04,4.86,-3.10,-0.05,-0.98,-1.76,1005.92
5.685,-0.65,1.28,-1.03,0.04,4.86,-3.10,-0.05,-0.98,-1.76,1005.92
5.686,-0.65,1.28,-1.03,0.04,4.86,-3.10,-0.03,-2.15,-1.27,1005.92
5.707,-0.65,1.28,-1.03,0.04,4.86,-3.10,-0.03,-2.15,-1.27,1005.91
5.741,-0.92,0.86,-0.67,0.04,4.86,-3.10,-0.03,-2.15,-1.27,1005.91
5.742,-0.34,0.58,0.59,0.04,4.86,-3.10,-0.03,-2.15,-1.27,1005.91
5.742,-0.21,0.87,0.55,0.04,4.86,-3.10,-0.03,-2.15,-1.27,1005.91
5.743,-0.21,0.87,0.55,0.04,4.86,-3.10,-0.23,-0.18,-2.36,1005.91
5.743,-0.21,0.87,0.55,-0.06,3.03,-5.38,-0.23,-0.18,-2.36,1005.91
5.787,-0.21,0.87,0.55,-0.06,3.03,-5.38,-0.23,-0.18,-2.36,1005.91
5.8,-0.21,0.87,0.55,-1.95,-1.10,5.12,-0.23,-0.18,-2.36,1005.91
5.802,0.14,1.11,0.15,-1.95,-1.10,5.12,-0.23,-0.18,-2.36,1005.91
5.802,0.27,1.11,-0.34,-1.95,-1.10,5.12,-0.23,-0.18,-2.36,1005.91
5.803,0.10,1.07,-0.12,-1.95,-1.10,5.12,-0.23,-0.18,-2.36,1005.91
5.804,0.10,1.07,-0.12,-1.95,-1.10,5.12,0.37,0.08,-1.16,1005.91
5.828,0.10,1.07,-0.12,-1.95,-1.10,5.12,0.37,0.08,-1.16,1005.97
5.86,0.10,1.07,-0.12,1.11,0.95,-0.78,0.37,0.08,-1.16,1005.97
5.862,-0.04,1.01,-0.09,1.11,0.95,-0.78,0.37,0.08,-1.16,1005.97
5.863,-0.15,0.96,-0.02,1.11,0.95,-0.78,0.37,0.08,-1.16,1005.97
5.864,-0.04,0.98,0.07,1.11,0.95,-0.78,0.37,0.08,-1.16,1005.97
5.865,-0.04,0.98,0.07,1.11,0.95,-0.78,0.24,-0.29,-1.10,1005.97
5.906,-0.04,0.98,0.07,1.11,0.95,-0.78,0.24,-0.29,-1.10,1005.97
5.916,0.07,0.98,0.02,1.11,0.95,-0.78,0.24,-0.29,-1.10,1005.97
5.917,0.14,0.95,-0.03,1.11,0.95,-0.78,0.24,-0.29,-1.10,1005.97
5.917,0.12,0.97,-0.09,1.11,0.95,-0.78,0.24,-0.29,-1.10,1005.97
5.918,0.12,0.97,-0.09,1.11,0.95,-0.78,0.39,-0.26,-1.06,1005.97
5.918,0.12,0.97,-0.09,0.22,0.13,1.44,0.39,-0.26,-1.06,1005.97
5.974,-0.09,1.01,-0.08,0.22,0.13,1.44,0.39,-0.26,-1.06,1005.97
5.975,-0.15,1.01,-0.11,0.22,0.13,1.44,0.39,-0.26,-1.06,1005.97
5.976,-0.12,1.01,-0.11,0.22,0.13,1.44,0.39,-0.26,-1.06,1005.97
5.976,-0.12,1.01,-0.11,0.22,0.13,1.44,0.47,0.05,-1.35,1005.97
5.977,-0.12,1.01,-0.11,1.86,0.21,0.82,0.47,0.05,-1.35,1005.97
5.987,-0.12,1.01,-0.11,1.86,0.21,0.82,0.47,0.05,-1.35,1005.98
6.026,-0.12,1.01,-0.11,1.86,0.21,0.82,0.47,0.05,-1.35,1005.98
6.035,-0.12,1.01,-0.11,0.63,0.76,0.64,0.47,0.05,-1.35,1005.98
6.037,-0.15,1.02,-0.13,0.63,0.76,0.64,0.47,0.05,-1.35,1005.98
6.038,-0.13,1.01,-0.15,0.63,0.76,0.64,0.47,0.05,-1.35,1005.98
6.039,-0.08,1.00,-0.18,0.63,0.76,0.64,0.47,0.05,-1.35,1005.98
6.04,-0.08,1.00,-0.18,0.63,0.76,0.64,0.52,0.29,-1.32,1005.98
6.09,-0.14,1.02,-0.21,0.63,0.76,0.64,0.52,0.29,-1.32,1005.98
6.092,-0.14,1.01,-0.21,0.63,0.76,0.64,0.52,0.29,-1.32,1005.98
6.092,-0.08,1.05,-0.15,0.63,0.76,0.64,0.52,0.29,-1.32,1005.98
6.092,-0.08,1.05,-0.15,0.63,0.76,0.64,0.60,0.38,-1.55,1005.98
6.093,-0.08,1.05,-0.15,1.60,1.00,0.38,0.60,0.38,-1.55,1005.98
6.106,-0.08,1.05,-0.15,1.60,1.00,0.38,0.60,0.38,-1.55,1005.98
6.158,-0.08,1.05,-0.15,2.68,2.20,0.94,0.60,0.38,-1.55,1005.98
6.16,-0.08,1.20,-0.14,2.68,2.20,0.94,0.60,0.38,-1.55,1005.98
6.161,-0.10,1.28,-0.16,2.68,2.20,0.94,0.60,0.38,-1.55,1005.98
6.162,0.01,1.32,-0.17,2.68,2.20,0.94,0.60,0.38,-1.55,1005.98
6.163,0.01,1.32,-0.17,2.68,2.20,0.94,1.01,-0.20,-1.91,1005.98
6.187,0.01,1.32,-0.17,2.68,2.20,0.94,1.01,-0.20,-1.91,1005.98
6.208,0.12,1.48,-0.18,2.68,2.20,0.94,1.01,-0.20,-1.91,1005.98
6.209,0.35,1.92,0.03,2.68,2.20,0.94,1.01,-0.20,-1.91,1005.98
6.209,1.03,2.10,0.12,2.68,2.20,0.94,1.01,-0.20,-1.91,1005.98
6.21,1.03,2.10,0.12,2.68,2.20,0.94,1.41,0.28,-2.20,1005.98
6.21,1.03,2.10,0.12,4.68,5.59,1.60,1.41,0.28,-2.20,1005.98
6.227,1.03,2.10,0.12,4.68,5.59,1.60,1.41,0.28,-2.20,1005.98
6.27,1.19,1.70,0.05,4.68,5.59,1.60,1.41,0.28,-2.20,1005.98
6.271,0.24,1.05,0.10,4.68,5.59,1.60,1.41,0.28,-2.20,1005.98
6.272,-0.77,0.99,-0.15,4.68,5.59,1.60,1.41,0.28,-2.20,1005.98
6.272,-0.77,0.99,-0.15,4.68,5.59,1.60,1.32,1.97,-3.18,1005.98
6.273,-0.77,0.99,-0.15,13.62,11.93,4.96,1.32,1.97,-3.18,1005.98
6.307,-0.77,0.99,-0.15,13.62,11.93,4.96,1.32,1.97,-3.18,1005.96
6.324,-1.21,1.30,-0.28,13.62,11.93,4.96,1.32,1.97,-3.18,1005.96
6.325,-1.01,1.10,-0.53,13.62,11.93,4.96,1.32,1.97,-3.18,1005.96
6.326,-0.68,0.65,-0.37,13.62,11.93,4.96,1.32,1.97,-3.18,1005.96
6.326,-0.68,0.65,-0.37,13.62,11.93,4.96,1.36,1.45,-2.73,1005.96
6.327,-0.68,0.65,-0.37,0.11,5.36,4.14,1.36,1.45,-2.73,1005.96
6.384,-0.56,0.46,-0.41,0.11,5.36,4.14,1.36,1.45,-2.73,1005.96
6.387,-0.30,0.37,-0.53,0.11,5.36,4.14,1.36,1.45,-2.73,1005.96
6.388,-0.17,0.20,-0.11,0.11,5.36,4.14,1.36,1.45,-2.73,1005.96
6.388,-0.17,0.20,-0.11,0.11,5.36,4.14,-1.01,0.11,0.38,1005.96
6.389,-0.17,0.20,-0.11,-1.70,1.20,0.64,-1.01,0.11,0.38,1005.96
6.389,-0.17,0.20,-0.11,-1.70,1.20,0.64,-1.01,0.11,0.38,1005.94
6.426,-0.17,0.20,-0.11,-1.70,1.20,0.64,-1.01,0.11,0.38,1005.92
6.441,-0.11,0.13,-0.12,-1.70,1.20,0.64,-1.01,0.11,0.38,1005.92
6.444,-0.14,0.22,-0.24,-1.70,1.20,0.64,-1.01,0.11,0.38,1005.92
6.445,-0.16,0.35,-0.39,-1.70,1.20,0.64,-1.01,0.11,0.38,1005.92
6.446,-0.16,0.35,-0.39,2.74,-4.97,1.46,-1.01,0.11,0.38,1005.92
6.447,-0.16,0.35,-0.39,2.74,-4.97,1.46,-2.07,-0.37,2.75,1005.92
6.499,-0.15,0.47,-0.42,2.74,-4.97,1.46,-2.07,-0.37,2.75,1005.92
6.5,-0.20,0.58,-0.32,2.74,-4.97,1.46,-2.07,-0.37,2.75,1005.92
6.5,-0.16,0.64,-0.28,2.74,-4.97,1.46,-2.07,-0.37,2.75,1005.92
6.501,-0.16,0.64,-0.28,2.74,-4.97,1.46,-2.83,-0.58,4.55,1005.92
6.501,-0.16,0.64,-0.28,1.11,-5.31,-0.91,-2.83,-0.58,4.55,1005.92
6.506,-0.16,0.64,-0.28,1.11,-5.31,-0.91,-2.83,-0.58,4.55,1005.97
6.559,-0.04,0.77,-0.23,1.11,-5.31,-0.91,-2.83,-0.58,4.55,1005.97
6.561,-0.02,1.05,-0.37,1.11,-5.31,-0.91,-2.83,-0.58,4.55,1005.97
6.562,-0.10,1.47,-0.48,1.11,-5.31,-0.91,-2.83,-0.58,4.55,1005.97
6.563,-0.10,1.47,-0.48,1.11,-5.31,-0.91,-2.76,0.66,5.73,1005.97
6.564,-0.10,1.47,-0.48,-1.82,-2.78,-1.60,-2.76,0.66,5.73,1005.97
6.592,-0.10,1.47,-0.48,-1.82,-2.78,-1.60,-2.76,0.66,5.73,1005.97
6.615,-0.34,1.94,-0.66,-1.82,-2.78,-1.60,-2.76,0.66,5.73,1005.97
6.617,-0.67,1.95,-0.63,-1.82,-2.78,-1.60,-2.76,0.66,5.73,1005.97
6.617,-0.89,1.49,-0.12,-1.82,-2.78,-1.60,-2.76,0.66,5.73,1005.97
6.617,-0.89,1.49,-0.12,-1.82,-2.78,-1.60,-2.86,0.78,5.44,1005.97
6.618,-0.89,1.49,-0.12,-4.84,5.76,-5.33,-2.86,0.78,5.44,1005.97
6.627,-0.89,1.49,-0.12,-4.84,5.76,-5.33,-2.86,0.78,5.44,1005.95
6.673,-0.88,1.03,-0.33,-4.84,5.76,-5.33,-2.86,0.78,5.44,1005.95
6.674,-0.86,0.83,-0.61,-4.84,5.76,-5.33,-2.86,0.78,5.44,1005.95
6.675,-0.97,0.83,-0.47,-4.84,5.76,-5.33,-2.86,0.78,5.44,1005.95
6.675,-0.97,0.83,-0.47,-4.84,5.76,-5.33,-1.23,-0.30,1.90,1005.95
6.676,-0.97,0.83,-0.47,-12.08,6.18,-4.40,-1.23,-0.30,1.90,1005.95
6.706,-0.97,0.83,-0.47,-12.08,6.18,-4.40,-1.23,-0.30,1.90,1005.90
6.733,-1.02,0.77,-0.44,-12.08,6.18,-4.40,-1.23,-0.30,1.90,1005.90
6.736,-0.52,1.30,-0.68,-12.08,6.18,-4.40,-1.23,-0.30,1.90,1005.90
6.737,1.45,1.64,0.54,-12.08,6.18,-4.40,-1.23,-0.30,1.90,1005.90
6.738,1.45,1.64,0.54,-12.08,6.18,-4.40,0.04,-1.65,-1.96,1005.90
6.739,1.45,1.64,0.54,-12.26,-0.93,-5.37,0.04,-1.65,-1.96,1005.90
6.787,1.45,1.64,0.54,-12.26,-0.93,-5.37,0.04,-1.65,-1.96,1005.90
6.79,2.79,1.39,0.18,-12.26,-0.93,-5.37,0.04,-1.65,-1.96,1005.90
6.791,0.31,1.41,-0.54,-12.26,-0.93,-5.37,0.04,-1.65,-1.96,1005.90
6.791,-1.34,1.35,-0.85,-12.26,-0.93,-5.37,0.04,-1.65,-1.96,1005.90
6.791,-1.34,1.35,-0.85,-12.26,-0.93,-5.37,0.27,-1.04,-1.91,1005.90
6.792,-1.34,1.35,-0.85,9.99,4.92,0.01,0.27,-1.04,-1.91,1005.90
6.826,-1.34,1.35,-0.85,9.99,4.92,0.01,0.27,-1.04,-1.91,1005.91
6.849,-1.03,0.90,-0.02,9.99,4.92,0.01,0.27,-1.04,-1.91,1005.91
6.85,0.08,0.84,0.44,9.99,4.92,0.01,0.27,-1.04,-1.91,1005.91
6.85,0.26,1.02,0.14,9.99,4.92,0.01,0.27,-1.04,-1.91,1005.91
6.851,0.26,1.02,0.14,9.99,4.92,0.01,0.01,-0.08,-1.86,1005.91
6.851,0.26,1.02,0.14,-7.74,2.52,-4.64,0.01,-0.08,-1.86,1005.91
6.908,0.26,1.02,0.14,-7.74,2.52,-4.64,0.01,-0.08,-1.86,1005.92
6.909,0.05,1.05,0.09,-7.74,2.52,-4.64,0.01,-0.08,-1.86,1005.92
6.909,-0.11,1.00,0.03,-7.74,2.52,-4.64,0.01,-0.08,-1.86,1005.92
6.91,0.03,1.00,-0.02,-7.74,2.52,-4.64,0.01,-0.08,-1.86,1005.92
6.91,0.03,1.00,-0.02,-7.74,2.52,-4.64,0.32,-0.21,-1.35,1005.92
6.91,0.03,1.00,-0.02,1.00,0.04,2.33,0.32,-0.21,-1.35,1005.92
6.966,0.02,1.02,-0.03,1.00,0.04,2.33,0.32,-0.21,-1.35,1005.92
6.968,-0.17,1.04,-0.02,1.00,0.04,2.33,0.32,-0.21,-1.35,1005.92
6.969,-0.11,1.03,0.01,1.00,0.04,2.33,0.32,-0.21,-1.35,1005.92
6.97,-0.11,1.03,0.01,0.13,0.40,0.21,0.32,-0.21,-1.35,1005.92
6.97,-0.11,1.03,0.01,0.13,0.40,0.21,0.31,-0.10,-1.10,1005.92
6.988,-0.11,1.03,0.01,0.13,0.40,0.21,0.31,-0.10,-1.10,1005.97
7.024,0.09,1.01,0.01,0.13,0.40,0.21,0.31,-0.10,-1.10,1005.97
7.025,0.14,0.98,0.03,0.13,0.40,0.21,0.31,-0.10,-1.10,1005.97
7.026,0.07,0.95,0.04,0.13,0.40,0.21,0.31,-0.10,-1.10,1005.97
7.026,0.07,0.95,0.04,0.13,0.40,0.21,0.34,-0.15,-1.07,1005.97
7.027,0.07,0.95,0.04,0.27,0.61,0.45,0.34,-0.15,-1.07,1005.97
7.027,0.07,0.95,0.04,0.27,0.61,0.45,0.34,-0.15,-1.07,1005.98
7.083,-0.03,0.94,0.02,0.27,0.61,0.45,0.34,-0.15,-1.07,1005.98
7.085,-0.17,0.99,-0.02,0.27,0.61,0.45,0.34,-0.15,-1.07,1005.98
7.086,-0.27,1.02,-0.09,0.27,0.61,0.45,0.34,-0.15,-1.07,1005.98
7.088,-0.27,1.02,-0.09,0.27,0.61,0.45,0.44,0.37,-1.42,1005.98
7.088,-0.27,1.02,-0.09,2.23,0.09,1.00,0.44,0.37,-1.42,1005.98
7.107,-0.27,1.02,-0.09,2.23,0.09,1.00,0.44,0.37,-1.42,1005.99
7.141,-0.20,0.98,-0.09,2.23,0.09,1.00,0.44,0.37,-1.42,1005.99
7.143,-0.08,0.94,-0.08,2.23,0.09,1.00,0.44,0.37,-1.42,1005.99
7.144,-0.11,0.92,-0.05,2.23,0.09,1.00,0.44,0.37,-1.42,1005.99
7.144,-0.11,0.92,-0.05,2.23,0.09,1.00,0.46,0.28,-1.36,1005.99
7.145,-0.11,0.92,-0.05,0.27,0.65,0.33,0.46,0.28,-1.36,1005.99
7.189,-0.11,0.92,-0.05,0.27,0.65,0.33,0.46,0.28,-1.36,1005.98
7.199,-0.22,0.95,-0.09,0.27,0.65,0.33,0.46,0.28,-1.36,1005.98
7.199,-0.22,1.01,-0.10,0.27,0.65,0.33,0.46,0.28,-1.36,1005.98
7.2,-0.20,1.12,-0.08,0.27,0.65,0.33,0.46,0.28,-1.36,1005.98
7.2,-0.20,1.12,-0.08,0.27,0.65,0.33,0.53,0.17,-1.66,1005.98
7.201,-0.20,1.12,-0.08,1.86,0.33,0.56,0.53,0.17,-1.66,1005.98
7.227,-0.20,1.12,-0.08,1.86,0.33,0.56,0.53,0.17,-1.66,1005.98
7.258,-0.13,1.16,-0.08,1.86,0.33,0.56,0.53,0.17,-1.66,1005.98
7.259,-0.13,1.13,-0.10,1.86,0.33,0.56,0.53,0.17,-1.66,1005.98
7.26,-0.18,1.12,-0.18,1.86,0.33,0.56,0.53,0.17,-1.66,1005.98
7.261,-0.18,1.12,-0.18,2.34,2.34,0.86,0.53,0.17,-1.66,1005.98
7.262,-0.18,1.12,-0.18,2.34,2.34,0.86,0.79,0.08,-2.01,1005.98
7.307,-0.18,1.12,-0.18,2.34,2.34,0.86,0.79,0.08,-2.01,1005.98
7.315,-0.24,1.25,-0.23,2.34,2.34,0.86,0.79,0.08,-2.01,1005.98
7.316,-0.10,1.63,-0.17,2.34,2.34,0.86,0.79,0.08,-2.01,1005.98
7.316,0.41,2.04,0.02,2.34,2.34,0.86,0.79,0.08,-2.01,1005.98
7.316,0.41,2.04,0.02,2.34,2.34,0.86,0.98,0.78,-2.22,1005.98
7.317,0.41,2.04,0.02,3.23,3.69,0.70,0.98,0.78,-2.22,1005.98
7.376,0.41,2.04,0.02,10.37,11.49,2.35,0.98,0.78,-2.22,1005.98
7.377,1.12,1.95,-0.16,10.37,11.49,2.35,0.98,0.78,-2.22,1005.98
7.378,0.85,1.34,-0.27,10.37,11.49,2.35,0.98,0.78,-2.22,1005.98
7.378,-0.29,0.72,-0.25,10.37,11.49,2.35,0.98,0.78,-2.22,1005.98
7.378,-0.29,0.72,-0.25,10.37,11.49,2.35,1.13,1.83,-2.77,1005.98
7.387,-0.29,0.72,-0.25,10.37,11.49,2.35,1.13,1.83,-2.77,1005.97
7.427,-0.29,0.72,-0.25,10.37,11.49,2.35,1.13,1.83,-2.77,1005.97
7.432,-1.31,0.90,-0.48,10.37,11.49,2.35,1.13,1.83,-2.77,1005.97
7.433,-1.53,1.22,-0.48,10.37,11.49,2.35,1.13,1.83,-2.77,1005.97
7.433,-1.00,0.83,-0.21,10.37,11.49,2.35,1.13,1.83,-2.77,1005.97
7.434,-1.00,0.83,-0.21,10.37,11.49,2.35,1.45,1.56,-3.30,1005.97
7.434,-1.00,0.83,-0.21,4.02,4.24,1.15,1.45,1.56,-3.30,1005.97
7.49,-0.78,0.38,-0.33,4.02,4.24,1.15,1.45,1.56,-3.30,1005.97
7.491,-0.56,0.28,-0.35,4.02,4.24,1.15,1.45,1.56,-3.30,1005.97
7.492,-0.29,0.20,-0.02,4.02,4.24,1.15,1.45,1.56,-3.30,1005.97
7.492,-0.29,0.20,-0.02,4.02,4.24,1.15,-0.21,-0.44,0.46,1005.97
7.493,-0.29,0.20,-0.02,-4.29,2.26,0.87,-0.21,-0.44,0.46,1005.97
7.507,-0.29,0.20,-0.02,-4.29,2.26,0.87,-0.21,-0.44,0.46,1005.95
7.55,-0.11,-0.04,0.10,-4.29,2.26,0.87,-0.21,-0.44,0.46,1005.95
7.551,-0.12,-0.05,-0.04,-4.29,2.26,0.87,-0.21,-0.44,0.46,1005.95
7.552,-0.24,0.09,-0.18,-4.29,2.26,0.87,-0.21,-0.44,0.46,1005.95
7.552,-0.24,0.09,-0.18,-4.29,2.26,0.87,-0.38,-1.21,3.28,1005.95
7.553,-0.24,0.09,-0.18,2.41,-5.38,2.72,-0.38,-1.21,3.28,1005.95
7.589,-0.24,0.09,-0.18,2.41,-5.38,2.72,-0.38,-1.21,3.28,1005.92
7.608,-0.25,0.30,-0.48,2.41,-5.38,2.72,-0.38,-1.21,3.28,1005.92
7.609,-0.27,0.39,0.06,2.41,-5.38,2.72,-0.38,-1.21,3.28,1005.92
7.609,-0.48,0.46,-0.40,2.41,-5.38,2.72,-0.38,-1.21,3.28,1005.92
7.61,-0.48,0.46,-0.40,2.41,-5.38,2.72,-0.04,-1.59,5.26,1005.92
7.61,-0.48,0.46,-0.40,1.49,-7.02,0.84,-0.04,-1.59,5.26,1005.92
7.626,-0.48,0.46,-0.40,1.49,-7.02,0.84,-0.04,-1.59,5.26,1005.99
7.668,-0.48,0.46,-0.40,-4.10,-3.90,0.09,-0.04,-1.59,5.26,1005.99
7.669,-0.81,0.65,-0.50,-4.10,-3.90,0.09,-0.04,-1.59,5.26,1005.99
7.67,-1.09,0.87,-0.40,-4.10,-3.90,0.09,-0.04,-1.59,5.26,1005.99
7.67,-1.11,1.08,-0.53,-4.10,-3.90,0.09,-0.04,-1.59,5.26,1005.99
7.671,-1.11,1.08,-0.53,-4.10,-3.90,0.09,0.53,-4.32,6.61,1005.99
7.706,-1.11,1.08,-0.53,-4.10,-3.90,0.09,0.53,-4.32,6.61,1005.97
7.723,-0.80,1.16,-0.53,-4.10,-3.90,0.09,0.53,-4.32,6.61,1005.97
7.724,-0.59,1.47,-0.46,-4.10,-3.90,0.09,0.53,-4.32,6.61,1005.97
7.724,-0.53,1.61,-0.31,-4.10,-3.90,0.09,0.53,-4.32,6.61,1005.97
7.725,-0.53,1.61,-0.31,-4.10,-3.90,0.09,1.34,-9.09,6.86,1005.97
7.725,-0.53,1.61,-0.31,-10.46,1.59,-1.12,1.34,-9.09,6.86,1005.97
7.782,-0.26,1.40,0.35,-10.46,1.59,-1.12,1.34,-9.09,6.86,1005.97
7.783,0.06,0.89,0.70,-10.46,1.59,-1.12,1.34,-9.09,6.86,1005.97
7.783,-0.44,1.18,-0.24,-10.46,1.59,-1.12,1.34,-9.09,6.86,1005.97
7.784,-0.44,1.18,-0.24,-10.46,1.59,-1.12,-0.23,-6.68,2.46,1005.97
7.784,-0.44,1.18,-0.24,-4.85,6.04,2.37,-0.23,-6.68,2.46,1005.97
7.797,-0.44,1.18,-0.24,-4.85,6.04,2.37,-0.23,-6.68,2.46,1005.91
7.828,-0.44,1.18,-0.24,-4.85,6.04,2.37,-0.23,-6.68,2.46,1005.89
7.842,-0.12,1.23,1.36,-4.85,6.04,2.37,-0.23,-6.68,2.46,1005.89
7.843,0.60,0.76,0.50,-4.85,6.04,2.37,-0.23,-6.68,2.46,1005.89
7.843,0.20,1.40,-0.40,-4.85,6.04,2.37,-0.23,-6.68,2.46,1005.89
7.844,0.20,1.40,-0.40,-4.85,6.04,2.37,-0.78,1.21,-1.03,1005.89
7.844,0.20,1.40,-0.40,-1.64,1.97,9.14,-0.78,1.21,-1.03,1005.89
7.9,-0.27,1.91,-0.92,-1.64,1.97,9.14,-0.78,1.21,-1.03,1005.89
7.901,-0.51,1.20,-0.82,-1.64,1.97,9.14,-0.78,1.21,-1.03,1005.89
7.901,-0.16,0.88,-0.29,-1.64,1.97,9.14,-0.78,1.21,-1.03,1005.89
7.902,-0.16,0.88,-0.29,2.17,4.32,0.31,-0.78,1.21,-1.03,1005.89
7.902,-0.16,0.88,-0.29,2.17,4.32,0.31,-0.40,-0.59,-0.76,1005.89
7.912,-0.16,0.88,-0.29,2.17,4.32,0.31,-0.40,-0.59,-0.76,1005.98
7.957,0.35,0.78,-0.20,2.17,4.32,0.31,-0.40,-0.59,-0.76,1005.98
7.958,0.03,0.91,0.01,2.17,4.32,0.31,-0.40,-0.59,-0.76,1005.98
7.958,-0.30,1.02,-0.07,2.17,4.32,0.31,-0.40,-0.59,-0.76,1005.98
7.958,-0.30,1.02,-0.07,2.17,4.32,0.31,-0.39,-0.89,-0.15,1005.98
7.959,-0.30,1.02,-0.07,-0.41,0.32,-1.52,-0.39,-0.89,-0.15,1005.98
7.991,-0.30,1.02,-0.07,-0.41,0.32,-1.52,-0.39,-0.89,-0.15,1005.97
8.016,-0.38,0.98,-0.27,-0.41,0.32,-1.52,-0.39,-0.89,-0.15,1005.97
8.018,-0.28,0.98,-0.32,-0.41,0.32,-1.52,-0.39,-0.89,-0.15,1005.97
8.019,-0.16,0.97,-0.29,-0.41,0.32,-1.52,-0.39,-0.89,-0.15,1005.97
8.02,-0.16,0.97,-0.29,-0.41,0.32,-1.52,-0.07,-0.30,0.12,1005.97
8.021,-0.16,0.97,-0.29,-1.45,0.46,1.60,-0.07,-0.30,0.12,1005.97
8.032,-0.16,0.97,-0.29,-1.45,0.46,1.60,-0.07,-0.30,0.12,1005.98
8.081,-0.16,0.97,-0.29,-1.35,0.43,-0.14,-0.07,-0.30,0.12,1005.98
8.083,-0.14,0.96,-0.23,-1.35,0.43,-0.14,-0.07,-0.30,0.12,1005.98
8.084,-0.12,0.95,-0.24,-1.35,0.43,-0.14,-0.07,-0.30,0.12,1005.98
8.085,-0.09,0.94,-0.29,-1.35,0.43,-0.14,-0.07,-0.30,0.12,1005.98
8.086,-0.09,0.94,-0.29,-1.35,0.43,-0.14,-0.08,-0.86,0.57,1005.98
8.108,-0.09,0.94,-0.29,-1.35,0.43,-0.14,-0.08,-0.86,0.57,1005.98
8.133,0.02,0.94,-0.30,-1.35,0.43,-0.14,-0.08,-0.86,0.57,1005.98
8.134,0.03,0.94,-0.28,-1.35,0.43,-0.14,-0.08,-0.86,0.57,1005.98
8.134,-0.05,0.97,-0.29,-1.35,0.43,-0.14,-0.08,-0.86,0.57,1005.98
8.135,-0.05,0.97,-0.29,-1.35,0.43,-0.14,-0.11,-0.68,0.66,1005.98
8.138,-0.05,0.97,-0.29,-0.37,0.15,-0.18,-0.11,-0.68,0.66,1005.98
8.193,-0.05,0.97,-0.29,-0.37,0.15,-0.18,-0.11,-0.68,0.66,1005.96
8.194,-0.01,1.00,-0.30,-0.37,0.15,-0.18,-0.11,-0.68,0.66,1005.96
8.194,0.16,0.98,-0.21,-0.37,0.15,-0.18,-0.11,-0.68,0.66,1005.96
8.194,0.17,0.94,-0.20,-0.37,0.15,-0.18,-0.11,-0.68,0.66,1005.96
8.195,0.17,0.94,-0.20,-0.37,0.15,-0.18,-0.08,-0.64,0.54,1005.96
8.195,0.17,0.94,-0.20,-0.01,0.36,-0.34,-0.08,-0.64,0.54,1005.96
8.227,0.17,0.94,-0.20,-0.01,0.36,-0.34,-0.08,-0.64,0.54,1005.97
8.249,0.06,0.98,-0.20,-0.01,0.36,-0.34,-0.08,-0.64,0.54,1005.97
8.25,0.02,0.96,-0.10,-0.01,0.36,-0.34,-0.08,-0.64,0.54,1005.97
8.25,0.03,0.95,-0.21,-0.01,0.36,-0.34,-0.08,-0.64,0.54,1005.97
8.251,0.03,0.95,-0.21,1.32,0.33,0.54,-0.08,-0.64,0.54,1005.97
8.251,0.03,0.95,-0.21,1.32,0.33,0.54,0.14,-0.55,0.17,1005.97
8.308,0.03,0.95,-0.21,1.32,0.33,0.54,0.14,-0.55,0.17,1005.97
8.309,0.03,0.95,-0.21,0.39,0.50,1.05,0.14,-0.55,0.17,1005.97
8.309,0.06,1.02,-0.22,0.39,0.50,1.05,0.14,-0.55,0.17,1005.97
8.309,0.16,0.96,-0.28,0.39,0.50,1.05,0.14,-0.55,0.17,1005.97
8.31,-0.03,1.02,-0.14,0.39,0.50,1.05,0.14,-0.55,0.17,1005.97
8.31,-0.03,1.02,-0.14,0.39,0.50,1.05,0.45,-0.16,0.08,1005.97
8.366,-0.07,1.01,-0.12,0.39,0.50,1.05,0.45,-0.16,0.08,1005.97
8.369,0.12,0.96,-0.06,0.39,0.50,1.05,0.45,-0.16,0.08,1005.97
8.37,0.22,0.98,-0.11,0.39,0.50,1.05,0.45,-0.16,0.08,1005.97
8.371,0.22,0.98,-0.11,0.39,0.50,1.05,0.98,-0.05,0.07,1005.97
8.372,0.22,0.98,-0.11,0.19,0.86,1.49,0.98,-0.05,0.07,1005.97
8.39,0.22,0.98,-0.11,0.19,0.86,1.49,0.98,-0.05,0.07,1005.98
8.424,0.21,1.01,-0.13,0.19,0.86,1.49,0.98,-0.05,0.07,1005.98
8.425,0.27,1.11,-0.17,0.19,0.86,1.49,0.98,-0.05,0.07,1005.98
8.425,0.32,1.37,-0.20,0.19,0.86,1.49,0.98,-0.05,0.07,1005.98
8.426,0.32,1.37,-0.20,0.19,0.86,1.49,1.90,-0.49,-0.25,1005.98
8.426,0.32,1.37,-0.20,2.00,1.10,3.19,1.90,-0.49,-0.25,1005.98
8.427,0.32,1.37,-0.20,2.00,1.10,3.19,1.90,-0.49,-0.25,1005.97
8.482,0.32,1.37,-0.20,3.97,5.76,3.92,1.90,-0.49,-0.25,1005.97
8.483,0.37,1.66,-0.08,3.97,5.76,3.92,1.90,-0.49,-0.25,1005.97
8.483,0.38,1.70,-0.06,3.97,5.76,3.92,1.90,-0.49,-0.25,1005.97
8.484,0.16,1.63,0.08,3.97,5.76,3.92,1.90,-0.49,-0.25,1005.97
8.484,0.16,1.63,0.08,3.97,5.76,3.92,2.85,-1.65,-0.49,1005.97
8.507,0.16,1.63,0.08,3.97,5.76,3.92,2.85,-1.65,-0.49,1005.96
8.543,0.16,1.63,0.08,3.57,8.85,7.56,2.85,-1.65,-0.49,1005.96
8.544,-0.15,1.51,0.43,3.57,8.85,7.56,2.85,-1.65,-0.49,1005.96
8.545,-0.69,1.36,0.33,3.57,8.85,7.56,2.85,-1.65,-0.49,1005.96
8.545,-1.26,1.36,-0.10,3.57,8.85,7.56,2.85,-1.65,-0.49,1005.96
8.546,-1.26,1.36,-0.10,3.57,8.85,7.56,2.66,-3.42,-0.82,1005.96
8.589,-1.26,1.36,-0.10,3.57,8.85,7.56,2.66,-3.42,-0.82,1005.95
8.599,-1.31,1.21,-0.52,3.57,8.85,7.56,2.66,-3.42,-0.82,1005.95
8.599,-0.84,1.31,-0.75,3.57,8.85,7.56,2.66,-3.42,-0.82,1005.95
8.599,-0.17,1.06,-0.36,3.57,8.85,7.56,2.66,-3.42,-0.82,1005.95
8.599,-0.17,1.06,-0.36,3.57,8.85,7.56,2.05,-5.75,0.08,1005.95
8.599,-0.17,1.06,-0.36,-6.26,6.47,4.73,2.05,-5.75,0.08,1005.95
8.629,-0.17,1.06,-0.36,-6.26,6.47,4.73,2.05,-5.75,0.08,1005.95
8.659,0.21,0.73,-0.02,-6.26,6.47,4.73,2.05,-5.75,0.08,1005.95
8.661,0.15,0.55,0.22,-6.26,6.47,4.73,2.05,-5.75,0.08,1005.95
8.662,-0.15,0.56,0.25,-6.26,6.47,4.73,2.05,-5.75,0.08,1005.95
8.663,-0.15,0.56,0.25,-6.26,6.47,4.73,0.57,-5.58,1.64,1005.95
8.663,-0.15,0.56,0.25,2.77,3.37,0.56,0.57,-5.58,1.64,1005.95
8.709,-0.15,0.56,0.25,2.77,3.37,0.56,0.57,-5.58,1.64,1005.94
8.715,-0.28,0.60,0.18,2.77,3.37,0.56,0.57,-5.58,1.64,1005.94
8.716,-0.27,0.65,0.10,2.77,3.37,0.56,0.57,-5.58,1.64,1005.94
8.717,-0.25,0.65,0.07,2.77,3.37,0.56,0.57,-5.58,1.64,1005.94
8.718,-0.25,0.65,0.07,2.77,3.37,0.56,0.22,-2.32,3.11,1005.94
8.719,-0.25,0.65,0.07,3.64,-1.98,5.65,0.22,-2.32,3.11,1005.94
8.775,-0.26,0.69,0.04,3.64,-1.98,5.65,0.22,-2.32,3.11,1005.94
8.775,-0.30,0.80,-0.04,3.64,-1.98,5.65,0.22,-2.32,3.11,1005.94
8.776,-0.36,0.91,-0.04,3.64,-1.98,5.65,0.22,-2.32,3.11,1005.94
8.776,-0.36,0.91,-0.04,3.64,-1.98,5.65,-0.51,-0.18,4.73,1005.94
8.776,-0.36,0.91,-0.04,-0.20,-2.09,3.89,-0.51,-0.18,4.73,1005.94
8.788,-0.36,0.91,-0.04,-0.20,-2.09,3.89,-0.51,-0.18,4.73,1006.00
8.828,-0.36,0.91,-0.04,-0.20,-2.09,3.89,-0.51,-0.18,4.73,1005.97
8.832,-0.45,1.06,-0.07,-0.20,-2.09,3.89,-0.51,-0.18,4.73,1005.97
8.833,-0.50,1.20,-0.15,-0.20,-2.09,3.89,-0.51,-0.18,4.73,1005.97
8.833,-0.63,1.39,-0.20,-0.20,-2.09,3.89,-0.51,-0.18,4.73,1005.97
8.839,-0.63,1.39,-0.20,-0.20,-2.09,3.89,-1.98,-0.48,5.54,1005.97
8.839,-0.63,1.39,-0.20,-4.04,-0.16,1.59,-1.98,-0.48,5.54,1005.97
8.893,-0.72,1.50,-0.22,-4.04,-0.16,1.59,-1.98,-0.48,5.54,1005.97
8.894,-0.64,1.41,-0.10,-4.04,-0.16,1.59,-1.98,-0.48,5.54,1005.97
8.894,-0.58,1.39,-0.05,-4.04,-0.16,1.59,-1.98,-0.48,5.54,1005.97
8.894,-0.58,1.39,-0.05,-4.04,-0.16,1.59,-2.69,-1.10,5.59,1005.97
8.895,-0.58,1.39,-0.05,-9.22,4.49,-1.05,-2.69,-1.10,5.59,1005.97
8.917,-0.58,1.39,-0.05,-9.22,4.49,-1.05,-2.69,-1.10,5.59,1005.93
8.949,-0.51,1.38,-0.09,-9.22,4.49,-1.05,-2.69,-1.10,5.59,1005.93
8.949,-0.60,1.24,-0.28,-9.22,4.49,-1.05,-2.69,-1.10,5.59,1005.93
8.95,-0.97,0.91,-0.31,-9.22,4.49,-1.05,-2.69,-1.10,5.59,1005.93
8.95,-0.97,0.91,-0.31,-9.22,4.49,-1.05,-2.01,0.77,2.76,1005.93
8.95,-0.97,0.91,-0.31,-10.00,5.28,-1.16,-2.01,0.77,2.76,1005.93
8.988,-0.97,0.91,-0.31,-10.00,5.28,-1.16,-2.01,0.77,2.76,1005.91
9.007,-1.28,0.69,-0.38,-10.00,5.28,-1.16,-2.01,0.77,2.76,1005.91
9.008,-1.14,0.72,-0.42,-10.00,5.28,-1.16,-2.01,0.77,2.76,1005.91
9.008,-0.89,0.83,-0.59,-10.00,5.28,-1.16,-2.01,0.77,2.76,1005.91
9.009,-0.89,0.83,-0.59,-12.84,0.59,-3.67,-2.01,0.77,2.76,1005.91
9.01,-0.89,0.83,-0.59,-12.84,0.59,-3.67,-0.47,-0.18,-1.26,1005.91
9.026,-0.89,0.83,-0.59,-12.84,0.59,-3.67,-0.47,-0.18,-1.26,1005.90
9.065,-0.41,1.31,-1.05,-12.84,0.59,-3.67,-0.47,-0.18,-1.26,1005.90
9.066,1.40,1.59,-0.13,-12.84,0.59,-3.67,-0.47,-0.18,-1.26,1005.90
9.067,2.76,1.50,-0.43,-12.84,0.59,-3.67,-0.47,-0.18,-1.26,1005.90
9.068,2.76,1.50,-0.43,-12.84,0.59,-3.67,-0.44,-3.95,-0.54,1005.90
9.069,2.76,1.50,-0.43,-11.11,0.54,-6.56,-0.44,-3.95,-0.54,1005.90
9.108,2.76,1.50,-0.43,-11.11,0.54,-6.56,-0.44,-3.95,-0.54,1005.89
9.124,0.72,1.84,-0.89,-11.11,0.54,-6.56,-0.44,-3.95,-0.54,1005.89
9.124,-0.83,1.33,-0.37,-11.11,0.54,-6.56,-0.44,-3.95,-0.54,1005.89
9.125,-0.42,0.52,0.50,-11.11,0.54,-6.56,-0.44,-3.95,-0.54,1005.89
9.125,-0.42,0.52,0.50,13.98,6.83,-4.47,-0.44,-3.95,-0.54,1005.89
9.126,-0.42,0.52,0.50,13.98,6.83,-4.47,-0.33,-1.39,-2.57,1005.89
9.183,-0.16,0.70,0.71,13.98,6.83,-4.47,-0.33,-1.39,-2.57,1005.89
9.184,-0.01,1.03,0.10,13.98,6.83,-4.47,-0.33,-1.39,-2.57,1005.89
9.184,0.07,1.07,-0.26,13.98,6.83,-4.47,-0.33,-1.39,-2.57,1005.89
9.188,0.07,1.07,-0.26,13.98,6.83,-4.47,0.16,0.27,-1.60,1005.89
9.189,0.07,1.07,-0.26,-5.64,-1.06,3.04,0.16,0.27,-1.60,1005.89
9.189,0.07,1.07,-0.26,-5.64,-1.06,3.04,0.16,0.27,-1.60,1005.92
9.228,0.07,1.07,-0.26,-5.64,-1.06,3.04,0.16,0.27,-1.60,1005.98
9.241,-0.07,1.11,-0.14,-5.64,-1.06,3.04,0.16,0.27,-1.60,1005.98
9.242,0.04,1.12,-0.11,-5.64,-1.06,3.04,0.16,0.27,-1.60,1005.98
9.242,0.08,0.99,-0.05,-5.64,-1.06,3.04,0.16,0.27,-1.60,1005.98
9.243,0.08,0.99,-0.05,-5.64,-1.06,3.04,0.11,-0.15,-1.18,1005.98
9.243,0.08,0.99,-0.05,-0.37,1.01,-0.61,0.11,-0.15,-1.18,1005.98
9.299,-0.11,1.00,0.06,-0.37,1.01,-0.61,0.11,-0.15,-1.18,1005.98
9.302,-0.07,0.99,0.09,-0.37,1.01,-0.61,0.11,-0.15,-1.18,1005.98
9.303,0.08,0.94,0.09,-0.37,1.01,-0.61,0.11,-0.15,-1.18,1005.98
9.304,0.08,0.94,0.09,-0.37,1.01,-0.61,0.15,-0.37,-1.00,1005.98
9.305,0.08,0.94,0.09,0.24,0.66,0.15,0.15,-0.37,-1.00,1005.98
9.319,0.08,0.94,0.09,0.24,0.66,0.15,0.15,-0.37,-1.00,1005.97
9.358,0.08,0.92,0.03,0.24,0.66,0.15,0.15,-0.37,-1.00,1005.97
9.36,0.01,1.00,0.05,0.24,0.66,0.15,0.15,-0.37,-1.00,1005.97
9.36,0.06,1.04,0.05,0.24,0.66,0.15,0.15,-0.37,-1.00,1005.97
9.361,0.06,1.04,0.05,1.10,-0.10,1.28,0.15,-0.37,-1.00,1005.97
9.362,0.06,1.04,0.05,1.10,-0.10,1.28,0.30,0.07,-1.15,1005.97
9.387,0.06,1.04,0.05,1.10,-0.10,1.28,0.30,0.07,-1.15,1005.97
9.416,-0.02,1.05,0.00,1.10,-0.10,1.28,0.30,0.07,-1.15,1005.97
9.419,-0.16,1.04,-0.10,1.10,-0.10,1.28,0.30,0.07,-1.15,1005.97
9.42,-0.15,1.00,-0.12,1.10,-0.10,1.28,0.30,0.07,-1.15,1005.97
9.42,-0.15,1.00,-0.12,1.10,-0.10,1.28,0.47,0.09,-1.42,1005.97
9.424,-0.15,1.00,-0.12,1.70,0.73,1.19,0.47,0.09,-1.42,1005.97
9.439,-0.15,1.00,-0.12,1.70,0.73,1.19,0.47,0.09,-1.42,1005.98
9.475,-0.09,0.98,-0.10,1.70,0.73,1.19,0.47,0.09,-1.42,1005.98
9.475,-0.13,0.96,-0.11,1.70,0.73,1.19,0.47,0.09,-1.42,1005.98
9.476,-0.27,0.94,-0.13,1.70,0.73,1.19,0.47,0.09,-1.42,1005.98
9.476,-0.27,0.94,-0.13,1.05,0.74,0.11,0.47,0.09,-1.42,1005.98
9.476,-0.27,0.94,-0.13,1.05,0.74,0.11,0.45,0.53,-1.55,1005.98
9.511,-0.27,0.94,-0.13,1.05,0.74,0.11,0.45,0.53,-1.55,1005.99
9.535,-0.32,0.92,-0.17,1.05,0.74,0.11,0.45,0.53,-1.55,1005.99
9.536,-0.27,1.02,-0.14,1.05,0.74,0.11,0.45,0.53,-1.55,1005.99
9.536,-0.18,1.16,-0.07,1.05,0.74,0.11,0.45,0.53,-1.55,1005.99
9.536,-0.18,1.16,-0.07,1.05,0.74,0.11,0.48,0.19,-1.57,1005.99
9.537,-0.18,1.16,-0.07,0.75,0.38,0.11,0.48,0.19,-1.57,1005.99
9.588,-0.18,1.16,-0.07,0.75,0.38,0.11,0.48,0.19,-1.57,1005.99
9.591,-0.11,1.19,-0.05,0.75,0.38,0.11,0.48,0.19,-1.57,1005.99
9.591,-0.10,1.13,-0.09,0.75,0.38,0.11,0.48,0.19,-1.57,1005.99
9.592,-0.07,1.22,-0.15,0.75,0.38,0.11,0.48,0.19,-1.57,1005.99
9.592,-0.07,1.22,-0.15,0.75,0.38,0.11,0.74,-0.05,-1.85,1005.99
9.593,-0.07,1.22,-0.15,2.22,2.55,0.93,0.74,-0.05,-1.85,1005.99
9.628,-0.07,1.22,-0.15,2.22,2.55,0.93,0.74,-0.05,-1.85,1005.99
9.649,0.00,1.53,-0.13,2.22,2.55,0.93,0.74,-0.05,-1.85,1005.99
9.65,0.38,2.02,0.15,2.22,2.55,0.93,0.74,-0.05,-1.85,1005.99
9.65,1.10,2.01,-0.01,2.22,2.55,0.93,0.74,-0.05,-1.85,1005.99
9.651,1.10,2.01,-0.01,2.22,2.55,0.93,1.00,0.68,-2.11,1005.99
9.651,1.10,2.01,-0.01,4.31,4.81,1.19,1.00,0.68,-2.11,1005.99
9.707,1.24,1.59,-0.13,4.31,4.81,1.19,1.00,0.68,-2.11,1005.99
9.708,0.34,1.01,-0.17,4.31,4.81,1.19,1.00,0.68,-2.11,1005.99
9.708,-0.69,0.93,-0.40,4.31,4.81,1.19,1.00,0.68,-2.11,1005.99
9.709,-0.69,0.93,-0.40,4.31,4.81,1.19,1.08,2.98,-3.45,1005.99
9.709,-0.69,0.93,-0.40,14.41,11.59,3.75,1.08,2.98,-3.45,1005.99
9.71,-0.69,0.93,-0.40,14.41,11.59,3.75,1.08,2.98,-3.45,1005.98
9.766,-1.18,1.26,-0.40,14.41,11.59,3.75,1.08,2.98,-3.45,1005.98
9.767,-1.02,1.13,-0.46,14.41,11.59,3.75,1.08,2.98,-3.45,1005.98
9.767,-0.74,0.64,-0.39,14.41,11.59,3.75,1.08,2.98,-3.45,1005.98
9.768,-0.74,0.64,-0.39,14.41,11.59,3.75,1.17,2.27,-3.16,1005.98
9.768,-0.74,0.64,-0.39,1.09,4.95,1.74,1.17,2.27,-3.16,1005.98
9.788,-0.74,0.64,-0.39,1.09,4.95,1.74,1.17,2.27,-3.16,1005.97
9.824,-0.70,0.49,-0.53,1.09,4.95,1.74,1.17,2.27,-3.16,1005.97
9.824,-0.48,0.37,-0.60,1.09,4.95,1.74,1.17,2.27,-3.16,1005.97
9.825,-0.27,0.28,-0.23,1.09,4.95,1.74,1.17,2.27,-3.16,1005.97
9.825,-0.27,0.28,-0.23,1.09,4.95,1.74,-1.18,0.28,-0.03,1005.97
9.825,-0.27,0.28,-0.23,-2.00,1.55,0.11,-1.18,0.28,-0.03,1005.97
9.827,-0.27,0.28,-0.23,-2.00,1.55,0.11,-1.18,0.28,-0.03,1005.94
9.882,-0.03,0.10,-0.18,-2.00,1.55,0.11,-1.18,0.28,-0.03,1005.94
9.882,0.02,0.12,-0.20,-2.00,1.55,0.11,-1.18,0.28,-0.03,1005.94
9.883,-0.12,0.32,-0.34,-2.00,1.55,0.11,-1.18,0.28,-0.03,1005.94
9.883,-0.12,0.32,-0.34,-2.00,1.55,0.11,-2.18,-0.68,2.73,1005.94
9.883,-0.12,0.32,-0.34,2.58,-4.72,0.27,-2.18,-0.68,2.73,1005.94
9.907,-0.12,0.32,-0.34,2.58,-4.72,0.27,-2.18,-0.68,2.73,1005.92
9.942,-0.16,0.49,-0.46,2.58,-4.72,0.27,-2.18,-0.68,2.73,1005.92
9.943,-0.09,0.56,-0.34,2.58,-4.72,0.27,-2.18,-0.68,2.73,1005.92
9.945,-0.05,0.58,-0.33,2.58,-4.72,0.27,-2.18,-0.68,2.73,1005.92
9.946,-0.05,0.58,-0.33,2.58,-4.72,0.27,-2.50,-0.54,4.62,1005.92
9.948,-0.05,0.58,-0.33,2.18,-5.55,-0.98,-2.50,-0.54,4.62,1005.92
9.987,-0.05,0.58,-0.33,2.18,-5.55,-0.98,-2.50,-0.54,4.62,1005.97
9.998,-0.05,0.70,-0.30,2.18,-5.55,-0.98,-2.50,-0.54,4.62,1005.97
10.0,0.04,0.95,-0.29,2.18,-5.55,-0.98,-2.50,-0.54,4.62,1005.97
10.0,0.02,1.38,-0.49,2.18,-5.55,-0.98,-2.50,-0.54,4.62,1005.97
10.0,0.02,1.38,-0.49,2.18,-5.55,-0.98,-2.33,1.05,6.04,1005.97
10.001,0.02,1.38,-0.49,-0.92,-3.26,-2.00,-2.33,1.05,6.04,1005.97
10.028,0.02,1.38,-0.49,-0.92,-3.26,-2.00,-2.33,1.05,6.04,1005.97
10.057,-0.46,2.02,-0.69,-0.92,-3.26,-2.00,-2.33,1.05,6.04,1005.97
10.058,-0.91,2.08,-0.67,-0.92,-3.26,-2.00,-2.33,1.05,6.04,1005.97
10.059,-1.11,1.51,-0.25,-0.92,-3.26,-2.00,-2.33,1.05,6.04,1005.97
10.059,-1.11,1.51,-0.25,-0.92,-3.26,-2.00,-2.76,0.50,5.64,1005.97
10.059,-1.11,1.51,-0.25,-4.51,5.38,-5.08,-2.76,0.50,5.64,1005.97
10.111,-1.11,1.51,-0.25,-4.51,5.38,-5.08,-2.76,0.50,5.64,1005.95
10.115,-0.93,1.07,-0.04,-4.51,5.38,-5.08,-2.76,0.50,5.64,1005.95
10.115,-0.65,0.99,-0.38,-4.51,5.38,-5.08,-2.76,0.50,5.64,1005.95
10.115,-0.83,0.81,-0.32,-4.51,5.38,-5.08,-2.76,0.50,5.64,1005.95
10.116,-0.83,0.81,-0.32,-4.51,5.38,-5.08,-1.34,-1.09,2.64,1005.95
10.117,-0.83,0.81,-0.32,-13.97,6.92,-3.71,-1.34,-1.09,2.64,1005.95
10.175,-1.04,0.68,-0.19,-13.97,6.92,-3.71,-1.34,-1.09,2.64,1005.95
10.176,-0.92,1.10,-0.50,-13.97,6.92,-3.71,-1.34,-1.09,2.64,1005.95
10.176,0.62,1.74,0.32,-13.97,6.92,-3.71,-1.34,-1.09,2.64,1005.95
10.176,0.62,1.74,0.32,-13.97,6.92,-3.71,0.00,-1.65,-2.14,1005.95
10.177,0.62,1.74,0.32,-11.33,-0.67,-3.09,0.00,-1.65,-2.14,1005.95
10.187,0.62,1.74,0.32,-11.33,-0.67,-3.09,0.00,-1.65,-2.14,1005.90
10.233,0.62,1.74,0.32,6.25,5.56,1.59,0.00,-1.65,-2.14,1005.90
10.235,0.62,1.74,0.32,6.25,5.56,1.59,0.00,-1.65,-2.14,1005.90
10.235,2.96,1.65,0.64,6.25,5.56,1.59,0.00,-1.65,-2.14,1005.90
10.235,1.34,1.37,-0.80,6.25,5.56,1.59,0.00,-1.65,-2.14,1005.90
10.236,-0.94,1.27,-1.18,6.25,5.56,1.59,0.00,-1.65,-2.14,1005.90
10.236,-0.94,1.27,-1.18,6.25,5.56,1.59,0.24,-0.87,-1.54,1005.90
10.291,-1.30,0.87,0.14,6.25,5.56,1.59,0.24,-0.87,-1.54,1005.90
10.291,-0.21,0.78,0.51,6.25,5.56,1.59,0.24,-0.87,-1.54,1005.90
10.292,0.12,0.97,0.26,6.25,5.56,1.59,0.24,-0.87,-1.54,1005.90
10.292,0.12,0.97,0.26,6.25,5.56,1.59,-0.01,-0.29,-2.34,1005.90
10.292,0.12,0.97,0.26,-4.04,2.10,-5.82,-0.01,-0.29,-2.34,1005.90
10.307,0.12,0.97,0.26,-4.04,2.10,-5.82,-0.01,-0.29,-2.34,1005.91
10.349,0.08,1.05,-0.06,-4.04,2.10,-5.82,-0.01,-0.29,-2.34,1005.91
10.35,-0.17,1.07,-0.12,-4.04,2.10,-5.82,-0.01,-0.29,-2.34,1005.91
10.351,-0.01,1.06,-0.07,-4.04,2.10,-5.82,-0.01,-0.29,-2.34,1005.91
10.351,-0.01,1.06,-0.07,-4.04,2.10,-5.82,0.35,-0.23,-1.37,1005.91
10.351,-0.01,1.06,-0.07,-0.38,-0.29,2.67,0.35,-0.23,-1.37,1005.91
10.388,-0.01,1.06,-0.07,-0.38,-0.29,2.67,0.35,-0.23,-1.37,1005.98
10.408,0.04,1.02,-0.11,-0.38,-0.29,2.67,0.35,-0.23,-1.37,1005.98
10.409,-0.18,1.04,-0.07,-0.38,-0.29,2.67,0.35,-0.23,-1.37,1005.98
10.409,-0.13,1.02,-0.02,-0.38,-0.29,2.67,0.35,-0.23,-1.37,1005.98
10.409,-0.13,1.02,-0.02,-0.38,-0.29,2.67,0.28,-0.14,-1.04,1005.98
10.41,-0.13,1.02,-0.02,-0.20,0.88,-0.47,0.28,-0.14,-1.04,1005.98
10.428,-0.13,1.02,-0.02,-0.20,0.88,-0.47,0.28,-0.14,-1.04,1006.00
10.466,0.09,0.99,-0.01,-0.20,0.88,-0.47,0.28,-0.14,-1.04,1006.00
10.467,0.14,0.96,-0.02,-0.20,0.88,-0.47,0.28,-0.14,-1.04,1006.00
10.468,0.04,0.94,0.02,-0.20,0.88,-0.47,0.28,-0.14,-1.04,1006.00
10.468,0.04,0.94,0.02,-0.20,0.88,-0.47,0.28,-0.09,-0.99,1006.00
10.468,0.04,0.94,0.02,0.09,0.55,0.34,0.28,-0.09,-0.99,1006.00
10.508,0.04,0.94,0.02,0.09,0.55,0.34,0.28,-0.09,-0.99,1006.00
10.523,-0.08,0.94,0.04,0.09,0.55,0.34,0.28,-0.09,-0.99,1006.00
10.524,-0.21,0.99,-0.03,0.09,0.55,0.34,0.28,-0.09,-0.99,1006.00
10.525,-0.24,1.03,-0.10,0.09,0.55,0.34,0.28,-0.09,-0.99,1006.00
10.525,-0.24,1.03,-0.10,0.09,0.55,0.34,0.38,0.29,-1.27,1006.00
10.526,-0.24,1.03,-0.10,1.78,-0.03,1.01,0.38,0.29,-1.27,1006.00
10.584,-0.13,0.98,-0.11,1.78,-0.03,1.01,0.38,0.29,-1.27,1006.00
10.585,-0.04,0.91,-0.08,1.78,-0.03,1.01,0.38,0.29,-1.27,1006.00
10.586,-0.12,0.94,-0.07,1.78,-0.03,1.01,0.38,0.29,-1.27,1006.00
10.586,-0.12,0.94,-0.07,1.78,-0.03,1.01,0.42,0.19,-1.21,1006.00
10.586,-0.12,0.94,-0.07,0.19,0.60,0.34,0.42,0.19,-1.21,1006.00
10.587,-0.12,0.94,-0.07,0.19,0.60,0.34,0.42,0.19,-1.21,1006.00
10.627,-0.12,0.94,-0.07,0.19,0.60,0.34,0.42,0.19,-1.21,1005.99
10.641,-0.21,1.01,-0.11,0.19,0.60,0.34,0.42,0.19,-1.21,1005.99
10.641,-0.17,1.05,-0.16,0.19,0.60,0.34,0.42,0.19,-1.21,1005.99
10.641,-0.09,1.08,-0.13,0.19,0.60,0.34,0.42,0.19,-1.21,1005.99
10.642,-0.09,1.08,-0.13,0.19,0.60,0.34,0.51,0.18,-1.48,1005.99
10.642,-0.09,1.08,-0.13,1.61,0.41,0.57,0.51,0.18,-1.48,1005.99
10.7,-0.10,1.11,-0.08,1.61,0.41,0.57,0.51,0.18,-1.48,1005.99
10.701,-0.15,1.12,-0.12,1.61,0.41,0.57,0.51,0.18,-1.48,1005.99
10.701,-0.18,1.13,-0.11,1.61,0.41,0.57,0.51,0.18,-1.48,1005.99
10.702,-0.18,1.13,-0.11,2.58,2.06,0.53,0.51,0.18,-1.48,1005.99
10.702,-0.18,1.13,-0.11,2.58,2.06,0.53,0.79,-0.22,-1.90,1005.99
10.708,-0.18,1.13,-0.11,2.58,2.06,0.53,0.79,-0.22,-1.90,1005.99
10.756,-0.16,1.26,-0.11,2.58,2.06,0.53,0.79,-0.22,-1.90,1005.99
10.758,0.03,1.64,-0.04,2.58,2.06,0.53,0.79,-0.22,-1.90,1005.99
10.758,0.54,1.96,0.04,2.58,2.06,0.53,0.79,-0.22,-1.90,1005.99
10.759,0.54,1.96,0.04,2.58,2.06,0.53,1.01,0.56,-2.15,1005.99
10.759,0.54,1.96,0.04,3.08,3.54,1.25,1.01,0.56,-2.15,1005.99
10.79,0.54,1.96,0.04,3.08,3.54,1.25,1.01,0.56,-2.15,1005.98
10.816,0.96,1.77,-0.25,3.08,3.54,1.25,1.01,0.56,-2.15,1005.98
10.816,0.74,1.40,-0.25,3.08,3.54,1.25,1.01,0.56,-2.15,1005.98
10.817,-0.14,0.89,-0.21,3.08,3.54,1.25,1.01,0.56,-2.15,1005.98
10.817,-0.14,0.89,-0.21,3.08,3.54,1.25,1.17,1.91,-2.90,1005.98
10.818,-0.14,0.89,-0.21,10.44,10.48,2.57,1.17,1.91,-2.90,1005.98
10.831,-0.14,0.89,-0.21,10.44,10.48,2.57,1.17,1.91,-2.90,1005.98
10.874,-1.17,0.98,-0.42,10.44,10.48,2.57,1.17,1.91,-2.90,1005.98
10.876,-1.51,1.20,-0.45,10.44,10.48,2.57,1.17,1.91,-2.90,1005.98
10.877,-1.09,0.87,-0.32,10.44,10.48,2.57,1.17,1.91,-2.90,1005.98
10.878,-1.09,0.87,-0.32,10.44,10.48,2.57,1.54,1.64,-3.29,1005.98
10.879,-1.09,0.87,-0.32,4.32,5.03,1.61,1.54,1.64,-3.29,1005.98
10.908,-1.09,0.87,-0.32,4.32,5.03,1.61,1.54,1.64,-3.29,1005.97
10.933,-0.82,0.42,-0.39,4.32,5.03,1.61,1.54,1.64,-3.29,1005.97
10.934,-0.61,0.34,-0.32,4.32,5.03,1.61,1.54,1.64,-3.29,1005.97
10.934,-0.33,0.26,-0.07,4.32,5.03,1.61,1.54,1.64,-3.29,1005.97
10.935,-0.33,0.26,-0.07,4.32,5.03,1.61,-0.15,-0.32,0.17,1005.97
10.935,-0.33,0.26,-0.07,-4.83,2.38,0.53,-0.15,-0.32,0.17,1005.97
10.988,-0.33,0.26,-0.07,-4.83,2.38,0.53,-0.15,-0.32,0.17,1005.92
10.991,-0.06,-0.01,0.25,-4.83,2.38,0.53,-0.15,-0.32,0.17,1005.92
10.992,-0.11,-0.03,0.03,-4.83,2.38,0.53,-0.15,-0.32,0.17,1005.92
10.993,-0.26,0.18,-0.16,-4.83,2.38,0.53,-0.15,-0.32,0.17,1005.92
10.994,-0.26,0.18,-0.16,2.18,-4.89,3.24,-0.15,-0.32,0.17,1005.92
10.995,-0.26,0.18,-0.16,2.18,-4.89,3.24,-0.59,-1.03,2.87,1005.92
11.028,-0.26,0.18,-0.16,2.18,-4.89,3.24,-0.59,-1.03,2.87,1005.92
11.049,-0.30,0.31,-0.19,2.18,-4.89,3.24,-0.59,-1.03,2.87,1005.92
11.05,-0.33,0.39,-0.19,2.18,-4.89,3.24,-0.59,-1.03,2.87,1005.92
11.051,-0.45,0.43,-0.07,2.18,-4.89,3.24,-0.59,-1.03,2.87,1005.92
11.051,-0.45,0.43,-0.07,1.33,-6.57,1.97,-0.59,-1.03,2.87,1005.92
11.052,-0.45,0.43,-0.07,1.33,-6.57,1.97,-0.52,-1.49,4.87,1005.92
11.108,-0.39,0.61,-0.22,1.33,-6.57,1.97,-0.52,-1.49,4.87,1005.92
11.109,-0.42,0.92,-0.33,1.33,-6.57,1.97,-0.52,-1.49,4.87,1005.92
11.109,-0.78,1.35,-0.33,1.33,-6.57,1.97,-0.52,-1.49,4.87,1005.92
11.11,-0.78,1.35,-0.33,1.33,-6.57,1.97,-0.15,-3.57,6.80,1005.92
11.11,-0.78,1.35,-0.33,-3.08,-4.23,0.94,-0.15,-3.57,6.80,1005.92
11.11,-0.78,1.35,-0.33,-3.08,-4.23,0.94,-0.15,-3.57,6.80,1005.99
11.166,-1.11,1.70,-0.54,-3.08,-4.23,0.94,-0.15,-3.57,6.80,1005.99
11.167,-0.93,1.73,-0.57,-3.08,-4.23,0.94,-0.15,-3.57,6.80,1005.99
11.167,-0.57,1.51,-0.15,-3.08,-4.23,0.94,-0.15,-3.57,6.80,1005.99
11.167,-0.57,1.51,-0.15,-3.08,-4.23,0.94,0.43,-9.27,7.31,1005.99
11.168,-0.57,1.51,-0.15,-8.98,4.27,-0.84,0.43,-9.27,7.31,1005.99
11.187,-0.57,1.51,-0.15,-8.98,4.27,-0.84,0.43,-9.27,7.31,1005.98
11.223,-0.05,1.27,0.21,-8.98,4.27,-0.84,0.43,-9.27,7.31,1005.98
11.224,0.39,1.01,0.34,-8.98,4.27,-0.84,0.43,-9.27,7.31,1005.98
11.225,0.31,0.79,0.47,-8.98,4.27,-0.84,0.43,-9.27,7.31,1005.98
11.225,0.31,0.79,0.47,-8.98,4.27,-0.84,-0.72,-8.48,3.47,1005.98
11.225,0.31,0.79,0.47,-6.47,6.14,1.83,-0.72,-8.48,3.47,1005.98
11.227,0.31,0.79,0.47,-6.47,6.14,1.83,-0.72,-8.48,3.47,1005.89
11.282,-0.58,0.64,0.22,-6.47,6.14,1.83,-0.72,-8.48,3.47,1005.89
11.283,-1.36,1.46,0.10,-6.47,6.14,1.83,-0.72,-8.48,3.47,1005.89
11.283,-0.61,1.41,1.12,-6.47,6.14,1.83,-0.72,-8.48,3.47,1005.89
11.284,-0.61,1.41,1.12,-6.47,6.14,1.83,-0.53,-0.31,-1.20,1005.89
11.285,-0.61,1.41,1.12,-0.30,-0.79,6.54,-0.53,-0.31,-1.20,1005.89
11.309,-0.61,1.41,1.12,-0.30,-0.79,6.54,-0.53,-0.31,-1.20,1005.95
11.341,0.24,1.05,-0.00,-0.30,-0.79,6.54,-0.53,-0.31,-1.20,1005.95
11.342,0.11,1.31,-0.75,-0.30,-0.79,6.54,-0.53,-0.31,-1.20,1005.95
11.342,-0.11,1.39,-1.02,-0.30,-0.79,6.54,-0.53,-0.31,-1.20,1005.95
11.342,-0.11,1.39,-1.02,-0.30,-0.79,6.54,-0.40,-0.15,-0.63,1005.95
11.342,-0.11,1.39,-1.02,-5.89,3.89,6.84,-0.40,-0.15,-0.63,1005.95
11.389,-0.11,1.39,-1.02,-5.89,3.89,6.84,-0.40,-0.15,-0.63,1005.97
11.399,-0.11,1.39,-1.02,-0.46,3.36,-5.25,-0.40,-0.15,-0.63,1005.97
11.4,-0.13,1.10,-0.65,-0.46,3.36,-5.25,-0.40,-0.15,-0.63,1005.97
11.401,0.35,0.85,-0.29,-0.46,3.36,-5.25,-0.40,-0.15,-0.63,1005.97
11.401,0.25,0.94,-0.12,-0.46,3.36,-5.25,-0.40,-0.15,-0.63,1005.97
11.401,0.25,0.94,-0.12,-0.46,3.36,-5.25,-0.61,-1.19,-0.06,1005.97
11.427,0.25,0.94,-0.12,-0.46,3.36,-5.25,-0.61,-1.19,-0.06,1005.96
11.458,-0.17,1.04,0.03,-0.46,3.36,-5.25,-0.61,-1.19,-0.06,1005.96
11.459,-0.30,0.98,-0.09,-0.46,3.36,-5.25,-0.61,-1.19,-0.06,1005.96
11.46,-0.19,0.96,-0.23,-0.46,3.36,-5.25,-0.61,-1.19,-0.06,1005.96
11.46,-0.19,0.96,-0.23,-0.46,3.36,-5.25,-0.35,-0.34,-0.05,1005.96
11.46,-0.19,0.96,-0.23,1.41,0.14,1.17,-0.35,-0.34,-0.05,1005.96
11.509,-0.19,0.96,-0.23,1.41,0.14,1.17,-0.35,-0.34,-0.05,1005.99
11.518,-0.04,0.99,-0.37,1.41,0.14,1.17,-0.35,-0.34,-0.05,1005.99
11.519,0.11,0.99,-0.36,1.41,0.14,1.17,-0.35,-0.34,-0.05,1005.99
11.519,0.05,0.99,-0.28,1.41,0.14,1.17,-0.35,-0.34,-0.05,1005.99
11.52,0.05,0.99,-0.28,1.41,0.14,1.17,-0.28,-0.35,0.39,1005.99
11.52,0.05,0.99,-0.28,-1.84,0.39,0.03,-0.28,-0.35,0.39,1005.99
11.574,0.05,0.99,-0.28,0.32,0.54,-0.37,-0.28,-0.35,0.39,1005.99
11.575,0.00,1.00,-0.14,0.32,0.54,-0.37,-0.28,-0.35,0.39,1005.99
11.575,0.11,0.90,-0.10,0.32,0.54,-0.37,-0.28,-0.35,0.39,1005.99
11.576,0.17,0.90,-0.06,0.32,0.54,-0.37,-0.28,-0.35,0.39,1005.99
11.576,0.17,0.90,-0.06,0.32,0.54,-0.37,-0.23,-0.43,0.26,1005.99
11.588,0.17,0.90,-0.06,0.32,0.54,-0.37,-0.23,-0.43,0.26,1005.97
11.632,0.17,0.90,-0.06,0.32,0.54,-0.37,-0.23,-0.43,0.26,1005.96
11.633,0.10,0.97,-0.10,0.32,0.54,-0.37,-0.23,-0.43,0.26,1005.96
11.634,0.05,1.00,-0.18,0.32,0.54,-0.37,-0.23,-0.43,0.26,1005.96
11.634,0.06,1.00,-0.13,0.32,0.54,-0.37,-0.23,-0.43,0.26,1005.96
11.635,0.06,1.00,-0.13,1.09,-0.15,1.30,-0.23,-0.43,0.26,1005.96
11.635,0.06,1.00,-0.13,1.09,-0.15,1.30,-0.01,-0.46,-0.04,1005.96
11.692,0.07,0.96,-0.03,1.09,-0.15,1.30,-0.01,-0.46,-0.04,1005.96
11.693,0.05,0.94,-0.14,1.09,-0.15,1.30,-0.01,-0.46,-0.04,1005.96
11.694,-0.03,1.00,-0.14,1.09,-0.15,1.30,-0.01,-0.46,-0.04,1005.96
11.694,-0.03,1.00,-0.14,1.09,-0.15,1.30,0.31,-0.62,-0.20,1005.96
11.694,-0.03,1.00,-0.14,0.63,0.52,1.18,0.31,-0.62,-0.20,1005.96
11.708,-0.03,1.00,-0.14,0.63,0.52,1.18,0.31,-0.62,-0.20,1005.96
11.749,0.05,0.99,-0.13,0.63,0.52,1.18,0.31,-0.62,-0.20,1005.96
11.75,0.13,0.96,-0.13,0.63,0.52,1.18,0.31,-0.62,-0.20,1005.96
11.751,-0.01,0.98,-0.29,0.63,0.52,1.18,0.31,-0.62,-0.20,1005.96
11.751,-0.01,0.98,-0.29,0.63,0.52,1.18,0.63,-0.35,-0.29,1005.96
11.751,-0.01,0.98,-0.29,0.45,0.47,1.29,0.63,-0.35,-0.29,1005.96
11.789,-0.01,0.98,-0.29,0.45,0.47,1.29,0.63,-0.35,-0.29,1005.97
11.808,-0.26,0.95,-0.33,0.45,0.47,1.29,0.63,-0.35,-0.29,1005.97
11.81,-0.32,1.00,-0.18,0.45,0.47,1.29,0.63,-0.35,-0.29,1005.97
11.811,-0.06,0.97,-0.22,0.45,0.47,1.29,0.63,-0.35,-0.29,1005.97
11.811,-0.06,0.97,-0.22,0.45,0.47,1.29,0.86,-0.35,-0.15,1005.97
11.812,-0.06,0.97,-0.22,-0.09,0.48,0.57,0.86,-0.35,-0.15,1005.97
11.828,-0.06,0.97,-0.22,-0.09,0.48,0.57,0.86,-0.35,-0.15,1005.98
11.867,0.14,0.99,-0.25,-0.09,0.48,0.57,0.86,-0.35,-0.15,1005.98
11.868,0.19,0.99,-0.30,-0.09,0.48,0.57,0.86,-0.35,-0.15,1005.98
11.868,0.15,0.94,-0.31,-0.09,0.48,0.57,0.86,-0.35,-0.15,1005.98
11.869,0.15,0.94,-0.31,-0.09,0.48,0.57,1.24,-0.36,-0.00,1005.98
11.869,0.15,0.94,-0.31,-0.30,0.96,1.53,1.24,-0.36,-0.00,1005.98
11.908,0.15,0.94,-0.31,-0.30,0.96,1.53,1.24,-0.36,-0.00,1005.99
11.923,-0.04,0.96,-0.30,-0.30,0.96,1.53,1.24,-0.36,-0.00,1005.99
11.924,-0.13,1.19,-0.27,-0.30,0.96,1.53,1.24,-0.36,-0.00,1005.99
11.924,0.12,1.39,-0.20,-0.30,0.96,1.53,1.24,-0.36,-0.00,1005.99
11.925,0.12,1.39,-0.20,-0.30,0.96,1.53,1.88,-0.64,-0.16,1005.99
11.925,0.12,1.39,-0.20,1.64,1.18,1.56,1.88,-0.64,-0.16,1005.99
11.982,0.40,1.52,-0.16,1.64,1.18,1.56,1.88,-0.64,-0.16,1005.99
11.983,0.52,1.57,-0.16,1.64,1.18,1.56,1.88,-0.64,-0.16,1005.99
11.983,0.21,1.48,-0.00,1.64,1.18,1.56,1.88,-0.64,-0.16,1005.99
11.984,0.21,1.48,-0.00,1.64,1.18,1.56,2.54,-1.82,-0.10,1005.99
11.984,0.21,1.48,-0.00,2.49,5.75,3.52,2.54,-1.82,-0.10,1005.99
11.988,0.21,1.48,-0.00,2.49,5.75,3.52,2.54,-1.82,-0.10,1005.98
12.031,0.21,1.48,-0.00,2.49,5.75,3.52,2.54,-1.82,-0.10,1005.97
12.039,-0.28,1.40,0.26,2.49,5.75,3.52,2.54,-1.82,-0.10,1005.97
12.04,-0.72,1.34,0.16,2.49,5.75,3.52,2.54,-1.82,-0.10,1005.97
12.04,-0.98,1.36,-0.10,2.49,5.75,3.52,2.54,-1.82,-0.10,1005.97
12.041,-0.98,1.36,-0.10,2.49,5.75,3.52,2.54,-3.12,-0.64,1005.97
12.042,-0.98,1.36,-0.10,3.96,7.73,6.46,2.54,-3.12,-0.64,1005.97
12.099,-1.02,1.16,-0.28,3.96,7.73,6.46,2.54,-3.12,-0.64,1005.97
12.101,-0.95,1.16,-0.57,3.96,7.73,6.46,2.54,-3.12,-0.64,1005.97
12.102,-0.47,1.31,-0.63,3.96,7.73,6.46,2.54,-3.12,-0.64,1005.97
12.103,-0.47,1.31,-0.63,3.96,7.73,6.46,1.91,-5.59,-0.13,1005.97
12.104,-0.47,1.31,-0.63,-4.31,6.38,4.92,1.91,-5.59,-0.13,1005.97
12.108,-0.47,1.31,-0.63,-4.31,6.38,4.92,1.91,-5.59,-0.13,1005.97
12.157,0.17,0.94,-0.22,-4.31,6.38,4.92,1.91,-5.59,-0.13,1005.97
12.158,0.38,0.56,0.23,-4.31,6.38,4.92,1.91,-5.59,-0.13,1005.97
12.158,-0.00,0.56,0.26,-4.31,6.38,4.92,1.91,-5.59,-0.13,1005.97
12.159,-0.00,0.56,0.26,-4.31,6.38,4.92,0.44,-5.46,1.54,1005.97
12.159,-0.00,0.56,0.26,1.49,4.53,-0.50,0.44,-5.46,1.54,1005.97
12.189,-0.00,0.56,0.26,1.49,4.53,-0.50,0.44,-5.46,1.54,1005.95
12.217,-0.27,0.68,0.09,1.49,4.53,-0.50,0.44,-5.46,1.54,1005.95
12.219,-0.22,0.69,0.03,1.49,4.53,-0.50,0.44,-5.46,1.54,1005.95
12.22,-0.13,0.63,-0.06,1.49,4.53,-0.50,0.44,-5.46,1.54,1005.95
12.221,-0.13,0.63,-0.06,5.33,-1.56,5.11,0.44,-5.46,1.54,1005.95
12.222,-0.13,0.63,-0.06,5.33,-1.56,5.11,0.14,-2.81,2.73,1005.95
12.229,-0.13,0.63,-0.06,5.33,-1.56,5.11,0.14,-2.81,2.73,1005.96
12.275,-0.10,0.63,-0.13,5.33,-1.56,5.11,0.14,-2.81,2.73,1005.96
12.276,-0.14,0.71,-0.15,5.33,-1.56,5.11,0.14,-2.81,2.73,1005.96
12.276,-0.26,0.81,-0.20,5.33,-1.56,5.11,0.14,-2.81,2.73,1005.96
12.277,-0.26,0.81,-0.20,5.33,-1.56,5.11,-0.55,-0.47,4.41,1005.96
12.277,-0.26,0.81,-0.20,1.50,-2.16,2.28,-0.55,-0.47,4.41,1005.96
12.309,-0.26,0.81,-0.20,1.50,-2.16,2.28,-0.55,-0.47,4.41,1005.98
12.338,-0.34,0.89,-0.22,1.50,-2.16,2.28,-0.55,-0.47,4.41,1005.98
12.339,-0.40,1.00,-0.25,1.50,-2.16,2.28,-0.55,-0.47,4.41,1005.98
12.34,-0.47,1.15,-0.38,1.50,-2.16,2.28,-0.55,-0.47,4.41,1005.98
12.34,-0.47,1.15,-0.38,1.50,-2.16,2.28,-1.51,-0.37,5.60,1005.98
12.341,-0.47,1.15,-0.38,-2.30,-1.33,0.10,-1.51,-0.37,5.60,1005.98
12.388,-0.47,1.15,-0.38,-2.30,-1.33,0.10,-1.51,-0.37,5.60,1005.95
12.389,-0.54,1.24,-0.36,-2.30,-1.33,0.10,-1.51,-0.37,5.60,1005.95
12.39,-0.79,1.32,-0.30,-2.30,-1.33,0.10,-1.51,-0.37,5.60,1005.95
12.39,-1.16,1.55,-0.34,-2.30,-1.33,0.10,-1.51,-0.37,5.60,1005.95
12.391,-1.16,1.55,-0.34,-2.30,-1.33,0.10,-1.46,-0.34,5.78,1005.95
12.391,-1.16,1.55,-0.34,-7.40,2.14,-2.00,-1.46,-0.34,5.78,1005.95
12.428,-1.16,1.55,-0.34,-7.40,2.14,-2.00,-1.46,-0.34,5.78,1005.91
12.448,-1.37,1.48,-0.25,-7.40,2.14,-2.00,-1.46,-0.34,5.78,1005.91
12.45,-1.46,1.06,-0.35,-7.40,2.14,-2.00,-1.46,-0.34,5.78,1005.91
12.451,-1.55,0.69,-0.60,-7.40,2.14,-2.00,-1.46,-0.34,5.78,1005.91
12.451,-1.55,0.69,-0.60,-7.40,2.14,-2.00,-0.91,0.36,2.03,1005.91
12.451,-1.55,0.69,-0.60,-14.46,5.53,-2.14,-0.91,0.36,2.03,1005.91
12.507,-1.66,1.37,-1.29,-14.46,5.53,-2.14,-0.91,0.36,2.03,1005.91
12.507,0.31,2.20,0.03,-14.46,5.53,-2.14,-0.91,0.36,2.03,1005.91
12.508,2.60,1.65,0.93,-14.46,5.53,-2.14,-0.91,0.36,2.03,1005.91
12.508,2.60,1.65,0.93,-14.46,5.53,-2.14,-0.49,-1.64,-0.89,1005.91
12.509,2.60,1.65,0.93,-18.04,1.32,-6.37,-0.49,-1.64,-0.89,1005.91
12.51,2.60,1.65,0.93,-18.04,1.32,-6.37,-0.49,-1.64,-0.89,1005.88
12.565,0.64,0.76,-0.54,-18.04,1.32,-6.37,-0.49,-1.64,-0.89,1005.88
12.566,-0.55,0.77,-1.05,-18.04,1.32,-6.37,-0.49,-1.64,-0.89,1005.88
12.566,-0.74,0.77,0.36,-18.04,1.32,-6.37,-0.49,-1.64,-0.89,1005.88
12.567,-0.74,0.77,0.36,-18.04,1.32,-6.37,0.47,-0.89,-2.86,1005.88
12.567,-0.74,0.77,0.36,10.21,5.77,2.61,0.47,-0.89,-2.86,1005.88
12.587,-0.74,0.77,0.36,10.21,5.77,2.61,0.47,-0.89,-2.86,1005.86
12.629,-0.47,0.97,0.13,10.21,5.77,2.61,0.47,-0.89,-2.86,1005.86
12.63,-0.07,1.15,-0.04,10.21,5.77,2.61,0.47,-0.89,-2.86,1005.86
12.631,0.04,1.11,-0.25,10.21,5.77,2.61,0.47,-0.89,-2.86,1005.86
12.631,0.04,1.11,-0.25,10.21,5.77,2.61,0.07,-0.05,-1.31,1005.86
12.632,0.04,1.11,-0.25,10.21,5.77,2.61,0.07,-0.05,-1.31,1005.94
12.632,0.04,1.11,-0.25,-6.31,-1.14,-0.53,0.07,-0.05,-1.31,1005.94
12.682,0.02,1.04,-0.24,-6.31,-1.14,-0.53,0.07,-0.05,-1.31,1005.94
12.683,0.01,1.05,-0.13,-6.31,-1.14,-0.53,0.07,-0.05,-1.31,1005.94
12.683,0.01,0.98,-0.11,-6.31,-1.14,-0.53,0.07,-0.05,-1.31,1005.94
12.684,0.01,0.98,-0.11,-6.31,-1.14,-0.53,0.08,-0.41,-0.98,1005.94
12.684,0.01,0.98,-0.11,-0.01,1.39,-0.35,0.08,-0.41,-0.98,1005.94
12.708,0.01,0.98,-0.11,-0.01,1.39,-0.35,0.08,-0.41,-0.98,1005.98
12.744,0.02,0.98,-0.01,-0.01,1.39,-0.35,0.08,-0.41,-0.98,1005.98
12.75,0.01,1.01,-0.06,-0.01,1.39,-0.35,0.08,-0.41,-0.98,1005.98
12.75,-0.04,1.02,-0.12,-0.01,1.39,-0.35,0.08,-0.41,-0.98,1005.98
12.751,-0.04,1.02,-0.12,-0.01,1.39,-0.35,0.16,-0.06,-0.99,1005.98
12.751,-0.04,1.02,-0.12,0.65,0.47,0.59,0.16,-0.06,-0.99,1005.98
12.789,-0.04,1.02,-0.12,0.65,0.47,0.59,0.16,-0.06,-0.99,1005.99
12.798,-0.09,1.00,-0.13,0.65,0.47,0.59,0.16,-0.06,-0.99,1005.99
12.799,-0.12,1.02,-0.13,0.65,0.47,0.59,0.16,-0.06,-0.99,1005.99
12.799,-0.13,1.02,-0.13,0.65,0.47,0.59,0.16,-0.06,-0.99,1005.99
12.8,-0.13,1.02,-0.13,0.65,0.47,0.59,0.24,-0.10,-1.06,1005.99
12.801,-0.13,1.02,-0.13,0.75,0.60,0.54,0.24,-0.10,-1.06,1005.99
12.828,-0.13,1.02,-0.13,0.75,0.60,0.54,0.24,-0.10,-1.06,1005.98
12.856,-0.06,1.02,-0.10,0.75,0.60,0.54,0.24,-0.10,-1.06,1005.98
12.858,-0.04,0.99,-0.11,0.75,0.60,0.54,0.24,-0.10,-1.06,1005.98
12.858,-0.18,0.96,-0.12,0.75,0.60,0.54,0.24,-0.10,-1.06,1005.98
12.858,-0.18,0.96,-0.12,0.75,0.60,0.54,0.33,0.09,-1.11,1005.98
12.86,-0.18,0.96,-0.12,0.66,0.82,0.52,0.33,0.09,-1.11,1005.98
12.909,-0.18,0.96,-0.12,0.66,0.82,0.52,0.33,0.09,-1.11,1005.98
12.916,-0.28,0.98,-0.15,0.66,0.82,0.52,0.33,0.09,-1.11,1005.98
12.917,-0.21,1.02,-0.18,0.66,0.82,0.52,0.33,0.09,-1.11,1005.98
12.917,0.02,1.00,-0.14,0.66,0.82,0.52,0.33,0.09,-1.11,1005.98
12.918,0.02,1.00,-0.14,0.66,0.82,0.52,0.39,0.13,-1.15,1005.98
12.918,0.02,1.00,-0.14,0.66,0.56,0.68,0.39,0.13,-1.15,1005.98
12.974,0.14,1.06,-0.08,0.66,0.56,0.68,0.39,0.13,-1.15,1005.98
12.976,0.06,1.18,-0.04,0.66,0.56,0.68,0.39,0.13,-1.15,1005.98
12.976,0.08,1.28,-0.04,0.66,0.56,0.68,0.39,0.13,-1.15,1005.98
12.976,0.08,1.28,-0.04,0.66,0.56,0.68,0.80,-0.17,-1.67,1005.98
12.977,0.08,1.28,-0.04,2.95,1.35,1.02,0.80,-0.17,-1.67,1005.98
12.988,0.08,1.28,-0.04,2.95,1.35,1.02,0.80,-0.17,-1.67,1005.98
13.028,0.08,1.28,-0.04,2.95,1.35,1.02,0.80,-0.17,-1.67,1005.96
13.032,0.18,1.42,-0.06,2.95,1.35,1.02,0.80,-0.17,-1.67,1005.96
13.033,0.27,1.68,-0.06,2.95,1.35,1.02,0.80,-0.17,-1.67,1005.96
13.033,0.62,1.95,0.10,2.95,1.35,1.02,0.80,-0.17,-1.67,1005.96
13.033,0.62,1.95,0.10,2.95,1.35,1.02,1.47,0.05,-2.33,1005.96
13.034,0.62,1.95,0.10,5.19,4.68,2.54,1.47,0.05,-2.33,1005.96
13.09,1.16,1.82,0.07,5.19,4.68,2.54,1.47,0.05,-2.33,1005.96
13.091,0.89,1.39,0.07,5.19,4.68,2.54,1.47,0.05,-2.33,1005.96
13.092,-0.21,1.10,-0.05,5.19,4.68,2.54,1.47,0.05,-2.33,1005.96
13.092,-0.21,1.10,-0.05,5.19,4.68,2.54,1.32,1.22,-3.11,1005.96
13.092,-0.21,1.10,-0.05,11.74,10.73,4.19,1.32,1.22,-3.11,1005.96
13.107,-0.21,1.10,-0.05,11.74,10.73,4.19,1.32,1.22,-3.11,1005.97
13.149,-1.14,1.37,-0.24,11.74,10.73,4.19,1.32,1.22,-3.11,1005.97
13.151,-1.20,1.38,-0.42,11.74,10.73,4.19,1.32,1.22,-3.11,1005.97
13.152,-0.77,0.87,-0.51,11.74,10.73,4.19,1.32,1.22,-3.11,1005.97
13.152,-0.77,0.87,-0.51,11.74,10.73,4.19,1.48,1.61,-3.50,1005.97
13.153,-0.77,0.87,-0.51,4.39,6.92,4.11,1.48,1.61,-3.50,1005.97
13.189,-0.77,0.87,-0.51,4.39,6.92,4.11,1.48,1.61,-3.50,1005.97
13.207,-0.61,0.52,-0.33,4.39,6.92,4.11,1.48,1.61,-3.50,1005.97
13.209,-0.43,0.38,-0.64,4.39,6.92,4.11,1.48,1.61,-3.50,1005.97
13.21,-0.24,0.33,-0.29,4.39,6.92,4.11,1.48,1.61,-3.50,1005.97
13.211,-0.24,0.33,-0.29,4.39,6.92,4.11,-0.67,0.19,-0.17,1005.97
13.211,-0.24,0.33,-0.29,-2.54,3.14,0.56,-0.67,0.19,-0.17,1005.97
13.229,-0.24,0.33,-0.29,-2.54,3.14,0.56,-0.67,0.19,-0.17,1005.94
13.267,-0.16,0.17,-0.08,-2.54,3.14,0.56,-0.67,0.19,-0.17,1005.94
13.269,-0.09,0.18,-0.20,-2.54,3.14,0.56,-0.67,0.19,-0.17,1005.94
13.269,-0.12,0.30,-0.29,-2.54,3.14,0.56,-0.67,0.19,-0.17,1005.94
13.27,-0.12,0.30,-0.29,-2.54,3.14,0.56,-2.12,-0.47,2.43,1005.94
13.27,-0.12,0.30,-0.29,2.34,-4.23,0.40,-2.12,-0.47,2.43,1005.94
13.308,-0.12,0.30,-0.29,2.34,-4.23,0.40,-2.12,-0.47,2.43,1005.94
13.324,-0.14,0.42,-0.38,2.34,-4.23,0.40,-2.12,-0.47,2.43,1005.94
13.325,-0.14,0.51,-0.39,2.34,-4.23,0.40,-2.12,-0.47,2.43,1005.94
13.325,-0.14,0.58,-0.31,2.34,-4.23,0.40,-2.12,-0.47,2.43,1005.94
13.326,-0.14,0.58,-0.31,2.34,-4.23,0.40,-2.76,-0.62,4.29,1005.94
13.326,-0.14,0.58,-0.31,2.01,-5.60,-0.53,-2.76,-0.62,4.29,1005.94
13.381,-0.09,0.67,-0.27,2.01,-5.60,-0.53,-2.76,-0.62,4.29,1005.94
13.383,-0.06,0.87,-0.26,2.01,-5.60,-0.53,-2.76,-0.62,4.29,1005.94
13.383,0.04,1.14,-0.31,2.01,-5.60,-0.53,-2.76,-0.62,4.29,1005.94
13.383,0.04,1.14,-0.31,2.01,-5.60,-0.53,-2.78,0.57,5.92,1005.94
13.384,0.04,1.14,-0.31,-1.22,-3.54,-2.27,-2.78,0.57,5.92,1005.94
13.388,0.04,1.14,-0.31,-1.22,-3.54,-2.27,-2.78,0.57,5.92,1005.98
13.428,0.04,1.14,-0.31,-1.22,-3.54,-2.27,-2.78,0.57,5.92,1005.98
13.44,0.01,1.66,-0.51,-1.22,-3.54,-2.27,-2.78,0.57,5.92,1005.98
13.441,-0.42,2.22,-0.80,-1.22,-3.54,-2.27,-2.78,0.57,5.92,1005.98
13.441,-0.88,1.90,-0.47,-1.22,-3.54,-2.27,-2.78,0.57,5.92,1005.98
13.442,-0.88,1.90,-0.47,-3.19,3.19,-4.09,-2.78,0.57,5.92,1005.98
13.442,-0.88,1.90,-0.47,-3.19,3.19,-4.09,-2.74,0.81,6.02,1005.98
13.499,-0.92,1.21,0.02,-3.19,3.19,-4.09,-2.74,0.81,6.02,1005.98
13.501,-0.80,0.96,-0.46,-3.19,3.19,-4.09,-2.74,0.81,6.02,1005.98
13.501,-0.91,0.76,-0.56,-3.19,3.19,-4.09,-2.74,0.81,6.02,1005.98
13.502,-0.91,0.76,-0.56,-11.80,9.30,-5.32,-2.74,0.81,6.02,1005.98
13.503,-0.91,0.76,-0.56,-11.80,9.30,-5.32,-1.60,-0.03,3.23,1005.98
13.509,-0.91,0.76,-0.56,-11.80,9.30,-5.32,-1.60,-0.03,3.23,1005.95
13.558,-1.08,0.65,-0.32,-11.80,9.30,-5.32,-1.60,-0.03,3.23,1005.95
13.56,-0.90,1.01,-0.44,-11.80,9.30,-5.32,-1.60,-0.03,3.23,1005.95
13.561,0.50,1.68,0.50,-11.80,9.30,-5.32,-1.60,-0.03,3.23,1005.95
13.562,0.50,1.68,0.50,-11.80,9.30,-5.32,0.13,-1.12,-1.94,1005.95
13.563,0.50,1.68,0.50,-12.59,-0.80,-5.18,0.13,-1.12,-1.94,1005.95
13.589,0.50,1.68,0.50,-12.59,-0.80,-5.18,0.13,-1.12,-1.94,1005.89
13.616,2.81,1.69,0.73,-12.59,-0.80,-5.18,0.13,-1.12,-1.94,1005.89
13.617,1.41,1.65,-0.29,-12.59,-0.80,-5.18,0.13,-1.12,-1.94,1005.89
13.617,-1.05,1.46,-1.49,-12.59,-0.80,-5.18,0.13,-1.12,-1.94,1005.89
13.618,-1.05,1.46,-1.49,-12.59,-0.80,-5.18,0.51,-0.34,-2.00,1005.89
13.618,-1.05,1.46,-1.49,5.31,5.30,2.06,0.51,-0.34,-2.00,1005.89
13.629,-1.05,1.46,-1.49,5.31,5.30,2.06,0.51,-0.34,-2.00,1005.89
13.674,-1.55,0.92,-0.31,5.31,5.30,2.06,0.51,-0.34,-2.00,1005.89
13.675,-0.49,0.71,0.58,5.31,5.30,2.06,0.51,-0.34,-2.00,1005.89
13.675,-0.14,0.93,0.19,5.31,5.30,2.06,0.51,-0.34,-2.00,1005.89
13.675,-0.14,0.93,0.19,5.31,5.30,2.06,0.18,-0.40,-2.47,1005.89
13.675,-0.14,0.93,0.19,-4.99,3.79,-7.08,0.18,-0.40,-2.47,1005.89
13.71,-0.14,0.93,0.19,-4.99,3.79,-7.08,0.18,-0.40,-2.47,1005.92
13.732,0.13,1.09,0.05,-4.99,3.79,-7.08,0.18,-0.40,-2.47,1005.92
13.734,0.11,1.11,-0.10,-4.99,3.79,-7.08,0.18,-0.40,-2.47,1005.92
13.735,0.19,1.05,0.02,-4.99,3.79,-7.08,0.18,-0.40,-2.47,1005.92
13.736,0.19,1.05,0.02,-4.99,3.79,-7.08,0.25,-0.18,-0.95,1005.92
13.737,0.19,1.05,0.02,-2.22,-0.50,2.53,0.25,-0.18,-0.95,1005.92
13.788,0.19,1.05,0.02,-2.22,-0.50,2.53,0.25,-0.18,-0.95,1005.97
13.79,0.08,1.02,-0.03,-2.22,-0.50,2.53,0.25,-0.18,-0.95,1005.97
13.791,-0.15,1.04,0.09,-2.22,-0.50,2.53,0.25,-0.18,-0.95,1005.97
13.791,-0.09,0.98,0.14,-2.22,-0.50,2.53,0.25,-0.18,-0.95,1005.97
13.792,-0.09,0.98,0.14,-2.22,-0.50,2.53,0.23,0.27,-1.01,1005.97
13.793,-0.09,0.98,0.14,1.23,0.97,-0.40,0.23,0.27,-1.01,1005.97
13.828,-0.09,0.98,0.14,1.23,0.97,-0.40,0.23,0.27,-1.01,1006.00
13.855,0.06,0.93,0.12,1.23,0.97,-0.40,0.23,0.27,-1.01,1006.00
13.857,0.13,0.97,0.08,1.23,0.97,-0.40,0.23,0.27,-1.01,1006.00
13.858,0.11,0.98,0.05,1.23,0.97,-0.40,0.23,0.27,-1.01,1006.00
13.859,0.11,0.98,0.05,1.23,0.97,-0.40,0.30,0.13,-0.92,1006.00
13.86,0.11,0.98,0.05,-0.14,0.19,1.25,0.30,0.13,-0.92,1006.00
13.907,0.01,0.96,0.03,-0.14,0.19,1.25,0.30,0.13,-0.92,1006.00
13.908,-0.08,0.96,0.03,-0.14,0.19,1.25,0.30,0.13,-0.92,1006.00
13.909,-0.08,0.98,0.00,-0.14,0.19,1.25,0.30,0.13,-0.92,1006.00
13.909,-0.08,0.98,0.00,-0.14,0.19,1.25,0.40,0.46,-1.32,1006.00
13.909,-0.08,0.98,0.00,1.92,0.13,0.87,0.40,0.46,-1.32,1006.00
13.91,-0.08,0.98,0.00,1.92,0.13,0.87,0.40,0.46,-1.32,1006.00
13.966,-0.11,0.98,-0.03,1.92,0.13,0.87,0.40,0.46,-1.32,1006.00
13.968,-0.19,0.95,-0.05,1.92,0.13,0.87,0.40,0.46,-1.32,1006.00
13.968,-0.27,0.93,-0.10,1.92,0.13,0.87,0.40,0.46,-1.32,1006.00
13.969,-0.27,0.93,-0.10,1.92,0.13,0.87,0.45,0.27,-1.44,1006.00
13.969,-0.27,0.93,-0.10,0.98,0.33,0.61,0.45,0.27,-1.44,1006.00
13.988,-0.27,0.93,-0.10,0.98,0.33,0.61,0.45,0.27,-1.44,1005.99
14.023,-0.25,0.96,-0.10,0.98,0.33,0.61,0.45,0.27,-1.44,1005.99
14.023,-0.21,0.99,-0.08,0.98,0.33,0.61,0.45,0.27,-1.44,1005.99
14.024,-0.16,1.02,-0.07,0.98,0.33,0.61,0.45,0.27,-1.44,1005.99
14.024,-0.16,1.02,-0.07,0.98,0.33,0.61,0.36,0.12,-1.41,1005.99
14.024,-0.16,1.02,-0.07,0.28,0.26,-0.02,0.36,0.12,-1.41,1005.99
14.027,-0.16,1.02,-0.07,0.28,0.26,-0.02,0.36,0.12,-1.41,1005.98
14.082,-0.19,1.07,-0.10,0.28,0.26,-0.02,0.36,0.12,-1.41,1005.98
14.083,-0.22,1.10,-0.14,0.28,0.26,-0.02,0.36,0.12,-1.41,1005.98
14.083,-0.22,1.09,-0.11,0.28,0.26,-0.02,0.36,0.12,-1.41,1005.98
14.083,-0.22,1.09,-0.11,0.28,0.26,-0.02,0.48,-0.02,-1.59,1005.98
14.083,-0.22,1.09,-0.11,1.61,1.34,0.23,0.48,-0.02,-1.59,1005.98
14.109,-0.22,1.09,-0.11,1.61,1.34,0.23,0.48,-0.02,-1.59,1005.97
14.152,-0.16,1.13,-0.05,1.61,1.34,0.23,0.48,-0.02,-1.59,1005.97
14.153,-0.08,1.27,-0.01,1.61,1.34,0.23,0.48,-0.02,-1.59,1005.97
14.154,0.13,1.46,0.03,1.61,1.34,0.23,0.48,-0.02,-1.59,1005.97
14.154,0.13,1.46,0.03,1.61,1.34,0.23,0.66,0.25,-1.91,1005.97
14.155,0.13,1.46,0.03,2.34,2.54,0.45,0.66,0.25,-1.91,1005.97
14.188,0.13,1.46,0.03,2.34,2.54,0.45,0.66,0.25,-1.91,1005.97
14.198,0.31,1.61,-0.16,2.34,2.54,0.45,0.66,0.25,-1.91,1005.97
14.199,0.47,1.72,-0.40,2.34,2.54,0.45,0.66,0.25,-1.91,1005.97
14.199,0.82,1.69,-0.44,2.34,2.54,0.45,0.66,0.25,-1.91,1005.97
14.2,0.82,1.69,-0.44,2.34,2.54,0.45,0.84,1.57,-2.52,1005.97
14.2,0.82,1.69,-0.44,6.39,6.56,1.77,0.84,1.57,-2.52,1005.97
14.228,0.82,1.69,-0.44,6.39,6.56,1.77,0.84,1.57,-2.52,1005.97
14.256,0.60,1.24,-0.25,6.39,6.56,1.77,0.84,1.57,-2.52,1005.97
14.261,-0.44,0.89,-0.22,6.39,6.56,1.77,0.84,1.57,-2.52,1005.97
14.261,-1.25,1.14,-0.27,6.39,6.56,1.77,0.84,1.57,-2.52,1005.97
14.261,-1.25,1.14,-0.27,6.39,6.56,1.77,1.06,2.97,-3.55,1005.97
14.262,-1.25,1.14,-0.27,12.07,8.79,0.10,1.06,2.97,-3.55,1005.97
14.309,-1.25,1.14,-0.27,12.07,8.79,0.10,1.06,2.97,-3.55,1005.96
14.316,-1.18,1.24,-0.24,12.07,8.79,0.10,1.06,2.97,-3.55,1005.96
14.316,-0.84,0.77,-0.10,12.07,8.79,0.10,1.06,2.97,-3.55,1005.96
14.317,-0.87,0.38,-0.18,12.07,8.79,0.10,1.06,2.97,-3.55,1005.96
14.317,-0.87,0.38,-0.18,-3.00,5.05,1.99,1.06,2.97,-3.55,1005.96
14.317,-0.87,0.38,-0.18,-3.00,5.05,1.99,1.15,0.95,-1.66,1005.96
14.374,-0.86,0.45,-0.36,-3.00,5.05,1.99,1.15,0.95,-1.66,1005.96
14.375,-0.58,0.35,-0.20,-3.00,5.05,1.99,1.15,0.95,-1.66,1005.96
14.375,-0.27,0.13,0.30,-3.00,5.05,1.99,1.15,0.95,-1.66,1005.96
14.375,-0.27,0.13,0.30,-3.00,5.05,1.99,-0.54,-1.01,1.34,1005.96
14.376,-0.27,0.13,0.30,-2.23,-0.99,1.69,-0.54,-1.01,1.34,1005.96
14.387,-0.27,0.13,0.30,-2.23,-0.99,1.69,-0.54,-1.01,1.34,1005.94
14.429,-0.27,0.13,0.30,-2.23,-0.99,1.69,-0.54,-1.01,1.34,1005.95
14.433,-0.13,-0.02,0.25,-2.23,-0.99,1.69,-0.54,-1.01,1.34,1005.95
14.434,-0.14,0.10,0.00,-2.23,-0.99,1.69,-0.54,-1.01,1.34,1005.95
14.434,-0.12,0.31,-0.23,-2.23,-0.99,1.69,-0.54,-1.01,1.34,1005.95
14.434,-0.12,0.31,-0.23,-2.23,-0.99,1.69,-0.21,-1.27,3.89,1005.95
14.435,-0.12,0.31,-0.23,1.62,-5.92,4.35,-0.21,-1.27,3.89,1005.95
14.49,-0.36,0.48,-0.12,1.62,-5.92,4.35,-0.21,-1.27,3.89,1005.95
14.492,-0.64,0.56,0.03,1.62,-5.92,4.35,-0.21,-1.27,3.89,1005.95
14.492,-0.76,0.70,-0.24,1.62,-5.92,4.35,-0.21,-1.27,3.89,1005.95
14.493,-0.76,0.70,-0.24,1.62,-5.92,4.35,0.17,-2.20,5.47,1005.95
14.494,-0.76,0.70,-0.24,0.61,-5.58,1.63,0.17,-2.20,5.47,1005.95
14.509,-0.76,0.70,-0.24,0.61,-5.58,1.63,0.17,-2.20,5.47,1006.01
14.55,-0.84,0.95,-0.31,0.61,-5.58,1.63,0.17,-2.20,5.47,1006.01
14.551,-0.90,1.23,-0.21,0.61,-5.58,1.63,0.17,-2.20,5.47,1006.01
14.552,-0.79,1.33,-0.42,0.61,-5.58,1.63,0.17,-2.20,5.47,1006.01
14.552,-0.79,1.33,-0.42,-7.30,-1.67,0.94,0.17,-2.20,5.47,1006.01
14.552,-0.79,1.33,-0.42,-7.30,-1.67,0.94,0.53,-5.98,7.12,1006.01
14.553,-0.79,1.33,-0.42,-7.30,-1.67,0.94,0.53,-5.98,7.12,1005.97
14.608,-0.53,1.53,-0.40,-7.30,-1.67,0.94,0.53,-5.98,7.12,1005.97
14.608,-0.44,1.51,-0.06,-7.30,-1.67,0.94,0.53,-5.98,7.12,1005.97
14.609,-0.31,1.34,0.21,-7.30,-1.67,0.94,0.53,-5.98,7.12,1005.97
14.609,-0.31,1.34,0.21,-8.52,4.75,0.04,0.53,-5.98,7.12,1005.97
14.61,-0.31,1.34,0.21,-8.52,4.75,0.04,0.57,-9.28,5.87,1005.97
14.628,-0.31,1.34,0.21,-8.52,4.75,0.04,0.57,-9.28,5.87,1005.90
14.665,-0.21,1.11,0.50,-8.52,4.75,0.04,0.57,-9.28,5.87,1005.90
14.665,-0.28,0.92,0.50,-8.52,4.75,0.04,0.57,-9.28,5.87,1005.90
14.666,-0.95,1.03,0.28,-8.52,4.75,0.04,0.57,-9.28,5.87,1005.90
14.666,-0.95,1.03,0.28,-8.52,4.75,0.04,-0.59,-4.78,1.70,1005.90
14.667,-0.95,1.03,0.28,-4.21,4.26,5.50,-0.59,-4.78,1.70,1005.90
14.71,-0.95,1.03,0.28,-4.21,4.26,5.50,-0.59,-4.78,1.70,1005.90
14.723,-1.30,1.72,0.42,-4.21,4.26,5.50,-0.59,-4.78,1.70,1005.90
14.723,0.29,1.01,0.70,-4.21,4.26,5.50,-0.59,-4.78,1.70,1005.90
14.724,0.96,1.02,-0.71,-4.21,4.26,5.50,-0.59,-4.78,1.70,1005.90
14.724,0.96,1.02,-0.71,-4.21,4.26,5.50,-0.64,0.26,-1.00,1005.90
14.725,0.96,1.02,-0.71,-8.68,3.06,6.83,-0.64,0.26,-1.00,1005.90
14.783,0.13,1.46,-0.78,-8.68,3.06,6.83,-0.64,0.26,-1.00,1005.90
14.785,-0.63,1.27,-0.56,-8.68,3.06,6.83,-0.64,0.26,-1.00,1005.90
14.786,-0.23,1.01,-0.43,-8.68,3.06,6.83,-0.64,0.26,-1.00,1005.90
14.787,-0.23,1.01,-0.43,-8.68,3.06,6.83,-0.49,-0.75,-0.80,1005.90
14.788,-0.23,1.01,-0.43,4.57,2.40,0.09,-0.49,-0.75,-0.80,1005.90
14.789,-0.23,1.01,-0.43,4.57,2.40,0.09,-0.49,-0.75,-0.80,1005.96
14.828,-0.23,1.01,-0.43,4.57,2.40,0.09,-0.49,-0.75,-0.80,1005.95
14.84,0.14,0.90,-0.01,4.57,2.40,0.09,-0.49,-0.75,-0.80,1005.95
14.841,0.10,0.90,0.10,4.57,2.40,0.09,-0.49,-0.75,-0.80,1005.95
14.841,-0.08,0.99,0.04,4.57,2.40,0.09,-0.49,-0.75,-0.80,1005.95
14.842,-0.08,0.99,0.04,4.57,2.40,0.09,-0.48,-1.79,0.07,1005.95
14.842,-0.08,0.99,0.04,-2.05,1.26,-0.84,-0.48,-1.79,0.07,1005.95
14.899,-0.08,1.03,-0.22,-2.05,1.26,-0.84,-0.48,-1.79,0.07,1005.95
14.901,-0.03,0.99,-0.41,-2.05,1.26,-0.84,-0.48,-1.79,0.07,1005.95
14.901,-0.03,0.98,-0.36,-2.05,1.26,-0.84,-0.48,-1.79,0.07,1005.95
14.902,-0.03,0.98,-0.36,-2.05,1.26,-0.84,-0.08,-0.44,0.02,1005.95
14.902,-0.03,0.98,-0.36,0.16,0.41,2.09,-0.08,-0.44,0.02,1005.95
14.908,-0.03,0.98,-0.36,0.16,0.41,2.09,-0.08,-0.44,0.02,1005.97
14.959,-0.12,0.99,-0.27,0.16,0.41,2.09,-0.08,-0.44,0.02,1005.97
14.961,-0.14,0.97,-0.21,0.16,0.41,2.09,-0.08,-0.44,0.02,1005.97
14.962,-0.03,0.93,-0.17,0.16,0.41,2.09,-0.08,-0.44,0.02,1005.97
14.963,-0.03,0.93,-0.17,0.16,0.41,2.09,-0.15,-0.62,0.11,1005.97
14.964,-0.03,0.93,-0.17,-0.19,0.52,-1.14,-0.15,-0.62,0.11,1005.97
14.989,-0.03,0.93,-0.17,-0.19,0.52,-1.14,-0.15,-0.62,0.11,1005.99
15.017,0.01,0.92,-0.17,-0.19,0.52,-1.14,-0.15,-0.62,0.11,1005.99
15.018,0.02,0.96,-0.16,-0.19,0.52,-1.14,-0.15,-0.62,0.11,1005.99
15.018,0.08,1.00,-0.20,-0.19,0.52,-1.14,-0.15,-0.62,0.11,1005.99
15.019,0.08,1.00,-0.20,-0.19,0.52,-1.14,-0.04,-0.46,0.15,1005.99
15.019,0.08,1.00,-0.20,-0.16,0.07,0.44,-0.04,-0.46,0.15,1005.99
15.03,0.08,1.00,-0.20,-0.16,0.07,0.44,-0.04,-0.46,0.15,1005.98
15.073,0.04,1.00,-0.21,-0.16,0.07,0.44,-0.04,-0.46,0.15,1005.98
15.074,-0.00,0.97,-0.13,-0.16,0.07,0.44,-0.04,-0.46,0.15,1005.98
15.075,-0.03,0.95,-0.03,-0.16,0.07,0.44,-0.04,-0.46,0.15,1005.98
15.075,-0.03,0.95,-0.03,-0.16,0.07,0.44,0.17,-0.33,-0.07,1005.98
15.075,-0.03,0.95,-0.03,0.87,0.54,0.40,0.17,-0.33,-0.07,1005.98
15.11,-0.03,0.95,-0.03,0.87,0.54,0.40,0.17,-0.33,-0.07,1005.97
15.133,-0.03,0.96,-0.17,0.87,0.54,0.40,0.17,-0.33,-0.07,1005.97
15.135,-0.02,1.00,-0.25,0.87,0.54,0.40,0.17,-0.33,-0.07,1005.97
15.136,-0.02,1.00,-0.25,0.87,0.54,0.40,0.17,-0.33,-0.07,1005.97
15.138,-0.02,1.00,-0.25,0.87,0.54,0.40,0.48,-0.41,-0.08,1005.97
15.139,-0.02,1.00,-0.25,0.29,0.33,1.42,0.48,-0.41,-0.08,1005.97
15.188,-0.02,1.00,-0.25,0.29,0.33,1.42,0.48,-0.41,-0.08,1005.97
15.191,-0.02,0.97,-0.18,0.29,0.33,1.42,0.48,-0.41,-0.08,1005.97
15.192,-0.05,0.97,-0.22,0.29,0.33,1.42,0.48,-0.41,-0.08,1005.97
15.192,-0.13,0.98,-0.29,0.29,0.33,1.42,0.48,-0.41,-0.08,1005.97
15.193,-0.13,0.98,-0.29,0.43,0.74,0.67,0.48,-0.41,-0.08,1005.97
15.193,-0.13,0.98,-0.29,0.43,0.74,0.67,0.74,-0.19,-0.13,1005.97
15.229,-0.13,0.98,-0.29,0.43,0.74,0.67,0.74,-0.19,-0.13,1005.98
15.249,-0.09,0.97,-0.29,0.43,0.74,0.67,0.74,-0.19,-0.13,1005.98
15.251,0.02,0.99,-0.26,0.43,0.74,0.67,0.74,-0.19,-0.13,1005.98
15.252,0.08,1.01,-0.31,0.43,0.74,0.67,0.74,-0.19,-0.13,1005.98
15.253,0.08,1.01,-0.31,0.43,0.74,0.67,1.12,-0.39,-0.02,1005.98
15.254,0.08,1.01,-0.31,-0.20,0.74,0.82,1.12,-0.39,-0.02,1005.98
15.31,0.05,1.05,-0.37,-0.20,0.74,0.82,1.12,-0.39,-0.02,1005.98
15.311,0.07,1.10,-0.31,-0.20,0.74,0.82,1.12,-0.39,-0.02,1005.98
15.311,0.21,1.26,-0.21,-0.20,0.74,0.82,1.12,-0.39,-0.02,1005.98
15.312,0.21,1.26,-0.21,-0.20,0.74,0.82,1.68,-0.78,-0.17,1005.98
15.312,0.21,1.26,-0.21,1.44,1.57,1.15,1.68,-0.78,-0.17,1005.98
15.313,0.21,1.26,-0.21,1.44,1.57,1.15,1.68,-0.78,-0.17,1005.98
15.365,0.39,1.47,-0.12,1.44,1.57,1.15,1.68,-0.78,-0.17,1005.98
15.366,0.58,1.72,-0.08,1.44,1.57,1.15,1.68,-0.78,-0.17,1005.98
15.366,0.56,1.81,-0.05,1.44,1.57,1.15,1.68,-0.78,-0.17,1005.98
15.367,0.56,1.81,-0.05,1.44,1.57,1.15,2.53,-1.29,-0.33,1005.98
15.367,0.56,1.81,-0.05,3.56,4.72,3.20,2.53,-1.29,-0.33,1005.98
15.389,0.56,1.81,-0.05,3.56,4.72,3.20,2.53,-1.29,-0.33,1005.98
15.425,0.08,1.55,0.27,3.56,4.72,3.20,2.53,-1.29,-0.33,1005.98
15.427,-0.54,1.28,0.38,3.56,4.72,3.20,2.53,-1.29,-0.33,1005.98
15.428,-1.14,1.30,0.19,3.56,4.72,3.20,2.53,-1.29,-0.33,1005.98
15.428,-1.14,1.30,0.19,3.56,4.72,3.20,2.62,-2.46,-0.98,1005.98
15.429,-1.14,1.30,0.19,6.50,9.63,6.44,2.62,-2.46,-0.98,1005.98
15.429,-1.14,1.30,0.19,6.50,9.63,6.44,2.62,-2.46,-0.98,1005.97
15.483,-1.41,1.31,-0.10,6.50,9.63,6.44,2.62,-2.46,-0.98,1005.97
15.484,-1.14,1.08,-0.62,6.50,9.63,6.44,2.62,-2.46,-0.98,1005.97
15.485,-0.57,1.05,-0.66,6.50,9.63,6.44,2.62,-2.46,-0.98,1005.97
15.486,-0.57,1.05,-0.66,-5.52,6.41,7.10,2.62,-2.46,-0.98,1005.97
15.487,-0.57,1.05,-0.66,-5.52,6.41,7.10,1.98,-5.32,-0.32,1005.97
15.509,-0.57,1.05,-0.66,-5.52,6.41,7.10,1.98,-5.32,-0.32,1005.94
15.54,-0.04,0.79,-0.31,-5.52,6.41,7.10,1.98,-5.32,-0.32,1005.94
15.541,0.25,0.51,0.16,-5.52,6.41,7.10,1.98,-5.32,-0.32,1005.94
15.541,-0.05,0.43,0.45,-5.52,6.41,7.10,1.98,-5.32,-0.32,1005.94
15.541,-0.05,0.43,0.45,-5.52,6.41,7.10,0.53,-4.89,1.84,1005.94
15.541,-0.05,0.43,0.45,-0.42,2.78,-0.88,0.53,-4.89,1.84,1005.94
15.59,-0.05,0.43,0.45,-0.42,2.78,-0.88,0.53,-4.89,1.84,1005.92
15.599,-0.27,0.50,0.27,-0.42,2.78,-0.88,0.53,-4.89,1.84,1005.92
15.6,-0.34,0.56,0.20,-0.42,2.78,-0.88,0.53,-4.89,1.84,1005.92
15.6,-0.35,0.64,0.12,-0.42,2.78,-0.88,0.53,-4.89,1.84,1005.92
15.6,-0.35,0.64,0.12,-0.42,2.78,-0.88,0.25,-2.69,3.17,1005.92
15.601,-0.35,0.64,0.12,4.31,-2.88,6.36,0.25,-2.69,3.17,1005.92
15.63,-0.35,0.64,0.12,4.31,-2.88,6.36,0.25,-2.69,3.17,1005.95
15.659,-0.31,0.72,0.03,4.31,-2.88,6.36,0.25,-2.69,3.17,1005.95
15.659,-0.21,0.76,0.01,4.31,-2.88,6.36,0.25,-2.69,3.17,1005.95
15.659,-0.23,0.86,0.00,4.31,-2.88,6.36,0.25,-2.69,3.17,1005.95
15.66,-0.23,0.86,0.00,4.31,-2.88,6.36,-0.42,-0.96,4.93,1005.95
15.66,-0.23,0.86,0.00,-0.87,-2.37,4.13,-0.42,-0.96,4.93,1005.95
15.709,-0.23,0.86,0.00,-0.87,-2.37,4.13,-0.42,-0.96,4.93,1005.98
15.716,-0.35,1.05,-0.05,-0.87,-2.37,4.13,-0.42,-0.96,4.93,1005.98
15.716,-0.45,1.20,-0.09,-0.87,-2.37,4.13,-0.42,-0.96,4.93,1005.98
15.717,-0.54,1.30,-0.11,-0.87,-2.37,4.13,-0.42,-0.96,4.93,1005.98
15.717,-0.54,1.30,-0.11,-0.87,-2.37,4.13,-1.71,-0.70,5.51,1005.98
15.718,-0.54,1.30,-0.11,-2.94,-0.47,1.91,-1.71,-0.70,5.51,1005.98
15.773,-0.61,1.49,-0.17,-2.94,-0.47,1.91,-1.71,-0.70,5.51,1005.98
15.774,-0.56,1.53,-0.19,-2.94,-0.47,1.91,-1.71,-0.70,5.51,1005.98
15.774,-0.45,1.35,-0.10,-2.94,-0.47,1.91,-1.71,-0.70,5.51,1005.98
15.774,-0.45,1.35,-0.10,-2.94,-0.47,1.91,-2.67,-1.48,5.73,1005.98
15.775,-0.45,1.35,-0.10,-8.36,4.16,-0.43,-2.67,-1.48,5.73,1005.98
15.789,-0.45,1.35,-0.10,-8.36,4.16,-0.43,-2.67,-1.48,5.73,1005.96
15.829,-0.45,1.35,-0.10,-8.36,4.16,-0.43,-2.67,-1.48,5.73,1005.90
15.831,-0.51,1.29,-0.01,-8.36,4.16,-0.43,-2.67,-1.48,5.73,1005.90
15.832,-0.66,1.23,-0.17,-8.36,4.16,-0.43,-2.67,-1.48,5.73,1005.90
15.832,-0.95,1.03,-0.30,-8.36,4.16,-0.43,-2.67,-1.48,5.73,1005.90
15.833,-0.95,1.03,-0.30,-8.36,4.16,-0.43,-1.81,0.07,2.97,1005.90
15.834,-0.95,1.03,-0.30,-9.39,5.28,-1.09,-1.81,0.07,2.97,1005.90
15.89,-1.15,0.71,-0.31,-9.39,5.28,-1.09,-1.81,0.07,2.97,1005.90
15.891,-1.08,0.64,-0.45,-9.39,5.28,-1.09,-1.81,0.07,2.97,1005.90
15.892,-0.79,1.30,-0.86,-9.39,5.28,-1.09,-1.81,0.07,2.97,1005.90
15.892,-0.79,1.30,-0.86,-9.39,5.28,-1.09,-0.29,-0.58,-1.43,1005.90
15.892,-0.79,1.30,-0.86,-12.55,1.02,-2.61,-0.29,-0.58,-1.43,1005.90
15.91,-0.79,1.30,-0.86,-12.55,1.02,-2.61,-0.29,-0.58,-1.43,1005.89
15.949,0.71,1.83,-0.26,-12.55,1.02,-2.61,-0.29,-0.58,-1.43,1005.89
15.95,2.61,1.43,0.08,-12.55,1.02,-2.61,-0.29,-0.58,-1.43,1005.89
15.951,1.24,1.36,-0.69,-12.55,1.02,-2.61,-0.29,-0.58,-1.43,1005.89
15.951,1.24,1.36,-0.69,-12.55,1.02,-2.61,-0.28,-3.18,-0.43,1005.89
15.952,1.24,1.36,-0.69,-6.97,3.49,-4.65,-0.28,-3.18,-0.43,1005.89
15.989,1.24,1.36,-0.69,-6.97,3.49,-4.65,-0.28,-3.18,-0.43,1005.88
16.01,-0.82,1.32,-0.74,-6.97,3.49,-4.65,-0.28,-3.18,-0.43,1005.88
16.012,-0.94,0.88,-0.07,-6.97,3.49,-4.65,-0.28,-3.18,-0.43,1005.88
16.013,-0.08,0.65,0.71,-6.97,3.49,-4.65,-0.28,-3.18,-0.43,1005.88
16.013,-0.08,0.65,0.71,-6.97,3.49,-4.65,-0.24,-0.60,-3.12,1005.88
16.014,-0.08,0.65,0.71,8.26,4.09,-3.91,-0.24,-0.60,-3.12,1005.88
16.03,-0.08,0.65,0.71,8.26,4.09,-3.91,-0.24,-0.60,-3.12,1005.90
16.065,0.28,0.96,-0.00,8.26,4.09,-3.91,-0.24,-0.60,-3.12,1005.90
16.066,0.05,1.13,-0.17,8.26,4.09,-3.91,-0.24,-0.60,-3.12,1005.90
16.066,-0.19,1.08,-0.02,8.26,4.09,-3.91,-0.24,-0.60,-3.12,1005.90
16.067,-0.19,1.08,-0.02,8.26,4.09,-3.91,0.08,0.14,-1.53,1005.90
16.068,-0.19,1.08,-0.02,-3.15,-1.27,2.59,0.08,0.14,-1.53,1005.90
16.111,-0.19,1.08,-0.02,-3.15,-1.27,2.59,0.08,0.14,-1.53,1005.95
16.124,0.05,1.03,-0.06,-3.15,-1.27,2.59,0.08,0.14,-1.53,1005.95
16.124,0.16,1.03,-0.06,-3.15,-1.27,2.59,0.08,0.14,-1.53,1005.95
16.124,-0.02,0.99,0.07,-3.15,-1.27,2.59,0.08,0.14,-1.53,1005.95
16.124,-0.02,0.99,0.07,-0.35,1.11,-0.27,0.08,0.14,-1.53,1005.95
16.125,-0.02,0.99,0.07,-0.35,1.11,-0.27,0.08,-0.14,-1.24,1005.95
16.182,-0.21,0.96,0.03,-0.35,1.11,-0.27,0.08,-0.14,-1.24,1005.95
16.185,-0.15,0.97,-0.04,-0.35,1.11,-0.27,0.08,-0.14,-1.24,1005.95
16.186,-0.04,1.01,-0.04,-0.35,1.11,-0.27,0.08,-0.14,-1.24,1005.95
16.187,-0.04,1.01,-0.04,0.33,0.29,0.78,0.08,-0.14,-1.24,1005.95
16.188,-0.04,1.01,-0.04,0.33,0.29,0.78,0.17,-0.05,-1.11,1005.95
16.189,-0.04,1.01,-0.04,0.33,0.29,0.78,0.17,-0.05,-1.11,1005.97
16.23,-0.04,1.01,-0.04,0.33,0.29,0.78,0.17,-0.05,-1.11,1005.97
16.241,-0.04,1.05,-0.03,0.33,0.29,0.78,0.17,-0.05,-1.11,1005.97
16.241,-0.03,1.04,-0.03,0.33,0.29,0.78,0.17,-0.05,-1.11,1005.97
16.242,0.04,1.02,-0.03,0.33,0.29,0.78,0.17,-0.05,-1.11,1005.97
16.242,0.04,1.02,-0.03,0.33,0.29,0.78,0.23,-0.21,-1.06,1005.97
16.242,0.04,1.02,-0.03,0.37,0.52,0.41,0.23,-0.21,-1.06,1005.97
16.3,-0.04,1.02,-0.01,0.37,0.52,0.41,0.23,-0.21,-1.06,1005.97
16.301,-0.15,1.02,-0.02,0.37,0.52,0.41,0.23,-0.21,-1.06,1005.97
16.302,-0.17,0.99,-0.05,0.37,0.52,0.41,0.23,-0.21,-1.06,1005.97
16.302,-0.17,0.99,-0.05,0.37,0.52,0.41,0.38,0.10,-1.34,1005.97
16.303,-0.17,0.99,-0.05,1.75,0.79,0.75,0.38,0.10,-1.34,1005.97
16.309,-0.17,0.99,-0.05,1.75,0.79,0.75,0.38,0.10,-1.34,1005.97
16.357,-0.20,0.96,-0.09,1.75,0.79,0.75,0.38,0.10,-1.34,1005.97
16.357,-0.26,0.97,-0.12,1.75,0.79,0.75,0.38,0.10,-1.34,1005.97
16.358,-0.28,0.98,-0.14,1.75,0.79,0.75,0.38,0.10,-1.34,1005.97
16.358,-0.28,0.98,-0.14,1.75,0.79,0.75,0.37,0.27,-1.39,1005.97
16.358,-0.28,0.98,-0.14,0.82,0.60,0.68,0.37,0.27,-1.39,1005.97
16.388,-0.28,0.98,-0.14,0.82,0.60,0.68,0.37,0.27,-1.39,1005.97
16.415,-0.17,0.96,-0.16,0.82,0.60,0.68,0.37,0.27,-1.39,1005.97
16.417,-0.12,1.04,-0.11,0.82,0.60,0.68,0.37,0.27,-1.39,1005.97
16.418,-0.08,1.20,-0.03,0.82,0.60,0.68,0.37,0.27,-1.39,1005.97
16.419,-0.08,1.20,-0.03,0.82,0.60,0.68,0.45,-0.02,-1.46,1005.97
16.42,-0.08,1.20,-0.03,0.95,0.72,0.06,0.45,-0.02,-1.46,1005.97
16.429,-0.08,1.20,-0.03,0.95,0.72,0.06,0.45,-0.02,-1.46,1005.97
16.475,0.02,1.27,-0.00,0.95,0.72,0.06,0.45,-0.02,-1.46,1005.97
16.476,0.14,1.28,-0.01,0.95,0.72,0.06,0.45,-0.02,-1.46,1005.97
16.476,0.27,1.39,-0.01,0.95,0.72,0.06,0.45,-0.02,-1.46,1005.97
16.477,0.27,1.39,-0.01,3.64,3.14,1.36,0.45,-0.02,-1.46,1005.97
16.478,0.27,1.39,-0.01,3.64,3.14,1.36,0.86,0.02,-2.04,1005.97
16.508,0.27,1.39,-0.01,3.64,3.14,1.36,0.86,0.02,-2.04,1005.98
16.531,0.49,1.73,0.10,3.64,3.14,1.36,0.86,0.02,-2.04,1005.98
16.532,0.94,1.97,0.00,3.64,3.14,1.36,0.86,0.02,-2.04,1005.98
16.532,1.18,1.71,-0.08,3.64,3.14,1.36,0.86,0.02,-2.04,1005.98
16.533,1.18,1.71,-0.08,3.64,3.14,1.36,1.11,1.44,-2.72,1005.98
16.533,1.18,1.71,-0.08,8.12,6.87,2.97,1.11,1.44,-2.72,1005.98
16.588,1.18,1.71,-0.08,8.12,6.87,2.97,1.11,1.44,-2.72,1005.99
16.59,0.26,1.14,-0.11,8.12,6.87,2.97,1.11,1.44,-2.72,1005.99
16.591,-0.89,1.12,-0.31,8.12,6.87,2.97,1.11,1.44,-2.72,1005.99
16.591,-1.37,1.36,-0.38,8.12,6.87,2.97,1.11,1.44,-2.72,1005.99
16.591,-1.37,1.36,-0.38,8.12,6.87,2.97,1.41,3.16,-4.27,1005.99
16.592,-1.37,1.36,-0.38,13.73,9.75,3.63,1.41,3.16,-4.27,1005.99
16.629,-1.37,1.36,-0.38,13.73,9.75,3.63,1.41,3.16,-4.27,1005.98
16.65,-1.16,1.08,-0.53,13.73,9.75,3.63,1.41,3.16,-4.27,1005.98
16.651,-0.90,0.63,-0.42,13.73,9.75,3.63,1.41,3.16,-4.27,1005.98
16.652,-0.70,0.48,-0.73,13.73,9.75,3.63,1.41,3.16,-4.27,1005.98
16.653,-0.70,0.48,-0.73,13.73,9.75,3.63,0.51,0.63,-1.66,1005.98
16.654,-0.70,0.48,-0.73,-4.77,6.26,0.66,0.51,0.63,-1.66,1005.98
16.707,-0.31,0.28,-0.50,-4.77,6.26,0.66,0.51,0.63,-1.66,1005.98
16.71,0.00,0.01,0.02,-4.77,6.26,0.66,0.51,0.63,-1.66,1005.98
16.711,0.15,-0.06,-0.08,-4.77,6.26,0.66,0.51,0.63,-1.66,1005.98
16.712,0.15,-0.06,-0.08,-4.77,6.26,0.66,-2.00,-0.46,1.90,1005.98
16.713,0.15,-0.06,-0.08,-0.40,-1.95,-1.58,-2.00,-0.46,1.90,1005.98
16.714,0.15,-0.06,-0.08,-0.40,-1.95,-1.58,-2.00,-0.46,1.90,1005.96
16.765,-0.01,0.18,-0.19,-0.40,-1.95,-1.58,-2.00,-0.46,1.90,1005.96
16.766,-0.20,0.44,-0.37,-0.40,-1.95,-1.58,-2.00,-0.46,1.90,1005.96
16.766,-0.16,0.57,-0.39,-0.40,-1.95,-1.58,-2.00,-0.46,1.90,1005.96
16.767,-0.16,0.57,-0.39,-0.40,-1.95,-1.58,-2.06,-0.62,3.70,1005.96
16.768,-0.16,0.57,-0.39,4.79,-7.46,1.89,-2.06,-0.62,3.70,1005.96
16.788,-0.16,0.57,-0.39,4.79,-7.46,1.89,-2.06,-0.62,3.70,1005.91
16.824,-0.05,0.65,-0.37,4.79,-7.46,1.89,-2.06,-0.62,3.70,1005.91
16.825,0.03,0.67,-0.28,4.79,-7.46,1.89,-2.06,-0.62,3.70,1005.91
16.825,-0.02,0.87,-0.26,4.79,-7.46,1.89,-2.06,-0.62,3.70,1005.91
16.826,-0.02,0.87,-0.26,4.79,-7.46,1.89,-2.42,0.98,5.48,1005.91
16.826,-0.02,0.87,-0.26,0.11,-3.66,-1.99,-2.42,0.98,5.48,1005.91
16.83,-0.02,0.87,-0.26,0.11,-3.66,-1.99,-2.42,0.98,5.48,1006.01
16.888,-0.15,1.22,-0.33,0.11,-3.66,-1.99,-2.42,0.98,5.48,1006.01
16.891,-0.37,1.71,-0.50,0.11,-3.66,-1.99,-2.42,0.98,5.48,1006.01
16.891,-0.76,2.16,-0.56,0.11,-3.66,-1.99,-2.42,0.98,5.48,1006.01
16.892,-0.76,2.16,-0.56,0.11,-3.66,-1.99,-2.76,1.09,5.68,1006.01
16.892,-0.76,2.16,-0.56,-2.11,-0.15,-2.61,-2.76,1.09,5.68,1006.01
16.909,-0.76,2.16,-0.56,-2.11,-0.15,-2.61,-2.76,1.09,5.68,1005.99
16.94,-0.91,1.80,-0.49,-2.11,-0.15,-2.61,-2.76,1.09,5.68,1005.99
16.941,-0.72,1.19,-0.06,-2.11,-0.15,-2.61,-2.76,1.09,5.68,1005.99
16.941,-0.45,1.09,-0.04,-2.11,-0.15,-2.61,-2.76,1.09,5.68,1005.99
16.942,-0.45,1.09,-0.04,-2.11,-0.15,-2.61,-2.61,-0.25,5.03,1005.99
16.942,-0.45,1.09,-0.04,-10.70,10.10,-5.99,-2.61,-0.25,5.03,1005.99
16.991,-0.45,1.09,-0.04,-10.70,10.10,-5.99,-2.61,-0.25,5.03,1005.90
16.999,-0.61,1.07,-0.32,-10.70,10.10,-5.99,-2.61,-0.25,5.03,1005.90
17.0,-0.83,0.76,-0.25,-10.70,10.10,-5.99,-2.61,-0.25,5.03,1005.90
17.0,-0.97,0.67,-0.19,-10.70,10.10,-5.99,-2.61,-0.25,5.03,1005.90
17.0,-0.97,0.67,-0.19,-9.90,2.60,-2.42,-2.61,-0.25,5.03,1005.90
17.001,-0.97,0.67,-0.19,-9.90,2.60,-2.42,-0.67,-0.63,0.36,1005.90
17.03,-0.97,0.67,-0.19,-9.90,2.60,-2.42,-0.67,-0.63,0.36,1005.89
17.058,-0.96,0.94,-0.36,-9.90,2.60,-2.42,-0.67,-0.63,0.36,1005.89
17.059,-0.49,1.58,-0.57,-9.90,2.60,-2.42,-0.67,-0.63,0.36,1005.89
17.06,1.55,1.63,0.45,-9.90,2.60,-2.42,-0.67,-0.63,0.36,1005.89
17.061,1.55,1.63,0.45,-9.90,2.60,-2.42,-0.13,-2.75,-2.05,1005.89
17.063,1.55,1.63,0.45,-12.01,-1.02,-3.08,-0.13,-2.75,-2.05,1005.89
17.109,1.55,1.63,0.45,-12.01,-1.02,-3.08,-0.13,-2.75,-2.05,1005.89
17.115,2.96,1.21,0.15,-12.01,-1.02,-3.08,-0.13,-2.75,-2.05,1005.89
17.115,0.31,1.55,-0.70,-12.01,-1.02,-3.08,-0.13,-2.75,-2.05,1005.89
17.115,-1.18,1.37,-0.76,-12.01,-1.02,-3.08,-0.13,-2.75,-2.05,1005.89
17.116,-1.18,1.37,-0.76,-12.01,-1.02,-3.08,0.01,-1.47,-1.93,1005.89
17.116,-1.18,1.37,-0.76,10.88,5.32,-0.15,0.01,-1.47,-1.93,1005.89
17.175,-0.74,0.70,0.26,10.88,5.32,-0.15,0.01,-1.47,-1.93,1005.89
17.178,-0.06,0.80,0.26,10.88,5.32,-0.15,0.01,-1.47,-1.93,1005.89
17.179,-0.07,1.04,0.16,10.88,5.32,-0.15,0.01,-1.47,-1.93,1005.89
17.18,-0.07,1.04,0.16,-6.25,2.45,-4.12,0.01,-1.47,-1.93,1005.89
17.181,-0.07,1.04,0.16,-6.25,2.45,-4.12,-0.02,0.09,-2.03,1005.89
17.189,-0.07,1.04,0.16,-6.25,2.45,-4.12,-0.02,0.09,-2.03,1005.96
17.231,-0.07,1.04,0.16,-6.25,2.45,-4.12,-0.02,0.09,-2.03,1005.97
17.232,-0.06,1.08,0.03,-6.25,2.45,-4.12,-0.02,0.09,-2.03,1005.97
17.232,0.07,1.08,0.01,-6.25,2.45,-4.12,-0.02,0.09,-2.03,1005.97
17.232,0.24,1.05,-0.04,-6.25,2.45,-4.12,-0.02,0.09,-2.03,1005.97
17.233,0.24,1.05,-0.04,-6.25,2.45,-4.12,0.20,-0.12,-1.17,1005.97
17.233,0.24,1.05,-0.04,-1.00,0.13,1.39,0.20,-0.12,-1.17,1005.97
17.291,-0.00,1.01,-0.06,-1.00,0.13,1.39,0.20,-0.12,-1.17,1005.97
17.292,-0.27,1.00,0.04,-1.00,0.13,1.39,0.20,-0.12,-1.17,1005.97
17.292,-0.16,0.99,0.04,-1.00,0.13,1.39,0.20,-0.12,-1.17,1005.97
17.293,-0.16,0.99,0.04,-1.00,0.13,1.39,0.17,-0.01,-1.11,1005.97
17.293,-0.16,0.99,0.04,1.21,0.82,-0.30,0.17,-0.01,-1.11,1005.97
17.309,-0.16,0.99,0.04,1.21,0.82,-0.30,0.17,-0.01,-1.11,1005.97
17.35,0.06,0.99,0.04,1.21,0.82,-0.30,0.17,-0.01,-1.11,1005.97
17.353,0.08,0.98,0.05,1.21,0.82,-0.30,0.17,-0.01,-1.11,1005.97
17.354,-0.02,0.96,0.04,1.21,0.82,-0.30,0.17,-0.01,-1.11,1005.97
17.355,-0.02,0.96,0.04,1.21,0.82,-0.30,0.18,0.01,-0.92,1005.97
17.356,-0.02,0.96,0.04,-0.45,0.34,0.46,0.18,0.01,-0.92,1005.97
17.39,-0.02,0.96,0.04,-0.45,0.34,0.46,0.18,0.01,-0.92,1005.97
17.409,-0.04,0.97,0.03,-0.45,0.34,0.46,0.18,0.01,-0.92,1005.97
17.41,-0.04,1.01,0.02,-0.45,0.34,0.46,0.18,0.01,-0.92,1005.97
17.41,-0.02,1.01,0.03,-0.45,0.34,0.46,0.18,0.01,-0.92,1005.97
17.411,-0.02,1.01,0.03,-0.45,0.34,0.46,0.27,0.19,-1.17,1005.97
17.411,-0.02,1.01,0.03,1.42,0.16,0.63,0.27,0.19,-1.17,1005.97
17.428,-0.02,1.01,0.03,1.42,0.16,0.63,0.27,0.19,-1.17,1005.96
17.465,-0.01,0.97,0.04,1.42,0.16,0.63,0.27,0.19,-1.17,1005.96
17.466,-0.11,0.96,-0.03,1.42,0.16,0.63,0.27,0.19,-1.17,1005.96
17.467,-0.17,0.98,-0.05,1.42,0.16,0.63,0.27,0.19,-1.17,1005.96
17.467,-0.17,0.98,-0.05,1.42,0.16,0.63,0.40,0.20,-1.50,1005.96
17.468,-0.17,0.98,-0.05,1.87,0.59,0.74,0.40,0.20,-1.50,1005.96
17.51,-0.17,0.98,-0.05,1.87,0.59,0.74,0.40,0.20,-1.50,1005.97
17.523,-0.23,0.98,-0.09,1.87,0.59,0.74,0.40,0.20,-1.50,1005.97
17.523,-0.28,1.03,-0.10,1.87,0.59,0.74,0.40,0.20,-1.50,1005.97
17.524,-0.23,1.06,-0.10,1.87,0.59,0.74,0.40,0.20,-1.50,1005.97
17.524,-0.23,1.06,-0.10,1.87,0.59,0.74,0.41,0.35,-1.65,1005.97
17.524,-0.23,1.06,-0.10,1.30,0.62,0.19,0.41,0.35,-1.65,1005.97
17.583,-0.18,1.08,-0.11,1.30,0.62,0.19,0.41,0.35,-1.65,1005.97
17.584,-0.10,1.15,-0.09,1.30,0.62,0.19,0.41,0.35,-1.65,1005.97
17.584,-0.04,1.20,-0.09,1.30,0.62,0.19,0.41,0.35,-1.65,1005.97
17.585,-0.04,1.20,-0.09,1.30,0.62,0.19,0.56,-0.10,-1.84,1005.97
17.585,-0.04,1.20,-0.09,1.65,1.80,-0.00,0.56,-0.10,-1.84,1005.97
17.59,-0.04,1.20,-0.09,1.65,1.80,-0.00,0.56,-0.10,-1.84,1005.98
17.629,-0.04,1.20,-0.09,1.65,1.80,-0.00,0.56,-0.10,-1.84,1005.98
17.64,0.00,1.24,-0.08,1.65,1.80,-0.00,0.56,-0.10,-1.84,1005.98
17.641,0.06,1.44,-0.08,1.65,1.80,-0.00,0.56,-0.10,-1.84,1005.98
17.641,0.34,1.80,-0.11,1.65,1.80,-0.00,0.56,-0.10,-1.84,1005.98
17.642,0.34,1.80,-0.11,1.65,1.80,-0.00,0.69,0.62,-2.41,1005.98
17.642,0.34,1.80,-0.11,4.49,3.76,0.61,0.69,0.62,-2.41,1005.98
17.698,0.96,1.98,-0.24,4.49,3.76,0.61,0.69,0.62,-2.41,1005.98
17.698,1.33,1.64,-0.39,4.49,3.76,0.61,0.69,0.62,-2.41,1005.98
17.699,0.28,0.92,-0.22,4.49,3.76,0.61,0.69,0.62,-2.41,1005.98
17.699,0.28,0.92,-0.22,4.49,3.76,0.61,0.89,2.63,-2.95,1005.98
17.7,0.28,0.92,-0.22,10.19,9.98,1.30,0.89,2.63,-2.95,1005.98
17.709,0.28,0.92,-0.22,10.19,9.98,1.30,0.89,2.63,-2.95,1005.98
17.757,-1.11,0.91,-0.30,10.19,9.98,1.30,0.89,2.63,-2.95,1005.98
17.758,-1.79,1.32,-0.42,10.19,9.98,1.30,0.89,2.63,-2.95,1005.98
17.758,-1.53,1.05,-0.37,10.19,9.98,1.30,0.89,2.63,-2.95,1005.98
17.759,-1.53,1.05,-0.37,10.19,9.98,1.30,1.64,2.10,-3.74,1005.98
17.759,-1.53,1.05,-0.37,8.17,5.82,1.04,1.64,2.10,-3.74,1005.98
17.789,-1.53,1.05,-0.37,8.17,5.82,1.04,1.64,2.10,-3.74,1005.95
17.816,-1.53,1.05,-0.37,-7.68,3.47,-0.07,1.64,2.10,-3.74,1005.95
17.817,-1.09,0.48,-0.31,-7.68,3.47,-0.07,1.64,2.10,-3.74,1005.95
17.817,-0.80,0.33,-0.34,-7.68,3.47,-0.07,1.64,2.10,-3.74,1005.95
17.818,-0.47,0.23,-0.04,-7.68,3.47,-0.07,1.64,2.10,-3.74,1005.95
17.818,-0.47,0.23,-0.04,-7.68,3.47,-0.07,-0.08,-1.26,0.68,1005.95
17.829,-0.47,0.23,-0.04,-7.68,3.47,-0.07,-0.08,-1.26,0.68,1005.93
17.879,-0.01,-0.14,0.42,-7.68,3.47,-0.07,-0.08,-1.26,0.68,1005.93
17.88,0.13,-0.22,0.17,-7.68,3.47,-0.07,-0.08,-1.26,0.68,1005.93
17.881,-0.02,0.05,-0.12,-7.68,3.47,-0.07,-0.08,-1.26,0.68,1005.93
17.881,-0.02,0.05,-0.12,-7.68,3.47,-0.07,-0.23,-1.45,3.61,1005.93
17.882,-0.02,0.05,-0.12,1.38,-5.72,2.98,-0.23,-1.45,3.61,1005.93
17.91,-0.02,0.05,-0.12,1.38,-5.72,2.98,-0.23,-1.45,3.61,1005.93
17.932,-0.21,0.31,-0.29,1.38,-5.72,2.98,-0.23,-1.45,3.61,1005.93
17.932,-0.32,0.44,-0.07,1.38,-5.72,2.98,-0.23,-1.45,3.61,1005.93
17.933,-0.54,0.60,-0.18,1.38,-5.72,2.98,-0.23,-1.45,3.61,1005.93
17.933,-0.54,0.60,-0.18,1.38,-5.72,2.98,0.59,-0.94,5.05,1005.93
17.934,-0.54,0.60,-0.18,3.08,-7.73,2.04,0.59,-0.94,5.05,1005.93
17.99,-0.54,0.60,-0.18,3.08,-7.73,2.04,0.59,-0.94,5.05,1006.03
17.991,-0.89,0.80,-0.39,3.08,-7.73,2.04,0.59,-0.94,5.05,1006.03
17.992,-1.07,0.89,-0.29,3.08,-7.73,2.04,0.59,-0.94,5.05,1006.03
17.992,-0.96,0.96,-0.31,3.08,-7.73,2.04,0.59,-0.94,5.05,1006.03
17.992,-0.96,0.96,-0.31,3.08,-7.73,2.04,1.02,-5.04,6.62,1006.03
17.993,-0.96,0.96,-0.31,-4.74,-2.80,0.59,1.02,-5.04,6.62,1006.03
18.033,-0.96,0.96,-0.31,-4.74,-2.80,0.59,1.02,-5.04,6.62,1005.98
18.048,-0.77,1.17,-0.46,-4.74,-2.80,0.59,1.02,-5.04,6.62,1005.98
18.048,-0.48,1.53,-0.39,-4.74,-2.80,0.59,1.02,-5.04,6.62,1005.98
18.049,-0.35,1.62,0.12,-4.74,-2.80,0.59,1.02,-5.04,6.62,1005.98
18.049,-0.35,1.62,0.12,-4.74,-2.80,0.59,2.01,-8.95,6.42,1005.98
18.05,-0.35,1.62,0.12,-9.65,1.39,0.29,2.01,-8.95,6.42,1005.98
18.106,-0.22,1.46,0.46,-9.65,1.39,0.29,2.01,-8.95,6.42,1005.98
18.107,0.02,1.12,0.68,-9.65,1.39,0.29,2.01,-8.95,6.42,1005.98
18.108,-0.26,0.74,0.33,-9.65,1.39,0.29,2.01,-8.95,6.42,1005.98
18.109,-0.26,0.74,0.33,-9.65,1.39,0.29,0.06,-5.49,2.60,1005.98
18.109,-0.26,0.74,0.33,-3.88,6.56,4.50,0.06,-5.49,2.60,1005.98
18.11,-0.26,0.74,0.33,-3.88,6.56,4.50,0.06,-5.49,2.60,1005.91
18.166,-1.53,1.68,-0.11,-3.88,6.56,4.50,0.06,-5.49,2.60,1005.91
18.166,-0.66,1.30,1.42,-3.88,6.56,4.50,0.06,-5.49,2.60,1005.91
18.167,0.58,0.94,-0.03,-3.88,6.56,4.50,0.06,-5.49,2.60,1005.91
18.167,0.58,0.94,-0.03,-5.74,2.82,6.35,0.06,-5.49,2.60,1005.91
18.168,0.58,0.94,-0.03,-5.74,2.82,6.35,-0.77,0.48,-0.98,1005.91
18.201,0.58,0.94,-0.03,-5.74,2.82,6.35,-0.77,0.48,-0.98,1005.91
18.224,0.32,1.38,-0.95,-5.74,2.82,6.35,-0.77,0.48,-0.98,1005.91
18.224,-0.35,1.36,-0.81,-5.74,2.82,6.35,-0.77,0.48,-0.98,1005.91
18.225,-0.41,1.09,-0.42,-5.74,2.82,6.35,-0.77,0.48,-0.98,1005.91
18.225,-0.41,1.09,-0.42,-5.74,2.82,6.35,-0.36,-0.81,-0.60,1005.91
18.225,-0.41,1.09,-0.42,1.31,3.04,4.54,-0.36,-0.81,-0.60,1005.91
18.229,-0.41,1.09,-0.42,1.31,3.04,4.54,-0.36,-0.81,-0.60,1005.96
18.284,-0.41,1.09,-0.42,-0.98,1.94,-2.68,-0.36,-0.81,-0.60,1005.96
18.285,0.22,0.88,-0.48,-0.98,1.94,-2.68,-0.36,-0.81,-0.60,1005.96
18.285,0.29,0.86,-0.15,-0.98,1.94,-2.68,-0.36,-0.81,-0.60,1005.96
18.285,-0.08,0.98,-0.00,-0.98,1.94,-2.68,-0.36,-0.81,-0.60,1005.96
18.285,-0.08,0.98,-0.00,-0.98,1.94,-2.68,-0.43,-1.36,0.01,1005.96
18.309,-0.08,0.98,-0.00,-0.98,1.94,-2.68,-0.43,-1.36,0.01,1005.95
18.341,-0.32,0.98,-0.13,-0.98,1.94,-2.68,-0.43,-1.36,0.01,1005.95
18.342,-0.21,0.98,-0.34,-0.98,1.94,-2.68,-0.43,-1.36,0.01,1005.95
18.342,-0.02,0.97,-0.37,-0.98,1.94,-2.68,-0.43,-1.36,0.01,1005.95
18.342,-0.02,0.97,-0.37,-0.98,1.94,-2.68,-0.09,-0.18,-0.13,1005.95
18.343,-0.02,0.97,-0.37,0.49,0.25,1.89,-0.09,-0.18,-0.13,1005.95
18.39,-0.02,0.97,-0.37,0.49,0.25,1.89,-0.09,-0.18,-0.13,1005.99
18.403,-0.07,0.97,-0.27,0.49,0.25,1.89,-0.09,-0.18,-0.13,1005.99
18.404,-0.17,1.00,-0.19,0.49,0.25,1.89,-0.09,-0.18,-0.13,1005.99
18.404,-0.17,0.96,-0.22,0.49,0.25,1.89,-0.09,-0.18,-0.13,1005.99
18.405,-0.17,0.96,-0.22,-0.07,0.59,-0.43,-0.09,-0.18,-0.13,1005.99
18.405,-0.17,0.96,-0.22,-0.07,0.59,-0.43,-0.01,-0.42,0.03,1005.99
18.429,-0.17,0.96,-0.22,-0.07,0.59,-0.43,-0.01,-0.42,0.03,1005.98
18.458,-0.15,0.90,-0.23,-0.07,0.59,-0.43,-0.01,-0.42,0.03,1005.98
18.458,-0.03,0.94,-0.19,-0.07,0.59,-0.43,-0.01,-0.42,0.03,1005.98
18.459,0.00,0.92,-0.23,-0.07,0.59,-0.43,-0.01,-0.42,0.03,1005.98
18.459,0.00,0.92,-0.23,-0.07,0.59,-0.43,0.16,-0.62,0.19,1005.98
18.46,0.00,0.92,-0.23,-0.70,0.41,0.73,0.16,-0.62,0.19,1005.98
18.51,0.00,0.92,-0.23,-0.70,0.41,0.73,0.16,-0.62,0.19,1005.96
18.516,-0.15,0.93,-0.26,-0.70,0.41,0.73,0.16,-0.62,0.19,1005.96
18.517,-0.22,0.97,-0.26,-0.70,0.41,0.73,0.16,-0.62,0.19,1005.96
18.517,-0.14,0.96,-0.24,-0.70,0.41,0.73,0.16,-0.62,0.19,1005.96
18.518,-0.14,0.96,-0.24,0.34,0.22,0.73,0.16,-0.62,0.19,1005.96
18.518,-0.14,0.96,-0.24,0.34,0.22,0.73,0.34,-0.48,0.11,1005.96
18.575,-0.10,0.93,-0.26,0.34,0.22,0.73,0.34,-0.48,0.11,1005.96
18.575,-0.17,0.92,-0.29,0.34,0.22,0.73,0.34,-0.48,0.11,1005.96
18.576,-0.21,0.94,-0.30,0.34,0.22,0.73,0.34,-0.48,0.11,1005.96
18.576,-0.21,0.94,-0.30,0.34,0.22,0.73,0.51,-0.59,0.26,1005.96
18.577,-0.21,0.94,-0.30,-0.58,0.48,0.69,0.51,-0.59,0.26,1005.96
18.59,-0.21,0.94,-0.30,-0.58,0.48,0.69,0.51,-0.59,0.26,1005.96
18.631,-0.21,0.94,-0.30,-0.58,0.48,0.69,0.51,-0.59,0.26,1005.96
18.633,-0.09,0.95,-0.29,-0.58,0.48,0.69,0.51,-0.59,0.26,1005.96
18.633,0.06,0.96,-0.30,-0.58,0.48,0.69,0.51,-0.59,0.26,1005.96
18.633,0.07,0.96,-0.30,-0.58,0.48,0.69,0.51,-0.59,0.26,1005.96
18.633,0.07,0.96,-0.30,-0.58,0.48,0.69,0.67,-0.44,0.39,1005.96
18.633,0.07,0.96,-0.30,-0.74,0.47,0.62,0.67,-0.44,0.39,1005.96
18.69,-0.00,1.00,-0.24,-0.74,0.47,0.62,0.67,-0.44,0.39,1005.96
18.691,0.05,1.04,-0.22,-0.74,0.47,0.62,0.67,-0.44,0.39,1005.96
18.691,0.14,1.14,-0.29,-0.74,0.47,0.62,0.67,-0.44,0.39,1005.96
18.692,0.14,1.14,-0.29,-0.74,0.47,0.62,1.13,-0.23,0.11,1005.96
