time,gFx,gFy,gFz,ax,ay,az,wx,wy,wz,P
0.026,-0.09,1.01,-0.03,0.05,-0.01,-0.02,-0.01,0.04,-0.01,1005.94
0.026,-0.08,1.00,-0.02,0.05,-0.01,-0.02,-0.01,0.04,-0.01,1005.94
0.027,-0.11,1.00,-0.00,0.05,-0.01,-0.02,-0.01,0.04,-0.01,1005.94
0.027,-0.11,1.00,-0.00,-0.13,0.02,0.12,-0.01,0.04,-0.01,1005.94
0.027,-0.11,1.00,-0.00,-0.13,0.02,0.12,0.01,-0.04,0.01,1005.94
0.062,-0.11,1.00,-0.00,-0.13,0.02,0.12,0.01,-0.04,0.01,1005.94
0.084,-0.11,1.00,-0.00,-0.13,0.02,0.12,0.01,-0.04,0.01,1005.94
0.085,-0.10,1.00,-0.01,-0.13,0.02,0.12,0.01,-0.04,0.01,1005.94
0.085,-0.10,0.99,-0.00,-0.13,0.02,0.12,0.01,-0.04,0.01,1005.94
0.085,-0.10,0.99,-0.00,-0.13,0.02,0.12,0.01,0.00,-0.00,1005.94
0.085,-0.10,0.99,-0.00,0.04,-0.02,0.06,0.01,0.00,-0.00,1005.94
0.1,-0.10,0.99,-0.00,0.04,-0.02,0.06,0.01,0.00,-0.00,1005.93
0.142,-0.10,0.99,0.01,0.04,-0.02,0.06,0.01,0.00,-0.00,1005.93
0.143,-0.11,1.00,0.00,0.04,-0.02,0.06,0.01,0.00,-0.00,1005.93
0.143,-0.09,1.00,-0.03,0.04,-0.02,0.06,0.01,0.00,-0.00,1005.93
0.143,-0.09,1.00,-0.03,0.04,-0.02,0.06,0.04,-0.02,0.01,1005.93
0.144,-0.09,1.00,-0.03,0.02,-0.05,0.14,0.04,-0.02,0.01,1005.93
0.18,-0.09,1.00,-0.03,0.02,-0.05,0.14,0.04,-0.02,0.01,1005.93
0.201,-0.08,0.98,-0.04,0.02,-0.05,0.14,0.04,-0.02,0.01,1005.93
0.202,-0.08,0.97,-0.03,0.02,-0.05,0.14,0.04,-0.02,0.01,1005.93
0.202,-0.10,0.96,-0.01,0.02,-0.05,0.14,0.04,-0.02,0.01,1005.93
0.202,-0.10,0.96,-0.01,0.02,-0.05,0.14,0.02,-0.03,0.01,1005.93
0.202,-0.10,0.96,-0.01,0.09,-0.06,-0.07,0.02,-0.03,0.01,1005.93
0.259,-0.12,0.98,0.01,0.09,-0.06,-0.07,0.02,-0.03,0.01,1005.93
0.26,-0.15,1.02,0.01,0.09,-0.06,-0.07,0.02,-0.03,0.01,1005.93
0.261,-0.15,1.03,0.01,0.09,-0.06,-0.07,0.02,-0.03,0.01,1005.93
0.261,-0.15,1.03,0.01,0.09,-0.06,-0.07,-0.00,-0.09,0.10,1005.93
0.261,-0.15,1.03,0.01,-0.03,-0.30,0.06,-0.00,-0.09,0.10,1005.93
0.262,-0.15,1.03,0.01,-0.03,-0.30,0.06,-0.00,-0.09,0.10,1005.93
0.3,-0.15,1.03,0.01,-0.03,-0.30,0.06,-0.00,-0.09,0.10,1005.93
0.318,-0.15,1.03,0.01,-0.43,0.26,0.26,-0.00,-0.09,0.10,1005.93
0.318,-0.10,1.02,0.01,-0.43,0.26,0.26,-0.00,-0.09,0.10,1005.93
0.318,-0.08,1.01,0.01,-0.43,0.26,0.26,-0.00,-0.09,0.10,1005.93
0.319,-0.06,0.98,0.03,-0.43,0.26,0.26,-0.00,-0.09,0.10,1005.93
0.319,-0.06,0.98,0.03,-0.43,0.26,0.26,0.12,-0.02,0.19,1005.93
0.376,-0.05,0.97,0.04,-0.43,0.26,0.26,0.12,-0.02,0.19,1005.93
0.377,-0.04,0.98,0.05,-0.43,0.26,0.26,0.12,-0.02,0.19,1005.93
0.377,-0.08,0.99,0.03,-0.43,0.26,0.26,0.12,-0.02,0.19,1005.93
0.377,-0.08,0.99,0.03,-0.43,0.26,0.26,0.32,0.21,0.21,1005.93
0.378,-0.08,0.99,0.03,0.11,-0.13,0.60,0.32,0.21,0.21,1005.93
0.381,-0.08,0.99,0.03,0.11,-0.13,0.60,0.32,0.21,0.21,1005.93
0.434,-0.15,1.00,0.01,0.11,-0.13,0.60,0.32,0.21,0.21,1005.93
0.435,-0.13,1.00,-0.04,0.11,-0.13,0.60,0.32,0.21,0.21,1005.93
0.435,-0.07,1.00,-0.14,0.11,-0.13,0.60,0.32,0.21,0.21,1005.93
0.436,-0.07,1.00,-0.14,0.11,-0.13,0.60,0.49,0.11,0.28,1005.93
0.436,-0.07,1.00,-0.14,-0.30,-0.09,0.90,0.49,0.11,0.28,1005.93
0.46,-0.07,1.00,-0.14,-0.30,-0.09,0.90,0.49,0.11,0.28,1005.94
0.494,-0.08,1.01,-0.12,-0.30,-0.09,0.90,0.49,0.11,0.28,1005.94
0.495,-0.08,1.00,-0.06,-0.30,-0.09,0.90,0.49,0.11,0.28,1005.94
0.495,-0.03,0.99,-0.06,-0.30,-0.09,0.90,0.49,0.11,0.28,1005.94
0.496,-0.03,0.99,-0.06,-0.30,-0.09,0.90,0.31,0.11,0.31,1005.94
0.496,-0.03,0.99,-0.06,-0.49,0.06,-0.22,0.31,0.11,0.31,1005.94
0.501,-0.03,0.99,-0.06,-0.49,0.06,-0.22,0.31,0.11,0.31,1005.94
0.552,0.03,1.02,-0.17,-0.49,0.06,-0.22,0.31,0.11,0.31,1005.94
0.554,-0.01,1.04,-0.13,-0.49,0.06,-0.22,0.31,0.11,0.31,1005.94
0.555,-0.02,1.01,-0.05,-0.49,0.06,-0.22,0.31,0.11,0.31,1005.94
0.556,-0.02,1.01,-0.05,-0.49,0.06,-0.22,0.28,0.13,0.27,1005.94
0.557,-0.02,1.01,-0.05,-0.01,0.07,-0.01,0.28,0.13,0.27,1005.94
0.588,-0.02,1.01,-0.05,-0.01,0.07,-0.01,0.28,0.13,0.27,1005.93
0.612,0.01,1.00,-0.10,-0.01,0.07,-0.01,0.28,0.13,0.27,1005.93
0.615,0.01,1.00,-0.10,-0.01,0.07,-0.01,0.28,0.13,0.27,1005.93
0.616,0.01,0.99,-0.08,-0.01,0.07,-0.01,0.28,0.13,0.27,1005.93
0.618,0.01,0.99,-0.08,-0.01,0.07,-0.01,0.29,0.01,0.16,1005.93
0.62,0.01,0.99,-0.08,0.09,0.21,0.17,0.29,0.01,0.16,1005.93
0.661,0.01,0.99,-0.08,0.09,0.21,0.17,0.29,0.01,0.16,1005.93
0.669,0.02,1.00,-0.11,0.09,0.21,0.17,0.29,0.01,0.16,1005.93
0.67,-0.01,1.01,-0.11,0.09,0.21,0.17,0.29,0.01,0.16,1005.93
0.672,-0.10,1.01,-0.03,0.09,0.21,0.17,0.29,0.01,0.16,1005.93
0.673,-0.10,1.01,-0.03,0.09,0.21,0.17,0.31,0.16,0.03,1005.93
0.674,-0.10,1.01,-0.03,0.25,0.03,0.31,0.31,0.16,0.03,1005.93
0.7,-0.10,1.01,-0.03,0.25,0.03,0.31,0.31,0.16,0.03,1005.93
0.727,-0.27,1.03,0.03,0.25,0.03,0.31,0.31,0.16,0.03,1005.93
0.73,-0.28,1.09,-0.10,0.25,0.03,0.31,0.31,0.16,0.03,1005.93
0.731,-0.10,1.23,-0.13,0.25,0.03,0.31,0.31,0.16,0.03,1005.93
0.732,-0.10,1.23,-0.13,0.25,0.03,0.31,0.49,0.08,0.03,1005.93
0.733,-0.10,1.23,-0.13,-1.08,0.21,1.10,0.49,0.08,0.03,1005.93
0.786,-0.10,1.23,-0.13,-1.08,0.21,1.10,0.49,0.08,0.03,1005.92
0.788,0.11,1.24,-0.33,-1.08,0.21,1.10,0.49,0.08,0.03,1005.92
0.789,0.02,1.24,-0.39,-1.08,0.21,1.10,0.49,0.08,0.03,1005.92
0.79,-0.23,1.34,-0.38,-1.08,0.21,1.10,0.49,0.08,0.03,1005.92
0.792,-0.23,1.34,-0.38,-1.08,0.21,1.10,0.49,-0.32,0.34,1005.92
0.793,-0.23,1.34,-0.38,-0.85,1.88,-0.07,0.49,-0.32,0.34,1005.92
0.843,-0.39,1.42,-0.36,-0.85,1.88,-0.07,0.49,-0.32,0.34,1005.92
0.846,-0.38,1.29,-0.23,-0.85,1.88,-0.07,0.49,-0.32,0.34,1005.92
0.847,-0.27,1.12,-0.27,-0.85,1.88,-0.07,0.49,-0.32,0.34,1005.92
0.848,-0.27,1.12,-0.27,-0.85,1.88,-0.07,0.31,-0.22,0.91,1005.92
0.849,-0.27,1.12,-0.27,-2.34,3.23,-1.64,0.31,-0.22,0.91,1005.92
0.861,-0.27,1.12,-0.27,-2.34,3.23,-1.64,0.31,-0.22,0.91,1005.91
0.9,-0.27,1.12,-0.27,-2.34,3.23,-1.64,0.31,-0.22,0.91,1005.90
0.902,-0.11,1.00,-0.37,-2.34,3.23,-1.64,0.31,-0.22,0.91,1005.90
0.903,-0.12,0.91,-0.32,-2.34,3.23,-1.64,0.31,-0.22,0.91,1005.90
0.903,-0.35,0.80,-0.27,-2.34,3.23,-1.64,0.31,-0.22,0.91,1005.90
0.904,-0.35,0.80,-0.27,-2.34,3.23,-1.64,0.15,-0.82,1.65,1005.90
0.904,-0.35,0.80,-0.27,-3.52,1.34,-0.67,0.15,-0.82,1.65,1005.90
0.96,-0.42,0.69,-0.28,-3.52,1.34,-0.67,0.15,-0.82,1.65,1005.90
0.963,-0.40,0.61,-0.16,-3.52,1.34,-0.67,0.15,-0.82,1.65,1005.90
0.964,-0.42,0.60,-0.17,-3.52,1.34,-0.67,0.15,-0.82,1.65,1005.90
0.965,-0.42,0.60,-0.17,-3.52,1.34,-0.67,-0.12,-1.77,0.94,1005.90
0.966,-0.42,0.60,-0.17,-4.15,-1.83,-0.59,-0.12,-1.77,0.94,1005.90
0.983,-0.42,0.60,-0.17,-4.15,-1.83,-0.59,-0.12,-1.77,0.94,1005.91
1.021,-0.42,0.60,-0.17,-4.64,-3.64,0.36,-0.12,-1.77,0.94,1005.91
1.023,-0.41,0.62,-0.19,-4.64,-3.64,0.36,-0.12,-1.77,0.94,1005.91
1.023,-0.39,0.61,-0.14,-4.64,-3.64,0.36,-0.12,-1.77,0.94,1005.91
1.024,-0.38,0.67,-0.12,-4.64,-3.64,0.36,-0.12,-1.77,0.94,1005.91
1.024,-0.38,0.67,-0.12,-4.64,-3.64,0.36,-0.54,-1.91,-0.33,1005.91
1.06,-0.38,0.67,-0.12,-4.64,-3.64,0.36,-0.54,-1.91,-0.33,1005.92
1.077,-0.37,0.77,-0.14,-4.64,-3.64,0.36,-0.54,-1.91,-0.33,1005.92
1.079,-0.32,0.80,-0.18,-4.64,-3.64,0.36,-0.54,-1.91,-0.33,1005.92
1.08,-0.24,0.81,-0.22,-4.64,-3.64,0.36,-0.54,-1.91,-0.33,1005.92
1.081,-0.24,0.81,-0.22,-4.64,-3.64,0.36,-1.01,-2.66,-1.30,1005.92
1.082,-0.24,0.81,-0.22,-3.20,-2.97,0.19,-1.01,-2.66,-1.30,1005.92
1.103,-0.24,0.81,-0.22,-3.20,-2.97,0.19,-1.01,-2.66,-1.30,1005.93
1.135,-0.15,0.86,-0.30,-3.20,-2.97,0.19,-1.01,-2.66,-1.30,1005.93
1.136,-0.05,0.97,-0.37,-3.20,-2.97,0.19,-1.01,-2.66,-1.30,1005.93
1.136,0.06,1.00,-0.41,-3.20,-2.97,0.19,-1.01,-2.66,-1.30,1005.93
1.137,0.06,1.00,-0.41,-3.20,-2.97,0.19,-1.10,-2.99,-1.54,1005.93
1.137,0.06,1.00,-0.41,-0.73,-1.52,-1.55,-1.10,-2.99,-1.54,1005.93
1.187,0.06,1.00,-0.41,-0.73,-1.52,-1.55,-1.10,-2.99,-1.54,1005.93
1.195,0.18,0.90,-0.43,-0.73,-1.52,-1.55,-1.10,-2.99,-1.54,1005.93
1.196,0.32,0.88,-0.38,-0.73,-1.52,-1.55,-1.10,-2.99,-1.54,1005.93
1.197,0.46,0.98,-0.26,-0.73,-1.52,-1.55,-1.10,-2.99,-1.54,1005.93
1.198,0.46,0.98,-0.26,-0.73,-1.52,-1.55,-0.99,-2.50,-1.01,1005.93
1.199,0.46,0.98,-0.26,2.75,-0.10,-3.90,-0.99,-2.50,-1.01,1005.93
1.251,0.70,1.04,-0.26,2.75,-0.10,-3.90,-0.99,-2.50,-1.01,1005.93
1.252,0.91,1.01,-0.42,2.75,-0.10,-3.90,-0.99,-2.50,-1.01,1005.93
1.253,1.02,1.13,-1.10,2.75,-0.10,-3.90,-0.99,-2.50,-1.01,1005.93
1.253,1.02,1.13,-1.10,2.75,-0.10,-3.90,-0.27,-1.43,0.84,1005.93
1.254,1.02,1.13,-1.10,6.27,-0.07,-3.14,-0.27,-1.43,0.84,1005.93
1.26,1.02,1.13,-1.10,6.27,-0.07,-3.14,-0.27,-1.43,0.84,1005.92
1.301,1.02,1.13,-1.10,6.27,-0.07,-3.14,-0.27,-1.43,0.84,1005.93
1.311,1.06,1.93,-0.66,6.27,-0.07,-3.14,-0.27,-1.43,0.84,1005.93
1.313,-1.02,1.68,1.18,6.27,-0.07,-3.14,-0.27,-1.43,0.84,1005.93
1.314,-1.63,0.81,0.13,6.27,-0.07,-3.14,-0.27,-1.43,0.84,1005.93
1.315,-1.63,0.81,0.13,6.27,-0.07,-3.14,-0.14,2.62,1.21,1005.93
1.316,-1.63,0.81,0.13,10.21,3.56,-7.02,-0.14,2.62,1.21,1005.93
1.368,0.01,0.86,-0.76,10.21,3.56,-7.02,-0.14,2.62,1.21,1005.93
1.371,0.70,1.21,-0.18,10.21,3.56,-7.02,-0.14,2.62,1.21,1005.93
1.372,0.37,1.01,-0.07,10.21,3.56,-7.02,-0.14,2.62,1.21,1005.93
1.373,0.37,1.01,-0.07,10.21,3.56,-7.02,0.25,-0.32,2.19,1005.93
1.374,0.37,1.01,-0.07,-9.12,1.19,2.02,0.25,-0.32,2.19,1005.93
1.382,0.37,1.01,-0.07,-9.12,1.19,2.02,0.25,-0.32,2.19,1005.91
1.427,0.39,1.03,-0.07,-9.12,1.19,2.02,0.25,-0.32,2.19,1005.91
1.429,0.54,1.01,-0.09,-9.12,1.19,2.02,0.25,-0.32,2.19,1005.91
1.43,0.31,1.03,-0.12,-9.12,1.19,2.02,0.25,-0.32,2.19,1005.91
1.432,0.31,1.03,-0.12,-9.12,1.19,2.02,0.15,-0.38,1.21,1005.91
1.433,0.31,1.03,-0.12,3.49,0.91,-0.68,0.15,-0.38,1.21,1005.91
1.46,0.31,1.03,-0.12,3.49,0.91,-0.68,0.15,-0.38,1.21,1005.92
1.485,0.15,1.05,-0.06,3.49,0.91,-0.68,0.15,-0.38,1.21,1005.92
1.487,0.09,0.98,-0.00,3.49,0.91,-0.68,0.15,-0.38,1.21,1005.92
1.488,0.04,1.03,0.04,3.49,0.91,-0.68,0.15,-0.38,1.21,1005.92
1.489,0.04,1.03,0.04,1.56,0.44,-0.43,0.15,-0.38,1.21,1005.92
1.49,0.04,1.03,0.04,1.56,0.44,-0.43,0.15,0.01,0.66,1005.92
1.506,0.04,1.03,0.04,1.56,0.44,-0.43,0.15,0.01,0.66,1005.93
1.544,0.13,1.04,0.02,1.56,0.44,-0.43,0.15,0.01,0.66,1005.93
1.546,0.40,0.96,-0.04,1.56,0.44,-0.43,0.15,0.01,0.66,1005.93
1.547,0.41,0.92,-0.05,1.56,0.44,-0.43,0.15,0.01,0.66,1005.93
1.548,0.41,0.92,-0.05,-1.27,0.38,0.84,0.15,0.01,0.66,1005.93
1.549,0.41,0.92,-0.05,-1.27,0.38,0.84,0.25,-0.70,0.80,1005.93
1.586,0.41,0.92,-0.05,-1.27,0.38,0.84,0.25,-0.70,0.80,1005.94
1.602,0.41,0.92,-0.05,0.83,-0.08,0.55,0.25,-0.70,0.80,1005.94
1.603,0.18,1.00,-0.01,0.83,-0.08,0.55,0.25,-0.70,0.80,1005.94
1.604,0.06,1.05,-0.01,0.83,-0.08,0.55,0.25,-0.70,0.80,1005.94
1.604,0.09,0.99,-0.02,0.83,-0.08,0.55,0.25,-0.70,0.80,1005.94
1.605,0.09,0.99,-0.02,0.83,-0.08,0.55,0.33,-0.25,0.56,1005.94
1.66,0.20,0.96,-0.04,0.83,-0.08,0.55,0.33,-0.25,0.56,1005.94
1.663,0.26,0.98,-0.07,0.83,-0.08,0.55,0.33,-0.25,0.56,1005.94
1.664,0.23,0.98,-0.09,0.83,-0.08,0.55,0.33,-0.25,0.56,1005.94
1.665,0.23,0.98,-0.09,0.83,-0.08,0.55,0.41,-0.71,0.84,1005.94
1.666,0.23,0.98,-0.09,-1.63,0.44,0.94,0.41,-0.71,0.84,1005.94
1.667,0.23,0.98,-0.09,-1.63,0.44,0.94,0.41,-0.71,0.84,1005.94
1.708,0.23,0.98,-0.09,-1.63,0.44,0.94,0.41,-0.71,0.84,1005.94
1.726,0.18,1.03,-0.10,-1.63,0.44,0.94,0.41,-0.71,0.84,1005.94
1.727,0.10,1.00,-0.10,-1.63,0.44,0.94,0.41,-0.71,0.84,1005.94
1.728,0.12,0.97,-0.15,-1.63,0.44,0.94,0.41,-0.71,0.84,1005.94
1.728,0.12,0.97,-0.15,-1.63,0.44,0.94,0.50,-0.80,1.04,1005.94
1.729,0.12,0.97,-0.15,-1.05,0.61,0.72,0.50,-0.80,1.04,1005.94
1.777,0.19,1.04,-0.20,-1.05,0.61,0.72,0.50,-0.80,1.04,1005.94
1.778,0.13,1.14,-0.18,-1.05,0.61,0.72,0.50,-0.80,1.04,1005.94
1.78,-0.07,1.23,-0.07,-1.05,0.61,0.72,0.50,-0.80,1.04,1005.94
1.792,-0.07,1.23,-0.07,-2.50,1.02,0.62,0.50,-0.80,1.04,1005.94
1.794,-0.07,1.23,-0.07,-2.50,1.02,0.62,0.79,-0.66,1.38,1005.94
1.795,-0.07,1.23,-0.07,-2.50,1.02,0.62,0.79,-0.66,1.38,1005.94
1.835,-0.07,1.23,-0.07,-5.23,3.84,2.26,0.79,-0.66,1.38,1005.94
1.837,-0.25,1.31,0.02,-5.23,3.84,2.26,0.79,-0.66,1.38,1005.94
1.837,-0.44,1.48,0.03,-5.23,3.84,2.26,0.79,-0.66,1.38,1005.94
1.838,-0.83,1.91,0.25,-5.23,3.84,2.26,0.79,-0.66,1.38,1005.94
1.838,-0.83,1.91,0.25,-5.23,3.84,2.26,1.49,-0.99,2.05,1005.94
1.861,-0.83,1.91,0.25,-5.23,3.84,2.26,1.49,-0.99,2.05,1005.93
1.893,-1.38,2.14,0.09,-5.23,3.84,2.26,1.49,-0.99,2.05,1005.93
1.895,-1.12,1.75,-0.04,-5.23,3.84,2.26,1.49,-0.99,2.05,1005.93
1.896,0.10,1.38,-0.43,-5.23,3.84,2.26,1.49,-0.99,2.05,1005.93
1.897,0.10,1.38,-0.43,-5.23,3.84,2.26,1.87,-2.68,3.16,1005.93
1.898,0.10,1.38,-0.43,-13.74,11.00,5.73,1.87,-2.68,3.16,1005.93
1.905,0.10,1.38,-0.43,-13.74,11.00,5.73,1.87,-2.68,3.16,1005.94
1.951,1.24,1.47,-0.62,-13.74,11.00,5.73,1.87,-2.68,3.16,1005.94
1.953,1.42,1.37,-0.55,-13.74,11.00,5.73,1.87,-2.68,3.16,1005.94
1.953,0.68,0.90,-0.63,-13.74,11.00,5.73,1.87,-2.68,3.16,1005.94
1.954,0.68,0.90,-0.63,-13.74,11.00,5.73,1.96,-2.03,3.50,1005.94
1.954,0.68,0.90,-0.63,-4.88,9.43,2.21,1.96,-2.03,3.50,1005.94
2.0,0.68,0.90,-0.63,-4.88,9.43,2.21,1.96,-2.03,3.50,1005.95
2.01,0.56,0.53,-0.93,-4.88,9.43,2.21,1.96,-2.03,3.50,1005.95
2.011,0.55,0.40,-0.81,-4.88,9.43,2.21,1.96,-2.03,3.50,1005.95
2.012,0.33,0.24,-0.42,-4.88,9.43,2.21,1.96,-2.03,3.50,1005.95
2.013,0.33,0.24,-0.42,-4.88,9.43,2.21,-0.98,-0.43,0.61,1005.95
2.013,0.33,0.24,-0.42,2.98,3.31,-1.23,-0.98,-0.43,0.61,1005.95
2.061,0.33,0.24,-0.42,2.98,3.31,-1.23,-0.98,-0.43,0.61,1005.88
2.068,-0.03,0.00,0.06,2.98,3.31,-1.23,-0.98,-0.43,0.61,1005.88
2.069,-0.02,-0.13,0.02,2.98,3.31,-1.23,-0.98,-0.43,0.61,1005.88
2.069,0.17,0.08,-0.40,2.98,3.31,-1.23,-0.98,-0.43,0.61,1005.88
2.07,0.17,0.08,-0.40,2.98,3.31,-1.23,-3.02,0.46,-2.20,1005.88
2.07,0.17,0.08,-0.40,-2.17,-5.16,0.52,-3.02,0.46,-2.20,1005.88
2.104,0.17,0.08,-0.40,-2.17,-5.16,0.52,-3.02,0.46,-2.20,1005.93
2.126,0.15,0.29,-0.58,-2.17,-5.16,0.52,-3.02,0.46,-2.20,1005.93
2.128,-0.03,0.32,-0.28,-2.17,-5.16,0.52,-3.02,0.46,-2.20,1005.93
2.128,-0.14,0.40,-0.06,-2.17,-5.16,0.52,-3.02,0.46,-2.20,1005.93
2.128,-0.14,0.40,-0.06,-2.17,-5.16,0.52,-3.78,0.01,-4.08,1005.93
2.129,-0.14,0.40,-0.06,-1.97,-8.03,-0.59,-3.78,0.01,-4.08,1005.93
2.18,-0.14,0.40,-0.06,-1.97,-8.03,-0.59,-3.78,0.01,-4.08,1005.97
2.185,-0.20,0.61,-0.16,-1.97,-8.03,-0.59,-3.78,0.01,-4.08,1005.97
2.186,-0.29,0.97,-0.56,-1.97,-8.03,-0.59,-3.78,0.01,-4.08,1005.97
2.187,0.08,1.41,-0.97,-1.97,-8.03,-0.59,-3.78,0.01,-4.08,1005.97
2.188,0.08,1.41,-0.97,-1.97,-8.03,-0.59,-3.77,-2.36,-5.05,1005.97
2.189,0.08,1.41,-0.97,-1.16,-5.12,-0.95,-3.77,-2.36,-5.05,1005.97
2.243,0.84,1.62,-1.07,-1.16,-5.12,-0.95,-3.77,-2.36,-5.05,1005.97
2.245,1.31,1.54,-1.00,-1.16,-5.12,-0.95,-3.77,-2.36,-5.05,1005.97
2.246,1.37,1.39,-0.89,-1.16,-5.12,-0.95,-3.77,-2.36,-5.05,1005.97
2.247,1.37,1.39,-0.89,4.32,3.91,-9.82,-3.77,-2.36,-5.05,1005.97
2.249,1.37,1.39,-0.89,4.32,3.91,-9.82,-4.04,-0.42,-4.24,1005.97
2.262,1.37,1.39,-0.89,4.32,3.91,-9.82,-4.04,-0.42,-4.24,1005.95
2.305,1.37,1.39,-0.89,4.32,3.91,-9.82,-4.04,-0.42,-4.24,1005.89
2.306,1.16,1.15,-0.51,4.32,3.91,-9.82,-4.04,-0.42,-4.24,1005.89
2.306,0.74,0.99,-0.33,4.32,3.91,-9.82,-4.04,-0.42,-4.24,1005.89
2.307,0.52,0.90,-0.24,4.32,3.91,-9.82,-4.04,-0.42,-4.24,1005.89
2.307,0.52,0.90,-0.24,4.32,3.91,-9.82,-1.88,2.31,-1.99,1005.89
2.308,0.52,0.90,-0.24,15.77,4.60,-9.49,-1.88,2.31,-1.99,1005.89
2.36,0.52,0.86,-0.27,15.77,4.60,-9.49,-1.88,2.31,-1.99,1005.89
2.362,0.56,1.03,-0.90,15.77,4.60,-9.49,-1.88,2.31,-1.99,1005.89
2.363,-0.42,1.71,-0.21,15.77,4.60,-9.49,-1.88,2.31,-1.99,1005.89
2.364,-0.42,1.71,-0.21,15.77,4.60,-9.49,0.55,1.86,1.91,1005.89
2.365,-0.42,1.71,-0.21,8.06,-0.12,-3.72,0.55,1.86,1.91,1005.89
2.386,-0.42,1.71,-0.21,8.06,-0.12,-3.72,0.55,1.86,1.91,1005.89
2.418,-1.83,2.11,0.93,8.06,-0.12,-3.72,0.55,1.86,1.91,1005.89
2.419,-0.62,1.66,-0.60,8.06,-0.12,-3.72,0.55,1.86,1.91,1005.89
2.419,0.44,0.91,-1.37,8.06,-0.12,-3.72,0.55,1.86,1.91,1005.89
2.42,0.44,0.91,-1.37,8.06,-0.12,-3.72,1.27,2.19,1.53,1005.89
2.42,0.44,0.91,-1.37,-3.97,6.40,-0.64,1.27,2.19,1.53,1005.89
2.462,0.44,0.91,-1.37,-3.97,6.40,-0.64,1.27,2.19,1.53,1005.89
2.477,0.51,0.71,0.30,-3.97,6.40,-0.64,1.27,2.19,1.53,1005.89
2.479,0.10,0.76,0.11,-3.97,6.40,-0.64,1.27,2.19,1.53,1005.89
2.48,0.23,1.02,0.05,-3.97,6.40,-0.64,1.27,2.19,1.53,1005.89
2.481,0.23,1.02,0.05,-3.97,6.40,-0.64,0.45,-0.18,2.02,1005.89
2.481,0.23,1.02,0.05,1.49,1.12,-5.15,0.45,-0.18,2.02,1005.89
2.506,0.23,1.02,0.05,1.49,1.12,-5.15,0.45,-0.18,2.02,1005.96
2.536,0.43,1.14,-0.27,1.49,1.12,-5.15,0.45,-0.18,2.02,1005.96
2.538,0.40,1.02,-0.22,1.49,1.12,-5.15,0.45,-0.18,2.02,1005.96
2.539,0.03,1.06,-0.15,1.49,1.12,-5.15,0.45,-0.18,2.02,1005.96
2.539,0.03,1.06,-0.15,1.49,1.12,-5.15,0.34,-0.33,1.05,1005.96
2.54,0.03,1.06,-0.15,2.27,-0.04,0.12,0.34,-0.33,1.05,1005.96
2.582,0.03,1.06,-0.15,2.27,-0.04,0.12,0.34,-0.33,1.05,1005.97
2.594,-0.19,1.05,-0.03,2.27,-0.04,0.12,0.34,-0.33,1.05,1005.97
2.595,-0.07,0.98,0.08,2.27,-0.04,0.12,0.34,-0.33,1.05,1005.97
2.595,0.08,0.99,0.09,2.27,-0.04,0.12,0.34,-0.33,1.05,1005.97
2.596,0.08,0.99,0.09,2.27,-0.04,0.12,0.29,0.06,0.77,1005.97
2.596,0.08,0.99,0.09,0.13,0.67,-0.64,0.29,0.06,0.77,1005.97
2.652,0.08,0.99,0.09,-0.84,0.16,1.55,0.29,0.06,0.77,1005.97
2.653,0.09,0.98,0.03,-0.84,0.16,1.55,0.29,0.06,0.77,1005.97
2.654,0.09,0.94,0.01,-0.84,0.16,1.55,0.29,0.06,0.77,1005.97
2.654,0.12,0.97,-0.03,-0.84,0.16,1.55,0.29,0.06,0.77,1005.97
2.655,0.12,0.97,-0.03,-0.84,0.16,1.55,0.48,-0.24,0.97,1005.97
2.66,0.12,0.97,-0.03,-0.84,0.16,1.55,0.48,-0.24,0.97,1005.94
2.71,0.12,0.97,-0.03,-0.84,0.16,1.55,0.48,-0.24,0.97,1005.95
2.713,0.09,1.01,-0.03,-0.84,0.16,1.55,0.48,-0.24,0.97,1005.95
2.714,0.07,1.00,-0.01,-0.84,0.16,1.55,0.48,-0.24,0.97,1005.95
2.716,0.13,0.97,-0.07,-0.84,0.16,1.55,0.48,-0.24,0.97,1005.95
2.717,0.13,0.97,-0.07,-0.84,0.16,1.55,0.69,-0.31,1.07,1005.95
2.72,0.13,0.97,-0.07,-0.76,0.19,1.12,0.69,-0.31,1.07,1005.95
2.768,0.24,0.96,-0.15,-0.76,0.19,1.12,0.69,-0.31,1.07,1005.95
2.769,0.28,0.98,-0.18,-0.76,0.19,1.12,0.69,-0.31,1.07,1005.95
2.77,0.22,0.99,-0.18,-0.76,0.19,1.12,0.69,-0.31,1.07,1005.95
2.771,0.22,0.99,-0.18,-0.76,0.19,1.12,0.80,-0.33,1.17,1005.95
2.771,0.22,0.99,-0.18,-0.88,0.40,0.95,0.80,-0.33,1.17,1005.95
2.782,0.22,0.99,-0.18,-0.88,0.40,0.95,0.80,-0.33,1.17,1005.95
2.826,0.14,1.00,-0.21,-0.88,0.40,0.95,0.80,-0.33,1.17,1005.95
2.826,0.15,1.03,-0.27,-0.88,0.40,0.95,0.80,-0.33,1.17,1005.95
2.827,0.18,1.07,-0.27,-0.88,0.40,0.95,0.80,-0.33,1.17,1005.95
2.827,0.18,1.07,-0.27,-0.88,0.40,0.95,0.80,-0.40,1.20,1005.95
2.827,0.18,1.07,-0.27,-0.76,0.80,0.38,0.80,-0.40,1.20,1005.95
2.863,0.18,1.07,-0.27,-0.76,0.80,0.38,0.80,-0.40,1.20,1005.94
2.885,0.14,1.13,-0.22,-0.76,0.80,0.38,0.80,-0.40,1.20,1005.94
2.887,0.05,1.22,-0.14,-0.76,0.80,0.38,0.80,-0.40,1.20,1005.94
2.888,-0.05,1.26,-0.08,-0.76,0.80,0.38,0.80,-0.40,1.20,1005.94
2.889,-0.05,1.26,-0.08,-0.76,0.80,0.38,1.19,0.03,1.35,1005.94
2.89,-0.05,1.26,-0.08,-2.01,2.05,0.33,1.19,0.03,1.35,1005.94
2.902,-0.05,1.26,-0.08,-2.01,2.05,0.33,1.19,0.03,1.35,1005.94
2.944,-0.19,1.34,-0.01,-2.01,2.05,0.33,1.19,0.03,1.35,1005.94
2.944,-0.53,1.65,0.13,-2.01,2.05,0.33,1.19,0.03,1.35,1005.94
2.945,-0.97,2.03,0.14,-2.01,2.05,0.33,1.19,0.03,1.35,1005.94
2.945,-0.97,2.03,0.14,-4.82,4.64,2.98,1.19,0.03,1.35,1005.94
2.945,-0.97,2.03,0.14,-4.82,4.64,2.98,1.79,-0.62,1.83,1005.94
2.982,-0.97,2.03,0.14,-4.82,4.64,2.98,1.79,-0.62,1.83,1005.94
3.003,-1.19,1.96,0.11,-4.82,4.64,2.98,1.79,-0.62,1.83,1005.94
3.004,-0.46,1.41,-0.00,-4.82,4.64,2.98,1.79,-0.62,1.83,1005.94
3.005,0.63,1.33,-0.53,-4.82,4.64,2.98,1.79,-0.62,1.83,1005.94
3.007,0.63,1.33,-0.53,-4.82,4.64,2.98,2.01,-2.05,2.96,1005.94
3.008,0.63,1.33,-0.53,-13.46,11.70,6.30,2.01,-2.05,2.96,1005.94
3.061,1.34,1.37,-0.45,-13.46,11.70,6.30,2.01,-2.05,2.96,1005.94
3.063,1.06,1.10,-0.41,-13.46,11.70,6.30,2.01,-2.05,2.96,1005.94
3.064,0.62,0.69,-0.60,-13.46,11.70,6.30,2.01,-2.05,2.96,1005.94
3.065,0.62,0.69,-0.60,-0.28,7.88,2.73,2.01,-2.05,2.96,1005.94
3.066,0.62,0.69,-0.60,-0.28,7.88,2.73,1.90,-0.92,2.41,1005.94
3.067,0.62,0.69,-0.60,-0.28,7.88,2.73,1.90,-0.92,2.41,1005.94
3.109,0.62,0.69,-0.60,-0.28,7.88,2.73,1.90,-0.92,2.41,1005.92
3.129,0.53,0.57,-0.73,-0.28,7.88,2.73,1.90,-0.92,2.41,1005.92
3.13,0.39,0.41,-0.56,-0.28,7.88,2.73,1.90,-0.92,2.41,1005.92
3.131,0.14,0.16,0.08,-0.28,7.88,2.73,1.90,-0.92,2.41,1005.92
3.132,0.14,0.16,0.08,-0.28,7.88,2.73,-0.99,0.14,-0.37,1005.92
3.133,0.14,0.16,0.08,2.06,1.71,-0.15,-0.99,0.14,-0.37,1005.92
3.177,0.15,0.01,0.18,2.06,1.71,-0.15,-0.99,0.14,-0.37,1005.92
3.178,0.14,0.07,-0.17,2.06,1.71,-0.15,-0.99,0.14,-0.37,1005.92
3.178,-0.01,0.28,-0.28,2.06,1.71,-0.15,-0.99,0.14,-0.37,1005.92
3.178,-0.01,0.28,-0.28,2.06,1.71,-0.15,-2.53,0.21,-2.56,1005.92
3.179,-0.01,0.28,-0.28,-1.97,-5.44,3.44,-2.53,0.21,-2.56,1005.92
3.181,-0.01,0.28,-0.28,-1.97,-5.44,3.44,-2.53,0.21,-2.56,1005.89
3.235,0.06,0.40,-0.22,-1.97,-5.44,3.44,-2.53,0.21,-2.56,1005.89
3.237,0.11,0.53,-0.26,-1.97,-5.44,3.44,-2.53,0.21,-2.56,1005.89
3.239,0.04,0.63,-0.22,-1.97,-5.44,3.44,-2.53,0.21,-2.56,1005.89
3.24,0.04,0.63,-0.22,-1.97,-5.44,3.44,-3.81,-1.20,-3.94,1005.89
3.249,0.04,0.63,-0.22,-1.44,-6.33,0.64,-3.81,-1.20,-3.94,1005.89
3.262,0.04,0.63,-0.22,-1.44,-6.33,0.64,-3.81,-1.20,-3.94,1005.97
3.292,-0.04,0.81,-0.36,-1.44,-6.33,0.64,-3.81,-1.20,-3.94,1005.97
3.293,0.14,1.20,-0.61,-1.44,-6.33,0.64,-3.81,-1.20,-3.94,1005.97
3.294,0.51,1.71,-0.81,-1.44,-6.33,0.64,-3.81,-1.20,-3.94,1005.97
3.294,0.51,1.71,-0.81,-1.44,-6.33,0.64,-4.65,-1.99,-4.37,1005.97
3.294,0.51,1.71,-0.81,0.85,-2.95,-2.31,-4.65,-1.99,-4.37,1005.97
3.306,0.51,1.71,-0.81,0.85,-2.95,-2.31,-4.65,-1.99,-4.37,1005.96
3.353,0.75,1.73,-0.96,0.85,-2.95,-2.31,-4.65,-1.99,-4.37,1005.96
3.354,0.94,1.52,-1.03,0.85,-2.95,-2.31,-4.65,-1.99,-4.37,1005.96
3.355,1.05,1.33,-0.75,0.85,-2.95,-2.31,-4.65,-1.99,-4.37,1005.96
3.356,1.05,1.33,-0.75,0.85,-2.95,-2.31,-4.46,-0.13,-3.73,1005.96
3.357,1.05,1.33,-0.75,6.97,6.20,-9.55,-4.46,-0.13,-3.73,1005.96
3.383,1.05,1.33,-0.75,6.97,6.20,-9.55,-4.46,-0.13,-3.73,1005.92
3.412,0.96,1.06,-0.65,6.97,6.20,-9.55,-4.46,-0.13,-3.73,1005.92
3.414,1.00,0.84,-0.83,6.97,6.20,-9.55,-4.46,-0.13,-3.73,1005.92
3.415,0.88,0.77,-0.70,6.97,6.20,-9.55,-4.46,-0.13,-3.73,1005.92
3.416,0.88,0.77,-0.70,12.58,4.04,-9.98,-4.46,-0.13,-3.73,1005.92
3.418,0.88,0.77,-0.70,12.58,4.04,-9.98,-1.52,2.01,-0.94,1005.92
3.461,0.88,0.77,-0.70,12.58,4.04,-9.98,-1.52,2.01,-0.94,1005.87
3.472,0.64,0.95,-0.84,12.58,4.04,-9.98,-1.52,2.01,-0.94,1005.87
3.476,-0.22,1.41,-0.50,12.58,4.04,-9.98,-1.52,2.01,-0.94,1005.87
3.477,-2.14,1.73,0.93,12.58,4.04,-9.98,-1.52,2.01,-0.94,1005.87
3.478,-2.14,1.73,0.93,10.97,-0.44,-8.87,-1.52,2.01,-0.94,1005.87
3.48,-2.14,1.73,0.93,10.97,-0.44,-8.87,0.21,3.75,0.66,1005.87
3.51,-2.14,1.73,0.93,10.97,-0.44,-8.87,0.21,3.75,0.66,1005.88
3.527,-1.84,2.06,-0.79,10.97,-0.44,-8.87,0.21,3.75,0.66,1005.88
3.528,0.19,1.39,-0.45,10.97,-0.44,-8.87,0.21,3.75,0.66,1005.88
3.528,0.22,0.60,0.06,10.97,-0.44,-8.87,0.21,3.75,0.66,1005.88
3.529,0.22,0.60,0.06,10.97,-0.44,-8.87,1.30,1.51,1.70,1005.88
3.529,0.22,0.60,0.06,-11.58,7.73,-1.40,1.30,1.51,1.70,1005.88
3.582,0.22,0.60,0.06,-11.58,7.73,-1.40,1.30,1.51,1.70,1005.89
3.586,0.03,0.59,0.12,-11.58,7.73,-1.40,1.30,1.51,1.70,1005.89
3.587,0.29,0.96,-0.00,-11.58,7.73,-1.40,1.30,1.51,1.70,1005.89
3.587,0.41,1.12,-0.16,-11.58,7.73,-1.40,1.30,1.51,1.70,1005.89
3.587,0.41,1.12,-0.16,-11.58,7.73,-1.40,0.71,-0.38,1.78,1005.89
3.588,0.41,1.12,-0.16,2.56,-0.93,-0.72,0.71,-0.38,1.78,1005.89
3.643,0.21,1.02,-0.09,2.56,-0.93,-0.72,0.71,-0.38,1.78,1005.89
3.644,-0.17,0.97,-0.07,2.56,-0.93,-0.72,0.71,-0.38,1.78,1005.89
3.645,-0.17,1.03,-0.01,2.56,-0.93,-0.72,0.71,-0.38,1.78,1005.89
3.645,-0.17,1.03,-0.01,2.56,-0.93,-0.72,0.40,0.31,0.88,1005.89
3.646,-0.17,1.03,-0.01,3.56,0.70,-0.43,0.40,0.31,0.88,1005.89
3.661,-0.17,1.03,-0.01,3.56,0.70,-0.43,0.40,0.31,0.88,1005.94
3.711,0.02,1.02,0.05,3.56,0.70,-0.43,0.40,0.31,0.88,1005.94
3.713,0.09,0.92,0.04,3.56,0.70,-0.43,0.40,0.31,0.88,1005.94
3.714,0.07,0.97,0.02,3.56,0.70,-0.43,0.40,0.31,0.88,1005.94
3.715,0.07,0.97,0.02,3.56,0.70,-0.43,0.42,0.04,0.87,1005.94
3.716,0.07,0.97,0.02,3.56,0.70,-0.43,0.42,0.04,0.87,1005.93
3.717,0.07,0.97,0.02,-0.92,0.41,0.52,0.42,0.04,0.87,1005.93
3.76,0.06,1.03,-0.03,-0.92,0.41,0.52,0.42,0.04,0.87,1005.93
3.763,0.09,1.00,-0.02,-0.92,0.41,0.52,0.42,0.04,0.87,1005.93
3.764,0.06,0.98,-0.07,-0.92,0.41,0.52,0.42,0.04,0.87,1005.93
3.765,0.06,0.98,-0.07,-0.92,0.41,0.52,0.52,-0.08,0.66,1005.93
3.766,0.06,0.98,-0.07,0.50,0.09,0.98,0.52,-0.08,0.66,1005.93
3.783,0.06,0.98,-0.07,0.50,0.09,0.98,0.52,-0.08,0.66,1005.93
3.825,0.06,0.98,-0.07,0.17,0.31,0.63,0.52,-0.08,0.66,1005.93
3.827,0.06,0.99,-0.09,0.17,0.31,0.63,0.52,-0.08,0.66,1005.93
3.827,0.09,0.99,-0.06,0.17,0.31,0.63,0.52,-0.08,0.66,1005.93
3.827,0.04,0.99,-0.07,0.17,0.31,0.63,0.52,-0.08,0.66,1005.93
3.828,0.04,0.99,-0.07,0.17,0.31,0.63,0.59,0.01,0.53,1005.93
3.861,0.04,0.99,-0.07,0.17,0.31,0.63,0.59,0.01,0.53,1005.94
3.877,0.04,0.99,-0.07,-0.58,0.40,0.83,0.59,0.01,0.53,1005.94
3.879,-0.06,1.00,-0.10,-0.58,0.40,0.83,0.59,0.01,0.53,1005.94
3.88,-0.01,0.97,-0.17,-0.58,0.40,0.83,0.59,0.01,0.53,1005.94
3.882,0.05,0.98,-0.18,-0.58,0.40,0.83,0.59,0.01,0.53,1005.94
3.883,0.05,0.98,-0.18,-0.58,0.40,0.83,0.65,-0.37,0.65,1005.94
3.91,0.05,0.98,-0.18,-0.58,0.40,0.83,0.65,-0.37,0.65,1005.94
3.938,0.05,1.00,-0.08,-0.58,0.40,0.83,0.65,-0.37,0.65,1005.94
3.94,0.04,1.01,-0.00,-0.58,0.40,0.83,0.65,-0.37,0.65,1005.94
3.941,-0.04,1.07,0.02,-0.58,0.40,0.83,0.65,-0.37,0.65,1005.94
3.941,-0.04,1.07,0.02,-0.58,0.40,0.83,0.71,-0.77,0.93,1005.94
3.942,-0.04,1.07,0.02,-0.96,0.43,0.57,0.71,-0.77,0.93,1005.94
3.981,-0.04,1.07,0.02,-0.96,0.43,0.57,0.71,-0.77,0.93,1005.94
3.994,-0.04,1.07,0.02,-2.29,1.78,2.97,0.71,-0.77,0.93,1005.94
3.995,-0.13,1.22,0.13,-2.29,1.78,2.97,0.71,-0.77,0.93,1005.94
3.996,-0.17,1.34,0.10,-2.29,1.78,2.97,0.71,-0.77,0.93,1005.94
3.997,-0.27,1.54,0.18,-2.29,1.78,2.97,0.71,-0.77,0.93,1005.94
3.998,-0.27,1.54,0.18,-2.29,1.78,2.97,0.81,-1.53,1.67,1005.94
4.051,-0.40,1.77,0.02,-2.29,1.78,2.97,0.81,-1.53,1.67,1005.94
4.053,-0.22,1.78,-0.19,-2.29,1.78,2.97,0.81,-1.53,1.67,1005.94
4.053,0.05,1.31,-0.31,-2.29,1.78,2.97,0.81,-1.53,1.67,1005.94
4.054,0.05,1.31,-0.31,-2.29,1.78,2.97,0.14,-3.93,3.31,1005.94
4.054,0.05,1.31,-0.31,-5.58,6.61,4.05,0.14,-3.93,3.31,1005.94
4.061,0.05,1.31,-0.31,-5.58,6.61,4.05,0.14,-3.93,3.31,1005.95
4.101,0.05,1.31,-0.31,-5.58,6.61,4.05,0.14,-3.93,3.31,1005.95
4.109,0.22,0.91,-0.51,-5.58,6.61,4.05,0.14,-3.93,3.31,1005.95
4.11,0.18,0.65,-0.73,-5.58,6.61,4.05,0.14,-3.93,3.31,1005.95
4.111,0.01,0.41,-0.85,-5.58,6.61,4.05,0.14,-3.93,3.31,1005.95
4.113,0.01,0.41,-0.85,-5.58,6.61,4.05,-1.93,-5.91,3.62,1005.95
4.114,0.01,0.41,-0.85,-3.26,4.70,-0.05,-1.93,-5.91,3.62,1005.95
4.168,-0.24,0.28,-1.01,-3.26,4.70,-0.05,-1.93,-5.91,3.62,1005.95
4.169,-0.44,0.36,-1.34,-3.26,4.70,-0.05,-1.93,-5.91,3.62,1005.95
4.169,-0.40,0.40,-1.31,-3.26,4.70,-0.05,-1.93,-5.91,3.62,1005.95
4.17,-0.40,0.40,-1.31,-3.26,4.70,-0.05,-3.18,-5.81,2.62,1005.95
4.17,-0.40,0.40,-1.31,-3.76,-3.95,-5.47,-3.18,-5.81,2.62,1005.95
4.181,-0.40,0.40,-1.31,-3.76,-3.95,-5.47,-3.18,-5.81,2.62,1005.93
4.226,-0.37,0.41,-1.14,-3.76,-3.95,-5.47,-3.18,-5.81,2.62,1005.93
4.227,-0.53,0.53,-1.07,-3.76,-3.95,-5.47,-3.18,-5.81,2.62,1005.93
4.227,-0.63,0.62,-1.13,-3.76,-3.95,-5.47,-3.18,-5.81,2.62,1005.93
4.227,-0.63,0.62,-1.13,-3.76,-3.95,-5.47,-3.19,-5.09,1.06,1005.93
4.228,-0.63,0.62,-1.13,-7.14,-4.73,-9.75,-3.19,-5.09,1.06,1005.93
4.261,-0.63,0.62,-1.13,-7.14,-4.73,-9.75,-3.19,-5.09,1.06,1005.92
4.284,-0.58,0.68,-1.12,-7.14,-4.73,-9.75,-3.19,-5.09,1.06,1005.92
4.285,-0.46,0.70,-1.05,-7.14,-4.73,-9.75,-3.19,-5.09,1.06,1005.92
4.285,-0.33,0.75,-0.94,-7.14,-4.73,-9.75,-3.19,-5.09,1.06,1005.92
4.286,-0.33,0.75,-0.94,-7.14,-4.73,-9.75,-2.33,-5.67,-0.36,1005.92
4.286,-0.33,0.75,-0.94,-7.71,-2.86,-8.35,-2.33,-5.67,-0.36,1005.92
4.307,-0.33,0.75,-0.94,-7.71,-2.86,-8.35,-2.33,-5.67,-0.36,1005.91
4.343,-0.29,0.83,-0.82,-7.71,-2.86,-8.35,-2.33,-5.67,-0.36,1005.91
4.344,-0.29,0.90,-0.86,-7.71,-2.86,-8.35,-2.33,-5.67,-0.36,1005.91
4.345,-0.18,0.94,-0.89,-7.71,-2.86,-8.35,-2.33,-5.67,-0.36,1005.91
4.345,-0.18,0.94,-0.89,-7.71,-2.86,-8.35,-1.68,-5.36,-1.38,1005.91
4.346,-0.18,0.94,-0.89,-4.06,-1.75,-7.03,-1.68,-5.36,-1.38,1005.91
4.382,-0.18,0.94,-0.89,-4.06,-1.75,-7.03,-1.68,-5.36,-1.38,1005.91
4.402,0.04,0.97,-0.76,-4.06,-1.75,-7.03,-1.68,-5.36,-1.38,1005.91
4.403,0.20,1.04,-0.62,-4.06,-1.75,-7.03,-1.68,-5.36,-1.38,1005.91
4.404,0.25,1.05,-0.47,-4.06,-1.75,-7.03,-1.68,-5.36,-1.38,1005.91
4.405,0.25,1.05,-0.47,-4.06,-1.75,-7.03,-1.26,-3.50,-1.65,1005.91
4.406,0.25,1.05,-0.47,-0.66,-0.11,-6.62,-1.26,-3.50,-1.65,1005.91
4.459,0.25,1.02,-0.31,-0.66,-0.11,-6.62,-1.26,-3.50,-1.65,1005.91
4.461,0.21,0.94,-0.20,-0.66,-0.11,-6.62,-1.26,-3.50,-1.65,1005.91
4.462,0.19,0.90,-0.07,-0.66,-0.11,-6.62,-1.26,-3.50,-1.65,1005.91
4.463,0.19,0.90,-0.07,-0.66,-0.11,-6.62,-0.65,-2.31,-1.36,1005.91
4.464,0.19,0.90,-0.07,3.87,0.87,-3.45,-0.65,-2.31,-1.36,1005.91
4.465,0.19,0.90,-0.07,3.87,0.87,-3.45,-0.65,-2.31,-1.36,1005.92
4.502,0.19,0.90,-0.07,3.87,0.87,-3.45,-0.65,-2.31,-1.36,1005.92
4.519,0.26,0.86,-0.06,3.87,0.87,-3.45,-0.65,-2.31,-1.36,1005.92
4.526,0.46,0.81,-0.25,3.87,0.87,-3.45,-0.65,-2.31,-1.36,1005.92
4.527,0.73,0.64,-0.57,3.87,0.87,-3.45,-0.65,-2.31,-1.36,1005.92
4.527,0.73,0.64,-0.57,3.87,0.87,-3.45,0.26,-3.83,0.27,1005.92
4.528,0.73,0.64,-0.57,3.73,-0.45,-0.18,0.26,-3.83,0.27,1005.92
4.577,1.16,0.89,-0.51,3.73,-0.45,-0.18,0.26,-3.83,0.27,1005.92
4.578,1.43,1.97,0.54,3.73,-0.45,-0.18,0.26,-3.83,0.27,1005.92
4.578,-0.37,2.35,1.45,3.73,-0.45,-0.18,0.26,-3.83,0.27,1005.92
4.579,-0.37,2.35,1.45,3.73,-0.45,-0.18,-0.64,-1.08,1.54,1005.92
4.579,-0.37,2.35,1.45,8.33,-1.73,-3.84,-0.64,-1.08,1.54,1005.92
4.582,-0.37,2.35,1.45,8.33,-1.73,-3.84,-0.64,-1.08,1.54,1005.94
4.634,-1.05,0.98,-0.28,8.33,-1.73,-3.84,-0.64,-1.08,1.54,1005.94
4.635,-0.65,0.44,-0.81,8.33,-1.73,-3.84,-0.64,-1.08,1.54,1005.94
4.636,0.65,0.83,-0.19,8.33,-1.73,-3.84,-0.64,-1.08,1.54,1005.94
4.636,0.65,0.83,-0.19,8.33,-1.73,-3.84,0.96,0.45,1.76,1005.94
4.636,0.65,0.83,-0.19,-0.30,7.83,6.54,0.96,0.45,1.76,1005.94
4.663,0.65,0.83,-0.19,-0.30,7.83,6.54,0.96,0.45,1.76,1005.93
4.692,0.73,1.09,-0.10,-0.30,7.83,6.54,0.96,0.45,1.76,1005.93
4.693,0.49,1.16,0.11,-0.30,7.83,6.54,0.96,0.45,1.76,1005.93
4.694,0.29,0.97,-0.03,-0.30,7.83,6.54,0.96,0.45,1.76,1005.93
4.694,0.29,0.97,-0.03,1.29,-1.68,-2.60,0.96,0.45,1.76,1005.93
4.695,0.29,0.97,-0.03,1.29,-1.68,-2.60,-0.00,-0.60,1.40,1005.93
4.701,0.29,0.97,-0.03,1.29,-1.68,-2.60,-0.00,-0.60,1.40,1005.92
4.751,0.14,1.01,-0.19,1.29,-1.68,-2.60,-0.00,-0.60,1.40,1005.92
4.753,0.12,1.05,-0.11,1.29,-1.68,-2.60,-0.00,-0.60,1.40,1005.92
4.754,0.08,1.01,-0.02,1.29,-1.68,-2.60,-0.00,-0.60,1.40,1005.92
4.754,0.08,1.01,-0.02,1.29,-1.68,-2.60,0.21,-0.15,0.71,1005.92
4.755,0.08,1.01,-0.02,1.50,0.90,0.74,0.21,-0.15,0.71,1005.92
4.782,0.08,1.01,-0.02,1.50,0.90,0.74,0.21,-0.15,0.71,1005.93
4.818,0.15,0.97,0.00,1.50,0.90,0.74,0.21,-0.15,0.71,1005.93
4.82,0.28,0.95,-0.04,1.50,0.90,0.74,0.21,-0.15,0.71,1005.93
4.821,0.28,0.98,-0.08,1.50,0.90,0.74,0.21,-0.15,0.71,1005.93
4.822,0.28,0.98,-0.08,1.50,0.90,0.74,0.23,-0.15,0.59,1005.93
4.822,0.28,0.98,-0.08,-0.65,0.64,0.84,0.23,-0.15,0.59,1005.93
4.861,0.28,0.98,-0.08,-0.65,0.64,0.84,0.23,-0.15,0.59,1005.92
4.868,0.19,0.97,-0.12,-0.65,0.64,0.84,0.23,-0.15,0.59,1005.92
4.869,0.07,1.01,-0.17,-0.65,0.64,0.84,0.23,-0.15,0.59,1005.92
4.87,0.04,1.07,-0.10,-0.65,0.64,0.84,0.23,-0.15,0.59,1005.92
4.871,0.04,1.07,-0.10,-0.65,0.64,0.84,0.23,0.04,0.39,1005.92
4.872,0.04,1.07,-0.10,0.47,0.26,0.58,0.23,0.04,0.39,1005.92
4.902,0.04,1.07,-0.10,0.47,0.26,0.58,0.23,0.04,0.39,1005.94
4.926,0.07,1.02,-0.10,0.47,0.26,0.58,0.23,0.04,0.39,1005.94
4.927,0.14,0.97,-0.07,0.47,0.26,0.58,0.23,0.04,0.39,1005.94
4.927,0.21,0.97,-0.04,0.47,0.26,0.58,0.23,0.04,0.39,1005.94
4.928,0.21,0.97,-0.04,0.47,0.26,0.58,0.35,-0.23,0.62,1005.94
4.928,0.21,0.97,-0.04,-1.68,0.97,0.36,0.35,-0.23,0.62,1005.94
4.983,0.21,0.97,-0.04,-1.68,0.97,0.36,0.35,-0.23,0.62,1005.94
4.987,0.21,0.99,-0.06,-1.68,0.97,0.36,0.35,-0.23,0.62,1005.94
4.988,0.18,1.00,-0.09,-1.68,0.97,0.36,0.35,-0.23,0.62,1005.94
4.988,0.17,1.04,-0.10,-1.68,0.97,0.36,0.35,-0.23,0.62,1005.94
4.989,0.17,1.04,-0.10,-1.68,0.97,0.36,0.44,-0.31,0.66,1005.94
4.991,0.17,1.04,-0.10,-0.72,0.56,1.25,0.44,-0.31,0.66,1005.94
5.048,0.13,1.09,-0.11,-0.72,0.56,1.25,0.44,-0.31,0.66,1005.94
5.05,0.11,1.07,-0.05,-0.72,0.56,1.25,0.44,-0.31,0.66,1005.94
5.051,0.06,1.03,-0.06,-0.72,0.56,1.25,0.44,-0.31,0.66,1005.94
5.052,0.06,1.03,-0.06,-0.72,0.56,1.25,0.56,-0.52,0.88,1005.94
5.053,0.06,1.03,-0.06,-1.39,1.39,1.20,0.56,-0.52,0.88,1005.94
5.064,0.06,1.03,-0.06,-1.39,1.39,1.20,0.56,-0.52,0.88,1005.93
5.101,0.05,1.10,-0.15,-1.39,1.39,1.20,0.56,-0.52,0.88,1005.93
5.103,0.00,1.19,-0.20,-1.39,1.39,1.20,0.56,-0.52,0.88,1005.93
5.105,-0.05,1.21,-0.14,-1.39,1.39,1.20,0.56,-0.52,0.88,1005.93
5.106,-0.05,1.21,-0.14,-1.39,1.39,1.20,0.91,-0.86,1.39,1005.93
5.107,-0.05,1.21,-0.14,-2.79,2.03,1.94,0.91,-0.86,1.39,1005.93
5.108,-0.05,1.21,-0.14,-2.79,2.03,1.94,0.91,-0.86,1.39,1005.93
5.159,-0.05,1.22,-0.10,-2.79,2.03,1.94,0.91,-0.86,1.39,1005.93
5.161,-0.10,1.44,-0.09,-2.79,2.03,1.94,0.91,-0.86,1.39,1005.93
5.161,-0.34,1.92,0.22,-2.79,2.03,1.94,0.91,-0.86,1.39,1005.93
5.162,-0.34,1.92,0.22,-2.79,2.03,1.94,1.72,-0.72,1.91,1005.93
5.162,-0.34,1.92,0.22,-4.50,4.06,2.26,1.72,-0.72,1.91,1005.93
5.182,-0.34,1.92,0.22,-4.50,4.06,2.26,1.72,-0.72,1.91,1005.93
5.222,-0.97,2.11,0.27,-4.50,4.06,2.26,1.72,-0.72,1.91,1005.93
5.224,-1.25,1.85,0.24,-4.50,4.06,2.26,1.72,-0.72,1.91,1005.93
5.225,-0.65,1.42,0.09,-4.50,4.06,2.26,1.72,-0.72,1.91,1005.93
5.226,-0.65,1.42,0.09,-9.36,11.14,6.18,1.72,-0.72,1.91,1005.93
5.227,-0.65,1.42,0.09,-9.36,11.14,6.18,2.15,-1.35,2.55,1005.93
5.261,-0.65,1.42,0.09,-9.36,11.14,6.18,2.15,-1.35,2.55,1005.92
5.277,0.46,1.27,-0.50,-9.36,11.14,6.18,2.15,-1.35,2.55,1005.92
5.278,1.33,1.37,-0.42,-9.36,11.14,6.18,2.15,-1.35,2.55,1005.92
5.279,1.04,1.04,-0.38,-9.36,11.14,6.18,2.15,-1.35,2.55,1005.92
5.28,1.04,1.04,-0.38,-9.36,11.14,6.18,2.09,-2.09,3.52,1005.92
5.28,1.04,1.04,-0.38,-9.84,9.63,5.57,2.09,-2.09,3.52,1005.92
5.302,1.04,1.04,-0.38,-9.84,9.63,5.57,2.09,-2.09,3.52,1005.92
5.334,0.54,0.61,-0.66,-9.84,9.63,5.57,2.09,-2.09,3.52,1005.92
5.336,0.47,0.51,-0.89,-9.84,9.63,5.57,2.09,-2.09,3.52,1005.92
5.336,0.24,0.35,-0.70,-9.84,9.63,5.57,2.09,-2.09,3.52,1005.92
5.336,0.24,0.35,-0.70,-9.84,9.63,5.57,0.19,-0.21,0.63,1005.92
5.337,0.24,0.35,-0.70,4.19,4.86,1.41,0.19,-0.21,0.63,1005.92
5.382,0.24,0.35,-0.70,4.19,4.86,1.41,0.19,-0.21,0.63,1005.89
5.402,0.24,0.35,-0.70,-2.17,-2.97,-0.57,0.19,-0.21,0.63,1005.89
5.403,0.17,0.16,-0.12,-2.17,-2.97,-0.57,0.19,-0.21,0.63,1005.89
5.403,0.29,0.06,0.05,-2.17,-2.97,-0.57,0.19,-0.21,0.63,1005.89
5.404,0.20,0.13,-0.11,-2.17,-2.97,-0.57,0.19,-0.21,0.63,1005.89
5.404,0.20,0.13,-0.11,-2.17,-2.97,-0.57,-2.57,1.11,-1.69,1005.89
5.451,0.03,0.24,-0.20,-2.17,-2.97,-0.57,-2.57,1.11,-1.69,1005.89
5.453,-0.03,0.33,-0.22,-2.17,-2.97,-0.57,-2.57,1.11,-1.69,1005.89
5.454,-0.09,0.49,-0.31,-2.17,-2.97,-0.57,-2.57,1.11,-1.69,1005.89
5.455,-0.09,0.49,-0.31,-2.17,-2.97,-0.57,-3.46,0.28,-3.76,1005.89
5.456,-0.09,0.49,-0.31,-1.78,-6.65,2.60,-3.46,0.28,-3.76,1005.89
5.462,-0.09,0.49,-0.31,-1.78,-6.65,2.60,-3.46,0.28,-3.76,1005.91
5.502,-0.09,0.49,-0.31,-1.78,-6.65,2.60,-3.46,0.28,-3.76,1005.96
5.516,-0.07,0.63,-0.14,-1.78,-6.65,2.60,-3.46,0.28,-3.76,1005.96
5.517,-0.13,0.79,-0.23,-1.78,-6.65,2.60,-3.46,0.28,-3.76,1005.96
5.518,-0.08,1.18,-0.52,-1.78,-6.65,2.60,-3.46,0.28,-3.76,1005.96
5.519,-0.08,1.18,-0.52,-1.78,-6.65,2.60,-4.27,-2.00,-4.84,1005.96
5.525,-0.08,1.18,-0.52,-1.37,-4.43,-0.69,-4.27,-2.00,-4.84,1005.96
5.567,0.35,1.82,-0.73,-1.37,-4.43,-0.69,-4.27,-2.00,-4.84,1005.96
5.569,0.81,2.10,-1.01,-1.37,-4.43,-0.69,-4.27,-2.00,-4.84,1005.96
5.57,1.10,1.78,-1.20,-1.37,-4.43,-0.69,-4.27,-2.00,-4.84,1005.96
5.571,1.10,1.78,-1.20,2.05,3.22,-5.85,-4.27,-2.00,-4.84,1005.96
5.572,1.10,1.78,-1.20,2.05,3.22,-5.85,-4.82,-1.54,-4.33,1005.96
5.582,1.10,1.78,-1.20,2.05,3.22,-5.85,-4.82,-1.54,-4.33,1005.94
5.627,1.30,1.20,-0.94,2.05,3.22,-5.85,-4.82,-1.54,-4.33,1005.94
5.63,1.28,0.91,-0.70,2.05,3.22,-5.85,-4.82,-1.54,-4.33,1005.94
5.631,1.04,0.79,-0.81,2.05,3.22,-5.85,-4.82,-1.54,-4.33,1005.94
5.632,1.04,0.79,-0.81,2.05,3.22,-5.85,-2.74,1.69,-2.10,1005.94
5.633,1.04,0.79,-0.81,13.10,7.85,-12.29,-2.74,1.69,-2.10,1005.94
5.661,1.04,0.79,-0.81,13.10,7.85,-12.29,-2.74,1.69,-2.10,1005.87
5.685,1.04,0.79,-0.81,12.43,-0.99,-8.90,-2.74,1.69,-2.10,1005.87
5.688,0.84,0.73,-0.81,12.43,-0.99,-8.90,-2.74,1.69,-2.10,1005.87
5.689,0.65,1.30,-1.00,12.43,-0.99,-8.90,-2.74,1.69,-2.10,1005.87
5.69,-1.03,1.84,1.07,12.43,-0.99,-8.90,-2.74,1.69,-2.10,1005.87
5.691,-1.03,1.84,1.07,12.43,-0.99,-8.90,0.23,2.68,1.20,1005.87
5.703,-1.03,1.84,1.07,12.43,-0.99,-8.90,0.23,2.68,1.20,1005.85
5.743,-2.36,1.77,0.92,12.43,-0.99,-8.90,0.23,2.68,1.20,1005.85
5.744,-0.26,1.44,-0.80,12.43,-0.99,-8.90,0.23,2.68,1.20,1005.85
5.744,0.24,1.00,-1.30,12.43,-0.99,-8.90,0.23,2.68,1.20,1005.85
5.745,0.24,1.00,-1.30,12.43,-0.99,-8.90,1.68,1.72,1.48,1005.85
5.745,0.24,1.00,-1.30,-7.40,6.74,2.93,1.68,1.72,1.48,1005.85
5.782,0.24,1.00,-1.30,-7.40,6.74,2.93,1.68,1.72,1.48,1005.89
5.803,0.51,0.70,0.31,-7.40,6.74,2.93,1.68,1.72,1.48,1005.89
5.804,0.25,0.73,0.08,-7.40,6.74,2.93,1.68,1.72,1.48,1005.89
5.804,0.07,1.06,0.15,-7.40,6.74,2.93,1.68,1.72,1.48,1005.89
5.805,0.07,1.06,0.15,-7.40,6.74,2.93,0.68,-0.15,1.99,1005.89
5.805,0.07,1.06,0.15,1.99,0.85,-5.67,0.68,-0.15,1.99,1005.89
5.86,0.12,1.16,-0.16,1.99,0.85,-5.67,0.68,-0.15,1.99,1005.89
5.862,0.24,1.00,-0.10,1.99,0.85,-5.67,0.68,-0.15,1.99,1005.89
5.862,0.09,1.01,-0.08,1.99,0.85,-5.67,0.68,-0.15,1.99,1005.89
5.862,0.09,1.01,-0.08,1.99,0.85,-5.67,0.60,-0.33,1.18,1005.89
5.863,0.09,1.01,-0.08,1.20,0.21,0.70,0.60,-0.33,1.18,1005.89
5.863,0.09,1.01,-0.08,1.20,0.21,0.70,0.60,-0.33,1.18,1005.89
5.902,0.09,1.01,-0.08,1.20,0.21,0.70,0.60,-0.33,1.18,1005.93
5.917,0.01,1.01,-0.03,1.20,0.21,0.70,0.60,-0.33,1.18,1005.93
5.918,0.12,0.96,0.06,1.20,0.21,0.70,0.60,-0.33,1.18,1005.93
5.918,0.09,0.97,0.06,1.20,0.21,0.70,0.60,-0.33,1.18,1005.93
5.919,0.09,0.97,0.06,1.20,0.21,0.70,0.46,0.19,0.83,1005.93
5.919,0.09,0.97,0.06,0.41,0.52,0.04,0.46,0.19,0.83,1005.93
5.976,-0.07,1.02,0.03,0.41,0.52,0.04,0.46,0.19,0.83,1005.93
5.979,-0.10,1.00,0.03,0.41,0.52,0.04,0.46,0.19,0.83,1005.93
5.979,0.06,0.99,-0.01,0.41,0.52,0.04,0.46,0.19,0.83,1005.93
5.98,0.06,0.99,-0.01,0.41,0.52,0.04,0.62,-0.02,0.91,1005.93
5.981,0.06,0.99,-0.01,-0.73,0.33,1.54,0.62,-0.02,0.91,1005.93
5.982,0.06,0.99,-0.01,-0.73,0.33,1.54,0.62,-0.02,0.91,1005.93
6.024,0.06,0.99,-0.01,-0.73,0.33,1.54,0.62,-0.02,0.91,1005.94
6.034,0.15,1.00,-0.08,-0.73,0.33,1.54,0.62,-0.02,0.91,1005.94
6.035,0.17,0.98,-0.08,-0.73,0.33,1.54,0.62,-0.02,0.91,1005.94
6.036,0.11,1.01,-0.09,-0.73,0.33,1.54,0.62,-0.02,0.91,1005.94
6.037,0.11,1.01,-0.09,-0.73,0.33,1.54,0.78,-0.18,1.09,1005.94
6.037,0.11,1.01,-0.09,-1.38,0.63,1.27,0.78,-0.18,1.09,1005.94
6.093,0.13,1.01,-0.13,-1.38,0.63,1.27,0.78,-0.18,1.09,1005.94
6.094,0.17,1.02,-0.20,-1.38,0.63,1.27,0.78,-0.18,1.09,1005.94
6.095,0.17,1.02,-0.21,-1.38,0.63,1.27,0.78,-0.18,1.09,1005.94
6.096,0.17,1.02,-0.21,-1.38,0.63,1.27,0.79,-0.31,1.11,1005.94
6.097,0.17,1.02,-0.21,-0.94,0.84,0.92,0.79,-0.31,1.11,1005.94
6.101,0.17,1.02,-0.21,-0.94,0.84,0.92,0.79,-0.31,1.11,1005.95
6.153,0.17,1.02,-0.21,-1.24,1.13,0.45,0.79,-0.31,1.11,1005.95
6.154,0.15,0.97,-0.18,-1.24,1.13,0.45,0.79,-0.31,1.11,1005.95
6.155,0.14,0.99,-0.15,-1.24,1.13,0.45,0.79,-0.31,1.11,1005.95
6.155,0.10,1.09,-0.19,-1.24,1.13,0.45,0.79,-0.31,1.11,1005.95
6.156,0.10,1.09,-0.19,-1.24,1.13,0.45,0.85,-0.39,1.23,1005.95
6.182,0.10,1.09,-0.19,-1.24,1.13,0.45,0.85,-0.39,1.23,1005.95
6.214,0.06,1.17,-0.20,-1.24,1.13,0.45,0.85,-0.39,1.23,1005.95
6.215,0.06,1.17,-0.19,-1.24,1.13,0.45,0.85,-0.39,1.23,1005.95
6.216,0.02,1.20,-0.17,-1.24,1.13,0.45,0.85,-0.39,1.23,1005.95
6.216,0.02,1.20,-0.17,-1.24,1.13,0.45,1.27,-0.26,1.50,1005.95
6.217,0.02,1.20,-0.17,-2.52,2.35,1.26,1.27,-0.26,1.50,1005.95
6.262,0.02,1.20,-0.17,-2.52,2.35,1.26,1.27,-0.26,1.50,1005.95
6.267,-0.11,1.38,-0.04,-2.52,2.35,1.26,1.27,-0.26,1.50,1005.95
6.267,-0.52,1.77,0.11,-2.52,2.35,1.26,1.27,-0.26,1.50,1005.95
6.268,-1.12,2.13,0.11,-2.52,2.35,1.26,1.27,-0.26,1.50,1005.95
6.268,-1.12,2.13,0.11,-2.52,2.35,1.26,1.88,-0.75,1.84,1005.95
6.269,-1.12,2.13,0.11,-4.20,4.74,2.72,1.88,-0.75,1.84,1005.95
6.302,-1.12,2.13,0.11,-4.20,4.74,2.72,1.88,-0.75,1.84,1005.95
6.328,-1.35,1.96,0.05,-4.20,4.74,2.72,1.88,-0.75,1.84,1005.95
6.329,-0.48,1.32,-0.04,-4.20,4.74,2.72,1.88,-0.75,1.84,1005.95
6.33,0.62,1.20,-0.54,-4.20,4.74,2.72,1.88,-0.75,1.84,1005.95
6.33,0.62,1.20,-0.54,-4.20,4.74,2.72,2.27,-2.20,2.92,1005.95
6.33,0.62,1.20,-0.54,-14.19,12.79,6.27,2.27,-2.20,2.92,1005.95
6.382,0.62,1.20,-0.54,-14.19,12.79,6.27,2.27,-2.20,2.92,1005.92
6.385,1.52,1.22,-0.42,-14.19,12.79,6.27,2.27,-2.20,2.92,1005.92
6.387,1.50,1.00,-0.42,-14.19,12.79,6.27,2.27,-2.20,2.92,1005.92
6.387,0.72,0.65,-0.55,-14.19,12.79,6.27,2.27,-2.20,2.92,1005.92
6.388,0.72,0.65,-0.55,-14.19,12.79,6.27,1.99,-0.40,2.46,1005.92
6.39,0.72,0.65,-0.55,0.32,7.08,2.83,1.99,-0.40,2.46,1005.92
6.443,0.46,0.43,-0.64,0.32,7.08,2.83,1.99,-0.40,2.46,1005.92
6.443,0.23,0.33,-0.29,0.32,7.08,2.83,1.99,-0.40,2.46,1005.92
6.443,0.14,0.16,0.14,0.32,7.08,2.83,1.99,-0.40,2.46,1005.92
6.443,0.14,0.16,0.14,0.32,7.08,2.83,-0.82,0.68,-0.69,1005.92
6.444,0.14,0.16,0.14,3.57,1.16,0.35,-0.82,0.68,-0.69,1005.92
6.464,0.14,0.16,0.14,3.57,1.16,0.35,-0.82,0.68,-0.69,1005.90
6.5,0.10,0.05,0.22,3.57,1.16,0.35,-0.82,0.68,-0.69,1005.90
6.501,0.05,0.15,-0.06,3.57,1.16,0.35,-0.82,0.68,-0.69,1005.90
6.501,0.04,0.33,-0.21,3.57,1.16,0.35,-0.82,0.68,-0.69,1005.90
6.501,0.04,0.33,-0.21,3.57,1.16,0.35,-1.99,0.25,-2.58,1005.90
6.501,0.04,0.33,-0.21,-2.74,-5.11,4.95,-1.99,0.25,-2.58,1005.90
6.501,0.04,0.33,-0.21,-2.74,-5.11,4.95,-1.99,0.25,-2.58,1005.89
6.56,0.14,0.44,-0.19,-2.74,-5.11,4.95,-1.99,0.25,-2.58,1005.89
6.563,0.21,0.55,-0.20,-2.74,-5.11,4.95,-1.99,0.25,-2.58,1005.89
6.564,0.21,0.64,-0.17,-2.74,-5.11,4.95,-1.99,0.25,-2.58,1005.89
6.565,0.21,0.64,-0.17,-2.74,-5.11,4.95,-3.29,-0.77,-3.85,1005.89
6.566,0.21,0.64,-0.17,-1.60,-5.34,1.88,-3.29,-0.77,-3.85,1005.89
6.582,0.21,0.64,-0.17,-1.60,-5.34,1.88,-3.29,-0.77,-3.85,1005.98
6.618,0.20,0.76,-0.18,-1.60,-5.34,1.88,-3.29,-0.77,-3.85,1005.98
6.619,0.22,1.05,-0.33,-1.60,-5.34,1.88,-3.29,-0.77,-3.85,1005.98
6.62,0.40,1.67,-0.51,-1.60,-5.34,1.88,-3.29,-0.77,-3.85,1005.98
6.622,0.40,1.67,-0.51,-1.60,-5.34,1.88,-4.55,-1.09,-4.75,1005.98
6.623,0.40,1.67,-0.51,2.29,-2.82,-0.67,-4.55,-1.09,-4.75,1005.98
6.662,0.40,1.67,-0.51,2.29,-2.82,-0.67,-4.55,-1.09,-4.75,1005.97
6.675,0.51,2.02,-0.79,2.29,-2.82,-0.67,-4.55,-1.09,-4.75,1005.97
6.677,0.59,1.80,-0.91,2.29,-2.82,-0.67,-4.55,-1.09,-4.75,1005.97
6.677,0.93,1.46,-0.71,2.29,-2.82,-0.67,-4.55,-1.09,-4.75,1005.97
6.678,0.93,1.46,-0.71,2.29,-2.82,-0.67,-4.60,-0.13,-4.32,1005.97
6.678,0.93,1.46,-0.71,6.10,6.55,-6.55,-4.60,-0.13,-4.32,1005.97
6.703,0.93,1.46,-0.71,6.10,6.55,-6.55,-4.60,-0.13,-4.32,1005.92
6.736,0.93,1.46,-0.71,11.58,5.72,-9.23,-4.60,-0.13,-4.32,1005.92
6.738,1.14,1.13,-0.64,11.58,5.72,-9.23,-4.60,-0.13,-4.32,1005.92
6.739,1.17,0.90,-0.76,11.58,5.72,-9.23,-4.60,-0.13,-4.32,1005.92
6.741,0.89,0.69,-0.82,11.58,5.72,-9.23,-4.60,-0.13,-4.32,1005.92
6.742,0.89,0.69,-0.82,11.58,5.72,-9.23,-1.98,1.31,-1.03,1005.92
6.782,0.89,0.69,-0.82,11.58,5.72,-9.23,-1.98,1.31,-1.03,1005.87
6.793,0.63,0.78,-0.80,11.58,5.72,-9.23,-1.98,1.31,-1.03,1005.87
6.795,-0.00,1.36,-0.62,11.58,5.72,-9.23,-1.98,1.31,-1.03,1005.87
6.796,-2.03,1.74,1.75,11.58,5.72,-9.23,-1.98,1.31,-1.03,1005.87
6.797,-2.03,1.74,1.75,11.58,5.72,-9.23,0.05,2.64,0.85,1005.87
6.798,-2.03,1.74,1.75,11.30,-1.05,-9.00,0.05,2.64,0.85,1005.87
6.851,-1.44,1.99,-0.36,11.30,-1.05,-9.00,0.05,2.64,0.85,1005.87
6.854,0.18,1.52,-1.62,11.30,-1.05,-9.00,0.05,2.64,0.85,1005.87
6.855,0.24,0.75,0.46,11.30,-1.05,-9.00,0.05,2.64,0.85,1005.87
6.856,0.24,0.75,0.46,11.30,-1.05,-9.00,1.51,1.38,1.80,1005.87
6.857,0.24,0.75,0.46,-9.53,7.44,2.21,1.51,1.38,1.80,1005.87
6.868,0.24,0.75,0.46,-9.53,7.44,2.21,1.51,1.38,1.80,1005.86
6.903,0.24,0.75,0.46,-9.53,7.44,2.21,1.51,1.38,1.80,1005.95
6.913,-0.21,0.52,0.04,-9.53,7.44,2.21,1.51,1.38,1.80,1005.95
6.915,0.23,0.94,0.13,-9.53,7.44,2.21,1.51,1.38,1.80,1005.95
6.916,0.39,1.15,-0.17,-9.53,7.44,2.21,1.51,1.38,1.80,1005.95
6.917,0.39,1.15,-0.17,1.61,-0.21,-3.54,1.51,1.38,1.80,1005.95
6.918,0.39,1.15,-0.17,1.61,-0.21,-3.54,0.73,-0.17,1.67,1005.95
6.968,0.25,1.06,-0.08,1.61,-0.21,-3.54,0.73,-0.17,1.67,1005.95
6.971,-0.12,0.96,-0.08,1.61,-0.21,-3.54,0.73,-0.17,1.67,1005.95
6.971,-0.15,1.03,-0.10,1.61,-0.21,-3.54,0.73,-0.17,1.67,1005.95
6.972,-0.15,1.03,-0.10,1.61,-0.21,-3.54,0.35,0.08,0.82,1005.95
6.972,-0.15,1.03,-0.10,3.24,0.94,-0.07,0.35,0.08,0.82,1005.95
6.982,-0.15,1.03,-0.10,3.24,0.94,-0.07,0.35,0.08,0.82,1006.00
7.03,-0.15,1.03,-0.10,-0.81,0.64,-0.14,0.35,0.08,0.82,1006.00
7.032,0.00,1.08,-0.01,-0.81,0.64,-0.14,0.35,0.08,0.82,1006.00
7.033,-0.01,1.00,0.05,-0.81,0.64,-0.14,0.35,0.08,0.82,1006.00
7.033,0.01,0.98,0.05,-0.81,0.64,-0.14,0.35,0.08,0.82,1006.00
7.033,0.01,0.98,0.05,-0.81,0.64,-0.14,0.24,-0.18,0.67,1006.00
7.062,0.01,0.98,0.05,-0.81,0.64,-0.14,0.24,-0.18,0.67,1005.98
7.084,0.09,0.96,0.06,-0.81,0.64,-0.14,0.24,-0.18,0.67,1005.98
7.086,0.11,0.92,0.03,-0.81,0.64,-0.14,0.24,-0.18,0.67,1005.98
7.086,0.07,0.95,-0.01,-0.81,0.64,-0.14,0.24,-0.18,0.67,1005.98
7.087,0.07,0.95,-0.01,-0.81,0.64,-0.14,0.24,-0.38,0.55,1005.98
7.087,0.07,0.95,-0.01,0.05,0.24,1.14,0.24,-0.38,0.55,1005.98
7.103,0.07,0.95,-0.01,0.05,0.24,1.14,0.24,-0.38,0.55,1005.95
7.143,-0.02,1.02,0.01,0.05,0.24,1.14,0.24,-0.38,0.55,1005.95
7.144,-0.05,1.03,0.06,0.05,0.24,1.14,0.24,-0.38,0.55,1005.95
7.145,-0.02,0.99,0.08,0.05,0.24,1.14,0.24,-0.38,0.55,1005.95
7.145,-0.02,0.99,0.08,0.05,0.24,1.14,0.39,-0.33,0.47,1005.95
7.146,-0.02,0.99,0.08,0.03,0.09,0.90,0.39,-0.33,0.47,1005.95
7.182,-0.02,0.99,0.08,0.03,0.09,0.90,0.39,-0.33,0.47,1005.95
7.201,-0.00,0.97,0.03,0.03,0.09,0.90,0.39,-0.33,0.47,1005.95
7.202,-0.00,0.98,-0.04,0.03,0.09,0.90,0.39,-0.33,0.47,1005.95
7.203,0.01,0.97,-0.12,0.03,0.09,0.90,0.39,-0.33,0.47,1005.95
7.204,0.01,0.97,-0.12,0.03,0.09,0.90,0.65,-0.46,0.66,1005.95
7.205,0.01,0.97,-0.12,-1.07,0.49,1.65,0.65,-0.46,0.66,1005.95
7.26,0.14,0.96,-0.17,-1.07,0.49,1.65,0.65,-0.46,0.66,1005.95
7.261,0.21,0.98,-0.13,-1.07,0.49,1.65,0.65,-0.46,0.66,1005.95
7.262,0.19,0.96,-0.04,-1.07,0.49,1.65,0.65,-0.46,0.66,1005.95
7.262,0.19,0.96,-0.04,-1.07,0.49,1.65,0.65,-0.60,0.72,1005.95
7.263,0.19,0.96,-0.04,-0.67,0.31,0.43,0.65,-0.60,0.72,1005.95
7.263,0.19,0.96,-0.04,-0.67,0.31,0.43,0.65,-0.60,0.72,1005.94
7.302,0.19,0.96,-0.04,-0.67,0.31,0.43,0.65,-0.60,0.72,1005.95
7.318,0.19,0.96,-0.04,0.11,0.40,1.22,0.65,-0.60,0.72,1005.95
7.32,0.07,0.97,-0.04,0.11,0.40,1.22,0.65,-0.60,0.72,1005.95
7.321,-0.01,1.05,-0.04,0.11,0.40,1.22,0.65,-0.60,0.72,1005.95
7.322,-0.07,1.16,-0.02,0.11,0.40,1.22,0.65,-0.60,0.72,1005.95
7.323,-0.07,1.16,-0.02,0.11,0.40,1.22,0.61,-1.18,0.75,1005.95
7.376,-0.12,1.31,-0.06,0.11,0.40,1.22,0.61,-1.18,0.75,1005.95
7.377,-0.19,1.53,-0.05,0.11,0.40,1.22,0.61,-1.18,0.75,1005.95
7.378,-0.18,1.54,-0.17,0.11,0.40,1.22,0.61,-1.18,0.75,1005.95
7.378,-0.18,1.54,-0.17,0.11,0.40,1.22,0.45,-2.21,1.34,1005.95
7.379,-0.18,1.54,-0.17,-2.47,2.52,1.94,0.45,-2.21,1.34,1005.95
7.382,-0.18,1.54,-0.17,-2.47,2.52,1.94,0.45,-2.21,1.34,1005.96
7.435,-0.04,1.24,-0.41,-2.47,2.52,1.94,0.45,-2.21,1.34,1005.96
7.437,0.12,0.99,-0.56,-2.47,2.52,1.94,0.45,-2.21,1.34,1005.96
7.438,0.41,0.91,-0.45,-2.47,2.52,1.94,0.45,-2.21,1.34,1005.96
7.439,0.41,0.91,-0.45,-2.47,2.52,1.94,-0.33,-3.80,2.14,1005.96
7.442,0.41,0.91,-0.45,-3.61,5.26,0.53,-0.33,-3.80,2.14,1005.96
7.463,0.41,0.91,-0.45,-3.61,5.26,0.53,-0.33,-3.80,2.14,1005.95
7.493,0.57,0.75,-0.29,-3.61,5.26,0.53,-0.33,-3.80,2.14,1005.95
7.497,0.31,0.69,-0.30,-3.61,5.26,0.53,-0.33,-3.80,2.14,1005.95
7.498,-0.01,0.62,-0.35,-3.61,5.26,0.53,-0.33,-3.80,2.14,1005.95
7.499,-0.01,0.62,-0.35,-3.61,5.26,0.53,-1.81,-5.16,1.77,1005.95
7.5,-0.01,0.62,-0.35,1.13,-0.21,-1.80,-1.81,-5.16,1.77,1005.95
7.502,-0.01,0.62,-0.35,1.13,-0.21,-1.80,-1.81,-5.16,1.77,1005.95
7.55,-0.28,0.53,-0.48,1.13,-0.21,-1.80,-1.81,-5.16,1.77,1005.95
7.552,-0.54,0.54,-0.64,1.13,-0.21,-1.80,-1.81,-5.16,1.77,1005.95
7.552,-0.52,0.60,-0.90,1.13,-0.21,-1.80,-1.81,-5.16,1.77,1005.95
7.552,-0.52,0.60,-0.90,1.13,-0.21,-1.80,-2.07,-7.40,1.02,1005.95
7.553,-0.52,0.60,-0.90,-1.89,-2.95,-1.35,-2.07,-7.40,1.02,1005.95
7.582,-0.52,0.60,-0.90,-1.89,-2.95,-1.35,-2.07,-7.40,1.02,1005.95
7.61,-0.37,0.69,-1.07,-1.89,-2.95,-1.35,-2.07,-7.40,1.02,1005.95
7.612,-0.18,0.71,-0.98,-1.89,-2.95,-1.35,-2.07,-7.40,1.02,1005.95
7.613,-0.06,0.75,-0.85,-1.89,-2.95,-1.35,-2.07,-7.40,1.02,1005.95
7.614,-0.06,0.75,-0.85,-1.89,-2.95,-1.35,-1.74,-6.67,0.19,1005.95
7.615,-0.06,0.75,-0.85,-5.76,-3.11,-6.39,-1.74,-6.67,0.19,1005.95
7.663,-0.06,0.75,-0.85,-5.76,-3.11,-6.39,-1.74,-6.67,0.19,1005.95
7.667,-0.10,0.84,-0.76,-5.76,-3.11,-6.39,-1.74,-6.67,0.19,1005.95
7.668,-0.17,0.93,-0.61,-5.76,-3.11,-6.39,-1.74,-6.67,0.19,1005.95
7.669,-0.21,1.00,-0.48,-5.76,-3.11,-6.39,-1.74,-6.67,0.19,1005.95
7.669,-0.21,1.00,-0.48,-5.76,-3.11,-6.39,-1.75,-4.56,-1.32,1005.95
7.669,-0.21,1.00,-0.48,-0.98,-1.76,-6.99,-1.75,-4.56,-1.32,1005.95
7.702,-0.21,1.00,-0.48,-0.98,-1.76,-6.99,-1.75,-4.56,-1.32,1005.93
7.733,-0.21,1.00,-0.48,-0.47,0.48,-4.33,-1.75,-4.56,-1.32,1005.93
7.734,-0.19,1.06,-0.45,-0.47,0.48,-4.33,-1.75,-4.56,-1.32,1005.93
7.734,-0.18,1.10,-0.37,-0.47,0.48,-4.33,-1.75,-4.56,-1.32,1005.93
7.735,-0.16,1.11,-0.27,-0.47,0.48,-4.33,-1.75,-4.56,-1.32,1005.93
7.735,-0.16,1.11,-0.27,-0.47,0.48,-4.33,-1.24,-4.07,-1.83,1005.93
7.784,-0.16,1.11,-0.27,-0.47,0.48,-4.33,-1.24,-4.07,-1.83,1005.93
7.785,-0.07,1.14,-0.25,-0.47,0.48,-4.33,-1.24,-4.07,-1.83,1005.93
7.785,0.02,1.12,-0.27,-0.47,0.48,-4.33,-1.24,-4.07,-1.83,1005.93
7.785,0.04,1.05,-0.22,-0.47,0.48,-4.33,-1.24,-4.07,-1.83,1005.93
7.786,0.04,1.05,-0.22,-0.47,0.48,-4.33,-0.55,-3.58,-1.35,1005.93
7.786,0.04,1.05,-0.22,0.83,1.73,-2.85,-0.55,-3.58,-1.35,1005.93
7.843,0.06,1.00,-0.18,0.83,1.73,-2.85,-0.55,-3.58,-1.35,1005.93
7.844,0.03,1.02,-0.11,0.83,1.73,-2.85,-0.55,-3.58,-1.35,1005.93
7.844,0.03,1.00,-0.02,0.83,1.73,-2.85,-0.55,-3.58,-1.35,1005.93
7.844,0.03,1.00,-0.02,0.83,1.73,-2.85,0.12,-2.24,-0.50,1005.93
7.845,0.03,1.00,-0.02,2.73,1.23,-2.30,0.12,-2.24,-0.50,1005.93
7.862,0.03,1.00,-0.02,2.73,1.23,-2.30,0.12,-2.24,-0.50,1005.92
7.902,0.08,0.96,0.05,2.73,1.23,-2.30,0.12,-2.24,-0.50,1005.92
7.903,0.09,0.92,0.07,2.73,1.23,-2.30,0.12,-2.24,-0.50,1005.92
7.903,0.08,0.88,0.08,2.73,1.23,-2.30,0.12,-2.24,-0.50,1005.92
7.903,0.08,0.88,0.08,2.73,1.23,-2.30,0.53,-1.86,0.39,1005.92
7.904,0.08,0.88,0.08,2.56,0.54,-0.34,0.53,-1.86,0.39,1005.92
7.904,0.08,0.88,0.08,2.56,0.54,-0.34,0.53,-1.86,0.39,1005.93
7.959,0.11,0.84,0.08,2.56,0.54,-0.34,0.53,-1.86,0.39,1005.93
7.961,0.21,0.81,0.05,2.56,0.54,-0.34,0.53,-1.86,0.39,1005.93
7.961,0.23,0.78,0.07,2.56,0.54,-0.34,0.53,-1.86,0.39,1005.93
7.961,0.23,0.78,0.07,2.56,0.54,-0.34,0.70,-2.02,0.91,1005.93
7.962,0.23,0.78,0.07,2.48,-0.64,0.82,0.70,-2.02,0.91,1005.93
7.982,0.23,0.78,0.07,2.48,-0.64,0.82,0.70,-2.02,0.91,1005.93
8.017,0.26,0.79,0.05,2.48,-0.64,0.82,0.70,-2.02,0.91,1005.93
8.019,0.31,0.81,-0.03,2.48,-0.64,0.82,0.70,-2.02,0.91,1005.93
8.02,0.29,0.68,-0.17,2.48,-0.64,0.82,0.70,-2.02,0.91,1005.93
8.02,0.29,0.68,-0.17,2.48,-0.64,0.82,0.87,-1.20,0.96,1005.93
8.022,0.29,0.68,-0.17,3.26,-1.52,0.97,0.87,-1.20,0.96,1005.93
8.062,0.29,0.68,-0.17,3.26,-1.52,0.97,0.87,-1.20,0.96,1005.93
8.075,-0.02,0.54,-0.29,3.26,-1.52,0.97,0.87,-1.20,0.96,1005.93
8.076,-0.63,1.30,0.48,3.26,-1.52,0.97,0.87,-1.20,0.96,1005.93
8.077,-0.37,2.93,0.62,3.26,-1.52,0.97,0.87,-1.20,0.96,1005.93
8.077,-0.37,2.93,0.62,3.26,-1.52,0.97,-0.58,0.96,0.09,1005.93
8.077,-0.37,2.93,0.62,2.79,-2.68,-1.41,-0.58,0.96,0.09,1005.93
8.102,-0.37,2.93,0.62,2.79,-2.68,-1.41,-0.58,0.96,0.09,1005.93
8.135,-0.70,2.00,-0.64,2.79,-2.68,-1.41,-0.58,0.96,0.09,1005.93
8.137,-0.77,0.22,-0.31,2.79,-2.68,-1.41,-0.58,0.96,0.09,1005.93
8.138,0.07,0.45,-0.07,2.79,-2.68,-1.41,-0.58,0.96,0.09,1005.93
8.139,0.07,0.45,-0.07,2.79,-2.68,-1.41,0.56,0.69,1.18,1005.93
8.14,0.07,0.45,-0.07,-5.19,10.83,1.97,0.56,0.69,1.18,1005.93
8.182,0.07,0.45,-0.07,-5.19,10.83,1.97,0.56,0.69,1.18,1005.93
8.192,0.47,1.08,0.18,-5.19,10.83,1.97,0.56,0.69,1.18,1005.93
8.193,0.55,1.21,0.19,-5.19,10.83,1.97,0.56,0.69,1.18,1005.93
8.193,0.17,1.02,-0.02,-5.19,10.83,1.97,0.56,0.69,1.18,1005.93
8.194,0.17,1.02,-0.02,-5.19,10.83,1.97,-0.16,-0.56,1.00,1005.93
8.194,0.17,1.02,-0.02,-0.95,-3.74,-0.25,-0.16,-0.56,1.00,1005.93
8.256,0.17,1.02,-0.02,1.71,0.93,0.82,-0.16,-0.56,1.00,1005.93
8.258,-0.06,0.95,-0.02,1.71,0.93,0.82,-0.16,-0.56,1.00,1005.93
8.259,-0.01,1.08,-0.06,1.71,0.93,0.82,-0.16,-0.56,1.00,1005.93
8.26,0.05,1.04,0.00,1.71,0.93,0.82,-0.16,-0.56,1.00,1005.93
8.261,0.05,1.04,0.00,1.71,0.93,0.82,-0.08,-0.48,0.43,1005.93
8.262,0.05,1.04,0.00,1.71,0.93,0.82,-0.08,-0.48,0.43,1005.94
8.303,0.05,1.04,0.00,1.71,0.93,0.82,-0.08,-0.48,0.43,1005.94
8.309,0.12,0.95,0.06,1.71,0.93,0.82,-0.08,-0.48,0.43,1005.94
8.31,0.07,0.99,0.04,1.71,0.93,0.82,-0.08,-0.48,0.43,1005.94
8.31,0.01,1.00,0.05,1.71,0.93,0.82,-0.08,-0.48,0.43,1005.94
8.31,0.01,1.00,0.05,1.71,0.93,0.82,0.01,-0.20,0.34,1005.94
8.311,0.01,1.00,0.05,-0.14,0.56,0.33,0.01,-0.20,0.34,1005.94
8.368,0.04,0.98,0.04,-0.14,0.56,0.33,0.01,-0.20,0.34,1005.94
8.368,0.06,1.00,0.03,-0.14,0.56,0.33,0.01,-0.20,0.34,1005.94
8.369,0.02,1.03,-0.01,-0.14,0.56,0.33,0.01,-0.20,0.34,1005.94
8.369,0.02,1.03,-0.01,-0.14,0.56,0.33,0.12,-0.20,0.38,1005.94
8.369,0.02,1.03,-0.01,-0.42,0.26,0.79,0.12,-0.20,0.38,1005.94
8.383,0.02,1.03,-0.01,-0.42,0.26,0.79,0.12,-0.20,0.38,1005.94
8.427,-0.04,1.01,-0.01,-0.42,0.26,0.79,0.12,-0.20,0.38,1005.94
8.428,-0.01,1.00,0.01,-0.42,0.26,0.79,0.12,-0.20,0.38,1005.94
8.428,0.06,0.99,0.06,-0.42,0.26,0.79,0.12,-0.20,0.38,1005.94
8.428,0.06,0.99,0.06,-0.42,0.26,0.79,0.28,-0.26,0.54,1005.94
8.429,0.06,0.99,0.06,-0.98,0.52,0.60,0.28,-0.26,0.54,1005.94
8.465,0.06,0.99,0.06,-0.98,0.52,0.60,0.28,-0.26,0.54,1005.95
8.49,0.01,0.99,0.04,-0.98,0.52,0.60,0.28,-0.26,0.54,1005.95
8.492,0.03,1.01,0.02,-0.98,0.52,0.60,0.28,-0.26,0.54,1005.95
8.492,0.08,1.02,-0.06,-0.98,0.52,0.60,0.28,-0.26,0.54,1005.95
8.492,0.08,1.02,-0.06,-0.98,0.52,0.60,0.46,-0.33,0.79,1005.95
8.493,0.08,1.02,-0.06,-1.29,0.38,1.17,0.46,-0.33,0.79,1005.95
8.502,0.08,1.02,-0.06,-1.29,0.38,1.17,0.46,-0.33,0.79,1005.95
8.544,0.13,1.01,-0.12,-1.29,0.38,1.17,0.46,-0.33,0.79,1005.95
8.544,0.18,1.01,-0.13,-1.29,0.38,1.17,0.46,-0.33,0.79,1005.95
8.545,0.14,1.02,-0.12,-1.29,0.38,1.17,0.46,-0.33,0.79,1005.95
8.545,0.14,1.02,-0.12,-1.18,0.70,0.64,0.46,-0.33,0.79,1005.95
8.546,0.14,1.02,-0.12,-1.18,0.70,0.64,0.52,-0.41,0.96,1005.95
8.584,0.14,1.02,-0.12,-1.18,0.70,0.64,0.52,-0.41,0.96,1005.95
8.601,0.09,1.03,-0.09,-1.18,0.70,0.64,0.52,-0.41,0.96,1005.95
8.603,0.07,1.08,-0.06,-1.18,0.70,0.64,0.52,-0.41,0.96,1005.95
8.604,0.04,1.11,-0.05,-1.18,0.70,0.64,0.52,-0.41,0.96,1005.95
8.605,0.04,1.11,-0.05,-1.18,0.70,0.64,0.63,-0.48,1.12,1005.95
8.606,0.04,1.11,-0.05,-1.21,0.93,0.39,0.63,-0.48,1.12,1005.95
8.663,0.12,1.12,-0.07,-1.21,0.93,0.39,0.63,-0.48,1.12,1005.95
8.664,0.14,1.12,-0.12,-1.21,0.93,0.39,0.63,-0.48,1.12,1005.95
8.664,0.03,1.14,-0.18,-1.21,0.93,0.39,0.63,-0.48,1.12,1005.95
8.664,0.03,1.14,-0.18,-1.21,0.93,0.39,0.92,-0.66,1.54,1005.95
8.664,0.03,1.14,-0.18,-2.44,2.06,1.51,0.92,-0.66,1.54,1005.95
8.665,0.03,1.14,-0.18,-2.44,2.06,1.51,0.92,-0.66,1.54,1005.94
8.702,0.03,1.14,-0.18,-2.44,2.06,1.51,0.92,-0.66,1.54,1005.95
8.718,-0.02,1.18,-0.18,-2.44,2.06,1.51,0.92,-0.66,1.54,1005.95
8.72,-0.05,1.39,-0.03,-2.44,2.06,1.51,0.92,-0.66,1.54,1005.95
8.721,-0.32,1.70,0.01,-2.44,2.06,1.51,0.92,-0.66,1.54,1005.95
8.722,-0.32,1.70,0.01,-3.43,3.06,1.37,0.92,-0.66,1.54,1005.95
8.723,-0.32,1.70,0.01,-3.43,3.06,1.37,1.34,-1.03,1.87,1005.95
8.776,-0.71,1.84,0.08,-3.43,3.06,1.37,1.34,-1.03,1.87,1005.95
8.778,-1.17,1.80,0.09,-3.43,3.06,1.37,1.34,-1.03,1.87,1005.95
8.779,-0.83,1.41,0.02,-3.43,3.06,1.37,1.34,-1.03,1.87,1005.95
8.78,-0.83,1.41,0.02,-3.43,3.06,1.37,1.74,-1.24,2.45,1005.95
8.781,-0.83,1.41,0.02,-8.13,8.75,4.18,1.74,-1.24,2.45,1005.95
8.783,-0.83,1.41,0.02,-8.13,8.75,4.18,1.74,-1.24,2.45,1005.94
8.834,0.21,1.16,-0.43,-8.13,8.75,4.18,1.74,-1.24,2.45,1005.94
8.836,1.13,1.33,-0.58,-8.13,8.75,4.18,1.74,-1.24,2.45,1005.94
8.837,1.35,1.19,-0.38,-8.13,8.75,4.18,1.74,-1.24,2.45,1005.94
8.838,1.35,1.19,-0.38,-8.13,8.75,4.18,2.08,-1.99,3.83,1005.94
8.839,1.35,1.19,-0.38,-11.21,8.47,4.26,2.08,-1.99,3.83,1005.94
8.863,1.35,1.19,-0.38,-11.21,8.47,4.26,2.08,-1.99,3.83,1005.93
8.893,0.73,0.85,-0.46,-11.21,8.47,4.26,2.08,-1.99,3.83,1005.93
8.894,0.48,0.54,-0.63,-11.21,8.47,4.26,2.08,-1.99,3.83,1005.93
8.894,0.38,0.47,-0.56,-11.21,8.47,4.26,2.08,-1.99,3.83,1005.93
8.895,0.38,0.47,-0.56,-11.21,8.47,4.26,0.59,-0.33,1.04,1005.93
8.895,0.38,0.47,-0.56,4.81,5.66,0.96,0.59,-0.33,1.04,1005.93
8.903,0.38,0.47,-0.56,4.81,5.66,0.96,0.59,-0.33,1.04,1005.90
8.95,0.23,0.31,-0.15,4.81,5.66,0.96,0.59,-0.33,1.04,1005.90
8.952,-0.05,0.11,0.15,4.81,5.66,0.96,0.59,-0.33,1.04,1005.90
8.952,-0.21,0.10,0.01,4.81,5.66,0.96,0.59,-0.33,1.04,1005.90
8.952,-0.21,0.10,0.01,-1.71,-1.97,0.45,0.59,-0.33,1.04,1005.90
8.953,-0.21,0.10,0.01,-1.71,-1.97,0.45,-1.90,0.25,-1.21,1005.90
8.982,-0.21,0.10,0.01,-1.71,-1.97,0.45,-1.90,0.25,-1.21,1005.91
9.009,-0.08,0.30,-0.34,-1.71,-1.97,0.45,-1.90,0.25,-1.21,1005.91
9.01,0.04,0.41,-0.43,-1.71,-1.97,0.45,-1.90,0.25,-1.21,1005.91
9.01,0.05,0.45,-0.33,-1.71,-1.97,0.45,-1.90,0.25,-1.21,1005.91
9.011,0.05,0.45,-0.33,-5.00,-5.93,3.39,-1.90,0.25,-1.21,1005.91
9.011,0.05,0.45,-0.33,-5.00,-5.93,3.39,-2.48,-0.75,-2.78,1005.91
9.063,0.05,0.45,-0.33,-5.00,-5.93,3.39,-2.48,-0.75,-2.78,1005.98
9.067,0.09,0.51,-0.33,-5.00,-5.93,3.39,-2.48,-0.75,-2.78,1005.98
9.068,0.16,0.60,-0.36,-5.00,-5.93,3.39,-2.48,-0.75,-2.78,1005.98
9.069,0.17,0.73,-0.34,-5.00,-5.93,3.39,-2.48,-0.75,-2.78,1005.98
9.069,0.17,0.73,-0.34,-5.00,-5.93,3.39,-3.78,-1.36,-4.31,1005.98
9.07,0.17,0.73,-0.34,-0.90,-4.44,-1.20,-3.78,-1.36,-4.31,1005.98
9.103,0.17,0.73,-0.34,-0.90,-4.44,-1.20,-3.78,-1.36,-4.31,1005.97
9.127,0.15,0.99,-0.40,-0.90,-4.44,-1.20,-3.78,-1.36,-4.31,1005.97
9.13,0.23,1.42,-0.72,-0.90,-4.44,-1.20,-3.78,-1.36,-4.31,1005.97
9.131,0.57,1.79,-0.97,-0.90,-4.44,-1.20,-3.78,-1.36,-4.31,1005.97
9.132,0.57,1.79,-0.97,-0.90,-4.44,-1.20,-4.33,-0.81,-5.17,1005.97
9.133,0.57,1.79,-0.97,2.84,-1.61,-3.52,-4.33,-0.81,-5.17,1005.97
9.182,0.57,1.79,-0.97,2.84,-1.61,-3.52,-4.33,-0.81,-5.17,1005.93
9.184,1.00,1.93,-1.04,2.84,-1.61,-3.52,-4.33,-0.81,-5.17,1005.93
9.184,1.29,1.63,-0.88,2.84,-1.61,-3.52,-4.33,-0.81,-5.17,1005.93
9.184,1.62,1.23,-0.50,2.84,-1.61,-3.52,-4.33,-0.81,-5.17,1005.93
9.185,1.62,1.23,-0.50,2.84,-1.61,-3.52,-3.59,1.52,-3.42,1005.93
9.185,1.62,1.23,-0.50,8.88,8.04,-10.31,-3.59,1.52,-3.42,1005.93
9.243,1.64,0.80,-0.63,8.88,8.04,-10.31,-3.59,1.52,-3.42,1005.93
9.244,1.02,0.82,-1.32,8.88,8.04,-10.31,-3.59,1.52,-3.42,1005.93
9.245,0.12,1.76,-0.70,8.88,8.04,-10.31,-3.59,1.52,-3.42,1005.93
9.246,0.12,1.76,-0.70,8.88,8.04,-10.31,-0.15,3.44,0.98,1005.93
9.247,0.12,1.76,-0.70,17.34,2.99,-7.28,-0.15,3.44,0.98,1005.93
9.262,0.12,1.76,-0.70,17.34,2.99,-7.28,-0.15,3.44,0.98,1005.87
9.301,-2.13,1.73,1.56,17.34,2.99,-7.28,-0.15,3.44,0.98,1005.87
9.302,-2.12,1.47,0.13,17.34,2.99,-7.28,-0.15,3.44,0.98,1005.87
9.303,0.05,0.97,-1.39,17.34,2.99,-7.28,-0.15,3.44,0.98,1005.87
9.303,0.05,0.97,-1.39,17.34,2.99,-7.28,0.95,1.61,0.46,1005.87
9.303,0.05,0.97,-1.39,-0.97,4.99,-1.48,0.95,1.61,0.46,1005.87
9.304,0.05,0.97,-1.39,-0.97,4.99,-1.48,0.95,1.61,0.46,1005.86
9.359,0.60,0.85,-0.19,-0.97,4.99,-1.48,0.95,1.61,0.46,1005.86
9.369,0.60,0.67,0.45,-0.97,4.99,-1.48,0.95,1.61,0.46,1005.86
9.369,-0.18,0.93,0.10,-0.97,4.99,-1.48,0.95,1.61,0.46,1005.86
9.37,-0.18,0.93,0.10,-3.56,1.41,-4.39,0.95,1.61,0.46,1005.86
9.37,-0.18,0.93,0.10,-3.56,1.41,-4.39,0.48,-0.06,2.06,1005.86
9.383,-0.18,0.93,0.10,-3.56,1.41,-4.39,0.48,-0.06,2.06,1005.91
9.418,-0.24,1.19,-0.16,-3.56,1.41,-4.39,0.48,-0.06,2.06,1005.91
9.419,0.18,1.08,-0.12,-3.56,1.41,-4.39,0.48,-0.06,2.06,1005.91
9.42,0.08,0.97,-0.09,-3.56,1.41,-4.39,0.48,-0.06,2.06,1005.91
9.422,0.08,0.97,-0.09,-3.56,1.41,-4.39,0.50,-0.28,1.18,1005.91
9.423,0.08,0.97,-0.09,1.16,-0.27,1.85,0.50,-0.28,1.18,1005.91
9.464,0.08,0.97,-0.09,1.16,-0.27,1.85,0.50,-0.28,1.18,1005.97
9.476,-0.08,0.97,-0.04,1.16,-0.27,1.85,0.50,-0.28,1.18,1005.97
9.477,-0.02,0.98,0.00,1.16,-0.27,1.85,0.50,-0.28,1.18,1005.97
9.477,-0.05,1.02,-0.01,1.16,-0.27,1.85,0.50,-0.28,1.18,1005.97
9.478,-0.05,1.02,-0.01,1.16,-0.27,1.85,0.44,0.36,0.87,1005.97
9.478,-0.05,1.02,-0.01,0.67,0.47,-0.01,0.44,0.36,0.87,1005.97
9.502,-0.05,1.02,-0.01,0.67,0.47,-0.01,0.44,0.36,0.87,1005.96
9.534,-0.07,1.04,-0.05,0.67,0.47,-0.01,0.44,0.36,0.87,1005.96
9.536,-0.04,1.01,-0.09,0.67,0.47,-0.01,0.44,0.36,0.87,1005.96
9.537,0.05,1.00,-0.09,0.67,0.47,-0.01,0.44,0.36,0.87,1005.96
9.537,0.05,1.00,-0.09,0.67,0.47,-0.01,0.53,-0.11,0.96,1005.96
9.538,0.05,1.00,-0.09,-0.88,0.57,0.93,0.53,-0.11,0.96,1005.96
9.588,0.05,1.00,-0.09,-0.88,0.57,0.93,0.53,-0.11,0.96,1005.95
9.593,0.06,1.01,-0.06,-0.88,0.57,0.93,0.53,-0.11,0.96,1005.95
9.596,0.04,0.99,0.01,-0.88,0.57,0.93,0.53,-0.11,0.96,1005.95
9.597,0.02,0.98,-0.03,-0.88,0.57,0.93,0.53,-0.11,0.96,1005.95
9.598,0.02,0.98,-0.03,-0.88,0.57,0.93,0.65,-0.09,1.00,1005.95
9.599,0.02,0.98,-0.03,-0.70,0.60,0.67,0.65,-0.09,1.00,1005.95
9.656,0.05,0.99,-0.09,-0.70,0.60,0.67,0.65,-0.09,1.00,1005.95
9.658,0.15,1.02,-0.17,-0.70,0.60,0.67,0.65,-0.09,1.00,1005.95
9.659,0.17,1.05,-0.20,-0.70,0.60,0.67,0.65,-0.09,1.00,1005.95
9.66,0.17,1.05,-0.20,-0.70,0.60,0.67,0.83,-0.29,1.09,1005.95
9.662,0.17,1.05,-0.20,-1.12,0.56,1.55,0.83,-0.29,1.09,1005.95
9.675,0.17,1.05,-0.20,-1.12,0.56,1.55,0.83,-0.29,1.09,1005.95
9.703,0.17,1.05,-0.20,-1.12,0.56,1.55,0.83,-0.29,1.09,1005.95
9.709,0.09,1.06,-0.17,-1.12,0.56,1.55,0.83,-0.29,1.09,1005.95
9.71,0.01,1.02,-0.18,-1.12,0.56,1.55,0.83,-0.29,1.09,1005.95
9.71,-0.01,1.03,-0.22,-1.12,0.56,1.55,0.83,-0.29,1.09,1005.95
9.71,-0.01,1.03,-0.22,-1.12,0.56,1.55,0.88,-0.32,1.12,1005.95
9.711,-0.01,1.03,-0.22,-0.68,1.30,0.65,0.88,-0.32,1.12,1005.95
9.769,-0.03,1.08,-0.22,-0.68,1.30,0.65,0.88,-0.32,1.12,1005.95
9.772,-0.04,1.15,-0.19,-0.68,1.30,0.65,0.88,-0.32,1.12,1005.95
9.773,-0.08,1.20,-0.12,-0.68,1.30,0.65,0.88,-0.32,1.12,1005.95
9.774,-0.08,1.20,-0.12,-0.68,1.30,0.65,1.33,-0.09,1.43,1005.95
9.775,-0.08,1.20,-0.12,-2.76,1.69,1.03,1.33,-0.09,1.43,1005.95
9.789,-0.08,1.20,-0.12,-2.76,1.69,1.03,1.33,-0.09,1.43,1005.96
9.825,-0.20,1.28,-0.02,-2.76,1.69,1.03,1.33,-0.09,1.43,1005.96
9.827,-0.45,1.58,0.24,-2.76,1.69,1.03,1.33,-0.09,1.43,1005.96
9.828,-0.95,1.96,0.27,-2.76,1.69,1.03,1.33,-0.09,1.43,1005.96
9.829,-0.95,1.96,0.27,-2.76,1.69,1.03,2.06,-0.31,1.79,1005.96
9.829,-0.95,1.96,0.27,-4.44,4.01,3.00,2.06,-0.31,1.79,1005.96
9.863,-0.95,1.96,0.27,-4.44,4.01,3.00,2.06,-0.31,1.79,1005.96
9.884,-1.16,1.90,0.22,-4.44,4.01,3.00,2.06,-0.31,1.79,1005.96
9.886,-0.43,1.47,0.12,-4.44,4.01,3.00,2.06,-0.31,1.79,1005.96
9.887,0.47,1.35,-0.44,-4.44,4.01,3.00,2.06,-0.31,1.79,1005.96
9.887,0.47,1.35,-0.44,-12.27,11.00,7.69,2.06,-0.31,1.79,1005.96
9.888,0.47,1.35,-0.44,-12.27,11.00,7.69,2.39,-1.67,2.82,1005.96
9.903,0.47,1.35,-0.44,-12.27,11.00,7.69,2.39,-1.67,2.82,1005.95
9.943,1.17,1.37,-0.51,-12.27,11.00,7.69,2.39,-1.67,2.82,1005.95
9.946,1.22,1.08,-0.46,-12.27,11.00,7.69,2.39,-1.67,2.82,1005.95
9.947,0.61,0.76,-0.57,-12.27,11.00,7.69,2.39,-1.67,2.82,1005.95
9.948,0.61,0.76,-0.57,-12.27,11.00,7.69,2.12,-0.56,2.39,1005.95
9.954,0.61,0.76,-0.57,-0.64,8.11,3.39,2.12,-0.56,2.39,1005.95
9.982,0.61,0.76,-0.57,-0.64,8.11,3.39,2.12,-0.56,2.39,1005.94
10.0,0.41,0.51,-0.62,-0.64,8.11,3.39,2.12,-0.56,2.39,1005.94
10.001,0.30,0.39,-0.47,-0.64,8.11,3.39,2.12,-0.56,2.39,1005.94
10.002,0.21,0.27,-0.10,-0.64,8.11,3.39,2.12,-0.56,2.39,1005.94
10.004,0.21,0.27,-0.10,-0.64,8.11,3.39,-0.52,0.38,-0.29,1005.94
10.005,0.21,0.27,-0.10,2.66,1.79,0.47,-0.52,0.38,-0.29,1005.94
10.06,0.17,0.15,0.15,2.66,1.79,0.47,-0.52,0.38,-0.29,1005.94
10.062,0.03,0.15,0.04,2.66,1.79,0.47,-0.52,0.38,-0.29,1005.94
10.063,0.03,0.27,-0.17,2.66,1.79,0.47,-0.52,0.38,-0.29,1005.94
10.063,0.03,0.27,-0.17,2.66,1.79,0.47,-2.39,0.28,-2.29,1005.94
10.064,0.03,0.27,-0.17,-1.65,-4.45,3.46,-2.39,0.28,-2.29,1005.94
10.074,0.03,0.27,-0.17,-1.65,-4.45,3.46,-2.39,0.28,-2.29,1005.93
10.103,0.03,0.27,-0.17,-1.65,-4.45,3.46,-2.39,0.28,-2.29,1005.94
10.118,0.08,0.43,-0.28,-1.65,-4.45,3.46,-2.39,0.28,-2.29,1005.94
10.12,0.08,0.55,-0.27,-1.65,-4.45,3.46,-2.39,0.28,-2.29,1005.94
10.12,0.10,0.64,-0.26,-1.65,-4.45,3.46,-2.39,0.28,-2.29,1005.94
10.121,0.10,0.64,-0.26,-1.65,-4.45,3.46,-3.71,-0.80,-3.53,1005.94
10.122,0.10,0.64,-0.26,-1.55,-5.71,1.88,-3.71,-0.80,-3.53,1005.94
10.175,0.11,0.74,-0.28,-1.55,-5.71,1.88,-3.71,-0.80,-3.53,1005.94
10.176,0.07,0.98,-0.36,-1.55,-5.71,1.88,-3.71,-0.80,-3.53,1005.94
10.177,0.13,1.48,-0.44,-1.55,-5.71,1.88,-3.71,-0.80,-3.53,1005.94
10.177,0.13,1.48,-0.44,-1.55,-5.71,1.88,-4.82,-1.30,-4.42,1005.94
10.178,0.13,1.48,-0.44,1.38,-2.90,-1.90,-4.82,-1.30,-4.42,1005.94
10.187,0.13,1.48,-0.44,1.38,-2.90,-1.90,-4.82,-1.30,-4.42,1005.99
10.235,0.31,2.05,-0.63,1.38,-2.90,-1.90,-4.82,-1.30,-4.42,1005.99
10.237,0.46,1.95,-0.78,1.38,-2.90,-1.90,-4.82,-1.30,-4.42,1005.99
10.238,0.66,1.53,-0.57,1.38,-2.90,-1.90,-4.82,-1.30,-4.42,1005.99
10.239,0.66,1.53,-0.57,1.38,-2.90,-1.90,-5.02,-0.64,-4.10,1005.99
10.24,0.66,1.53,-0.57,4.19,5.97,-6.52,-5.02,-0.64,-4.10,1005.99
10.263,0.66,1.53,-0.57,4.19,5.97,-6.52,-5.02,-0.64,-4.10,1005.96
10.292,0.69,1.15,-0.31,4.19,5.97,-6.52,-5.02,-0.64,-4.10,1005.96
10.293,0.57,1.08,-0.50,4.19,5.97,-6.52,-5.02,-0.64,-4.10,1005.96
10.294,0.60,0.86,-0.90,4.19,5.97,-6.52,-5.02,-0.64,-4.10,1005.96
10.294,0.60,0.86,-0.90,4.19,5.97,-6.52,-2.78,0.46,-1.88,1005.96
10.295,0.60,0.86,-0.90,9.28,6.95,-8.40,-2.78,0.46,-1.88,1005.96
10.302,0.60,0.86,-0.90,9.28,6.95,-8.40,-2.78,0.46,-1.88,1005.91
10.352,0.61,0.61,-0.65,9.28,6.95,-8.40,-2.78,0.46,-1.88,1005.91
10.353,0.57,0.73,-0.63,9.28,6.95,-8.40,-2.78,0.46,-1.88,1005.91
10.353,0.24,1.44,-0.95,9.28,6.95,-8.40,-2.78,0.46,-1.88,1005.91
10.354,0.24,1.44,-0.95,9.28,6.95,-8.40,0.34,2.08,1.15,1005.91
10.354,0.24,1.44,-0.95,8.82,-0.08,-8.97,0.34,2.08,1.15,1005.91
10.382,0.24,1.44,-0.95,8.82,-0.08,-8.97,0.34,2.08,1.15,1005.90
10.409,-1.95,1.81,1.50,8.82,-0.08,-8.97,0.34,2.08,1.15,1005.90
10.41,-2.29,1.98,0.51,8.82,-0.08,-8.97,0.34,2.08,1.15,1005.90
10.41,0.11,1.53,-0.53,8.82,-0.08,-8.97,0.34,2.08,1.15,1005.90
10.411,0.11,1.53,-0.53,8.82,-0.08,-8.97,0.48,2.63,0.60,1005.90
10.411,0.11,1.53,-0.53,-0.72,4.33,-1.81,0.48,2.63,0.60,1005.90
10.466,0.11,1.53,-0.53,-0.72,4.33,-1.81,0.48,2.63,0.60,1005.91
10.468,0.57,0.95,-1.26,-0.72,4.33,-1.81,0.48,2.63,0.60,1005.91
10.469,0.21,0.71,0.60,-0.72,4.33,-1.81,0.48,2.63,0.60,1005.91
10.47,-0.00,0.71,0.07,-0.72,4.33,-1.81,0.48,2.63,0.60,1005.91
10.471,-0.00,0.71,0.07,-0.72,4.33,-1.81,1.15,0.50,2.44,1005.91
10.473,-0.00,0.71,0.07,-3.41,5.39,-4.93,1.15,0.50,2.44,1005.91
10.503,-0.00,0.71,0.07,-3.41,5.39,-4.93,1.15,0.50,2.44,1005.95
10.525,0.16,1.08,-0.12,-3.41,5.39,-4.93,1.15,0.50,2.44,1005.95
10.526,0.27,1.16,-0.17,-3.41,5.39,-4.93,1.15,0.50,2.44,1005.95
10.527,0.02,1.01,-0.03,-3.41,5.39,-4.93,1.15,0.50,2.44,1005.95
10.527,0.02,1.01,-0.03,-3.41,5.39,-4.93,0.38,-0.03,1.11,1005.95
10.527,0.02,1.01,-0.03,2.40,-1.09,1.23,0.38,-0.03,1.11,1005.95
10.582,0.02,1.01,-0.03,2.40,-1.09,1.23,0.38,-0.03,1.11,1005.95
10.584,-0.31,1.01,0.05,2.40,-1.09,1.23,0.38,-0.03,1.11,1005.95
10.585,-0.21,1.05,0.09,2.40,-1.09,1.23,0.38,-0.03,1.11,1005.95
10.585,-0.02,0.99,0.16,2.40,-1.09,1.23,0.38,-0.03,1.11,1005.95
10.586,-0.02,0.99,0.16,2.40,-1.09,1.23,0.15,0.26,0.63,1005.95
10.586,-0.02,0.99,0.16,0.79,1.09,-0.98,0.15,0.26,0.63,1005.95
10.643,-0.08,0.98,0.16,0.79,1.09,-0.98,0.15,0.26,0.63,1005.95
10.645,-0.15,0.97,0.16,0.79,1.09,-0.98,0.15,0.26,0.63,1005.95
10.646,-0.14,0.94,0.23,0.79,1.09,-0.98,0.15,0.26,0.63,1005.95
10.647,-0.14,0.94,0.23,0.79,1.09,-0.98,0.35,0.03,0.72,1005.95
10.648,-0.14,0.94,0.23,-0.54,0.48,1.04,0.35,0.03,0.72,1005.95
10.663,-0.14,0.94,0.23,-0.54,0.48,1.04,0.35,0.03,0.72,1005.94
10.701,-0.11,0.94,0.15,-0.54,0.48,1.04,0.35,0.03,0.72,1005.94
10.704,-0.08,0.99,0.10,-0.54,0.48,1.04,0.35,0.03,0.72,1005.94
10.705,-0.03,0.99,0.12,-0.54,0.48,1.04,0.35,0.03,0.72,1005.94
10.706,-0.03,0.99,0.12,-0.54,0.48,1.04,0.62,-0.34,0.93,1005.94
10.707,-0.03,0.99,0.12,-1.31,-0.08,1.78,0.62,-0.34,0.93,1005.94
10.708,-0.03,0.99,0.12,-1.31,-0.08,1.78,0.62,-0.34,0.93,1005.93
10.759,0.03,0.97,0.10,-1.31,-0.08,1.78,0.62,-0.34,0.93,1005.93
10.761,-0.00,0.97,0.11,-1.31,-0.08,1.78,0.62,-0.34,0.93,1005.93
10.761,-0.04,0.96,0.02,-1.31,-0.08,1.78,0.62,-0.34,0.93,1005.93
10.762,-0.04,0.96,0.02,-1.31,-0.08,1.78,0.89,-0.48,1.05,1005.93
10.763,-0.04,0.96,0.02,-0.82,0.31,1.54,0.89,-0.48,1.05,1005.93
10.783,-0.04,0.96,0.02,-0.82,0.31,1.54,0.89,-0.48,1.05,1005.93
10.821,0.08,0.93,-0.21,-0.82,0.31,1.54,0.89,-0.48,1.05,1005.93
10.823,0.22,0.99,-0.25,-0.82,0.31,1.54,0.89,-0.48,1.05,1005.93
10.823,0.16,1.02,-0.09,-0.82,0.31,1.54,0.89,-0.48,1.05,1005.93
10.823,0.16,1.02,-0.09,-0.82,0.31,1.54,0.84,-0.67,1.13,1005.93
10.824,0.16,1.02,-0.09,-1.00,0.08,0.71,0.84,-0.67,1.13,1005.93
10.863,0.16,1.02,-0.09,-1.00,0.08,0.71,0.84,-0.67,1.13,1005.93
10.89,0.04,1.02,0.12,-1.00,0.08,0.71,0.84,-0.67,1.13,1005.93
10.892,-0.05,1.03,0.22,-1.00,0.08,0.71,0.84,-0.67,1.13,1005.93
10.892,-0.00,0.99,0.09,-1.00,0.08,0.71,0.84,-0.67,1.13,1005.93
10.893,-0.00,0.99,0.09,-1.00,0.08,0.71,1.02,-0.88,1.14,1005.93
10.893,-0.00,0.99,0.09,-0.30,0.79,0.85,1.02,-0.88,1.14,1005.93
10.904,-0.00,0.99,0.09,-0.30,0.79,0.85,1.02,-0.88,1.14,1005.95
10.934,0.10,1.12,-0.07,-0.30,0.79,0.85,1.02,-0.88,1.14,1005.95
10.937,0.19,1.35,-0.01,-0.30,0.79,0.85,1.02,-0.88,1.14,1005.95
10.937,-0.01,1.63,0.07,-0.30,0.79,0.85,1.02,-0.88,1.14,1005.95
10.938,-0.01,1.63,0.07,-0.30,0.79,0.85,1.14,-1.90,1.65,1005.95
10.938,-0.01,1.63,0.07,-2.13,1.44,3.13,1.14,-1.90,1.65,1005.95
10.984,-0.01,1.63,0.07,-2.13,1.44,3.13,1.14,-1.90,1.65,1005.95
10.992,-0.17,1.74,-0.04,-2.13,1.44,3.13,1.14,-1.90,1.65,1005.95
10.993,0.01,1.30,-0.34,-2.13,1.44,3.13,1.14,-1.90,1.65,1005.95
10.993,0.39,1.10,-0.33,-2.13,1.44,3.13,1.14,-1.90,1.65,1005.95
10.993,0.39,1.10,-0.33,-2.13,1.44,3.13,0.54,-3.34,2.55,1005.95
10.994,0.39,1.10,-0.33,-2.93,6.97,3.14,0.54,-3.34,2.55,1005.95
11.064,0.39,1.10,-0.33,-0.09,2.58,0.38,0.54,-3.34,2.55,1005.95
11.073,0.62,0.90,-0.26,-0.09,2.58,0.38,0.54,-3.34,2.55,1005.95
11.073,0.37,0.74,-0.40,-0.09,2.58,0.38,0.54,-3.34,2.55,1005.95
11.074,0.05,0.62,-0.60,-0.09,2.58,0.38,0.54,-3.34,2.55,1005.95
11.074,0.05,0.62,-0.60,-0.09,2.58,0.38,-1.23,-4.90,2.90,1005.95
11.075,0.05,0.62,-0.60,-0.09,2.58,0.38,-1.23,-4.90,2.90,1005.94
11.104,0.05,0.62,-0.60,-0.09,2.58,0.38,-1.23,-4.90,2.90,1005.94
11.109,-0.12,0.52,-0.75,-0.09,2.58,0.38,-1.23,-4.90,2.90,1005.94
11.11,-0.26,0.47,-0.86,-0.09,2.58,0.38,-1.23,-4.90,2.90,1005.94
11.11,-0.26,0.51,-0.90,-0.09,2.58,0.38,-1.23,-4.90,2.90,1005.94
11.111,-0.26,0.51,-0.90,-0.09,2.58,0.38,-2.46,-5.01,2.42,1005.94
11.111,-0.26,0.51,-0.90,-2.58,-1.99,-2.41,-2.46,-5.01,2.42,1005.94
11.17,-0.18,0.53,-0.94,-2.58,-1.99,-2.41,-2.46,-5.01,2.42,1005.94
11.175,-0.32,0.53,-0.78,-2.58,-1.99,-2.41,-2.46,-5.01,2.42,1005.94
11.176,-0.53,0.54,-0.79,-2.58,-1.99,-2.41,-2.46,-5.01,2.42,1005.94
11.176,-0.53,0.54,-0.79,-2.58,-1.99,-2.41,-2.77,-4.94,1.43,1005.94
11.177,-0.53,0.54,-0.79,-5.53,-3.38,-5.73,-2.77,-4.94,1.43,1005.94
11.182,-0.53,0.54,-0.79,-5.53,-3.38,-5.73,-2.77,-4.94,1.43,1005.94
11.226,-0.58,0.62,-0.96,-5.53,-3.38,-5.73,-2.77,-4.94,1.43,1005.94
11.227,-0.33,0.73,-0.98,-5.53,-3.38,-5.73,-2.77,-4.94,1.43,1005.94
11.228,-0.15,0.76,-0.87,-5.53,-3.38,-5.73,-2.77,-4.94,1.43,1005.94
11.228,-0.15,0.76,-0.87,-5.53,-3.38,-5.73,-2.43,-5.78,0.33,1005.94
11.228,-0.15,0.76,-0.87,-6.98,-3.06,-5.34,-2.43,-5.78,0.33,1005.94
11.263,-0.15,0.76,-0.87,-6.98,-3.06,-5.34,-2.43,-5.78,0.33,1005.93
11.286,-0.12,0.81,-0.73,-6.98,-3.06,-5.34,-2.43,-5.78,0.33,1005.93
11.288,-0.08,0.89,-0.68,-6.98,-3.06,-5.34,-2.43,-5.78,0.33,1005.93
11.289,-0.06,0.95,-0.61,-6.98,-3.06,-5.34,-2.43,-5.78,0.33,1005.93
11.29,-0.06,0.95,-0.61,-6.98,-3.06,-5.34,-2.32,-5.12,-0.61,1005.93
11.291,-0.06,0.95,-0.61,-3.06,-1.49,-6.06,-2.32,-5.12,-0.61,1005.93
11.304,-0.06,0.95,-0.61,-3.06,-1.49,-6.06,-2.32,-5.12,-0.61,1005.93
11.343,-0.06,0.95,-0.61,-0.66,-0.04,-4.45,-2.32,-5.12,-0.61,1005.93
11.345,-0.05,0.97,-0.54,-0.66,-0.04,-4.45,-2.32,-5.12,-0.61,1005.93
11.345,0.00,1.01,-0.51,-0.66,-0.04,-4.45,-2.32,-5.12,-0.61,1005.93
11.345,0.07,1.05,-0.43,-0.66,-0.04,-4.45,-2.32,-5.12,-0.61,1005.93
11.346,0.07,1.05,-0.43,-0.66,-0.04,-4.45,-1.90,-4.31,-1.11,1005.93
11.384,0.07,1.05,-0.43,-0.66,-0.04,-4.45,-1.90,-4.31,-1.11,1005.92
11.401,0.15,1.03,-0.33,-0.66,-0.04,-4.45,-1.90,-4.31,-1.11,1005.92
11.402,0.17,0.97,-0.22,-0.66,-0.04,-4.45,-1.90,-4.31,-1.11,1005.92
11.402,0.07,0.98,-0.11,-0.66,-0.04,-4.45,-1.90,-4.31,-1.11,1005.92
11.402,0.07,0.98,-0.11,1.48,0.77,-3.33,-1.90,-4.31,-1.11,1005.92
11.403,0.07,0.98,-0.11,1.48,0.77,-3.33,-1.33,-3.74,-1.02,1005.92
11.459,0.13,0.95,-0.23,1.48,0.77,-3.33,-1.33,-3.74,-1.02,1005.92
11.46,0.32,0.85,-0.28,1.48,0.77,-3.33,-1.33,-3.74,-1.02,1005.92
11.46,0.47,0.79,-0.39,1.48,0.77,-3.33,-1.33,-3.74,-1.02,1005.92
11.46,0.47,0.79,-0.39,2.17,0.15,-1.43,-1.33,-3.74,-1.02,1005.92
11.466,0.47,0.79,-0.39,2.17,0.15,-1.43,-0.43,-4.24,-0.17,1005.92
11.466,0.47,0.79,-0.39,2.17,0.15,-1.43,-0.43,-4.24,-0.17,1005.92
11.505,0.47,0.79,-0.39,2.17,0.15,-1.43,-0.43,-4.24,-0.17,1005.93
11.518,0.71,0.77,-0.58,2.17,0.15,-1.43,-0.43,-4.24,-0.17,1005.93
11.52,1.10,1.00,-0.45,2.17,0.15,-1.43,-0.43,-4.24,-0.17,1005.93
11.521,1.07,1.44,0.44,2.17,0.15,-1.43,-0.43,-4.24,-0.17,1005.93
11.522,1.07,1.44,0.44,2.17,0.15,-1.43,-0.36,-1.50,1.05,1005.93
11.523,1.07,1.44,0.44,5.21,-1.48,-3.91,-0.36,-1.50,1.05,1005.93
11.575,-0.08,1.64,0.53,5.21,-1.48,-3.91,-0.36,-1.50,1.05,1005.93
11.577,-1.10,1.28,0.25,5.21,-1.48,-3.91,-0.36,-1.50,1.05,1005.93
11.577,-0.62,0.79,-0.01,5.21,-1.48,-3.91,-0.36,-1.50,1.05,1005.93
11.577,-0.62,0.79,-0.01,5.21,-1.48,-3.91,-0.10,1.58,0.11,1005.93
11.578,-0.62,0.79,-0.01,6.96,3.92,1.82,-0.10,1.58,0.11,1005.93
11.582,-0.62,0.79,-0.01,6.96,3.92,1.82,-0.10,1.58,0.11,1005.92
11.635,-0.01,0.78,-0.20,6.96,3.92,1.82,-0.10,1.58,0.11,1005.92
11.637,0.15,1.08,-0.10,6.96,3.92,1.82,-0.10,1.58,0.11,1005.92
11.638,0.09,1.22,0.02,6.96,3.92,1.82,-0.10,1.58,0.11,1005.92
11.639,0.09,1.22,0.02,6.96,3.92,1.82,-0.06,-0.57,1.20,1005.92
11.64,0.09,1.22,0.02,-6.09,-0.11,0.20,-0.06,-0.57,1.20,1005.92
11.663,0.09,1.22,0.02,-6.09,-0.11,0.20,-0.06,-0.57,1.20,1005.92
11.692,0.07,1.07,0.02,-6.09,-0.11,0.20,-0.06,-0.57,1.20,1005.92
11.693,0.03,1.01,0.00,-6.09,-0.11,0.20,-0.06,-0.57,1.20,1005.92
11.694,0.01,1.04,0.03,-6.09,-0.11,0.20,-0.06,-0.57,1.20,1005.92
11.695,0.01,1.04,0.03,-6.09,-0.11,0.20,0.22,-0.26,0.90,1005.92
11.695,0.01,1.04,0.03,0.08,1.58,0.01,0.22,-0.26,0.90,1005.92
11.706,0.01,1.04,0.03,0.08,1.58,0.01,0.22,-0.26,0.90,1005.92
11.75,0.06,1.02,-0.04,0.08,1.58,0.01,0.22,-0.26,0.90,1005.92
11.751,0.14,1.01,-0.03,0.08,1.58,0.01,0.22,-0.26,0.90,1005.92
11.754,0.08,1.05,-0.04,0.08,1.58,0.01,0.22,-0.26,0.90,1005.92
11.754,0.08,1.05,-0.04,-1.03,0.65,0.43,0.22,-0.26,0.90,1005.92
11.754,0.08,1.05,-0.04,-1.03,0.65,0.43,0.37,-0.51,0.81,1005.92
11.783,0.08,1.05,-0.04,-1.03,0.65,0.43,0.37,-0.51,0.81,1005.93
11.808,0.13,1.04,-0.06,-1.03,0.65,0.43,0.37,-0.51,0.81,1005.93
11.809,0.22,0.98,-0.02,-1.03,0.65,0.43,0.37,-0.51,0.81,1005.93
11.809,0.20,0.99,0.02,-1.03,0.65,0.43,0.37,-0.51,0.81,1005.93
11.809,0.20,0.99,0.02,-1.03,0.65,0.43,0.41,-0.67,0.75,1005.93
11.809,0.20,0.99,0.02,-0.59,0.86,0.32,0.41,-0.67,0.75,1005.93
11.864,0.20,0.99,0.02,-0.59,0.86,0.32,0.41,-0.67,0.75,1005.95
11.867,0.18,0.99,0.01,-0.59,0.86,0.32,0.41,-0.67,0.75,1005.95
11.868,0.15,1.00,-0.01,-0.59,0.86,0.32,0.41,-0.67,0.75,1005.95
11.868,0.21,0.97,-0.00,-0.59,0.86,0.32,0.41,-0.67,0.75,1005.95
11.869,0.21,0.97,-0.00,-0.59,0.86,0.32,0.38,-0.79,0.67,1005.95
11.869,0.21,0.97,-0.00,-0.08,0.49,1.01,0.38,-0.79,0.67,1005.95
11.904,0.21,0.97,-0.00,-0.08,0.49,1.01,0.38,-0.79,0.67,1005.96
11.925,0.23,0.96,-0.03,-0.08,0.49,1.01,0.38,-0.79,0.67,1005.96
11.926,0.19,0.96,-0.03,-0.08,0.49,1.01,0.38,-0.79,0.67,1005.96
11.927,0.16,1.00,-0.04,-0.08,0.49,1.01,0.38,-0.79,0.67,1005.96
11.927,0.16,1.00,-0.04,-0.47,0.49,1.20,0.38,-0.79,0.67,1005.96
11.927,0.16,1.00,-0.04,-0.47,0.49,1.20,0.44,-0.75,0.71,1005.96
11.983,0.16,1.00,-0.04,-0.47,0.49,1.20,0.44,-0.75,0.71,1005.95
11.983,0.17,1.01,-0.07,-0.47,0.49,1.20,0.44,-0.75,0.71,1005.95
11.983,0.23,0.98,-0.06,-0.47,0.49,1.20,0.44,-0.75,0.71,1005.95
11.984,0.23,0.95,-0.09,-0.47,0.49,1.20,0.44,-0.75,0.71,1005.95
11.994,0.23,0.95,-0.09,-1.06,0.80,1.26,0.44,-0.75,0.71,1005.95
11.995,0.23,0.95,-0.09,-1.06,0.80,1.26,0.52,-0.88,0.89,1005.95
12.042,0.19,0.94,-0.15,-1.06,0.80,1.26,0.52,-0.88,0.89,1005.95
12.043,0.16,1.03,-0.20,-1.06,0.80,1.26,0.52,-0.88,0.89,1005.95
12.044,0.06,1.14,-0.20,-1.06,0.80,1.26,0.52,-0.88,0.89,1005.95
12.044,0.06,1.14,-0.20,-1.06,0.80,1.26,0.67,-0.82,1.04,1005.95
12.044,0.06,1.14,-0.20,-1.01,0.70,1.21,0.67,-0.82,1.04,1005.95
12.063,0.06,1.14,-0.20,-1.01,0.70,1.21,0.67,-0.82,1.04,1005.95
12.1,-0.03,1.23,-0.16,-1.01,0.70,1.21,0.67,-0.82,1.04,1005.95
12.101,-0.03,1.27,-0.11,-1.01,0.70,1.21,0.67,-0.82,1.04,1005.95
12.102,-0.06,1.28,-0.05,-1.01,0.70,1.21,0.67,-0.82,1.04,1005.95
12.103,-0.06,1.28,-0.05,-1.01,0.70,1.21,1.06,-0.66,1.44,1005.95
12.104,-0.06,1.28,-0.05,-3.11,2.82,1.00,1.06,-0.66,1.44,1005.95
12.105,-0.06,1.28,-0.05,-3.11,2.82,1.00,1.06,-0.66,1.44,1005.95
12.165,-0.24,1.49,0.03,-3.11,2.82,1.00,1.06,-0.66,1.44,1005.95
12.167,-0.72,1.94,0.21,-3.11,2.82,1.00,1.06,-0.66,1.44,1005.95
12.168,-1.12,1.92,0.20,-3.11,2.82,1.00,1.06,-0.66,1.44,1005.95
12.169,-1.12,1.92,0.20,-3.11,2.82,1.00,1.75,-0.89,1.96,1005.95
12.17,-1.12,1.92,0.20,-5.43,5.63,3.34,1.75,-0.89,1.96,1005.95
12.183,-1.12,1.92,0.20,-5.43,5.63,3.34,1.75,-0.89,1.96,1005.94
12.217,-0.91,1.69,0.19,-5.43,5.63,3.34,1.75,-0.89,1.96,1005.94
12.218,-0.09,1.40,-0.01,-5.43,5.63,3.34,1.75,-0.89,1.96,1005.94
12.219,0.96,1.59,-0.43,-5.43,5.63,3.34,1.75,-0.89,1.96,1005.94
12.219,0.96,1.59,-0.43,-5.43,5.63,3.34,2.01,-1.66,3.38,1005.94
12.219,0.96,1.59,-0.43,-14.01,11.87,6.87,2.01,-1.66,3.38,1005.94
12.264,0.96,1.59,-0.43,-14.01,11.87,6.87,2.01,-1.66,3.38,1005.92
12.275,1.41,1.54,-0.31,-14.01,11.87,6.87,2.01,-1.66,3.38,1005.92
12.278,0.91,1.00,-0.35,-14.01,11.87,6.87,2.01,-1.66,3.38,1005.92
12.279,0.60,0.73,-0.55,-14.01,11.87,6.87,2.01,-1.66,3.38,1005.92
12.28,0.60,0.73,-0.55,-14.01,11.87,6.87,1.64,-0.45,2.29,1005.92
12.281,0.60,0.73,-0.55,1.75,9.54,3.11,1.64,-0.45,2.29,1005.92
12.303,0.60,0.73,-0.55,1.75,9.54,3.11,1.64,-0.45,2.29,1005.92
12.333,0.43,0.55,-0.41,1.75,9.54,3.11,1.64,-0.45,2.29,1005.92
12.334,0.25,0.29,-0.08,1.75,9.54,3.11,1.64,-0.45,2.29,1005.92
12.335,0.20,0.05,0.12,1.75,9.54,3.11,1.64,-0.45,2.29,1005.92
12.335,0.20,0.05,0.12,1.75,9.54,3.11,-0.86,0.41,-0.56,1005.92
12.336,0.20,0.05,0.12,0.67,1.73,0.87,-0.86,0.41,-0.56,1005.92
12.386,0.20,0.05,0.12,0.67,1.73,0.87,-0.86,0.41,-0.56,1005.91
12.392,0.14,0.04,0.03,0.67,1.73,0.87,-0.86,0.41,-0.56,1005.91
12.392,0.08,0.19,-0.14,0.67,1.73,0.87,-0.86,0.41,-0.56,1005.91
12.393,0.13,0.30,-0.27,0.67,1.73,0.87,-0.86,0.41,-0.56,1005.91
12.393,0.13,0.30,-0.27,0.67,1.73,0.87,-1.88,0.01,-2.88,1005.91
12.394,0.13,0.30,-0.27,-2.62,-5.76,4.59,-1.88,0.01,-2.88,1005.91
12.451,0.21,0.33,-0.25,-2.62,-5.76,4.59,-1.88,0.01,-2.88,1005.91
12.452,0.25,0.42,-0.17,-2.62,-5.76,4.59,-1.88,0.01,-2.88,1005.91
12.453,0.24,0.59,-0.13,-2.62,-5.76,4.59,-1.88,0.01,-2.88,1005.91
12.453,0.24,0.59,-0.13,-2.62,-5.76,4.59,-3.29,-0.64,-4.42,1005.91
12.453,0.24,0.59,-0.13,-1.00,-5.83,0.79,-3.29,-0.64,-4.42,1005.91
12.463,0.24,0.59,-0.13,-1.00,-5.83,0.79,-3.29,-0.64,-4.42,1005.98
12.503,0.24,0.59,-0.13,-1.00,-5.83,0.79,-3.29,-0.64,-4.42,1005.98
12.508,0.21,0.81,-0.10,-1.00,-5.83,0.79,-3.29,-0.64,-4.42,1005.98
12.509,0.28,1.19,-0.32,-1.00,-5.83,0.79,-3.29,-0.64,-4.42,1005.98
12.509,0.50,1.73,-0.58,-1.00,-5.83,0.79,-3.29,-0.64,-4.42,1005.98
12.51,0.50,1.73,-0.58,-1.00,-5.83,0.79,-4.56,-1.09,-5.26,1005.98
12.51,0.50,1.73,-0.58,2.76,-3.28,-0.71,-4.56,-1.09,-5.26,1005.98
12.568,0.72,2.00,-0.70,2.76,-3.28,-0.71,-4.56,-1.09,-5.26,1005.98
12.568,1.00,1.93,-0.81,2.76,-3.28,-0.71,-4.56,-1.09,-5.26,1005.98
12.569,1.17,1.52,-0.64,2.76,-3.28,-0.71,-4.56,-1.09,-5.26,1005.98
12.569,1.17,1.52,-0.64,2.76,-3.28,-0.71,-4.70,0.26,-4.10,1005.98
12.57,1.17,1.52,-0.64,7.41,7.29,-6.93,-4.70,0.26,-4.10,1005.98
12.584,1.17,1.52,-0.64,7.41,7.29,-6.93,-4.70,0.26,-4.10,1005.95
12.627,1.18,1.04,-0.72,7.41,7.29,-6.93,-4.70,0.26,-4.10,1005.95
12.629,1.14,0.75,-0.90,7.41,7.29,-6.93,-4.70,0.26,-4.10,1005.95
12.629,0.91,0.66,-0.85,7.41,7.29,-6.93,-4.70,0.26,-4.10,1005.95
12.63,0.91,0.66,-0.85,7.41,7.29,-6.93,-1.85,1.50,-0.75,1005.95
12.63,0.91,0.66,-0.85,13.85,6.11,-9.32,-1.85,1.50,-0.75,1005.95
12.664,0.91,0.66,-0.85,13.85,6.11,-9.32,-1.85,1.50,-0.75,1005.90
12.684,0.72,0.89,-1.04,13.85,6.11,-9.32,-1.85,1.50,-0.75,1005.90
12.685,-0.27,1.61,-0.04,13.85,6.11,-9.32,-1.85,1.50,-0.75,1005.90
12.686,-2.56,1.69,1.50,13.85,6.11,-9.32,-1.85,1.50,-0.75,1005.90
12.687,-2.56,1.69,1.50,13.85,6.11,-9.32,0.09,3.35,0.72,1005.90
12.688,-2.56,1.69,1.50,11.72,-1.16,-10.55,0.09,3.35,0.72,1005.90
12.704,-2.56,1.69,1.50,11.72,-1.16,-10.55,0.09,3.35,0.72,1005.88
12.742,-1.75,2.20,-0.15,11.72,-1.16,-10.55,0.09,3.35,0.72,1005.88
12.743,0.21,1.33,-1.89,11.72,-1.16,-10.55,0.09,3.35,0.72,1005.88
12.744,0.54,0.68,0.32,11.72,-1.16,-10.55,0.09,3.35,0.72,1005.88
12.744,0.54,0.68,0.32,-13.12,8.77,3.72,0.09,3.35,0.72,1005.88
12.745,0.54,0.68,0.32,-13.12,8.77,3.72,1.46,1.19,2.24,1005.88
12.783,0.54,0.68,0.32,-13.12,8.77,3.72,1.46,1.19,2.24,1005.90
12.801,0.25,0.49,0.19,-13.12,8.77,3.72,1.46,1.19,2.24,1005.90
12.802,0.21,0.96,-0.01,-13.12,8.77,3.72,1.46,1.19,2.24,1005.90
12.803,0.31,1.25,-0.20,-13.12,8.77,3.72,1.46,1.19,2.24,1005.90
12.803,0.31,1.25,-0.20,-13.12,8.77,3.72,0.53,-0.45,1.64,1005.90
12.803,0.31,1.25,-0.20,4.15,-1.12,-4.74,0.53,-0.45,1.64,1005.90
12.859,0.20,1.10,-0.13,4.15,-1.12,-4.74,0.53,-0.45,1.64,1005.90
12.86,-0.25,1.00,0.04,4.15,-1.12,-4.74,0.53,-0.45,1.64,1005.90
12.862,-0.28,1.02,0.10,4.15,-1.12,-4.74,0.53,-0.45,1.64,1005.90
12.863,-0.28,1.02,0.10,4.15,-1.12,-4.74,0.20,0.13,0.67,1005.90
12.864,-0.28,1.02,0.10,2.84,1.48,-1.19,0.20,0.13,0.67,1005.90
12.865,-0.28,1.02,0.10,2.84,1.48,-1.19,0.20,0.13,0.67,1005.88
12.904,-0.28,1.02,0.10,2.84,1.48,-1.19,0.20,0.13,0.67,1005.91
12.918,0.00,0.99,0.21,2.84,1.48,-1.19,0.20,0.13,0.67,1005.91
12.921,-0.03,0.92,0.26,2.84,1.48,-1.19,0.20,0.13,0.67,1005.91
12.922,-0.11,0.95,0.21,2.84,1.48,-1.19,0.20,0.13,0.67,1005.91
12.923,-0.11,0.95,0.21,2.84,1.48,-1.19,0.39,-0.03,0.81,1005.91
12.923,-0.11,0.95,0.21,-1.66,0.49,1.24,0.39,-0.03,0.81,1005.91
12.975,0.00,0.99,0.06,-1.66,0.49,1.24,0.39,-0.03,0.81,1005.91
12.977,0.02,0.98,-0.01,-1.66,0.49,1.24,0.39,-0.03,0.81,1005.91
12.978,-0.06,0.99,0.06,-1.66,0.49,1.24,0.39,-0.03,0.81,1005.91
12.979,-0.06,0.99,0.06,-1.66,0.49,1.24,0.61,-0.38,0.96,1005.91
12.98,-0.06,0.99,0.06,-0.91,-0.01,2.14,0.61,-0.38,0.96,1005.91
12.983,-0.06,0.99,0.06,-0.91,-0.01,2.14,0.61,-0.38,0.96,1005.91
13.034,-0.03,1.01,0.10,-0.91,-0.01,2.14,0.61,-0.38,0.96,1005.91
13.035,0.04,1.00,0.07,-0.91,-0.01,2.14,0.61,-0.38,0.96,1005.91
13.036,0.02,1.02,-0.00,-0.91,-0.01,2.14,0.61,-0.38,0.96,1005.91
13.036,0.02,1.02,-0.00,-0.91,-0.01,2.14,0.82,-0.35,1.13,1005.91
13.036,0.02,1.02,-0.00,-1.25,0.48,1.36,0.82,-0.35,1.13,1005.91
13.064,0.02,1.02,-0.00,-1.25,0.48,1.36,0.82,-0.35,1.13,1005.93
13.094,0.03,0.99,-0.08,-1.25,0.48,1.36,0.82,-0.35,1.13,1005.93
13.096,0.10,0.96,-0.10,-1.25,0.48,1.36,0.82,-0.35,1.13,1005.93
13.096,0.16,0.96,-0.06,-1.25,0.48,1.36,0.82,-0.35,1.13,1005.93
13.097,0.16,0.96,-0.06,-1.25,0.48,1.36,0.94,-0.62,1.34,1005.93
13.098,0.16,0.96,-0.06,-1.39,0.72,1.34,0.94,-0.62,1.34,1005.93
13.123,0.16,0.96,-0.06,-1.39,0.72,1.34,0.94,-0.62,1.34,1005.93
13.151,0.14,1.00,-0.06,-1.39,0.72,1.34,0.94,-0.62,1.34,1005.93
13.153,0.07,1.07,-0.10,-1.39,0.72,1.34,0.94,-0.62,1.34,1005.93
13.154,0.09,1.11,-0.16,-1.39,0.72,1.34,0.94,-0.62,1.34,1005.93
13.154,0.09,1.11,-0.16,-1.39,0.72,1.34,1.07,-0.42,1.47,1005.93
13.155,0.09,1.11,-0.16,-1.09,0.69,1.25,1.07,-0.42,1.47,1005.93
13.183,0.09,1.11,-0.16,-1.09,0.69,1.25,1.07,-0.42,1.47,1005.94
13.209,0.06,1.13,-0.18,-1.09,0.69,1.25,1.07,-0.42,1.47,1005.94
13.21,0.00,1.16,-0.13,-1.09,0.69,1.25,1.07,-0.42,1.47,1005.94
13.21,-0.07,1.23,-0.08,-1.09,0.69,1.25,1.07,-0.42,1.47,1005.94
13.21,-0.07,1.23,-0.08,-1.09,0.69,1.25,1.42,-0.24,1.73,1005.94
13.211,-0.07,1.23,-0.08,-2.47,2.42,1.27,1.42,-0.24,1.73,1005.94
13.264,-0.07,1.23,-0.08,-2.47,2.42,1.27,1.42,-0.24,1.73,1005.94
13.267,-0.22,1.47,0.04,-2.47,2.42,1.27,1.42,-0.24,1.73,1005.94
13.268,-0.72,1.89,0.23,-2.47,2.42,1.27,1.42,-0.24,1.73,1005.94
13.269,-1.26,2.05,0.11,-2.47,2.42,1.27,1.42,-0.24,1.73,1005.94
13.27,-1.26,2.05,0.11,-2.47,2.42,1.27,2.02,-0.80,2.17,1005.94
13.272,-1.26,2.05,0.11,-4.88,4.94,3.20,2.02,-0.80,2.17,1005.94
13.304,-1.26,2.05,0.11,-4.88,4.94,3.20,2.02,-0.80,2.17,1005.94
13.326,-1.13,1.84,-0.00,-4.88,4.94,3.20,2.02,-0.80,2.17,1005.94
13.327,-0.17,1.32,-0.10,-4.88,4.94,3.20,2.02,-0.80,2.17,1005.94
13.328,0.84,1.33,-0.56,-4.88,4.94,3.20,2.02,-0.80,2.17,1005.94
13.329,0.84,1.33,-0.56,-14.69,12.48,6.21,2.02,-0.80,2.17,1005.94
13.33,0.84,1.33,-0.56,-14.69,12.48,6.21,2.32,-2.02,3.33,1005.94
13.385,1.49,1.27,-0.49,-14.69,12.48,6.21,2.32,-2.02,3.33,1005.94
13.386,1.28,0.97,-0.51,-14.69,12.48,6.21,2.32,-2.02,3.33,1005.94
13.387,0.64,0.59,-0.47,-14.69,12.48,6.21,2.32,-2.02,3.33,1005.94
13.388,0.64,0.59,-0.47,-14.69,12.48,6.21,1.94,-0.19,2.17,1005.94
13.389,0.64,0.59,-0.47,-14.69,12.48,6.21,1.94,-0.19,2.17,1005.93
13.39,0.64,0.59,-0.47,1.79,7.49,2.03,1.94,-0.19,2.17,1005.93
13.445,0.64,0.59,-0.47,2.58,0.39,0.59,1.94,-0.19,2.17,1005.93
13.446,0.45,0.37,-0.45,2.58,0.39,0.59,1.94,-0.19,2.17,1005.93
13.447,0.30,0.23,-0.10,2.58,0.39,0.59,1.94,-0.19,2.17,1005.93
13.447,0.21,0.06,0.18,2.58,0.39,0.59,1.94,-0.19,2.17,1005.93
13.447,0.21,0.06,0.18,2.58,0.39,0.59,-0.94,0.68,-1.04,1005.93
13.464,0.21,0.06,0.18,2.58,0.39,0.59,-0.94,0.68,-1.04,1005.94
13.504,0.08,0.05,0.13,2.58,0.39,0.59,-0.94,0.68,-1.04,1005.94
13.505,0.01,0.15,-0.05,2.58,0.39,0.59,-0.94,0.68,-1.04,1005.94
13.506,0.07,0.27,-0.10,2.58,0.39,0.59,-0.94,0.68,-1.04,1005.94
13.506,0.07,0.27,-0.10,2.58,0.39,0.59,-1.94,0.05,-3.10,1005.94
13.507,0.07,0.27,-0.10,-2.04,-6.09,5.11,-1.94,0.05,-3.10,1005.94
13.508,0.07,0.27,-0.10,-2.04,-6.09,5.11,-1.94,0.05,-3.10,1005.97
13.559,0.20,0.40,-0.18,-2.04,-6.09,5.11,-1.94,0.05,-3.10,1005.97
13.56,0.19,0.56,-0.18,-2.04,-6.09,5.11,-1.94,0.05,-3.10,1005.97
13.561,0.11,0.69,-0.12,-2.04,-6.09,5.11,-1.94,0.05,-3.10,1005.97
13.562,0.11,0.69,-0.12,-2.04,-6.09,5.11,-3.32,-1.14,-4.33,1005.97
13.563,0.11,0.69,-0.12,-0.77,-5.85,1.94,-3.32,-1.14,-4.33,1005.97
13.584,0.11,0.69,-0.12,-0.77,-5.85,1.94,-3.32,-1.14,-4.33,1006.01
13.617,0.12,0.87,-0.32,-0.77,-5.85,1.94,-3.32,-1.14,-4.33,1006.01
13.618,0.28,1.22,-0.42,-0.77,-5.85,1.94,-3.32,-1.14,-4.33,1006.01
13.618,0.37,1.81,-0.53,-0.77,-5.85,1.94,-3.32,-1.14,-4.33,1006.01
13.619,0.37,1.81,-0.53,-0.77,-5.85,1.94,-4.69,-1.45,-4.71,1006.01
13.619,0.37,1.81,-0.53,2.26,-2.17,-1.45,-4.69,-1.45,-4.71,1006.01
13.664,0.37,1.81,-0.53,2.26,-2.17,-1.45,-4.69,-1.45,-4.71,1005.95
13.675,0.33,2.13,-0.80,2.26,-2.17,-1.45,-4.69,-1.45,-4.71,1005.95
13.675,0.59,1.81,-0.84,2.26,-2.17,-1.45,-4.69,-1.45,-4.71,1005.95
13.676,0.96,1.24,-0.63,2.26,-2.17,-1.45,-4.69,-1.45,-4.71,1005.95
13.676,0.96,1.24,-0.63,2.26,-2.17,-1.45,-4.50,-0.35,-3.74,1005.95
13.676,0.96,1.24,-0.63,5.93,8.18,-7.36,-4.50,-0.35,-3.74,1005.95
13.704,0.96,1.24,-0.63,5.93,8.18,-7.36,-4.50,-0.35,-3.74,1005.89
13.734,1.16,0.98,-0.71,5.93,8.18,-7.36,-4.50,-0.35,-3.74,1005.89
13.735,1.02,0.94,-0.86,5.93,8.18,-7.36,-4.50,-0.35,-3.74,1005.89
13.735,0.78,0.74,-0.78,5.93,8.18,-7.36,-4.50,-0.35,-3.74,1005.89
13.736,0.78,0.74,-0.78,5.93,8.18,-7.36,-1.44,1.05,-0.60,1005.89
13.736,0.78,0.74,-0.78,11.86,4.65,-9.15,-1.44,1.05,-0.60,1005.89
13.784,0.78,0.74,-0.78,11.86,4.65,-9.15,-1.44,1.05,-0.60,1005.88
13.793,0.62,0.98,-0.84,11.86,4.65,-9.15,-1.44,1.05,-0.60,1005.88
13.794,-0.38,1.60,-0.08,11.86,4.65,-9.15,-1.44,1.05,-0.60,1005.88
13.794,-2.27,1.72,1.23,11.86,4.65,-9.15,-1.44,1.05,-0.60,1005.88
13.795,-2.27,1.72,1.23,11.86,4.65,-9.15,0.04,2.59,0.52,1005.88
13.795,-2.27,1.72,1.23,10.70,0.08,-9.44,0.04,2.59,0.52,1005.88
13.851,-1.15,1.76,-0.18,10.70,0.08,-9.44,0.04,2.59,0.52,1005.88
13.852,0.31,1.24,-1.30,10.70,0.08,-9.44,0.04,2.59,0.52,1005.88
13.852,0.28,0.82,0.25,10.70,0.08,-9.44,0.04,2.59,0.52,1005.88
13.853,0.28,0.82,0.25,10.70,0.08,-9.44,1.54,1.53,1.92,1005.88
13.853,0.28,0.82,0.25,-10.30,7.58,2.78,1.54,1.53,1.92,1005.88
13.864,0.28,0.82,0.25,-10.30,7.58,2.78,1.54,1.53,1.92,1005.88
13.903,0.28,0.82,0.25,-10.30,7.58,2.78,1.54,1.53,1.92,1005.90
13.931,-0.09,0.65,0.06,-10.30,7.58,2.78,1.54,1.53,1.92,1005.90
13.933,-0.01,0.91,0.18,-10.30,7.58,2.78,1.54,1.53,1.92,1005.90
13.934,0.21,1.11,-0.19,-10.30,7.58,2.78,1.54,1.53,1.92,1005.90
13.935,0.21,1.11,-0.19,-10.30,7.58,2.78,0.71,-0.04,1.58,1005.90
13.936,0.21,1.11,-0.19,2.81,-0.35,-3.18,0.71,-0.04,1.58,1005.90
13.967,0.26,1.09,-0.13,2.81,-0.35,-3.18,0.71,-0.04,1.58,1005.90
13.968,-0.10,1.05,-0.04,2.81,-0.35,-3.18,0.71,-0.04,1.58,1005.90
13.969,-0.19,1.02,-0.04,2.81,-0.35,-3.18,0.71,-0.04,1.58,1005.90
13.969,-0.19,1.02,-0.04,2.81,-0.35,-3.18,0.35,0.17,0.88,1005.90
13.97,-0.19,1.02,-0.04,2.19,0.91,-0.22,0.35,0.17,0.88,1005.90
13.983,-0.19,1.02,-0.04,2.19,0.91,-0.22,0.35,0.17,0.88,1005.92
14.025,0.04,1.02,0.04,2.19,0.91,-0.22,0.35,0.17,0.88,1005.92
14.026,0.05,1.00,0.08,2.19,0.91,-0.22,0.35,0.17,0.88,1005.92
14.027,0.00,0.96,0.09,2.19,0.91,-0.22,0.35,0.17,0.88,1005.92
14.027,0.00,0.96,0.09,2.19,0.91,-0.22,0.25,0.13,0.70,1005.92
14.028,0.00,0.96,0.09,-0.49,0.79,0.24,0.25,0.13,0.70,1005.92
14.064,0.00,0.96,0.09,-0.49,0.79,0.24,0.25,0.13,0.70,1005.93
14.084,0.03,0.99,0.04,-0.49,0.79,0.24,0.25,0.13,0.70,1005.93
14.085,0.04,0.99,0.05,-0.49,0.79,0.24,0.25,0.13,0.70,1005.93
14.086,-0.04,0.98,0.02,-0.49,0.79,0.24,0.25,0.13,0.70,1005.93
14.087,-0.04,0.98,0.02,-0.49,0.79,0.24,0.34,-0.13,0.55,1005.93
14.088,-0.04,0.98,0.02,0.30,0.31,1.24,0.34,-0.13,0.55,1005.93
14.103,-0.04,0.98,0.02,0.30,0.31,1.24,0.34,-0.13,0.55,1005.93
14.143,-0.12,1.01,0.02,0.30,0.31,1.24,0.34,-0.13,0.55,1005.93
14.144,-0.06,0.99,0.05,0.30,0.31,1.24,0.34,-0.13,0.55,1005.93
14.144,0.04,0.97,0.10,0.30,0.31,1.24,0.34,-0.13,0.55,1005.93
14.145,0.04,0.97,0.10,0.30,0.31,1.24,0.59,0.04,0.59,1005.93
14.145,0.04,0.97,0.10,-0.66,0.46,1.14,0.59,0.04,0.59,1005.93
14.184,0.04,0.97,0.10,-0.66,0.46,1.14,0.59,0.04,0.59,1005.93
14.202,0.04,0.97,0.10,-0.53,0.24,1.82,0.59,0.04,0.59,1005.93
14.206,0.05,0.94,0.04,-0.53,0.24,1.82,0.59,0.04,0.59,1005.93
14.207,0.06,0.90,-0.14,-0.53,0.24,1.82,0.59,0.04,0.59,1005.93
14.207,0.10,0.93,-0.20,-0.53,0.24,1.82,0.59,0.04,0.59,1005.93
14.208,0.10,0.93,-0.20,-0.53,0.24,1.82,0.75,-0.17,0.70,1005.93
14.259,0.16,0.94,-0.19,-0.53,0.24,1.82,0.75,-0.17,0.70,1005.93
14.26,0.11,1.00,-0.07,-0.53,0.24,1.82,0.75,-0.17,0.70,1005.93
14.261,-0.04,1.10,0.16,-0.53,0.24,1.82,0.75,-0.17,0.70,1005.93
14.261,-0.04,1.10,0.16,-0.53,0.24,1.82,0.61,-0.44,0.68,1005.93
14.262,-0.04,1.10,0.16,0.07,-0.07,-0.16,0.61,-0.44,0.68,1005.93
14.264,-0.04,1.10,0.16,0.07,-0.07,-0.16,0.61,-0.44,0.68,1005.93
14.304,-0.04,1.10,0.16,0.07,-0.07,-0.16,0.61,-0.44,0.68,1005.93
14.326,-0.22,1.07,0.24,0.07,-0.07,-0.16,0.61,-0.44,0.68,1005.93
14.326,-0.30,1.18,0.14,0.07,-0.07,-0.16,0.61,-0.44,0.68,1005.93
14.327,-0.34,1.50,0.11,0.07,-0.07,-0.16,0.61,-0.44,0.68,1005.93
14.327,-0.34,1.50,0.11,0.07,-0.07,-0.16,0.83,-1.43,1.38,1005.93
14.328,-0.34,1.50,0.11,-1.98,1.39,3.13,0.83,-1.43,1.38,1005.93
14.376,-0.27,1.85,0.33,-1.98,1.39,3.13,0.83,-1.43,1.38,1005.93
14.377,-0.18,1.94,0.08,-1.98,1.39,3.13,0.83,-1.43,1.38,1005.93
14.378,-0.21,1.54,-0.41,-1.98,1.39,3.13,0.83,-1.43,1.38,1005.93
14.378,-0.21,1.54,-0.41,-1.98,1.39,3.13,0.10,-4.26,2.94,1005.93
14.378,-0.21,1.54,-0.41,-5.33,6.06,4.46,0.10,-4.26,2.94,1005.93
14.384,-0.21,1.54,-0.41,-5.33,6.06,4.46,0.10,-4.26,2.94,1005.94
14.435,-0.07,0.97,-0.59,-5.33,6.06,4.46,0.10,-4.26,2.94,1005.94
14.435,0.31,0.67,-0.70,-5.33,6.06,4.46,0.10,-4.26,2.94,1005.94
14.435,0.30,0.50,-0.88,-5.33,6.06,4.46,0.10,-4.26,2.94,1005.94
14.435,0.30,0.50,-0.88,-5.33,6.06,4.46,-1.55,-6.21,3.52,1005.94
14.436,0.30,0.50,-0.88,-4.57,6.04,-0.23,-1.55,-6.21,3.52,1005.94
14.463,0.30,0.50,-0.88,-4.57,6.04,-0.23,-1.55,-6.21,3.52,1005.94
14.501,-0.02,0.48,-0.76,-4.57,6.04,-0.23,-1.55,-6.21,3.52,1005.94
14.504,-0.29,0.54,-0.81,-4.57,6.04,-0.23,-1.55,-6.21,3.52,1005.94
14.506,-0.48,0.48,-0.93,-4.57,6.04,-0.23,-1.55,-6.21,3.52,1005.94
14.508,-0.48,0.48,-0.93,-4.57,6.04,-0.23,-2.88,-5.88,2.16,1005.94
14.509,-0.48,0.48,-0.93,-1.28,-3.09,-5.09,-2.88,-5.88,2.16,1005.94
14.51,-0.48,0.48,-0.93,-1.28,-3.09,-5.09,-2.88,-5.88,2.16,1005.94
14.551,-0.63,0.47,-1.05,-1.28,-3.09,-5.09,-2.88,-5.88,2.16,1005.94
14.552,-0.53,0.54,-1.08,-1.28,-3.09,-5.09,-2.88,-5.88,2.16,1005.94
14.553,-0.41,0.61,-1.04,-1.28,-3.09,-5.09,-2.88,-5.88,2.16,1005.94
14.553,-0.41,0.61,-1.04,-1.28,-3.09,-5.09,-2.67,-6.04,0.88,1005.94
14.554,-0.41,0.61,-1.04,-7.24,-3.79,-6.73,-2.67,-6.04,0.88,1005.94
14.584,-0.41,0.61,-1.04,-7.24,-3.79,-6.73,-2.67,-6.04,0.88,1005.94
14.609,-0.40,0.66,-0.96,-7.24,-3.79,-6.73,-2.67,-6.04,0.88,1005.94
14.61,-0.40,0.73,-0.88,-7.24,-3.79,-6.73,-2.67,-6.04,0.88,1005.94
14.61,-0.34,0.83,-0.83,-7.24,-3.79,-6.73,-2.67,-6.04,0.88,1005.94
14.61,-0.34,0.83,-0.83,-5.93,-3.05,-7.96,-2.67,-6.04,0.88,1005.94
14.611,-0.34,0.83,-0.83,-5.93,-3.05,-7.96,-2.18,-5.60,-0.60,1005.94
14.664,-0.34,0.83,-0.83,-5.93,-3.05,-7.96,-2.18,-5.60,-0.60,1005.94
14.667,-0.34,0.83,-0.83,-3.33,-1.13,-6.58,-2.18,-5.60,-0.60,1005.94
14.668,-0.24,0.91,-0.79,-3.33,-1.13,-6.58,-2.18,-5.60,-0.60,1005.94
14.668,-0.19,0.98,-0.71,-3.33,-1.13,-6.58,-2.18,-5.60,-0.60,1005.94
14.669,-0.18,1.04,-0.64,-3.33,-1.13,-6.58,-2.18,-5.60,-0.60,1005.94
14.669,-0.18,1.04,-0.64,-3.33,-1.13,-6.58,-1.70,-5.06,-1.56,1005.94
14.703,-0.18,1.04,-0.64,-3.33,-1.13,-6.58,-1.70,-5.06,-1.56,1005.94
14.725,-0.18,1.04,-0.64,-0.46,0.84,-5.42,-1.70,-5.06,-1.56,1005.94
14.726,-0.07,1.07,-0.60,-0.46,0.84,-5.42,-1.70,-5.06,-1.56,1005.94
14.726,0.05,1.13,-0.54,-0.46,0.84,-5.42,-1.70,-5.06,-1.56,1005.94
14.727,0.14,1.13,-0.50,-0.46,0.84,-5.42,-1.70,-5.06,-1.56,1005.94
14.727,0.14,1.13,-0.50,-0.46,0.84,-5.42,-1.15,-4.20,-1.51,1005.94
14.783,0.23,1.06,-0.43,-0.46,0.84,-5.42,-1.15,-4.20,-1.51,1005.94
14.784,0.25,0.99,-0.31,-0.46,0.84,-5.42,-1.15,-4.20,-1.51,1005.94
14.784,0.25,0.90,-0.23,-0.46,0.84,-5.42,-1.15,-4.20,-1.51,1005.94
14.785,0.25,0.90,-0.23,-0.46,0.84,-5.42,-0.61,-2.84,-0.98,1005.94
14.785,0.25,0.90,-0.23,2.97,1.64,-4.32,-0.61,-2.84,-0.98,1005.94
14.786,0.25,0.90,-0.23,2.97,1.64,-4.32,-0.61,-2.84,-0.98,1005.95
14.842,0.27,0.86,-0.17,2.97,1.64,-4.32,-0.61,-2.84,-0.98,1005.95
14.843,0.31,0.85,-0.09,2.97,1.64,-4.32,-0.61,-2.84,-0.98,1005.95
14.843,0.36,0.84,-0.08,2.97,1.64,-4.32,-0.61,-2.84,-0.98,1005.95
14.843,0.36,0.84,-0.08,4.19,-0.19,-2.02,-0.61,-2.84,-0.98,1005.95
14.844,0.36,0.84,-0.08,4.19,-0.19,-2.02,0.06,-2.48,-0.27,1005.95
14.863,0.36,0.84,-0.08,4.19,-0.19,-2.02,0.06,-2.48,-0.27,1005.94
14.903,0.46,0.80,-0.07,4.19,-0.19,-2.02,0.06,-2.48,-0.27,1005.94
14.904,0.54,0.77,-0.16,4.19,-0.19,-2.02,0.06,-2.48,-0.27,1005.94
14.905,0.65,0.84,-0.23,4.19,-0.19,-2.02,0.06,-2.48,-0.27,1005.94
14.905,0.65,0.84,-0.23,4.19,-0.19,-2.02,0.37,-2.33,0.60,1005.94
14.906,0.65,0.84,-0.23,5.00,-1.06,-0.52,0.37,-2.33,0.60,1005.94
14.906,0.65,0.84,-0.23,5.00,-1.06,-0.52,0.37,-2.33,0.60,1005.93
14.959,0.57,1.21,-0.04,5.00,-1.06,-0.52,0.37,-2.33,0.60,1005.93
14.96,-0.05,1.80,0.77,5.00,-1.06,-0.52,0.37,-2.33,0.60,1005.93
14.96,-0.76,2.03,0.60,5.00,-1.06,-0.52,0.37,-2.33,0.60,1005.93
14.96,-0.76,2.03,0.60,5.00,-1.06,-0.52,-0.70,0.40,0.65,1005.93
14.961,-0.76,2.03,0.60,6.63,-0.05,-1.43,-0.70,0.40,0.65,1005.93
14.984,-0.76,2.03,0.60,6.63,-0.05,-1.43,-0.70,0.40,0.65,1005.94
15.02,-0.61,1.06,-0.36,6.63,-0.05,-1.43,-0.70,0.40,0.65,1005.94
15.021,-0.11,0.51,-0.32,6.63,-0.05,-1.43,-0.70,0.40,0.65,1005.94
15.021,0.12,0.83,-0.18,6.63,-0.05,-1.43,-0.70,0.40,0.65,1005.94
15.022,0.12,0.83,-0.18,6.63,-0.05,-1.43,0.54,0.34,1.24,1005.94
15.022,0.12,0.83,-0.18,-4.32,6.59,3.48,0.54,0.34,1.24,1005.94
15.066,0.12,0.83,-0.18,-4.32,6.59,3.48,0.54,0.34,1.24,1005.92
15.075,0.19,1.17,0.07,-4.32,6.59,3.48,0.54,0.34,1.24,1005.92
15.076,0.25,1.16,0.15,-4.32,6.59,3.48,0.54,0.34,1.24,1005.92
15.077,0.19,0.98,-0.02,-4.32,6.59,3.48,0.54,0.34,1.24,1005.92
15.077,0.19,0.98,-0.02,0.38,-1.18,-1.21,0.54,0.34,1.24,1005.92
15.077,0.19,0.98,-0.02,0.38,-1.18,-1.21,-0.02,-0.33,1.04,1005.92
15.105,0.19,0.98,-0.02,0.38,-1.18,-1.21,-0.02,-0.33,1.04,1005.92
15.133,0.05,1.01,-0.09,0.38,-1.18,-1.21,-0.02,-0.33,1.04,1005.92
15.134,-0.01,1.06,-0.06,0.38,-1.18,-1.21,-0.02,-0.33,1.04,1005.92
15.135,-0.01,1.03,0.00,0.38,-1.18,-1.21,-0.02,-0.33,1.04,1005.92
15.136,-0.01,1.03,0.00,0.38,-1.18,-1.21,0.09,-0.15,0.56,1005.92
15.136,-0.01,1.03,0.00,0.97,0.90,0.38,0.09,-0.15,0.56,1005.92
15.185,-0.01,1.03,0.00,0.97,0.90,0.38,0.09,-0.15,0.56,1005.93
15.193,-0.01,1.03,0.00,-0.81,0.67,0.29,0.09,-0.15,0.56,1005.93
15.193,0.04,0.99,0.04,-0.81,0.67,0.29,0.09,-0.15,0.56,1005.93
15.194,0.06,1.00,0.02,-0.81,0.67,0.29,0.09,-0.15,0.56,1005.93
15.194,0.09,1.01,0.06,-0.81,0.67,0.29,0.09,-0.15,0.56,1005.93
15.195,0.09,1.01,0.06,-0.81,0.67,0.29,0.19,-0.34,0.55,1005.93
15.249,0.04,0.98,0.05,-0.81,0.67,0.29,0.19,-0.34,0.55,1005.93
15.25,0.05,0.99,0.04,-0.81,0.67,0.29,0.19,-0.34,0.55,1005.93
15.25,0.06,1.00,-0.02,-0.81,0.67,0.29,0.19,-0.34,0.55,1005.93
15.25,0.06,1.00,-0.02,-0.81,0.67,0.29,0.33,-0.34,0.60,1005.93
15.251,0.06,1.00,-0.02,-0.55,0.43,1.01,0.33,-0.34,0.60,1005.93
15.263,0.06,1.00,-0.02,-0.55,0.43,1.01,0.33,-0.34,0.60,1005.94
15.303,0.06,1.00,-0.02,-0.55,0.43,1.01,0.33,-0.34,0.60,1005.95
15.317,-0.01,1.03,-0.05,-0.55,0.43,1.01,0.33,-0.34,0.60,1005.95
15.318,0.01,1.01,-0.01,-0.55,0.43,1.01,0.33,-0.34,0.60,1005.95
15.318,0.12,0.98,-0.00,-0.55,0.43,1.01,0.33,-0.34,0.60,1005.95
15.319,0.12,0.98,-0.00,-0.55,0.43,1.01,0.46,-0.44,0.81,1005.95
15.319,0.12,0.98,-0.00,-1.28,0.62,0.74,0.46,-0.44,0.81,1005.95
15.366,0.19,0.97,-0.04,-1.28,0.62,0.74,0.46,-0.44,0.81,1005.95
15.367,0.22,0.99,-0.08,-1.28,0.62,0.74,0.46,-0.44,0.81,1005.95
15.367,0.13,1.04,-0.11,-1.28,0.62,0.74,0.46,-0.44,0.81,1005.95
15.367,0.13,1.04,-0.11,-1.28,0.62,0.74,0.56,-0.50,0.92,1005.95
15.367,0.13,1.04,-0.11,-1.02,0.51,1.01,0.56,-0.50,0.92,1005.95
15.384,0.13,1.04,-0.11,-1.02,0.51,1.01,0.56,-0.50,0.92,1005.95
15.425,0.07,1.05,-0.10,-1.02,0.51,1.01,0.56,-0.50,0.92,1005.95
15.426,0.20,1.03,-0.10,-1.02,0.51,1.01,0.56,-0.50,0.92,1005.95
15.426,0.26,1.00,-0.11,-1.02,0.51,1.01,0.56,-0.50,0.92,1005.95
15.426,0.26,1.00,-0.11,-1.02,0.51,1.01,0.58,-0.56,1.00,1005.95
15.427,0.26,1.00,-0.11,-1.11,1.09,0.58,0.58,-0.56,1.00,1005.95
15.463,0.26,1.00,-0.11,-1.11,1.09,0.58,0.58,-0.56,1.00,1005.96
15.483,0.12,1.07,-0.09,-1.11,1.09,0.58,0.58,-0.56,1.00,1005.96
15.483,-0.03,1.14,-0.09,-1.11,1.09,0.58,0.58,-0.56,1.00,1005.96
15.483,-0.08,1.17,-0.14,-1.11,1.09,0.58,0.58,-0.56,1.00,1005.96
15.484,-0.08,1.17,-0.14,-1.11,1.09,0.58,0.75,-0.52,1.22,1005.96
15.484,-0.08,1.17,-0.14,-1.17,1.41,1.02,0.75,-0.52,1.22,1005.96
15.504,-0.08,1.17,-0.14,-1.17,1.41,1.02,0.75,-0.52,1.22,1005.95
15.542,-0.07,1.21,-0.10,-1.17,1.41,1.02,0.75,-0.52,1.22,1005.95
15.543,-0.11,1.30,0.01,-1.17,1.41,1.02,0.75,-0.52,1.22,1005.95
15.543,-0.36,1.55,0.13,-1.17,1.41,1.02,0.75,-0.52,1.22,1005.95
15.544,-0.36,1.55,0.13,-1.17,1.41,1.02,1.38,-0.68,1.90,1005.95
15.544,-0.36,1.55,0.13,-4.43,3.31,1.72,1.38,-0.68,1.90,1005.95
15.584,-0.36,1.55,0.13,-4.43,3.31,1.72,1.38,-0.68,1.90,1005.95
15.601,-0.52,1.89,0.11,-4.43,3.31,1.72,1.38,-0.68,1.90,1005.95
15.601,-0.92,2.01,0.01,-4.43,3.31,1.72,1.38,-0.68,1.90,1005.95
15.602,-1.17,1.85,0.05,-4.43,3.31,1.72,1.38,-0.68,1.90,1005.95
15.602,-1.17,1.85,0.05,-4.43,3.31,1.72,1.97,-1.17,2.59,1005.95
15.602,-1.17,1.85,0.05,-7.88,8.17,4.70,1.97,-1.17,2.59,1005.95
15.659,-0.32,1.34,-0.10,-7.88,8.17,4.70,1.97,-1.17,2.59,1005.95
15.66,0.77,1.22,-0.55,-7.88,8.17,4.70,1.97,-1.17,2.59,1005.95
15.661,1.39,1.18,-0.38,-7.88,8.17,4.70,1.97,-1.17,2.59,1005.95
15.661,1.39,1.18,-0.38,-7.88,8.17,4.70,2.06,-2.14,3.77,1005.95
15.661,1.39,1.18,-0.38,-13.12,11.19,5.08,2.06,-2.14,3.77,1005.95
15.664,1.39,1.18,-0.38,-13.12,11.19,5.08,2.06,-2.14,3.77,1005.94
15.703,1.39,1.18,-0.38,-13.12,11.19,5.08,2.06,-2.14,3.77,1005.92
15.717,1.19,0.91,-0.51,-13.12,11.19,5.08,2.06,-2.14,3.77,1005.92
15.718,0.66,0.56,-0.66,-13.12,11.19,5.08,2.06,-2.14,3.77,1005.92
15.718,0.36,0.45,-0.74,-13.12,11.19,5.08,2.06,-2.14,3.77,1005.92
15.718,0.36,0.45,-0.74,-13.12,11.19,5.08,0.78,-0.17,1.07,1005.92
15.719,0.36,0.45,-0.74,5.33,5.48,0.81,0.78,-0.17,1.07,1005.92
15.776,0.10,0.27,-0.32,5.33,5.48,0.81,0.78,-0.17,1.07,1005.92
15.777,-0.14,0.02,0.07,5.33,5.48,0.81,0.78,-0.17,1.07,1005.92
15.778,-0.31,-0.00,0.05,5.33,5.48,0.81,0.78,-0.17,1.07,1005.92
15.778,-0.31,-0.00,0.05,5.33,5.48,0.81,-2.11,0.37,-1.56,1005.92
15.778,-0.31,-0.00,0.05,-1.52,-2.24,-0.92,-2.11,0.37,-1.56,1005.92
15.784,-0.31,-0.00,0.05,-1.52,-2.24,-0.92,-2.11,0.37,-1.56,1005.90
15.834,-0.20,0.22,-0.27,-1.52,-2.24,-0.92,-2.11,0.37,-1.56,1005.90
15.835,-0.01,0.42,-0.47,-1.52,-2.24,-0.92,-2.11,0.37,-1.56,1005.90
15.836,0.04,0.51,-0.40,-1.52,-2.24,-0.92,-2.11,0.37,-1.56,1005.90
15.837,0.04,0.51,-0.40,-1.52,-2.24,-0.92,-2.50,-0.87,-3.01,1005.90
15.837,0.04,0.51,-0.40,-5.75,-6.91,3.30,-2.50,-0.87,-3.01,1005.90
15.865,0.04,0.51,-0.40,-5.75,-6.91,3.30,-2.50,-0.87,-3.01,1005.90
15.892,0.01,0.56,-0.34,-5.75,-6.91,3.30,-2.50,-0.87,-3.01,1005.90
15.893,0.04,0.63,-0.31,-5.75,-6.91,3.30,-2.50,-0.87,-3.01,1005.90
15.895,0.05,0.79,-0.36,-5.75,-6.91,3.30,-2.50,-0.87,-3.01,1005.90
15.896,0.05,0.79,-0.36,-5.75,-6.91,3.30,-3.64,-1.44,-4.42,1005.90
15.896,0.05,0.79,-0.36,-1.06,-4.05,-1.69,-3.64,-1.44,-4.42,1005.90
15.906,0.05,0.79,-0.36,-1.06,-4.05,-1.69,-3.64,-1.44,-4.42,1005.97
15.95,0.01,1.06,-0.51,-1.06,-4.05,-1.69,-3.64,-1.44,-4.42,1005.97
15.951,0.19,1.56,-0.76,-1.06,-4.05,-1.69,-3.64,-1.44,-4.42,1005.97
15.951,0.55,1.83,-0.98,-1.06,-4.05,-1.69,-3.64,-1.44,-4.42,1005.97
15.951,0.55,1.83,-0.98,-1.06,-4.05,-1.69,-4.00,-0.66,-5.14,1005.97
15.952,0.55,1.83,-0.98,1.92,-0.99,-3.67,-4.00,-0.66,-5.14,1005.97
15.984,0.55,1.83,-0.98,1.92,-0.99,-3.67,-4.00,-0.66,-5.14,1005.95
16.009,0.92,1.68,-0.84,1.92,-0.99,-3.67,-4.00,-0.66,-5.14,1005.95
16.01,1.20,1.53,-0.67,1.92,-0.99,-3.67,-4.00,-0.66,-5.14,1005.95
16.01,1.39,1.16,-0.46,1.92,-0.99,-3.67,-4.00,-0.66,-5.14,1005.95
16.011,1.39,1.16,-0.46,1.92,-0.99,-3.67,-3.23,1.31,-3.74,1005.95
16.011,1.39,1.16,-0.46,8.84,8.01,-9.51,-3.23,1.31,-3.74,1005.95
16.064,1.39,1.16,-0.46,8.84,8.01,-9.51,-3.23,1.31,-3.74,1005.92
16.066,1.16,0.98,-0.41,8.84,8.01,-9.51,-3.23,1.31,-3.74,1005.92
16.067,0.81,0.91,-0.61,8.84,8.01,-9.51,-3.23,1.31,-3.74,1005.92
16.068,0.70,1.11,-0.82,8.84,8.01,-9.51,-3.23,1.31,-3.74,1005.92
16.069,0.70,1.11,-0.82,8.84,8.01,-9.51,-0.21,2.11,0.45,1005.92
16.07,0.70,1.11,-0.82,15.30,3.28,-5.72,-0.21,2.11,0.45,1005.92
16.104,0.70,1.11,-0.82,15.30,3.28,-5.72,-0.21,2.11,0.45,1005.86
16.127,-0.58,1.58,0.17,15.30,3.28,-5.72,-0.21,2.11,0.45,1005.86
16.128,-2.47,1.75,0.82,15.30,3.28,-5.72,-0.21,2.11,0.45,1005.86
16.129,-1.06,1.76,-0.27,15.30,3.28,-5.72,-0.21,2.11,0.45,1005.86
16.13,-1.06,1.76,-0.27,15.30,3.28,-5.72,0.45,2.05,0.22,1005.86
16.131,-1.06,1.76,-0.27,5.94,2.94,-4.11,0.45,2.05,0.22,1005.86
16.184,0.46,1.08,-0.99,5.94,2.94,-4.11,0.45,2.05,0.22,1005.86
16.186,0.61,0.67,-0.34,5.94,2.94,-4.11,0.45,2.05,0.22,1005.86
16.187,0.53,0.67,0.20,5.94,2.94,-4.11,0.45,2.05,0.22,1005.86
16.188,0.53,0.67,0.20,-8.49,5.74,-0.94,0.45,2.05,0.22,1005.86
16.189,0.53,0.67,0.20,-8.49,5.74,-0.94,0.79,0.56,2.87,1005.86
16.19,0.53,0.67,0.20,-8.49,5.74,-0.94,0.79,0.56,2.87,1005.87
16.242,0.14,0.92,0.39,-8.49,5.74,-0.94,0.79,0.56,2.87,1005.87
16.243,-0.15,1.10,0.09,-8.49,5.74,-0.94,0.79,0.56,2.87,1005.87
16.243,-0.19,1.11,-0.23,-8.49,5.74,-0.94,0.79,0.56,2.87,1005.87
16.244,-0.19,1.11,-0.23,-8.49,5.74,-0.94,0.41,-0.15,1.04,1005.87
16.244,-0.19,1.11,-0.23,5.09,-1.89,1.53,0.41,-0.15,1.04,1005.87
16.264,-0.19,1.11,-0.23,5.09,-1.89,1.53,0.41,-0.15,1.04,1005.98
16.302,-0.19,1.11,-0.23,-0.67,1.34,-0.16,0.41,-0.15,1.04,1005.98
16.303,0.01,1.05,-0.18,-0.67,1.34,-0.16,0.41,-0.15,1.04,1005.98
16.304,0.04,0.99,-0.13,-0.67,1.34,-0.16,0.41,-0.15,1.04,1005.98
16.304,0.04,0.97,-0.10,-0.67,1.34,-0.16,0.41,-0.15,1.04,1005.98
16.305,0.04,0.97,-0.10,-0.67,1.34,-0.16,0.33,0.46,0.87,1005.98
16.305,0.04,0.97,-0.10,-0.67,1.34,-0.16,0.33,0.46,0.87,1005.99
16.358,-0.09,0.99,-0.04,-0.67,1.34,-0.16,0.33,0.46,0.87,1005.99
16.359,-0.25,1.03,0.01,-0.67,1.34,-0.16,0.33,0.46,0.87,1005.99
16.36,-0.26,1.00,0.03,-0.67,1.34,-0.16,0.33,0.46,0.87,1005.99
16.36,-0.26,1.00,0.03,-0.67,1.34,-0.16,0.33,0.61,0.73,1005.99
16.361,-0.26,1.00,0.03,-0.08,0.33,0.15,0.33,0.61,0.73,1005.99
16.384,-0.26,1.00,0.03,-0.08,0.33,0.15,0.33,0.61,0.73,1005.96
16.417,-0.10,0.98,-0.05,-0.08,0.33,0.15,0.33,0.61,0.73,1005.96
16.418,0.08,0.96,-0.15,-0.08,0.33,0.15,0.33,0.61,0.73,1005.96
16.418,0.12,0.98,-0.14,-0.08,0.33,0.15,0.33,0.61,0.73,1005.96
16.419,0.12,0.98,-0.14,-0.08,0.33,0.15,0.59,0.01,1.15,1005.96
16.419,0.12,0.98,-0.14,-2.58,0.58,1.34,0.59,0.01,1.15,1005.96
16.464,0.12,0.98,-0.14,-2.58,0.58,1.34,0.59,0.01,1.15,1005.95
16.475,0.07,1.00,-0.12,-2.58,0.58,1.34,0.59,0.01,1.15,1005.95
16.476,0.06,1.01,-0.11,-2.58,0.58,1.34,0.59,0.01,1.15,1005.95
16.476,0.14,1.01,-0.19,-2.58,0.58,1.34,0.59,0.01,1.15,1005.95
16.477,0.14,1.01,-0.19,-2.58,0.58,1.34,0.62,-0.15,1.05,1005.95
16.477,0.14,1.01,-0.19,-0.29,0.46,0.34,0.62,-0.15,1.05,1005.95
16.504,0.14,1.01,-0.19,-0.29,0.46,0.34,0.62,-0.15,1.05,1005.95
16.533,0.15,1.04,-0.22,-0.29,0.46,0.34,0.62,-0.15,1.05,1005.95
16.535,-0.02,1.07,-0.17,-0.29,0.46,0.34,0.62,-0.15,1.05,1005.95
16.535,-0.12,1.08,-0.13,-0.29,0.46,0.34,0.62,-0.15,1.05,1005.95
16.536,-0.12,1.08,-0.13,-0.29,0.46,0.34,0.67,-0.21,1.03,1005.95
16.536,-0.12,1.08,-0.13,-0.52,0.99,0.41,0.67,-0.21,1.03,1005.95
16.585,-0.12,1.08,-0.13,-0.52,0.99,0.41,0.67,-0.21,1.03,1005.95
16.592,-0.02,1.09,-0.10,-0.52,0.99,0.41,0.67,-0.21,1.03,1005.95
16.593,0.02,1.13,-0.04,-0.52,0.99,0.41,0.67,-0.21,1.03,1005.95
16.593,-0.06,1.21,-0.00,-0.52,0.99,0.41,0.67,-0.21,1.03,1005.95
16.594,-0.06,1.21,-0.00,-0.52,0.99,0.41,1.18,-0.21,1.46,1005.95
16.594,-0.06,1.21,-0.00,-2.84,1.89,1.39,1.18,-0.21,1.46,1005.95
16.65,-0.12,1.29,-0.04,-2.84,1.89,1.39,1.18,-0.21,1.46,1005.95
16.651,-0.14,1.30,-0.14,-2.84,1.89,1.39,1.18,-0.21,1.46,1005.95
16.652,-0.26,1.49,-0.05,-2.84,1.89,1.39,1.18,-0.21,1.46,1005.95
16.652,-0.26,1.49,-0.05,-2.84,1.89,1.39,1.92,-0.48,1.93,1005.95
16.652,-0.26,1.49,-0.05,-3.66,3.77,3.35,1.92,-0.48,1.93,1005.95
16.665,-0.26,1.49,-0.05,-3.66,3.77,3.35,1.92,-0.48,1.93,1005.95
16.703,-0.26,1.49,-0.05,-3.66,3.77,3.35,1.92,-0.48,1.93,1005.96
16.708,-0.78,1.95,0.15,-3.66,3.77,3.35,1.92,-0.48,1.93,1005.96
16.709,-1.39,2.09,0.25,-3.66,3.77,3.35,1.92,-0.48,1.93,1005.96
16.709,-0.88,1.61,0.20,-3.66,3.77,3.35,1.92,-0.48,1.93,1005.96
16.71,-0.88,1.61,0.20,-3.66,3.77,3.35,2.49,-1.14,2.28,1005.96
16.71,-0.88,1.61,0.20,-7.57,8.33,4.76,2.49,-1.14,2.28,1005.96
16.769,-0.88,1.61,0.20,-11.22,10.32,6.56,2.49,-1.14,2.28,1005.96
16.77,0.17,1.18,-0.29,-11.22,10.32,6.56,2.49,-1.14,2.28,1005.96
16.771,1.01,1.20,-0.60,-11.22,10.32,6.56,2.49,-1.14,2.28,1005.96
16.771,1.41,1.10,-0.45,-11.22,10.32,6.56,2.49,-1.14,2.28,1005.96
16.771,1.41,1.10,-0.45,-11.22,10.32,6.56,2.46,-1.46,3.58,1005.96
16.784,1.41,1.10,-0.45,-11.22,10.32,6.56,2.46,-1.46,3.58,1005.93
16.826,0.87,0.81,-0.62,-11.22,10.32,6.56,2.46,-1.46,3.58,1005.93
16.827,0.45,0.52,-0.73,-11.22,10.32,6.56,2.46,-1.46,3.58,1005.93
16.827,0.15,0.38,-0.68,-11.22,10.32,6.56,2.46,-1.46,3.58,1005.93
16.828,0.15,0.38,-0.68,-11.22,10.32,6.56,0.45,0.30,0.68,1005.93
16.828,0.15,0.38,-0.68,5.95,4.77,0.65,0.45,0.30,0.68,1005.93
16.865,0.15,0.38,-0.68,5.95,4.77,0.65,0.45,0.30,0.68,1005.91
16.883,0.03,0.21,-0.18,5.95,4.77,0.65,0.45,0.30,0.68,1005.91
16.884,0.03,0.03,0.10,5.95,4.77,0.65,0.45,0.30,0.68,1005.91
16.885,-0.08,0.06,-0.03,5.95,4.77,0.65,0.45,0.30,0.68,1005.91
16.885,-0.08,0.06,-0.03,5.95,4.77,0.65,-2.50,0.51,-1.50,1005.91
16.886,-0.08,0.06,-0.03,-2.36,-2.93,-0.10,-2.50,0.51,-1.50,1005.91
16.904,-0.08,0.06,-0.03,-2.36,-2.93,-0.10,-2.50,0.51,-1.50,1005.90
16.943,-0.14,0.23,-0.26,-2.36,-2.93,-0.10,-2.50,0.51,-1.50,1005.90
16.944,-0.03,0.37,-0.36,-2.36,-2.93,-0.10,-2.50,0.51,-1.50,1005.90
16.944,0.04,0.49,-0.38,-2.36,-2.93,-0.10,-2.50,0.51,-1.50,1005.90
16.944,0.04,0.49,-0.38,-2.36,-2.93,-0.10,-3.41,-0.66,-2.99,1005.90
16.945,0.04,0.49,-0.38,-3.50,-6.95,3.07,-3.41,-0.66,-2.99,1005.90
16.985,0.04,0.49,-0.38,-3.50,-6.95,3.07,-3.41,-0.66,-2.99,1005.97
17.0,0.04,0.59,-0.40,-3.50,-6.95,3.07,-3.41,-0.66,-2.99,1005.97
17.002,-0.00,0.72,-0.27,-3.50,-6.95,3.07,-3.41,-0.66,-2.99,1005.97
17.003,-0.03,0.99,-0.36,-3.50,-6.95,3.07,-3.41,-0.66,-2.99,1005.97
17.004,-0.03,0.99,-0.36,-3.50,-6.95,3.07,-4.71,-1.32,-4.27,1005.97
17.005,-0.03,0.99,-0.36,-0.36,-4.31,-2.23,-4.71,-1.32,-4.27,1005.97
17.058,0.12,1.62,-0.48,-0.36,-4.31,-2.23,-4.71,-1.32,-4.27,1005.97
17.058,0.25,2.19,-0.76,-0.36,-4.31,-2.23,-4.71,-1.32,-4.27,1005.97
17.059,0.48,1.99,-1.07,-0.36,-4.31,-2.23,-4.71,-1.32,-4.27,1005.97
17.059,0.48,1.99,-1.07,-0.36,-4.31,-2.23,-4.97,-1.81,-4.45,1005.97
17.059,0.48,1.99,-1.07,2.08,1.94,-4.78,-4.97,-1.81,-4.45,1005.97
17.063,0.48,1.99,-1.07,2.08,1.94,-4.78,-4.97,-1.81,-4.45,1005.96
17.105,0.48,1.99,-1.07,2.08,1.94,-4.78,-4.97,-1.81,-4.45,1005.92
17.118,0.90,1.41,-0.93,2.08,1.94,-4.78,-4.97,-1.81,-4.45,1005.92
17.119,1.32,1.06,-0.89,2.08,1.94,-4.78,-4.97,-1.81,-4.45,1005.92
17.119,1.45,0.76,-0.97,2.08,1.94,-4.78,-4.97,-1.81,-4.45,1005.92
17.119,1.45,0.76,-0.97,2.08,1.94,-4.78,-2.72,-0.84,-1.38,1005.92
17.12,1.45,0.76,-0.97,7.60,9.63,-11.48,-2.72,-0.84,-1.38,1005.92
17.175,1.12,0.60,-1.05,7.60,9.63,-11.48,-2.72,-0.84,-1.38,1005.92
17.176,0.65,1.06,-1.20,7.60,9.63,-11.48,-2.72,-0.84,-1.38,1005.92
17.177,-0.98,1.73,1.09,7.60,9.63,-11.48,-2.72,-0.84,-1.38,1005.92
17.177,-0.98,1.73,1.09,7.60,9.63,-11.48,-0.02,2.73,0.79,1005.92
17.177,-0.98,1.73,1.09,14.73,-0.80,-11.40,-0.02,2.73,0.79,1005.92
17.183,-0.98,1.73,1.09,14.73,-0.80,-11.40,-0.02,2.73,0.79,1005.88
17.233,-2.28,2.03,0.49,14.73,-0.80,-11.40,-0.02,2.73,0.79,1005.88
17.234,-0.48,1.82,-1.97,14.73,-0.80,-11.40,-0.02,2.73,0.79,1005.88
17.234,0.40,0.94,0.51,14.73,-0.80,-11.40,-0.02,2.73,0.79,1005.88
17.235,0.40,0.94,0.51,14.73,-0.80,-11.40,1.01,1.96,0.81,1005.88
17.235,0.40,0.94,0.51,-6.62,6.74,0.09,1.01,1.96,0.81,1005.88
17.265,0.40,0.94,0.51,-6.62,6.74,0.09,1.01,1.96,0.81,1005.89
17.293,0.40,0.94,0.51,-0.19,1.16,-4.54,1.01,1.96,0.81,1005.89
17.294,-0.31,0.41,0.29,-0.19,1.16,-4.54,1.01,1.96,0.81,1005.89
17.295,0.13,0.91,0.13,-0.19,1.16,-4.54,1.01,1.96,0.81,1005.89
17.295,0.30,1.21,-0.01,-0.19,1.16,-4.54,1.01,1.96,0.81,1005.89
17.295,0.30,1.21,-0.01,-0.19,1.16,-4.54,0.70,-0.36,1.51,1005.89
17.304,0.30,1.21,-0.01,-0.19,1.16,-4.54,0.70,-0.36,1.51,1005.92
17.35,0.08,1.06,0.03,-0.19,1.16,-4.54,0.70,-0.36,1.51,1005.92
17.351,-0.10,0.89,0.08,-0.19,1.16,-4.54,0.70,-0.36,1.51,1005.92
17.351,0.01,0.97,0.00,-0.19,1.16,-4.54,0.70,-0.36,1.51,1005.92
17.352,0.01,0.97,0.00,-0.19,1.16,-4.54,0.51,-0.02,0.87,1005.92
17.352,0.01,0.97,0.00,2.25,1.10,0.06,0.51,-0.02,0.87,1005.92
17.385,0.01,0.97,0.00,2.25,1.10,0.06,0.51,-0.02,0.87,1005.94
17.409,0.02,1.05,0.02,2.25,1.10,0.06,0.51,-0.02,0.87,1005.94
17.41,-0.11,1.00,0.19,2.25,1.10,0.06,0.51,-0.02,0.87,1005.94
17.41,-0.07,0.96,0.18,2.25,1.10,0.06,0.51,-0.02,0.87,1005.94
17.411,-0.07,0.96,0.18,-0.03,0.19,0.13,0.51,-0.02,0.87,1005.94
17.411,-0.07,0.96,0.18,-0.03,0.19,0.13,0.41,-0.09,0.67,1005.94
17.465,-0.07,0.96,0.18,-0.03,0.19,0.13,0.41,-0.09,0.67,1005.94
17.468,0.04,0.99,0.11,-0.03,0.19,0.13,0.41,-0.09,0.67,1005.94
17.468,0.01,0.95,0.09,-0.03,0.19,0.13,0.41,-0.09,0.67,1005.94
17.469,-0.07,0.96,0.04,-0.03,0.19,0.13,0.41,-0.09,0.67,1005.94
17.469,-0.07,0.96,0.04,-0.60,0.29,1.62,0.41,-0.09,0.67,1005.94
17.47,-0.07,0.96,0.04,-0.60,0.29,1.62,0.57,-0.41,0.70,1005.94
17.505,-0.07,0.96,0.04,-0.60,0.29,1.62,0.57,-0.41,0.70,1005.94
17.525,-0.08,1.05,-0.02,-0.60,0.29,1.62,0.57,-0.41,0.70,1005.94
17.526,-0.03,1.05,0.02,-0.60,0.29,1.62,0.57,-0.41,0.70,1005.94
17.526,0.10,0.95,-0.00,-0.60,0.29,1.62,0.57,-0.41,0.70,1005.94
17.527,0.10,0.95,-0.00,-0.60,0.29,1.62,0.68,-0.48,0.81,1005.94
17.527,0.10,0.95,-0.00,-1.02,0.40,0.80,0.68,-0.48,0.81,1005.94
17.585,0.19,0.92,-0.08,-1.02,0.40,0.80,0.68,-0.48,0.81,1005.94
17.586,0.10,0.95,-0.19,-1.02,0.40,0.80,0.68,-0.48,0.81,1005.94
17.586,0.11,0.98,-0.23,-1.02,0.40,0.80,0.68,-0.48,0.81,1005.94
17.587,0.11,0.98,-0.23,-0.10,0.32,0.56,0.68,-0.48,0.81,1005.94
17.587,0.11,0.98,-0.23,-0.10,0.32,0.56,0.58,-0.66,0.76,1005.94
17.587,0.11,0.98,-0.23,-0.10,0.32,0.56,0.58,-0.66,0.76,1005.94
17.643,0.11,1.04,-0.22,-0.10,0.32,0.56,0.58,-0.66,0.76,1005.94
17.644,0.12,1.02,-0.16,-0.10,0.32,0.56,0.58,-0.66,0.76,1005.94
17.644,0.12,0.94,0.02,-0.10,0.32,0.56,0.58,-0.66,0.76,1005.94
17.644,0.12,0.94,0.02,-0.10,0.32,0.56,0.33,-1.14,0.61,1005.94
17.645,0.12,0.94,0.02,-0.16,0.50,-1.07,0.33,-1.14,0.61,1005.94
17.667,0.12,0.94,0.02,-0.16,0.50,-1.07,0.33,-1.14,0.61,1005.93
17.701,0.12,0.94,0.02,-0.72,0.38,1.49,0.33,-1.14,0.61,1005.93
17.702,0.02,0.94,0.14,-0.72,0.38,1.49,0.33,-1.14,0.61,1005.93
17.702,-0.24,1.13,0.19,-0.72,0.38,1.49,0.33,-1.14,0.61,1005.93
17.702,-0.54,1.46,0.21,-0.72,0.38,1.49,0.33,-1.14,0.61,1005.93
17.702,-0.54,1.46,0.21,-0.72,0.38,1.49,0.62,-2.07,0.90,1005.93
17.71,-0.54,1.46,0.21,-0.72,0.38,1.49,0.62,-2.07,0.90,1005.95
17.758,-0.55,1.62,0.12,-0.72,0.38,1.49,0.62,-2.07,0.90,1005.95
17.759,-0.11,1.66,-0.08,-0.72,0.38,1.49,0.62,-2.07,0.90,1005.95
17.759,0.36,1.52,-0.40,-0.72,0.38,1.49,0.62,-2.07,0.90,1005.95
17.76,0.36,1.52,-0.40,-0.72,0.38,1.49,0.71,-3.66,2.29,1005.95
17.76,0.36,1.52,-0.40,-6.57,4.91,3.92,0.71,-3.66,2.29,1005.95
17.785,0.36,1.52,-0.40,-6.57,4.91,3.92,0.71,-3.66,2.29,1005.96
17.826,0.48,1.07,-0.62,-6.57,4.91,3.92,0.71,-3.66,2.29,1005.96
17.828,0.50,0.87,-0.56,-6.57,4.91,3.92,0.71,-3.66,2.29,1005.96
17.829,0.73,0.77,-0.26,-6.57,4.91,3.92,0.71,-3.66,2.29,1005.96
17.83,0.73,0.77,-0.26,-6.57,4.91,3.92,-0.27,-3.92,2.26,1005.96
17.831,0.73,0.77,-0.26,-0.44,5.26,-0.91,-0.27,-3.92,2.26,1005.96
17.869,0.73,0.77,-0.26,-0.44,5.26,-0.91,-0.27,-3.92,2.26,1005.94
17.874,0.66,0.56,-0.31,-0.44,5.26,-0.91,-0.27,-3.92,2.26,1005.94
17.875,0.28,0.45,-0.43,-0.44,5.26,-0.91,-0.27,-3.92,2.26,1005.94
17.876,-0.03,0.33,-0.49,-0.44,5.26,-0.91,-0.27,-3.92,2.26,1005.94
17.877,-0.03,0.33,-0.49,-0.44,5.26,-0.91,-1.96,-4.55,1.53,1005.94
17.877,-0.03,0.33,-0.49,3.28,-1.49,-1.21,-1.96,-4.55,1.53,1005.94
17.905,-0.03,0.33,-0.49,3.28,-1.49,-1.21,-1.96,-4.55,1.53,1005.93
17.941,-0.19,0.37,-0.59,3.28,-1.49,-1.21,-1.96,-4.55,1.53,1005.93
17.943,-0.26,0.52,-0.61,3.28,-1.49,-1.21,-1.96,-4.55,1.53,1005.93
17.943,-0.26,0.63,-0.72,3.28,-1.49,-1.21,-1.96,-4.55,1.53,1005.93
17.944,-0.26,0.63,-0.72,3.28,-1.49,-1.21,-2.46,-5.53,1.24,1005.93
17.945,-0.26,0.63,-0.72,-2.55,-4.96,-2.73,-2.46,-5.53,1.24,1005.93
17.985,-0.26,0.63,-0.72,-2.55,-4.96,-2.73,-2.46,-5.53,1.24,1005.94
17.992,-0.26,0.66,-0.81,-2.55,-4.96,-2.73,-2.46,-5.53,1.24,1005.94
17.992,-0.26,0.66,-0.81,-2.55,-4.96,-2.73,-2.46,-5.53,1.24,1005.94
17.993,-0.20,0.72,-0.74,-2.55,-4.96,-2.73,-2.46,-5.53,1.24,1005.94
17.993,-0.20,0.72,-0.74,-2.55,-4.96,-2.73,-1.90,-5.78,0.48,1005.94
17.994,-0.20,0.72,-0.74,-4.75,-2.90,-4.84,-1.90,-5.78,0.48,1005.94
18.049,-0.17,0.76,-0.71,-4.75,-2.90,-4.84,-1.90,-5.78,0.48,1005.94
18.049,-0.14,0.81,-0.69,-4.75,-2.90,-4.84,-1.90,-5.78,0.48,1005.94
18.05,-0.10,0.86,-0.59,-4.75,-2.90,-4.84,-1.90,-5.78,0.48,1005.94
18.05,-0.10,0.86,-0.59,-4.75,-2.90,-4.84,-1.31,-4.74,-0.74,1005.94
18.05,-0.10,0.86,-0.59,-3.24,-1.99,-5.31,-1.31,-4.74,-0.74,1005.94
18.064,-0.10,0.86,-0.59,-3.24,-1.99,-5.31,-1.31,-4.74,-0.74,1005.93
18.105,-0.10,0.86,-0.59,-3.24,-1.99,-5.31,-1.31,-4.74,-0.74,1005.92
18.109,-0.06,0.93,-0.41,-3.24,-1.99,-5.31,-1.31,-4.74,-0.74,1005.92
18.109,-0.09,1.04,-0.30,-3.24,-1.99,-5.31,-1.31,-4.74,-0.74,1005.92
18.109,-0.13,1.15,-0.24,-3.24,-1.99,-5.31,-1.31,-4.74,-0.74,1005.92
18.109,-0.13,1.15,-0.24,-3.24,-1.99,-5.31,-1.22,-3.38,-1.62,1005.92
18.11,-0.13,1.15,-0.24,-0.91,-0.66,-3.94,-1.22,-3.38,-1.62,1005.92
18.167,-0.12,1.17,-0.18,-0.91,-0.66,-3.94,-1.22,-3.38,-1.62,1005.92
18.168,-0.04,1.13,-0.14,-0.91,-0.66,-3.94,-1.22,-3.38,-1.62,1005.92
18.168,0.05,1.09,-0.08,-0.91,-0.66,-3.94,-1.22,-3.38,-1.62,1005.92
18.169,0.05,1.09,-0.08,-0.91,-0.66,-3.94,-1.13,-3.20,-1.55,1005.92
18.169,0.05,1.09,-0.08,0.05,1.76,-1.45,-1.13,-3.20,-1.55,1005.92
18.184,0.05,1.09,-0.08,0.05,1.76,-1.45,-1.13,-3.20,-1.55,1005.92
18.226,0.05,1.04,0.00,0.05,1.76,-1.45,-1.13,-3.20,-1.55,1005.92
18.226,0.01,1.03,0.07,0.05,1.76,-1.45,-1.13,-3.20,-1.55,1005.92
18.227,0.05,1.02,0.06,0.05,1.76,-1.45,-1.13,-3.20,-1.55,1005.92
18.227,0.05,1.02,0.06,0.05,1.76,-1.45,-0.91,-3.37,-1.13,1005.92
18.227,0.05,1.02,0.06,1.99,1.45,-0.56,-0.91,-3.37,-1.13,1005.92
18.264,0.05,1.02,0.06,1.99,1.45,-0.56,-0.91,-3.37,-1.13,1005.93
18.284,0.05,1.02,0.06,2.39,0.72,0.21,-0.91,-3.37,-1.13,1005.93
18.285,0.10,0.98,0.06,2.39,0.72,0.21,-0.91,-3.37,-1.13,1005.93
18.286,0.14,0.95,-0.00,2.39,0.72,0.21,-0.91,-3.37,-1.13,1005.93
18.286,0.32,0.82,-0.16,2.39,0.72,0.21,-0.91,-3.37,-1.13,1005.93
18.287,0.32,0.82,-0.16,2.39,0.72,0.21,-0.22,-3.76,-0.28,1005.93
18.305,0.32,0.82,-0.16,2.39,0.72,0.21,-0.22,-3.76,-0.28,1005.93
18.341,0.49,0.75,-0.31,2.39,0.72,0.21,-0.22,-3.76,-0.28,1005.93
18.343,0.57,0.95,-0.44,2.39,0.72,0.21,-0.22,-3.76,-0.28,1005.93
18.343,-0.00,1.27,0.27,2.39,0.72,0.21,-0.22,-3.76,-0.28,1005.93
18.344,-0.00,1.27,0.27,2.39,0.72,0.21,0.21,-1.98,0.67,1005.93
18.344,-0.00,1.27,0.27,4.48,-0.99,-1.99,0.21,-1.98,0.67,1005.93
18.385,-0.00,1.27,0.27,4.48,-0.99,-1.99,0.21,-1.98,0.67,1005.93
18.4,-0.40,1.65,0.96,4.48,-0.99,-1.99,0.21,-1.98,0.67,1005.93
18.402,-0.17,1.45,-0.10,4.48,-0.99,-1.99,0.21,-1.98,0.67,1005.93
18.403,-0.81,1.07,-0.48,4.48,-0.99,-1.99,0.21,-1.98,0.67,1005.93
18.404,-0.81,1.07,-0.48,4.48,-0.99,-1.99,0.15,1.85,0.49,1005.93
18.405,-0.81,1.07,-0.48,1.65,3.33,2.32,0.15,1.85,0.49,1005.93
18.459,-0.62,0.84,0.01,1.65,3.33,2.32,0.15,1.85,0.49,1005.93
18.46,-0.08,0.90,0.09,1.65,3.33,2.32,0.15,1.85,0.49,1005.93
18.461,0.32,1.03,0.05,1.65,3.33,2.32,0.15,1.85,0.49,1005.93
18.462,0.32,1.03,0.05,1.65,3.33,2.32,0.27,-0.25,1.47,1005.93
18.463,0.32,1.03,0.05,-4.85,1.56,-2.01,0.27,-0.25,1.47,1005.93
18.464,0.32,1.03,0.05,-4.85,1.56,-2.01,0.27,-0.25,1.47,1005.90
18.505,0.32,1.03,0.05,-4.85,1.56,-2.01,0.27,-0.25,1.47,1005.91
18.516,0.46,1.01,0.06,-4.85,1.56,-2.01,0.27,-0.25,1.47,1005.91
18.517,0.17,0.97,0.02,-4.85,1.56,-2.01,0.27,-0.25,1.47,1005.91
18.517,-0.08,1.06,0.00,-4.85,1.56,-2.01,0.27,-0.25,1.47,1005.91
18.518,-0.08,1.06,0.00,2.13,0.17,0.66,0.27,-0.25,1.47,1005.91
18.518,-0.08,1.06,0.00,2.13,0.17,0.66,0.27,-0.54,0.96,1005.91
18.574,-0.03,1.06,-0.05,2.13,0.17,0.66,0.27,-0.54,0.96,1005.91
18.576,0.07,1.01,-0.02,2.13,0.17,0.66,0.27,-0.54,0.96,1005.91
18.576,0.05,1.01,0.06,2.13,0.17,0.66,0.27,-0.54,0.96,1005.91
18.576,0.05,1.01,0.06,2.13,0.17,0.66,0.26,-0.09,0.63,1005.91
18.577,0.05,1.01,0.06,-0.31,0.66,0.08,0.26,-0.09,0.63,1005.91
18.586,0.05,1.01,0.06,-0.31,0.66,0.08,0.26,-0.09,0.63,1005.91
18.637,0.05,1.01,0.06,-0.27,0.50,0.55,0.26,-0.09,0.63,1005.91
18.638,0.04,1.01,0.03,-0.27,0.50,0.55,0.26,-0.09,0.63,1005.91
18.638,0.02,0.99,0.04,-0.27,0.50,0.55,0.26,-0.09,0.63,1005.91
18.639,-0.01,1.00,0.05,-0.27,0.50,0.55,0.26,-0.09,0.63,1005.91
18.639,-0.01,1.00,0.05,-0.27,0.50,0.55,0.32,-0.02,0.53,1005.91
18.665,-0.01,1.00,0.05,-0.27,0.50,0.55,0.32,-0.02,0.53,1005.92
18.691,0.02,1.00,0.03,-0.27,0.50,0.55,0.32,-0.02,0.53,1005.92
18.692,0.00,1.00,0.02,-0.27,0.50,0.55,0.32,-0.02,0.53,1005.92
18.692,0.00,1.00,0.01,-0.27,0.50,0.55,0.32,-0.02,0.53,1005.92
18.693,0.00,1.00,0.01,-0.27,0.50,0.55,0.50,-0.07,0.67,1005.92
18.693,0.00,1.00,0.01,-1.03,0.43,1.01,0.50,-0.07,0.67,1005.92
18.704,0.00,1.00,0.01,-1.03,0.43,1.01,0.50,-0.07,0.67,1005.92
18.749,0.05,1.00,-0.02,-1.03,0.43,1.01,0.50,-0.07,0.67,1005.92
18.751,0.07,1.00,-0.00,-1.03,0.43,1.01,0.50,-0.07,0.67,1005.92
18.751,0.09,1.00,-0.03,-1.03,0.43,1.01,0.50,-0.07,0.67,1005.92
18.752,0.09,1.00,-0.03,-1.03,0.43,1.01,0.66,-0.28,0.88,1005.92
18.752,0.09,1.00,-0.03,-1.42,0.55,1.01,0.66,-0.28,0.88,1005.92
18.786,0.09,1.00,-0.03,-1.42,0.55,1.01,0.66,-0.28,0.88,1005.93
18.808,0.15,1.03,-0.08,-1.42,0.55,1.01,0.66,-0.28,0.88,1005.93
18.809,0.14,1.03,-0.13,-1.42,0.55,1.01,0.66,-0.28,0.88,1005.93
