
time,gFx,gFy,gFz,ax,ay,az,wx,wy,wz,
0.045592,0.0000,0.0000,0.0000,0.0000,0.0000,0.0000,-0.0373,0.0238,0.0045,
0.046334,0.0000,0.0000,0.0000,-0.0165,-0.0084,-0.0595,-0.0373,0.0238,0.0045,
0.063783,0.2354,0.7984,0.5777,-0.0165,-0.0084,-0.0595,-0.0373,0.0238,0.0045,
0.064493,0.2354,0.7984,0.5777,-0.0165,-0.0084,-0.0595,-0.0373,0.0238,0.0045,
0.064831,0.2354,0.7984,0.5777,-0.0165,-0.0084,-0.0595,-0.0373,0.0238,0.0045,
0.065161,0.2354,0.7984,0.5777,-0.0165,-0.0084,-0.0595,-0.0373,0.0238,0.0045,
0.103096,0.2354,0.7984,0.5777,0.0024,-0.0554,-0.2305,-0.0373,0.0238,0.0045,
0.103882,0.2354,0.7984,0.5777,0.0024,-0.0554,-0.2305,-0.0407,0.0798,0.0371,
0.123807,0.2295,0.7828,0.5386,0.0024,-0.0554,-0.2305,-0.0407,0.0798,0.0371,
0.124796,0.2444,0.7855,0.5381,0.0024,-0.0554,-0.2305,-0.0407,0.0798,0.0371,
0.125542,0.2617,0.7833,0.5611,0.0024,-0.0554,-0.2305,-0.0407,0.0798,0.0371,
0.161132,0.2617,0.7833,0.5611,0.0024,-0.0554,-0.2305,0.0757,0.0397,0.1758,
0.162050,0.2617,0.7833,0.5611,0.1880,-0.0643,-0.0326,0.0757,0.0397,0.1758,
0.180697,0.2644,0.7865,0.5731,0.1880,-0.0643,-0.0326,0.0757,0.0397,0.1758,
0.181302,0.2796,0.7879,0.5687,0.1880,-0.0643,-0.0326,0.0757,0.0397,0.1758,
0.181564,0.3160,0.7891,0.5699,0.1880,-0.0643,-0.0326,0.0757,0.0397,0.1758,
0.219468,0.3160,0.7891,0.5699,0.1880,-0.0643,-0.0326,0.2071,0.0880,0.5123,
0.220411,0.3160,0.7891,0.5699,0.7674,-0.0742,0.0142,0.2071,0.0880,0.5123,
0.240098,0.3682,0.7823,0.5601,0.7674,-0.0742,0.0142,0.2071,0.0880,0.5123,
0.240951,0.4200,0.7747,0.5635,0.7674,-0.0742,0.0142,0.2071,0.0880,0.5123,
0.241480,0.4258,0.7594,0.5655,0.7674,-0.0742,0.0142,0.2071,0.0880,0.5123,
0.278094,0.4258,0.7594,0.5655,0.7674,-0.0742,0.0142,0.3073,0.2773,0.9106,
0.279035,0.4258,0.7594,0.5655,0.6963,-0.0107,0.1064,0.3073,0.2773,0.9106,
0.297066,0.4100,0.7608,0.5733,0.6963,-0.0107,0.1064,0.3073,0.2773,0.9106,
0.297870,0.3875,0.8260,0.5621,0.6963,-0.0107,0.1064,0.3073,0.2773,0.9106,
0.298449,0.3560,0.8914,0.5301,0.6963,-0.0107,0.1064,0.3073,0.2773,0.9106,
0.336511,0.3560,0.8914,0.5301,-0.5283,1.2840,-0.3557,0.3073,0.2773,0.9106,
0.337493,0.3560,0.8914,0.5301,-0.5283,1.2840,-0.3557,0.2897,0.0921,1.0611,
0.357043,0.3055,0.9471,0.4974,-0.5283,1.2840,-0.3557,0.2897,0.0921,1.0611,
0.357926,0.2954,0.9308,0.4800,-0.5283,1.2840,-0.3557,0.2897,0.0921,1.0611,
0.358562,0.3699,0.8504,0.4803,-0.5283,1.2840,-0.3557,0.2897,0.0921,1.0611,
0.394646,0.3699,0.8504,0.4803,-0.5283,1.2840,-0.3557,0.1325,-0.1260,0.8956,
0.395497,0.3699,0.8504,0.4803,-0.2671,0.1259,-0.5716,0.1325,-0.1260,0.8956,
0.413628,0.4158,0.7906,0.4781,-0.2671,0.1259,-0.5716,0.1325,-0.1260,0.8956,
0.414286,0.3741,0.7298,0.4310,-0.2671,0.1259,-0.5716,0.1325,-0.1260,0.8956,
0.414677,0.3233,0.6971,0.3860,-0.2671,0.1259,-0.5716,0.1325,-0.1260,0.8956,
0.453710,0.3233,0.6971,0.3860,-1.0591,-0.8822,-1.2910,0.1325,-0.1260,0.8956,
0.454692,0.3233,0.6971,0.3860,-1.0591,-0.8822,-1.2910,-0.1041,0.3024,0.5036,
0.473995,0.3076,0.6710,0.3877,-1.0591,-0.8822,-1.2910,-0.1041,0.3024,0.5036,
0.475512,0.2859,0.6136,0.3824,-1.0591,-0.8822,-1.2910,-0.1041,0.3024,0.5036,
0.476248,0.2835,0.5828,0.3142,-1.0591,-0.8822,-1.2910,-0.1041,0.3024,0.5036,
0.512916,0.2835,0.5828,0.3142,-1.0591,-0.8822,-1.2910,-0.2352,0.0293,0.1851,
0.519721,0.2835,0.5828,0.3142,-1.8018,-1.4821,-2.7355,-0.2352,0.0293,0.1851,
0.531500,0.2320,0.5709,0.2254,-1.8018,-1.4821,-2.7355,-0.2352,0.0293,0.1851,
0.533469,0.1343,0.5589,0.1140,-1.8018,-1.4821,-2.7355,-0.2352,0.0293,0.1851,
0.535165,0.0576,0.5276,0.1279,-1.8018,-1.4821,-2.7355,-0.2352,0.0293,0.1851,
0.569843,0.0576,0.5276,0.1279,-1.8018,-1.4821,-2.7355,-0.6345,-1.6220,-0.0476,
0.572238,0.0576,0.5276,0.1279,-4.0671,-1.5325,-2.7189,-0.6345,-1.6220,-0.0476,
0.590073,0.0769,0.5096,0.1917,-4.0671,-1.5325,-2.7189,-0.6345,-1.6220,-0.0476,
0.591892,-0.1692,0.5621,0.2149,-4.0671,-1.5325,-2.7189,-0.6345,-1.6220,-0.0476,
0.593353,-0.3313,0.5782,0.1602,-4.0671,-1.5325,-2.7189,-0.6345,-1.6220,-0.0476,
0.628412,-0.3313,0.5782,0.1602,-4.0671,-1.5325,-2.7189,-0.8988,-5.0450,0.4757,
0.631295,-0.3313,0.5782,0.1602,-3.4718,-1.1959,-0.0088,-0.8988,-5.0450,0.4757,
0.647739,-0.0471,0.5831,0.2678,-3.4718,-1.1959,-0.0088,-0.8988,-5.0450,0.4757,
0.650168,0.8455,0.4031,0.6224,-3.4718,-1.1959,-0.0088,-0.8988,-5.0450,0.4757,
0.651432,1.4906,0.3360,0.7352,-3.4718,-1.1959,-0.0088,-0.8988,-5.0450,0.4757,
0.687336,1.4906,0.3360,0.7352,-3.4718,-1.1959,-0.0088,0.9511,-3.8132,-1.8122,
0.690090,1.4906,0.3360,0.7352,5.0363,-1.5029,2.9383,0.9511,-3.8132,-1.8122,
0.712576,0.9842,0.5594,0.4971,5.0363,-1.5029,2.9383,0.9511,-3.8132,-1.8122,
0.714299,0.6983,0.7428,0.3360,5.0363,-1.5029,2.9383,0.9511,-3.8132,-1.8122,
0.715340,0.7178,0.7664,0.5596,5.0363,-1.5029,2.9383,0.9511,-3.8132,-1.8122,
0.745263,0.7178,0.7664,0.5596,5.0363,-1.5029,2.9383,1.3239,0.1902,-1.2408,
0.746917,0.7178,0.7664,0.5596,1.3488,1.1799,4.3480,1.3239,0.1902,-1.2408,
0.764480,0.6610,0.8878,0.7232,1.3488,1.1799,4.3480,1.3239,0.1902,-1.2408,
0.765959,0.5364,0.9896,0.6646,1.3488,1.1799,4.3480,1.3239,0.1902,-1.2408,
0.766994,0.4571,1.0218,0.5184,1.3488,1.1799,4.3480,1.3239,0.1902,-1.2408,
0.804393,0.4571,1.0218,0.5184,1.3488,1.1799,4.3480,1.2704,0.3580,-1.1728,
0.807718,0.4571,1.0218,0.5184,0.5771,1.9737,1.8290,1.2704,0.3580,-1.1728,
0.825050,0.5064,1.0204,0.3511,0.5771,1.9737,1.8290,1.2704,0.3580,-1.1728,
0.829055,0.5560,1.0250,0.2019,0.5771,1.9737,1.8290,1.2704,0.3580,-1.1728,
0.832961,0.5723,1.0465,0.1111,0.5771,1.9737,1.8290,1.2704,0.3580,-1.1728,
0.861771,0.5723,1.0465,0.1111,0.5771,1.9737,1.8290,0.9126,-0.4225,-1.0989,
0.863707,0.5723,1.0465,0.1111,1.5489,1.6295,0.0827,0.9126,-0.4225,-1.0989,
0.882629,0.5826,1.0406,0.1091,1.5489,1.6295,0.0827,0.9126,-0.4225,-1.0989,
0.884880,0.5423,1.0123,0.1538,1.5489,1.6295,0.0827,0.9126,-0.4225,-1.0989,
0.886142,0.5052,0.9999,0.1150,1.5489,1.6295,0.0827,0.9126,-0.4225,-1.0989,
0.921255,0.5052,0.9999,0.1150,1.5489,1.6295,0.0827,0.6656,-0.3127,-1.5074,
0.923544,0.5052,0.9999,0.1150,3.2241,1.0633,-0.1259,0.6656,-0.3127,-1.5074,
0.940097,0.6402,1.0035,0.0547,3.2241,1.0633,-0.1259,0.6656,-0.3127,-1.5074,
0.942571,0.8978,1.0519,0.0146,3.2241,1.0633,-0.1259,0.6656,-0.3127,-1.5074,
0.944807,1.0248,1.2531,0.0110,3.2241,1.0633,-0.1259,0.6656,-0.3127,-1.5074,
0.980062,1.0248,1.2531,0.0110,3.2241,1.0633,-0.1259,-0.0957,-0.6013,-1.2117,
0.983095,1.0248,1.2531,0.0110,9.5904,4.8792,1.0504,-0.0957,-0.6013,-1.2117,
1.005557,1.7599,1.7216,0.2398,9.5904,4.8792,1.0504,-0.0957,-0.6013,-1.2117,
1.008098,1.1918,1.4035,0.2950,9.5904,4.8792,1.0504,-0.0957,-0.6013,-1.2117,
1.020109,-0.0161,0.7974,-0.1084,9.5904,4.8792,1.0504,-0.0957,-0.6013,-1.2117,
1.036802,-0.0161,0.7974,-0.1084,9.5904,4.8792,1.0504,1.4278,0.8306,-1.3744,
1.038014,-0.0161,0.7974,-0.1084,-5.3921,-1.3511,-1.0805,1.4278,0.8306,-1.3744,
1.055733,-0.4822,0.8233,-0.3560,-5.3921,-1.3511,-1.0805,1.4278,0.8306,-1.3744,
1.059938,-0.4436,0.9112,0.1380,-5.3921,-1.3511,-1.0805,1.4278,0.8306,-1.3744,
1.062111,-0.0361,0.8336,0.3098,-5.3921,-1.3511,-1.0805,1.4278,0.8306,-1.3744,
1.101367,-0.0361,0.8336,0.3098,-0.1826,-0.2606,2.7145,1.4278,0.8306,-1.3744,
1.103849,-0.0361,0.8336,0.3098,-0.1826,-0.2606,2.7145,0.8141,-1.0305,-0.8965,
1.118095,0.2583,0.9447,0.2249,-0.1826,-0.2606,2.7145,0.8141,-1.0305,-0.8965,
1.120015,0.2659,1.1127,0.1677,-0.1826,-0.2606,2.7145,0.8141,-1.0305,-0.8965,
1.121061,0.2583,1.2438,0.0786,-0.1826,-0.2606,2.7145,0.8141,-1.0305,-0.8965,
1.153383,0.2583,1.2438,0.0786,-0.1826,-0.2606,2.7145,0.8353,-1.8929,-0.8365,
1.155955,0.2583,1.2438,0.0786,2.0042,2.3998,0.9159,0.8353,-1.8929,-0.8365,
1.173387,0.3130,1.2579,-0.0515,2.0042,2.3998,0.9159,0.8353,-1.8929,-0.8365,
1.174759,0.4458,1.2518,-0.0564,2.0042,2.3998,0.9159,0.8353,-1.8929,-0.8365,
1.176136,0.5420,1.2318,0.0464,2.0042,2.3998,0.9159,0.8353,-1.8929,-0.8365,
1.212198,0.5420,1.2318,0.0464,2.0042,2.3998,0.9159,0.1450,-1.6984,-0.3926,
1.213294,0.5420,1.2318,0.0464,3.7826,1.6268,1.9761,0.1450,-1.6984,-0.3926,
1.231511,0.4920,1.2111,0.1148,3.7826,1.6268,1.9761,0.1450,-1.6984,-0.3926,
1.232701,0.4788,1.1031,0.1030,3.7826,1.6268,1.9761,0.1450,-1.6984,-0.3926,
1.233118,0.5020,1.0055,0.1011,3.7826,1.6268,1.9761,0.1450,-1.6984,-0.3926,
1.269313,0.5020,1.0055,0.1011,3.7826,1.6268,1.9761,-0.0959,-1.4290,0.2232,
1.270324,0.5020,1.0055,0.1011,2.7563,-0.3446,1.4139,-0.0959,-1.4290,0.2232,
1.288514,0.3811,0.9855,0.0364,2.7563,-0.3446,1.4139,-0.0959,-1.4290,0.2232,
1.289717,0.3643,0.9442,-0.0378,2.7563,-0.3446,1.4139,-0.0959,-1.4290,0.2232,
1.290204,0.3748,0.8514,-0.0313,2.7563,-0.3446,1.4139,-0.0959,-1.4290,0.2232,
1.332107,0.3748,0.8514,-0.0313,2.7563,-0.3446,1.4139,-0.2814,-1.2736,0.9654,
1.334137,0.3748,0.8514,-0.0313,1.3784,-1.9953,0.6399,-0.2814,-1.2736,0.9654,
1.346795,0.3409,0.7926,-0.0303,1.3784,-1.9953,0.6399,-0.2814,-1.2736,0.9654,
1.347568,0.2747,0.7379,-0.0520,1.3784,-1.9953,0.6399,-0.2814,-1.2736,0.9654,
1.347886,0.1616,0.6658,-0.1023,1.3784,-1.9953,0.6399,-0.2814,-1.2736,0.9654,
1.386921,0.1616,0.6658,-0.1023,1.3784,-1.9953,0.6399,-0.2598,-0.7835,1.1654,
1.387904,0.1616,0.6658,-0.1023,-1.5941,-3.5737,-0.2196,-0.2598,-0.7835,1.1654,
1.405719,0.0715,0.6009,-0.1399,-1.5941,-3.5737,-0.2196,-0.2598,-0.7835,1.1654,
1.406708,0.0151,0.5460,-0.1218,-1.5941,-3.5737,-0.2196,-0.2598,-0.7835,1.1654,
1.407323,-0.0566,0.6153,-0.1294,-1.5941,-3.5737,-0.2196,-0.2598,-0.7835,1.1654,
1.447246,-0.0566,0.6153,-0.1294,-1.5941,-3.5737,-0.2196,-0.2201,-1.3653,1.6196,
1.451324,-0.0566,0.6153,-0.1294,-3.7296,-1.5920,0.0677,-0.2201,-1.3653,1.6196,
1.466693,-0.0798,0.8355,-0.1155,-3.7296,-1.5920,0.0677,-0.2201,-1.3653,1.6196,
1.469943,-0.0681,0.8717,-0.0623,-3.7296,-1.5920,0.0677,-0.2201,-1.3653,1.6196,
1.472069,-0.1133,0.7481,-0.0469,-3.7296,-1.5920,0.0677,-0.2201,-1.3653,1.6196,
1.502726,-0.1133,0.7481,-0.0469,-3.7296,-1.5920,0.0677,-0.1169,-1.9214,1.4714,
1.504355,-0.1133,0.7481,-0.0469,-5.8880,-1.5854,-0.0101,-0.1169,-1.9214,1.4714,
1.522202,-0.2298,0.7247,-0.1328,-5.8880,-1.5854,-0.0101,-0.1169,-1.9214,1.4714,
1.523356,-0.3958,0.7464,-0.2495,-5.8880,-1.5854,-0.0101,-0.1169,-1.9214,1.4714,
1.523966,-0.5919,0.8438,-0.2141,-5.8880,-1.5854,-0.0101,-0.1169,-1.9214,1.4714,
1.561055,-0.5919,0.8438,-0.2141,-5.8880,-1.5854,-0.0101,-0.2800,-2.9205,0.6431,
1.563795,-0.5919,0.8438,-0.2141,-9.2115,0.4219,0.2212,-0.2800,-2.9205,0.6431,
1.581904,-0.6824,0.9291,-0.0593,-9.2115,0.4219,0.2212,-0.2800,-2.9205,0.6431,
1.583480,-0.5704,1.0331,-0.2239,-9.2115,0.4219,0.2212,-0.2800,-2.9205,0.6431,
1.584453,-0.1436,1.6051,-1.2990,-9.2115,0.4219,0.2212,-0.2800,-2.9205,0.6431,
1.621722,-0.1436,1.6051,-1.2990,-9.2115,0.4219,0.2212,-0.5174,-2.3331,-0.9564,
1.625135,-0.1436,1.6051,-1.2990,9.7002,11.6632,-4.6093,-0.5174,-2.3331,-0.9564,
1.644476,1.7797,2.9468,-0.5191,9.7002,11.6632,-4.6093,-0.5174,-2.3331,-0.9564,
1.648189,2.1826,1.8879,-0.2471,9.7002,11.6632,-4.6093,-0.5174,-2.3331,-0.9564,
1.650515,-0.4329,-0.0791,-0.4932,9.7002,11.6632,-4.6093,-0.5174,-2.3331,-0.9564,
1.678045,-0.4329,-0.0791,-0.4932,9.7002,11.6632,-4.6093,-0.4545,-0.4044,-3.1757,
1.681404,-0.4329,-0.0791,-0.4932,-6.6106,-5.7201,0.4503,-0.4545,-0.4044,-3.1757,
1.703773,-0.9698,0.0330,-0.2356,-6.6106,-5.7201,0.4503,-0.4545,-0.4044,-3.1757,
1.706593,-0.4014,1.2255,0.2757,-6.6106,-5.7201,0.4503,-0.4545,-0.4044,-3.1757,
1.709491,-0.1443,1.3888,0.0066,-6.6106,-5.7201,0.4503,-0.4545,-0.4044,-3.1757,
1.737698,-0.1443,1.3888,0.0066,-6.6106,-5.7201,0.4503,-0.1086,-0.1503,-1.8715,
1.741242,-0.1443,1.3888,0.0066,-1.6115,1.0514,1.0477,-0.1086,-0.1503,-1.8715,
1.755885,-0.1621,0.9591,-0.0193,-1.6115,1.0514,1.0477,-0.1086,-0.1503,-1.8715,
1.757675,-0.3098,0.9249,-0.2290,-1.6115,1.0514,1.0477,-0.1086,-0.1503,-1.8715,
1.759918,-0.4537,0.9745,-0.2871,-1.6115,1.0514,1.0477,-0.1086,-0.1503,-1.8715,
1.797868,-0.4537,0.9745,-0.2871,-1.6115,1.0514,1.0477,-0.0244,-0.7090,-1.2408,
1.801034,-0.4537,0.9745,-0.2871,-2.3211,-0.0057,-0.4508,-0.0244,-0.7090,-1.2408,
1.815427,-0.4143,0.9945,-0.1995,-2.3211,-0.0057,-0.4508,-0.0244,-0.7090,-1.2408,
1.818562,-0.2244,0.9637,-0.2031,-2.3211,-0.0057,-0.4508,-0.0244,-0.7090,-1.2408,
1.821319,-0.1472,1.0184,-0.2364,-2.3211,-0.0057,-0.4508,-0.0244,-0.7090,-1.2408,
1.853274,-0.1472,1.0184,-0.2364,-2.3211,-0.0057,-0.4508,0.0397,-0.2203,-0.8542,
1.855082,-0.1472,1.0184,-0.2364,-0.7593,0.2829,-0.5364,0.0397,-0.2203,-0.8542,
1.873275,-0.2759,0.9996,-0.2639,-0.7593,0.2829,-0.5364,0.0397,-0.2203,-0.8542,
1.875478,-0.3511,0.9815,-0.2219,-0.7593,0.2829,-0.5364,0.0397,-0.2203,-0.8542,
1.877395,-0.2842,1.0306,-0.2161,-0.7593,0.2829,-0.5364,0.0397,-0.2203,-0.8542,
1.911927,-0.2842,1.0306,-0.2161,-0.7593,0.2829,-0.5364,0.0780,-0.2231,-0.6383,
1.913915,-0.2842,1.0306,-0.2161,0.1250,0.8334,-0.2853,0.0780,-0.2231,-0.6383,
1.937505,-0.1946,1.0633,-0.2210,0.1250,0.8334,-0.2853,0.0780,-0.2231,-0.6383,
1.939789,-0.1389,1.0570,-0.2163,0.1250,0.8334,-0.2853,0.0780,-0.2231,-0.6383,
1.941382,-0.1314,1.0411,-0.1980,0.1250,0.8334,-0.2853,0.0780,-0.2231,-0.6383,
1.971867,-0.1314,1.0411,-0.1980,0.1250,0.8334,-0.2853,0.1653,0.0418,-0.8360,
1.973942,-0.1314,1.0411,-0.1980,1.1220,0.6918,0.1323,0.1653,0.0418,-0.8360,
1.989503,-0.1577,1.0157,-0.1892,1.1220,0.6918,0.1323,0.1653,0.0418,-0.8360,
1.990876,-0.1521,1.0160,-0.1668,1.1220,0.6918,0.1323,0.1653,0.0418,-0.8360,
1.991572,-0.0916,1.0045,-0.1690,1.1220,0.6918,0.1323,0.1653,0.0418,-0.8360,
2.030979,-0.0916,1.0045,-0.1690,2.7236,0.8562,0.3287,0.1653,0.0418,-0.8360,
2.033298,-0.0916,1.0045,-0.1690,2.7236,0.8562,0.3287,0.4025,0.3753,-1.1865,
2.048888,-0.0344,0.9999,-0.2039,2.7236,0.8562,0.3287,0.4025,0.3753,-1.1865,
2.050651,0.0173,1.0506,-0.2039,2.7236,0.8562,0.3287,0.4025,0.3753,-1.1865,
2.051473,-0.0325,1.2245,-0.2180,2.7236,0.8562,0.3287,0.4025,0.3753,-1.1865,
2.086240,-0.0325,1.2245,-0.2180,2.7236,0.8562,0.3287,0.8809,0.0310,-1.7880,
2.087373,-0.0325,1.2245,-0.2180,4.4880,3.9829,0.3966,0.8809,0.0310,-1.7880,
2.105477,0.0042,1.3400,-0.2478,4.4880,3.9829,0.3966,0.8809,0.0310,-1.7880,
2.106769,0.2154,1.3300,-0.2278,4.4880,3.9829,0.3966,0.8809,0.0310,-1.7880,
2.107439,0.3648,1.3187,-0.2417,4.4880,3.9829,0.3966,0.8809,0.0310,-1.7880,
2.146460,0.3648,1.3187,-0.2417,4.4880,3.9829,0.3966,1.3015,0.0766,-2.0397,
2.148120,0.3648,1.3187,-0.2417,10.5544,7.4907,2.3178,1.3015,0.0766,-2.0397,
2.171255,0.5731,1.5773,-0.1614,10.5544,7.4907,2.3178,1.3015,0.0766,-2.0397,
2.173406,0.8924,1.9052,0.1162,10.5544,7.4907,2.3178,1.3015,0.0766,-2.0397,
2.174612,0.5377,1.6183,0.4483,10.5544,7.4907,2.3178,1.3015,0.0766,-2.0397,
2.203157,0.5377,1.6183,0.4483,4.8971,8.4037,5.7065,1.3015,0.0766,-2.0397,
2.204982,0.5377,1.6183,0.4483,4.8971,8.4037,5.7065,0.9293,0.2450,-3.0639,
2.222627,-0.1953,1.5153,0.2398,4.8971,8.4037,5.7065,0.9293,0.2450,-3.0639,
2.224389,-0.6070,1.6694,-0.0427,4.8971,8.4037,5.7065,0.9293,0.2450,-3.0639,
2.225538,-0.8856,1.4438,-0.0742,4.8971,8.4037,5.7065,0.9293,0.2450,-3.0639,
2.262893,-0.8856,1.4438,-0.0742,-2.1278,4.0565,1.4900,0.9293,0.2450,-3.0639,
2.264769,-0.8856,1.4438,-0.0742,-2.1278,4.0565,1.4900,1.0605,-0.5915,-2.4660,
2.282621,-1.0565,0.9735,-0.2891,-2.1278,4.0565,1.4900,1.0605,-0.5915,-2.4660,
2.284840,-0.8260,0.7386,-0.3291,-2.1278,4.0565,1.4900,1.0605,-0.5915,-2.4660,
2.286195,-0.4798,0.5963,-0.3548,-2.1278,4.0565,1.4900,1.0605,-0.5915,-2.4660,
2.322065,-0.4798,0.5963,-0.3548,3.2663,-2.6723,1.6056,1.0605,-0.5915,-2.4660,
2.324458,-0.4798,0.5963,-0.3548,3.2663,-2.6723,1.6056,-0.5862,-1.4251,1.2366,
2.342320,-0.2940,0.4180,-0.0789,3.2663,-2.6723,1.6056,-0.5862,-1.4251,1.2366,
2.345273,-0.2595,0.2473,0.0337,3.2663,-2.6723,1.6056,-0.5862,-1.4251,1.2366,
2.350128,-0.1509,0.1756,0.0418,3.2663,-2.6723,1.6056,-0.5862,-1.4251,1.2366,
2.379559,-0.1509,0.1756,0.0418,3.2663,-2.6723,1.6056,-0.9906,-0.5294,3.7349,
2.381866,-0.1509,0.1756,0.0418,3.8505,-5.1530,0.6737,-0.9906,-0.5294,3.7349,
2.398230,-0.1101,0.2600,-0.1509,3.8505,-5.1530,0.6737,-0.9906,-0.5294,3.7349,
2.400196,-0.0869,0.4673,-0.3794,3.8505,-5.1530,0.6737,-0.9906,-0.5294,3.7349,
2.401928,-0.1416,0.5445,-0.2595,3.8505,-5.1530,0.6737,-0.9906,-0.5294,3.7349,
2.437473,-0.1416,0.5445,-0.2595,3.8505,-5.1530,0.6737,-1.2602,0.5077,5.4142,
2.441239,-0.1416,0.5445,-0.2595,-0.2504,-3.4884,-0.8140,-1.2602,0.5077,5.4142,
2.456804,-0.3069,0.5579,-0.2207,-0.2504,-3.4884,-0.8140,-1.2602,0.5077,5.4142,
2.458765,-0.2864,0.6780,-0.3003,-0.2504,-3.4884,-0.8140,-1.2602,0.5077,5.4142,
2.460573,-0.1675,0.9002,-0.3479,-0.2504,-3.4884,-0.8140,-1.2602,0.5077,5.4142,
2.496270,-0.1675,0.9002,-0.3479,-0.2504,-3.4884,-0.8140,-1.4879,1.2307,6.5909,
2.499999,-0.1675,0.9002,-0.3479,-4.7027,2.7171,-3.7914,-1.4879,1.2307,6.5909,
2.515888,-0.2552,1.2648,-0.4627,-4.7027,2.7171,-3.7914,-1.4879,1.2307,6.5909,
2.519403,-0.5565,1.6025,-0.6580,-4.7027,2.7171,-3.7914,-1.4879,1.2307,6.5909,
2.522364,-0.7989,1.6901,-0.6754,-4.7027,2.7171,-3.7914,-1.4879,1.2307,6.5909,
2.553265,-0.7989,1.6901,-0.6754,-4.7027,2.7171,-3.7914,-1.8184,0.6925,6.2337,
2.555635,-0.7989,1.6901,-0.6754,-12.5815,7.4664,-3.9478,-1.8184,0.6925,6.2337,
2.576977,-0.8971,1.6215,-0.3738,-12.5815,7.4664,-3.9478,-1.8184,0.6925,6.2337,
2.583324,-0.7589,1.6186,-0.1616,-12.5815,7.4664,-3.9478,-1.8184,0.6925,6.2337,
2.585848,-0.6986,1.3651,-0.1348,-12.5815,7.4664,-3.9478,-1.8184,0.6925,6.2337,
2.611388,-0.6986,1.3651,-0.1348,-12.5815,7.4664,-3.9478,-0.9489,0.1261,2.4850,
2.613526,-0.6986,1.3651,-0.1348,-14.0146,2.9912,-2.1826,-0.9489,0.1261,2.4850,
2.631541,-0.9227,1.0936,-0.1929,-14.0146,2.9912,-2.1826,-0.9489,0.1261,2.4850,
2.634037,-1.0006,0.8880,-0.2071,-14.0146,2.9912,-2.1826,-0.9489,0.1261,2.4850,
2.635710,-0.8707,0.7921,-0.2092,-14.0146,2.9912,-2.1826,-0.9489,0.1261,2.4850,
2.674210,-0.8707,0.7921,-0.2092,-14.0146,2.9912,-2.1826,0.0260,-0.6060,-2.5970,
2.676262,-0.8707,0.7921,-0.2092,-6.5419,2.4451,-3.1169,0.0260,-0.6060,-2.5970,
2.690785,-0.7095,1.1041,-0.5667,-6.5419,2.4451,-3.1169,0.0260,-0.6060,-2.5970,
2.692080,0.8206,1.5238,-0.1235,-6.5419,2.4451,-3.1169,0.0260,-0.6060,-2.5970,
2.692737,2.8802,2.0107,0.4756,-6.5419,2.4451,-3.1169,0.0260,-0.6060,-2.5970,
2.727809,2.8802,2.0107,0.4756,-6.5419,2.4451,-3.1169,-0.4832,-1.9281,-2.9686,
2.730274,2.8802,2.0107,0.4756,2.9853,7.0330,-2.7549,-0.4832,-1.9281,-2.9686,
2.756024,0.2229,1.8796,-0.5120,2.9853,7.0330,-2.7549,-0.4832,-1.9281,-2.9686,
2.757938,-1.4020,1.1537,-0.8028,2.9853,7.0330,-2.7549,-0.4832,-1.9281,-2.9686,
2.760171,-0.5599,0.6180,0.5379,2.9853,7.0330,-2.7549,-0.4832,-1.9281,-2.9686,
2.787725,-0.5599,0.6180,0.5379,-3.6990,-1.5914,2.2917,-0.4832,-1.9281,-2.9686,
2.790054,-0.5599,0.6180,0.5379,-3.6990,-1.5914,2.2917,0.0517,-0.2238,-2.4734,
2.805771,-0.1477,0.7967,0.1199,-3.6990,-1.5914,2.2917,0.0517,-0.2238,-2.4734,
2.807087,-0.0850,1.0621,0.0425,-3.6990,-1.5914,2.2917,0.0517,-0.2238,-2.4734,
2.808309,-0.2945,1.0948,-0.1863,-3.6990,-1.5914,2.2917,0.0517,-0.2238,-2.4734,
2.845157,-0.2945,1.0948,-0.1863,-3.6990,-1.5914,2.2917,0.1519,0.3148,-1.4314,
2.847539,-0.2945,1.0948,-0.1863,-2.1243,0.8602,-1.0906,0.1519,0.3148,-1.4314,
2.876419,-0.2410,1.0770,-0.1292,-2.1243,0.8602,-1.0906,0.1519,0.3148,-1.4314,
2.879823,-0.0364,1.0787,-0.0498,-2.1243,0.8602,-1.0906,0.1519,0.3148,-1.4314,
2.882453,0.0176,1.0411,-0.0330,-2.1243,0.8602,-1.0906,0.1519,0.3148,-1.4314,
2.903754,0.0176,1.0411,-0.0330,-2.1243,0.8602,-1.0906,0.1252,-0.1462,-1.0594,
2.905298,0.0176,1.0411,-0.0330,-0.4037,0.2121,0.1428,0.1252,-0.1462,-1.0594,
2.922443,-0.1558,1.0052,0.0361,-0.4037,0.2121,0.1428,0.1252,-0.1462,-1.0594,
2.923780,-0.0945,1.0060,-0.0112,-0.4037,0.2121,0.1428,0.1252,-0.1462,-1.0594,
2.925229,0.0859,1.0253,-0.0735,-0.4037,0.2121,0.1428,0.1252,-0.1462,-1.0594,
2.961746,0.0859,1.0253,-0.0735,-0.4037,0.2121,0.1428,0.1629,0.3323,-1.0904,
2.977392,0.0859,1.0253,-0.0735,1.1162,-0.0246,-0.0884,0.1629,0.3323,-1.0904,
2.983240,0.0742,0.9857,-0.0520,1.1162,-0.0246,-0.0884,0.1629,0.3323,-1.0904,
2.985473,-0.1091,0.9552,0.0134,1.1162,-0.0246,-0.0884,0.1629,0.3323,-1.0904,
2.986526,-0.1602,0.9542,0.0342,1.1162,-0.0246,-0.0884,0.1629,0.3323,-1.0904,
3.021470,-0.1602,0.9542,0.0342,-0.0810,-0.0009,0.4159,0.1629,0.3323,-1.0904,
3.023127,-0.1602,0.9542,0.0342,-0.0810,-0.0009,0.4159,0.2476,0.4301,-1.2867,
3.039833,-0.1765,0.9786,-0.0066,-0.0810,-0.0009,0.4159,0.2476,0.4301,-1.2867,
3.041479,-0.1985,1.0089,-0.0356,-0.0810,-0.0009,0.4159,0.2476,0.4301,-1.2867,
3.042556,-0.1773,0.9911,-0.0501,-0.0810,-0.0009,0.4159,0.2476,0.4301,-1.2867,
3.080482,-0.1773,0.9911,-0.0501,1.2716,-0.0978,-0.0343,0.2476,0.4301,-1.2867,
3.082309,-0.1773,0.9911,-0.0501,1.2716,-0.0978,-0.0343,0.2836,0.3063,-1.3421,
3.104519,-0.1101,0.9400,-0.0654,1.2716,-0.0978,-0.0343,0.2836,0.3063,-1.3421,
3.105594,-0.0520,0.9288,-0.0899,1.2716,-0.0978,-0.0343,0.2836,0.3063,-1.3421,
3.106421,-0.1448,0.9730,-0.1157,1.2716,-0.0978,-0.0343,0.2836,0.3063,-1.3421,
3.140070,-0.1448,0.9730,-0.1157,1.2716,-0.0978,-0.0343,0.3421,0.2814,-1.7635,
3.141701,-0.1448,0.9730,-0.1157,1.2908,1.1757,-0.3809,0.3421,0.2814,-1.7635,
3.156092,-0.2417,1.0541,-0.1370,1.2908,1.1757,-0.3809,0.3421,0.2814,-1.7635,
3.157481,-0.2285,1.1349,-0.1318,1.2908,1.1757,-0.3809,0.3421,0.2814,-1.7635,
3.158223,-0.1665,1.1923,-0.1023,1.2908,1.1757,-0.3809,0.3421,0.2814,-1.7635,
3.195192,-0.1665,1.1923,-0.1023,1.2908,1.1757,-0.3809,0.5451,-0.1268,-2.0460,
3.197722,-0.1665,1.1923,-0.1023,4.2375,3.5118,0.3577,0.5451,-0.1268,-2.0460,
3.218316,-0.0295,1.2430,-0.0732,4.2375,3.5118,0.3577,0.5451,-0.1268,-2.0460,
3.221121,0.1782,1.3112,-0.0584,4.2375,3.5118,0.3577,0.5451,-0.1268,-2.0460,
3.222511,0.2354,1.2599,-0.1939,4.2375,3.5118,0.3577,0.5451,-0.1268,-2.0460,
3.252763,0.2354,1.2599,-0.1939,8.2108,6.7587,-0.6850,0.5451,-0.1268,-2.0460,
3.254082,0.2354,1.2599,-0.1939,8.2108,6.7587,-0.6850,0.8953,0.9255,-2.6397,
3.272333,0.1333,1.4054,-0.2649,8.2108,6.7587,-0.6850,0.8953,0.9255,-2.6397,
3.273921,0.5069,1.8571,-0.3138,8.2108,6.7587,-0.6850,0.8953,0.9255,-2.6397,
3.275155,1.0604,1.7997,-0.1636,8.2108,6.7587,-0.6850,0.8953,0.9255,-2.6397,
3.312530,1.0604,1.7997,-0.1636,8.2108,6.7587,-0.6850,1.0071,2.2904,-2.9108,
3.315516,1.0604,1.7997,-0.1636,7.8505,7.5387,2.4035,1.0071,2.2904,-2.9108,
3.335984,0.3299,1.2785,0.0786,7.8505,7.5387,2.4035,1.0071,2.2904,-2.9108,
3.337569,-0.8700,1.3754,-0.1047,7.8505,7.5387,2.4035,1.0071,2.2904,-2.9108,
3.338669,-1.2443,1.6503,-0.1746,7.8505,7.5387,2.4035,1.0071,2.2904,-2.9108,
3.370612,-1.2443,1.6503,-0.1746,-2.8018,6.0165,1.8031,1.0071,2.2904,-2.9108,
3.373393,-1.2443,1.6503,-0.1746,-2.8018,6.0165,1.8031,1.3858,0.9365,-2.4412,
3.390472,-0.9627,1.2408,-0.2522,-2.8018,6.0165,1.8031,1.3858,0.9365,-2.4412,
3.392375,-0.7721,0.7572,-0.2029,-2.8018,6.0165,1.8031,1.3858,0.9365,-2.4412,
3.393124,-0.6866,0.5328,-0.2527,-2.8018,6.0165,1.8031,1.3858,0.9365,-2.4412,
3.428287,-0.6866,0.5328,-0.2527,-2.8018,6.0165,1.8031,-0.2456,-1.1454,0.7443,
3.432603,-0.6866,0.5328,-0.2527,2.0910,-2.8982,2.8847,-0.2456,-1.1454,0.7443,
3.458262,-0.4947,0.3516,-0.1121,2.0910,-2.8982,2.8847,-0.2456,-1.1454,0.7443,
3.460614,-0.2825,0.1275,0.2508,2.0910,-2.8982,2.8847,-0.2456,-1.1454,0.7443,
3.461941,-0.2420,0.0098,0.2422,2.0910,-2.8982,2.8847,-0.2456,-1.1454,0.7443,
3.486659,-0.2420,0.0098,0.2422,2.0910,-2.8982,2.8847,-0.0538,-1.2362,3.6887,
3.489265,-0.2420,0.0098,0.2422,2.9134,-5.9028,3.0956,-0.0538,-1.2362,3.6887,
3.506673,-0.3035,0.0842,0.1182,2.9134,-5.9028,3.0956,-0.0538,-1.2362,3.6887,
3.510466,-0.2625,0.3841,-0.2473,2.9134,-5.9028,3.0956,-0.0538,-1.2362,3.6887,
3.513446,-0.3482,0.6968,-0.1243,2.9134,-5.9028,3.0956,-0.0538,-1.2362,3.6887,
3.545642,-0.3482,0.6968,-0.1243,2.9134,-5.9028,3.0956,0.1783,-0.9829,5.5567,
3.549028,-0.3482,0.6968,-0.1243,-1.1102,-2.2746,2.1756,0.1783,-0.9829,5.5567,
3.578336,-0.4163,0.6114,0.1052,-1.1102,-2.2746,2.1756,0.1783,-0.9829,5.5567,
3.580245,-0.5110,0.6910,-0.0864,-1.1102,-2.2746,2.1756,0.1783,-0.9829,5.5567,
3.584543,-0.6456,0.9930,-0.1841,-1.1102,-2.2746,2.1756,0.1783,-0.9829,5.5567,
3.602636,-0.6456,0.9930,-0.1841,-1.1102,-2.2746,2.1756,0.1873,-2.0533,6.3492,
3.604241,-0.6456,0.9930,-0.1841,-9.4426,1.7439,-0.6234,0.1873,-2.0533,6.3492,
3.625017,-1.0025,1.1395,-0.2932,-9.4426,1.7439,-0.6234,0.1873,-2.0533,6.3492,
3.626793,-1.2777,1.2692,-0.4671,-9.4426,1.7439,-0.6234,0.1873,-2.0533,6.3492,
3.627529,-0.9576,1.2101,-0.4983,-9.4426,1.7439,-0.6234,0.1873,-2.0533,6.3492,
3.662126,-0.9576,1.2101,-0.4983,-9.4426,1.7439,-0.6234,0.2150,-6.9462,6.7634,
3.664280,-0.9576,1.2101,-0.4983,-9.0928,2.5328,-0.8241,0.2150,-6.9462,6.7634,
3.681857,-0.6793,1.1361,-0.3780,-9.0928,2.5328,-0.8241,0.2150,-6.9462,6.7634,
3.683512,-0.4573,1.1490,-0.3399,-9.0928,2.5328,-0.8241,0.2150,-6.9462,6.7634,
3.684827,-0.2139,1.2340,-0.1873,-9.0928,2.5328,-0.8241,0.2150,-6.9462,6.7634,
3.723007,-0.2139,1.2340,-0.1873,-9.0928,2.5328,-0.8241,-0.1654,-8.3078,4.3036,
3.725394,-0.2139,1.2340,-0.1873,-2.4958,3.7218,4.1325,-0.1654,-8.3078,4.3036,
3.745315,0.0242,1.3095,-0.0298,-2.4958,3.7218,4.1325,-0.1654,-8.3078,4.3036,
3.748245,0.2058,1.1471,0.1773,-2.4958,3.7218,4.1325,-0.1654,-8.3078,4.3036,
3.749994,0.0359,0.9474,0.2827,-2.4958,3.7218,4.1325,-0.1654,-8.3078,4.3036,
3.777689,0.0359,0.9474,0.2827,-2.4958,3.7218,4.1325,-0.4944,-3.6988,0.8373,
3.780189,0.0359,0.9474,0.2827,-4.5021,0.7014,6.5142,-0.4944,-3.6988,0.8373,
3.799601,-0.2393,0.8927,0.3033,-4.5021,0.7014,6.5142,-0.4944,-3.6988,0.8373,
3.801949,-0.5880,0.9317,0.0535,-4.5021,0.7014,6.5142,-0.4944,-3.6988,0.8373,
3.803729,-0.8065,1.3910,-0.0039,-4.5021,0.7014,6.5142,-0.4944,-3.6988,0.8373,
3.837141,-0.8065,1.3910,-0.0039,-4.5021,0.7014,6.5142,-0.9147,-2.4864,-1.0488,
3.841352,-0.8065,1.3910,-0.0039,-4.5852,3.3797,8.9795,-0.9147,-2.4864,-1.0488,
3.857152,-0.4749,1.2875,0.9310,-4.5852,3.3797,8.9795,-0.9147,-2.4864,-1.0488,
3.861278,0.0877,1.0243,0.5887,-4.5852,3.3797,8.9795,-0.9147,-2.4864,-1.0488,
3.864275,0.4920,1.2020,-0.1909,-4.5852,3.3797,8.9795,-0.9147,-2.4864,-1.0488,
3.897073,0.4920,1.2020,-0.1909,5.4757,5.7174,-2.5831,-0.9147,-2.4864,-1.0488,
3.902787,0.4920,1.2020,-0.1909,5.4757,5.7174,-2.5831,-1.0853,-0.7324,-0.9979,
3.918086,0.7130,1.6252,-0.9356,5.4757,5.7174,-2.5831,-1.0853,-0.7324,-0.9979,
3.921233,0.5013,1.6994,-0.7449,5.4757,5.7174,-2.5831,-1.0853,-0.7324,-0.9979,
3.924041,-0.1109,1.1215,-0.4632,5.4757,5.7174,-2.5831,-1.0853,-0.7324,-0.9979,
3.955029,-0.1109,1.1215,-0.4632,5.4757,5.7174,-2.5831,-0.7601,-0.8379,-1.1460,
3.959352,-0.1109,1.1215,-0.4632,-4.0262,-0.2646,1.5109,-0.7601,-0.8379,-1.1460,
3.975725,-0.6981,0.7835,-0.1096,-4.0262,-0.2646,1.5109,-0.7601,-0.8379,-1.1460,
3.977971,-0.6512,0.8282,0.0908,-4.0262,-0.2646,1.5109,-0.7601,-0.8379,-1.1460,
3.979527,-0.2569,0.9476,0.0071,-4.0262,-0.2646,1.5109,-0.7601,-0.8379,-1.1460,
4.014025,-0.2569,0.9476,0.0071,-1.2110,0.3194,1.4158,-0.7601,-0.8379,-1.1460,
4.018299,-0.2569,0.9476,0.0071,-1.2110,0.3194,1.4158,-0.3209,-0.7092,0.1415,
4.033508,-0.1509,0.9718,-0.2090,-1.2110,0.3194,1.4158,-0.3209,-0.7092,0.1415,
4.035531,-0.2110,1.0135,-0.2385,-1.2110,0.3194,1.4158,-0.3209,-0.7092,0.1415,
4.037666,-0.2715,0.9713,-0.3291,-1.2110,0.3194,1.4158,-0.3209,-0.7092,0.1415,
4.070480,-0.2715,0.9713,-0.3291,-1.2110,0.3194,1.4158,-0.1707,-0.4636,0.4580,
4.074269,-0.2715,0.9713,-0.3291,-2.2571,0.2510,-0.6810,-0.1707,-0.4636,0.4580,
4.093183,-0.3562,0.9815,-0.4048,-2.2571,0.2510,-0.6810,-0.1707,-0.4636,0.4580,
4.096757,-0.2700,0.9750,-0.3174,-2.2571,0.2510,-0.6810,-0.1707,-0.4636,0.4580,
4.102069,-0.0193,0.9124,-0.1638,-2.2571,0.2510,-0.6810,-0.1707,-0.4636,0.4580,
4.127917,-0.0193,0.9124,-0.1638,-2.2571,0.2510,-0.6810,-0.1151,-0.5341,0.7198,
4.131647,-0.0193,0.9124,-0.1638,1.4531,-0.1974,1.0886,-0.1151,-0.5341,0.7198,
4.148071,0.1690,0.9005,-0.1536,1.4531,-0.1974,1.0886,-0.1151,-0.5341,0.7198,
4.154973,0.1900,0.9889,-0.1624,1.4531,-0.1974,1.0886,-0.1151,-0.5341,0.7198,
4.157168,-0.0217,0.9815,-0.2278,1.4531,-0.1974,1.0886,-0.1151,-0.5341,0.7198,
4.187557,-0.0217,0.9815,-0.2278,1.4531,-0.1974,1.0886,0.0342,-0.2229,0.3065,
4.190394,-0.0217,0.9815,-0.2278,0.0890,0.0438,0.6429,0.0342,-0.2229,0.3065,
4.218431,-0.0794,0.9522,-0.2256,0.0890,0.0438,0.6429,0.0342,-0.2229,0.3065,
4.221705,0.0642,0.9420,-0.1641,0.0890,0.0438,0.6429,0.0342,-0.2229,0.3065,
4.222772,0.1287,0.9833,-0.1887,0.0890,0.0438,0.6429,0.0342,-0.2229,0.3065,
4.244828,0.1287,0.9833,-0.1887,0.0890,0.0438,0.6429,0.2262,-0.4392,0.0434,
4.246557,0.1287,0.9833,-0.1887,1.3789,0.4026,0.9815,0.2262,-0.4392,0.0434,
4.263745,0.1343,1.0021,-0.1897,1.3789,0.4026,0.9815,0.2262,-0.4392,0.0434,
4.266117,0.0881,0.9916,-0.1663,1.3789,0.4026,0.9815,0.2262,-0.4392,0.0434,
4.267544,-0.0166,0.9154,-0.2215,1.3789,0.4026,0.9815,0.2262,-0.4392,0.0434,
4.302443,-0.0166,0.9154,-0.2215,1.3789,0.4026,0.9815,0.4471,-0.0975,-0.2938,
4.303898,-0.0166,0.9154,-0.2215,-1.0086,0.0133,0.5296,0.4471,-0.0975,-0.2938,
4.322297,-0.1611,0.9356,-0.2847,-1.0086,0.0133,0.5296,0.4471,-0.0975,-0.2938,
4.323917,-0.2608,0.9820,-0.2478,-1.0086,0.0133,0.5296,0.4471,-0.0975,-0.2938,
4.324662,-0.1267,0.9667,-0.2327,-1.0086,0.0133,0.5296,0.4471,-0.0975,-0.2938,
4.360793,-0.1267,0.9667,-0.2327,-1.0086,0.0133,0.5296,0.5986,-0.2333,-0.0334,
4.361991,-0.1267,0.9667,-0.2327,-0.2126,0.2742,0.4614,0.5986,-0.2333,-0.0334,
4.381151,-0.0320,0.9522,-0.2908,-0.2126,0.2742,0.4614,0.5986,-0.2333,-0.0334,
4.383416,-0.0559,0.9615,-0.3453,-0.2126,0.2742,0.4614,0.5986,-0.2333,-0.0334,
4.385312,0.0994,0.9564,-0.2525,-0.2126,0.2742,0.4614,0.5986,-0.2333,-0.0334,
4.419897,0.0994,0.9564,-0.2525,1.9953,0.8313,1.7040,0.5986,-0.2333,-0.0334,
4.421698,0.0994,0.9564,-0.2525,1.9953,0.8313,1.7040,1.0425,-0.4359,-0.2514,
4.440327,0.1961,0.9984,-0.1995,1.9953,0.8313,1.7040,1.0425,-0.4359,-0.2514,
4.441762,0.1079,1.0314,-0.1909,1.9953,0.8313,1.7040,1.0425,-0.4359,-0.2514,
4.443027,0.1331,1.0890,-0.1807,1.9953,0.8313,1.7040,1.0425,-0.4359,-0.2514,
4.478233,0.1331,1.0890,-0.1807,1.9953,0.8313,1.7040,1.7579,-0.4270,-0.6860,
4.480422,0.1331,1.0890,-0.1807,2.3492,3.6584,2.2440,1.7579,-0.4270,-0.6860,
4.499260,0.1619,1.2123,-0.2610,2.3492,3.6584,2.2440,1.7579,-0.4270,-0.6860,
4.503197,0.0903,1.4249,-0.2906,2.3492,3.6584,2.2440,1.7579,-0.4270,-0.6860,
4.504908,0.1599,1.5766,-0.2605,2.3492,3.6584,2.2440,1.7579,-0.4270,-0.6860,
4.536169,0.1599,1.5766,-0.2605,2.3492,3.6584,2.2440,2.4058,-1.1794,-0.6131,
4.537741,0.1599,1.5766,-0.2605,5.0684,7.8824,4.2523,2.4058,-1.1794,-0.6131,
4.555159,0.4529,1.5627,-0.1394,5.0684,7.8824,4.2523,2.4058,-1.1794,-0.6131,
4.556678,0.4322,1.6835,-0.0149,5.0684,7.8824,4.2523,2.4058,-1.1794,-0.6131,
4.557545,0.1067,1.7138,0.5333,5.0684,7.8824,4.2523,2.4058,-1.1794,-0.6131,
4.594041,0.1067,1.7138,0.5333,5.0684,7.8824,4.2523,2.0943,-2.8696,-1.1690,
4.595310,0.1067,1.7138,0.5333,-1.4916,8.0782,10.4199,2.0943,-2.8696,-1.1690,
4.613554,-0.5296,1.4955,0.5228,-1.4916,8.0782,10.4199,2.0943,-2.8696,-1.1690,
4.615439,-1.0074,1.4440,0.3160,-1.4916,8.0782,10.4199,2.0943,-2.8696,-1.1690,
4.616461,-1.3659,1.3952,0.0044,-1.4916,8.0782,10.4199,2.0943,-2.8696,-1.1690,
4.652610,-1.3659,1.3952,0.0044,-1.4916,8.0782,10.4199,1.4105,-5.8309,-0.7147,
4.654092,-1.3659,1.3952,0.0044,-3.1720,5.9091,1.0227,1.4105,-5.8309,-0.7147,
4.673838,-1.0567,1.2531,-0.6458,-3.1720,5.9091,1.0227,1.4105,-5.8309,-0.7147,
4.676649,-0.2078,1.1764,-0.5787,-3.1720,5.9091,1.0227,1.4105,-5.8309,-0.7147,
4.679884,0.4786,0.6932,0.0564,-3.1720,5.9091,1.0227,1.4105,-5.8309,-0.7147,
4.712209,0.4786,0.6932,0.0564,-3.1720,5.9091,1.0227,0.1684,-5.0989,1.6958,
4.716060,0.4786,0.6932,0.0564,8.6237,-1.9146,5.2832,0.1684,-5.0989,1.6958,
4.732373,0.3809,0.4117,0.3501,8.6237,-1.9146,5.2832,0.1684,-5.0989,1.6958,
4.735971,-0.0125,0.4783,0.2178,8.6237,-1.9146,5.2832,0.1684,-5.0989,1.6958,
4.738624,-0.2364,0.5665,0.1677,8.6237,-1.9146,5.2832,0.1684,-5.0989,1.6958,
4.771668,-0.2364,0.5665,0.1677,2.7075,-2.6340,3.1703,0.1684,-5.0989,1.6958,
4.775507,-0.2364,0.5665,0.1677,2.7075,-2.6340,3.1703,0.0825,-1.9957,3.3757,
4.794772,-0.2300,0.5567,0.0281,2.7075,-2.6340,3.1703,0.0825,-1.9957,3.3757,
4.797877,-0.1284,0.5447,-0.0149,2.7075,-2.6340,3.1703,0.0825,-1.9957,3.3757,
4.800202,-0.1375,0.5533,0.0146,2.7075,-2.6340,3.1703,0.0825,-1.9957,3.3757,
4.827805,-0.1375,0.5533,0.0146,2.7075,-2.6340,3.1703,-0.4726,-0.0721,5.3136,
4.831427,-0.1375,0.5533,0.0146,-0.1664,-1.9870,1.9260,-0.4726,-0.0721,5.3136,
4.854694,-0.2083,0.7091,-0.0303,-0.1664,-1.9870,1.9260,-0.4726,-0.0721,5.3136,
4.856711,-0.3076,0.9325,-0.0881,-0.1664,-1.9870,1.9260,-0.4726,-0.0721,5.3136,
4.858008,-0.3597,1.1505,-0.0957,-0.1664,-1.9870,1.9260,-0.4726,-0.0721,5.3136,
4.888102,-0.3597,1.1505,-0.0957,-0.1664,-1.9870,1.9260,-1.2437,0.0344,6.4154,
4.892469,-0.3597,1.1505,-0.0957,-5.8163,4.0666,0.4505,-1.2437,0.0344,6.4154,
4.912362,-0.4485,1.3942,-0.0942,-5.8163,4.0666,0.4505,-1.2437,0.0344,6.4154,
4.914554,-0.5296,1.5922,-0.1543,-5.8163,4.0666,0.4505,-1.2437,0.0344,6.4154,
4.916606,-0.5938,1.6884,-0.1907,-5.8163,4.0666,0.4505,-1.2437,0.0344,6.4154,
4.944343,-0.5938,1.6884,-0.1907,-5.8163,4.0666,0.4505,-1.5429,0.6451,5.3873,
4.946276,-0.5938,1.6884,-0.1907,-12.2657,7.7987,-0.9063,-1.5429,0.6451,5.3873,
4.972571,-0.8150,1.8149,-0.1370,-12.2657,7.7987,-0.9063,-1.5429,0.6451,5.3873,
4.974396,-1.0777,1.5666,-0.1494,-12.2657,7.7987,-0.9063,-1.5429,0.6451,5.3873,
4.975944,-1.2496,1.0692,-0.3584,-12.2657,7.7987,-0.9063,-1.5429,0.6451,5.3873,
5.003747,-1.2496,1.0692,-0.3584,-12.2657,7.7987,-0.9063,-0.8740,0.2321,0.8550,
5.005829,-1.2496,1.0692,-0.3584,-16.9882,-0.1365,-4.0025,-0.8740,0.2321,0.8550,
5.026672,-1.3944,0.7940,-0.3958,-16.9882,-0.1365,-4.0025,-0.8740,0.2321,0.8550,
5.033456,-1.2423,0.7164,-0.5389,-16.9882,-0.1365,-4.0025,-0.8740,0.2321,0.8550,
5.036777,-0.8556,1.3183,-1.1786,-16.9882,-0.1365,-4.0025,-0.8740,0.2321,0.8550,
5.062789,-0.8556,1.3183,-1.1786,-16.9882,-0.1365,-4.0025,-0.5455,-2.6941,-2.0853,
5.066667,-0.8556,1.3183,-1.1786,7.8963,7.5556,-3.6197,-0.5455,-2.6941,-2.0853,
5.094877,1.5859,1.7487,0.0425,7.8963,7.5556,-3.6197,-0.5455,-2.6941,-2.0853,
5.096670,2.6968,2.0488,-0.1548,7.8963,7.5556,-3.6197,-0.5455,-2.6941,-2.0853,
5.098148,-0.4473,1.4689,-0.9039,7.8963,7.5556,-3.6197,-0.5455,-2.6941,-2.0853,
5.121482,-0.4473,1.4689,-0.9039,-6.6499,-0.8486,0.6157,-0.5455,-2.6941,-2.0853,
5.123758,-0.4473,1.4689,-0.9039,-6.6499,-0.8486,0.6157,-0.2429,-1.1126,-3.2437,
5.140369,-1.0829,0.8458,-0.0029,-6.6499,-0.8486,0.6157,-0.2429,-1.1126,-3.2437,
5.143773,-0.0879,0.3650,0.9034,-6.6499,-0.8486,0.6157,-0.2429,-1.1126,-3.2437,
5.145619,-0.0674,0.8680,0.2002,-6.6499,-0.8486,0.6157,-0.2429,-1.1126,-3.2437,
5.178210,-0.0674,0.8680,0.2002,-6.6499,-0.8486,0.6157,0.1527,0.0835,-1.9087,
5.181634,-0.0674,0.8680,0.2002,-3.0419,0.5603,0.3468,0.1527,0.0835,-1.9087,
5.203178,-0.2923,1.1691,-0.0383,-3.0419,0.5603,0.3468,0.1527,0.0835,-1.9087,
5.205782,-0.4979,1.1031,-0.2730,-3.0419,0.5603,0.3468,0.1527,0.0835,-1.9087,
5.207485,-0.1465,1.1227,-0.2898,-3.0419,0.5603,0.3468,0.1527,0.0835,-1.9087,
5.238006,-0.1465,1.1227,-0.2898,-3.0419,0.5603,0.3468,0.0833,-0.2154,-1.0211,
5.240487,-0.1465,1.1227,-0.2898,0.3262,0.9590,-0.8523,0.0833,-0.2154,-1.0211,
5.256646,0.1057,1.1144,-0.2095,0.3262,0.9590,-0.8523,0.0833,-0.2154,-1.0211,
5.259277,0.0364,1.0282,0.0029,0.3262,0.9590,-0.8523,0.0833,-0.2154,-1.0211,
5.261941,-0.1008,1.0133,0.0930,0.3262,0.9590,-0.8523,0.0833,-0.2154,-1.0211,
5.295564,-0.1008,1.0133,0.0930,0.3262,0.9590,-0.8523,0.1588,-0.1576,-1.0454,
5.298592,-0.1008,1.0133,0.0930,0.6735,0.1198,1.0100,0.1588,-0.1576,-1.0454,
5.317132,-0.0151,0.9981,0.0090,0.6735,0.1198,1.0100,0.1588,-0.1576,-1.0454,
5.321213,0.0383,0.9833,-0.0488,0.6735,0.1198,1.0100,0.1588,-0.1576,-1.0454,
5.322924,-0.0503,1.0138,-0.0476,0.6735,0.1198,1.0100,0.1588,-0.1576,-1.0454,
5.353705,-0.0503,1.0138,-0.0476,0.6735,0.1198,1.0100,0.2451,0.1495,-1.2081,
5.356558,-0.0503,1.0138,-0.0476,0.5201,0.4448,0.5190,0.2451,0.1495,-1.2081,
5.373602,-0.1641,1.0296,-0.0537,0.5201,0.4448,0.5190,0.2451,0.1495,-1.2081,
5.376281,-0.1126,1.0218,-0.0388,0.5201,0.4448,0.5190,0.2451,0.1495,-1.2081,
5.377797,-0.0796,1.0321,-0.0444,0.5201,0.4448,0.5190,0.2451,0.1495,-1.2081,
5.412196,-0.0796,1.0321,-0.0444,0.5201,0.4448,0.5190,0.3313,0.0466,-1.3457,
5.415449,-0.0796,1.0321,-0.0444,1.1654,0.4184,0.7048,0.3313,0.0466,-1.3457,
5.431014,-0.1008,1.0155,-0.0374,1.1654,0.4184,0.7048,0.3313,0.0466,-1.3457,
5.433175,-0.1699,0.9584,-0.0554,1.1654,0.4184,0.7048,0.3313,0.0466,-1.3457,
5.434128,-0.2281,0.9200,-0.0979,1.1654,0.4184,0.7048,0.3313,0.0466,-1.3457,
5.470998,-0.2281,0.9200,-0.0979,1.1654,0.4184,0.7048,0.3109,0.3407,-1.5172,
5.474393,-0.2281,0.9200,-0.0979,1.2022,0.1359,0.2020,0.3109,0.3407,-1.5172,
5.489902,-0.2178,0.9269,-0.1287,1.2022,0.1359,0.2020,0.3109,0.3407,-1.5172,
5.491647,-0.1306,0.9928,-0.1318,1.2022,0.1359,0.2020,0.3109,0.3407,-1.5172,
5.492422,-0.1072,1.0951,-0.1038,1.2022,0.1359,0.2020,0.3109,0.3407,-1.5172,
5.528697,-0.1072,1.0951,-0.1038,1.2022,0.1359,0.2020,0.5005,-0.1238,-1.8220,
5.532079,-0.1072,1.0951,-0.1038,2.8716,2.6245,0.5492,0.5005,-0.1238,-1.8220,
5.548498,-0.1536,1.1781,-0.1189,2.8716,2.6245,0.5492,0.5005,-0.1238,-1.8220,
5.551136,-0.0840,1.2125,-0.0979,2.8716,2.6245,0.5492,0.5005,-0.1238,-1.8220,
5.552991,0.0889,1.2658,-0.0339,2.8716,2.6245,0.5492,0.5005,-0.1238,-1.8220,
5.585652,0.0889,1.2658,-0.0339,2.8716,2.6245,0.5492,0.8438,0.0503,-2.2168,
5.586966,0.0889,1.2658,-0.0339,8.5349,7.4051,2.7641,0.8438,0.0503,-2.2168,
5.605768,0.2591,1.4906,-0.0171,8.5349,7.4051,2.7641,0.8438,0.0503,-2.2168,
5.606870,0.7530,2.0239,0.2915,8.5349,7.4051,2.7641,0.8438,0.0503,-2.2168,
5.607441,1.3346,2.0608,0.1209,8.5349,7.4051,2.7641,0.8438,0.0503,-2.2168,
5.644359,1.3346,2.0608,0.1209,8.5349,7.4051,2.7641,0.6607,1.7626,-3.1590,
5.645685,1.3346,2.0608,0.1209,11.6699,8.4371,2.8320,0.6607,1.7626,-3.1590,
5.663806,0.8153,1.5158,0.0762,11.6699,8.4371,2.8320,0.6607,1.7626,-3.1590,
5.665057,-0.3846,1.2220,-0.1892,11.6699,8.4371,2.8320,0.6607,1.7626,-3.1590,
5.665682,-0.9017,1.3866,-0.2678,11.6699,8.4371,2.8320,0.6607,1.7626,-3.1590,
5.703082,-0.9017,1.3866,-0.2678,11.6699,8.4371,2.8320,0.9287,2.7754,-3.2427,
5.705639,-0.9017,1.3866,-0.2678,-1.4575,6.0046,1.3824,0.9287,2.7754,-3.2427,
5.727257,-0.8370,1.3451,-0.2051,-1.4575,6.0046,1.3824,0.9287,2.7754,-3.2427,
5.730645,-0.7293,0.9310,-0.3772,-1.4575,6.0046,1.3824,0.9287,2.7754,-3.2427,
5.732632,-0.6927,0.6043,-0.3626,-1.4575,6.0046,1.3824,0.9287,2.7754,-3.2427,
5.761265,-0.6927,0.6043,-0.3626,-1.4575,6.0046,1.3824,-0.6402,0.6156,-0.2690,
5.763455,-0.6927,0.6043,-0.3626,0.8653,-1.7846,0.6720,-0.6402,0.6156,-0.2690,
5.782268,-0.6068,0.3833,-0.5184,0.8653,-1.7846,0.6720,-0.6402,0.6156,-0.2690,
5.785336,-0.4339,0.2984,-0.1890,0.8653,-1.7846,0.6720,-0.6402,0.6156,-0.2690,
5.787825,-0.2266,0.1304,-0.0217,0.8653,-1.7846,0.6720,-0.6402,0.6156,-0.2690,
5.819720,-0.2266,0.1304,-0.0217,0.8653,-1.7846,0.6720,-1.8896,-0.6864,2.9401,
5.824725,-0.2266,0.1304,-0.0217,3.6032,-5.6102,1.9947,-1.8896,-0.6864,2.9401,
5.839537,-0.1421,0.1221,-0.0630,3.6032,-5.6102,1.9947,-1.8896,-0.6864,2.9401,
5.842541,-0.1980,0.2754,-0.2710,3.6032,-5.6102,1.9947,-1.8896,-0.6864,2.9401,
5.844836,-0.1836,0.4207,-0.3736,3.6032,-5.6102,1.9947,-1.8896,-0.6864,2.9401,
5.878483,-0.1836,0.4207,-0.3736,3.6032,-5.6102,1.9947,-2.1686,-0.9650,4.9921,
5.882159,-0.1836,0.4207,-0.3736,1.3546,-3.7392,-0.9026,-2.1686,-0.9650,4.9921,
5.897989,-0.1843,0.5428,-0.2884,1.3546,-3.7392,-0.9026,-2.1686,-0.9650,4.9921,
5.902011,-0.1919,0.6055,-0.1934,1.3546,-3.7392,-0.9026,-2.1686,-0.9650,4.9921,
5.904837,-0.0723,0.6783,-0.1150,1.3546,-3.7392,-0.9026,-2.1686,-0.9650,4.9921,
5.937097,-0.0723,0.6783,-0.1150,1.3546,-3.7392,-0.9026,-1.8011,0.3692,6.1702,
5.941095,-0.0723,0.6783,-0.1150,-1.0748,0.9397,-1.5909,-1.8011,0.3692,6.1702,
5.965779,0.0418,0.9864,-0.2559,-1.0748,0.9397,-1.5909,-1.8011,0.3692,6.1702,
5.969844,-0.2434,1.5544,-0.4078,-1.0748,0.9397,-1.5909,-1.8011,0.3692,6.1702,
5.973164,-0.7037,1.9450,-0.5677,-1.0748,0.9397,-1.5909,-1.8011,0.3692,6.1702,
5.994045,-0.7037,1.9450,-0.5677,-1.0748,0.9397,-1.5909,-2.1641,1.1183,5.8672,
5.995788,-0.7037,1.9450,-0.5677,-11.8747,8.3008,-4.1898,-2.1641,1.1183,5.8672,
6.014209,-0.9828,1.8559,-0.4522,-11.8747,8.3008,-4.1898,-2.1641,1.1183,5.8672,
6.015918,-0.9667,1.5363,-0.1736,-11.8747,8.3008,-4.1898,-2.1641,1.1183,5.8672,
6.017010,-0.6654,1.2575,-0.3538,-11.8747,8.3008,-4.1898,-2.1641,1.1183,5.8672,
6.053414,-0.6654,1.2575,-0.3538,-13.2338,1.8589,-5.0613,-2.1641,1.1183,5.8672,
6.056487,-0.6654,1.2575,-0.3538,-13.2338,1.8589,-5.0613,-1.1676,-0.1366,2.6433,
6.073544,-0.8702,1.0802,-0.5552,-13.2338,1.8589,-5.0613,-1.1676,-0.1366,2.6433,
6.079066,-1.1825,0.8407,-0.4060,-13.2338,1.8589,-5.0613,-1.1676,-0.1366,2.6433,
6.082022,-1.1847,0.7435,-0.5323,-13.2338,1.8589,-5.0613,-1.1676,-0.1366,2.6433,
6.111848,-1.1847,0.7435,-0.5323,-13.2338,1.8589,-5.0613,-0.3234,-1.7320,-1.7652,
6.115609,-1.1847,0.7435,-0.5323,-2.1659,3.7067,-2.8120,-0.3234,-1.7320,-1.7652,
6.132769,-0.5616,1.4301,-0.7677,-2.1659,3.7067,-2.8120,-0.3234,-1.7320,-1.7652,
6.136205,2.1513,1.7099,0.5826,-2.1659,3.7067,-2.8120,-0.3234,-1.7320,-1.7652,
6.138665,2.4365,1.9409,0.3575,-2.1659,3.7067,-2.8120,-0.3234,-1.7320,-1.7652,
6.173680,2.4365,1.9409,0.3575,-2.1659,3.7067,-2.8120,0.0890,-0.9324,-3.0291,
6.177174,2.4365,1.9409,0.3575,-0.0963,3.9912,-2.7584,0.0890,-0.9324,-3.0291,
6.199241,-0.8707,1.3695,-0.7203,-0.0963,3.9912,-2.7584,0.0890,-0.9324,-3.0291,
6.200654,-1.0211,0.8270,-0.4151,-0.0963,3.9912,-2.7584,0.0890,-0.9324,-3.0291,
6.201574,-0.1358,0.5877,0.4283,-0.0963,3.9912,-2.7584,0.0890,-0.9324,-3.0291,
6.228209,-0.1358,0.5877,0.4283,-0.0963,3.9912,-2.7584,0.0991,0.2079,-2.0140,
6.230996,-0.1358,0.5877,0.4283,-2.4987,-0.8280,2.0863,0.0991,0.2079,-2.0140,
6.248304,-0.1914,0.9898,0.1729,-2.4987,-0.8280,2.0863,0.0991,0.2079,-2.0140,
6.251870,-0.2229,1.1278,0.1006,-2.4987,-0.8280,2.0863,0.0991,0.2079,-2.0140,
6.252579,-0.2293,1.0641,-0.0132,-2.4987,-0.8280,2.0863,0.0991,0.2079,-2.0140,
6.286342,-0.2293,1.0641,-0.0132,-2.4987,-0.8280,2.0863,0.1971,-0.2600,-1.1620,
6.288458,-0.2293,1.0641,-0.0132,-0.5087,0.5168,-0.5618,0.1971,-0.2600,-1.1620,
6.306963,-0.0386,1.0221,-0.0632,-0.5087,0.5168,-0.5618,0.1971,-0.2600,-1.1620,
6.310101,0.1240,1.0419,-0.0706,-0.5087,0.5168,-0.5618,0.1971,-0.2600,-1.1620,
6.311489,0.0408,1.0209,0.0476,-0.5087,0.5168,-0.5618,0.1971,-0.2600,-1.1620,
6.346437,0.0408,1.0209,0.0476,-0.5087,0.5168,-0.5618,0.1936,-0.0446,-1.0574,
6.348202,0.0408,1.0209,0.0476,-0.6604,0.0844,0.8196,0.1936,-0.0446,-1.0574,
6.364510,-0.2180,0.9855,0.1201,-0.6604,0.0844,0.8196,0.1936,-0.0446,-1.0574,
6.365751,-0.1995,0.9850,0.0789,-0.6604,0.0844,0.8196,0.1936,-0.0446,-1.0574,
6.366543,0.0293,1.0011,0.0095,-0.6604,0.0844,0.8196,0.1936,-0.0446,-1.0574,
6.404249,0.0293,1.0011,0.0095,-0.6604,0.0844,0.8196,0.2386,-0.0012,-0.8861,
6.405628,0.0293,1.0011,0.0095,0.9399,0.2890,0.0198,0.2386,-0.0012,-0.8861,
6.422785,0.0337,1.0150,-0.0178,0.9399,0.2890,0.0198,0.2386,-0.0012,-0.8861,
6.424497,-0.0979,1.0260,-0.0310,0.9399,0.2890,0.0198,0.2386,-0.0012,-0.8861,
6.426667,-0.1172,1.0055,-0.0335,0.9399,0.2890,0.0198,0.2386,-0.0012,-0.8861,
6.461864,-0.1172,1.0055,-0.0335,0.9399,0.2890,0.0198,0.2329,0.2676,-0.9861,
6.464687,-0.1172,1.0055,-0.0335,0.4752,0.3945,0.2756,0.2329,0.2676,-0.9861,
6.482723,-0.1177,1.0172,0.0044,0.4752,0.3945,0.2756,0.2329,0.2676,-0.9861,
6.485796,-0.1079,1.0294,0.0230,0.4752,0.3945,0.2756,0.2329,0.2676,-0.9861,
6.488205,-0.0955,0.9972,0.0076,0.4752,0.3945,0.2756,0.2329,0.2676,-0.9861,
6.520195,-0.0955,0.9972,0.0076,0.4752,0.3945,0.2756,0.2688,0.2662,-1.1199,
6.522325,-0.0955,0.9972,0.0076,1.3504,0.2056,0.1439,0.2688,0.2662,-1.1199,
6.540351,-0.1025,0.9818,-0.0366,1.3504,0.2056,0.1439,0.2688,0.2662,-1.1199,
6.543448,-0.0584,0.9764,-0.0713,1.3504,0.2056,0.1439,0.2688,0.2662,-1.1199,
6.545034,-0.0569,0.9815,-0.0676,1.3504,0.2056,0.1439,0.2688,0.2662,-1.1199,
6.579021,-0.0569,0.9815,-0.0676,1.3504,0.2056,0.1439,0.3172,0.3105,-1.5575,
6.582595,-0.0569,0.9815,-0.0676,1.8342,0.8990,0.1945,0.3172,0.3105,-1.5575,
6.599282,-0.1052,1.0138,-0.0437,1.8342,0.8990,0.1945,0.3172,0.3105,-1.5575,
6.602409,-0.1929,1.1012,-0.0398,1.8342,0.8990,0.1945,0.3172,0.3105,-1.5575,
6.604993,-0.1458,1.1661,-0.0273,1.8342,0.8990,0.1945,0.3172,0.3105,-1.5575,
6.636692,-0.1458,1.1661,-0.0273,1.8342,0.8990,0.1945,0.5620,-0.0509,-2.0036,
6.639702,-0.1458,1.1661,-0.0273,3.8492,3.0613,0.8427,0.5620,-0.0509,-2.0036,
6.657681,0.0161,1.1808,-0.0015,3.8492,3.0613,0.8427,0.5620,-0.0509,-2.0036,
6.661004,0.0881,1.2929,-0.0061,3.8492,3.0613,0.8427,0.5620,-0.0509,-2.0036,
6.665105,0.1785,1.5673,0.0051,3.8492,3.0613,0.8427,0.5620,-0.0509,-2.0036,
6.694166,0.1785,1.5673,0.0051,3.8492,3.0613,0.8427,0.8116,1.1548,-2.7499,
6.695735,0.1785,1.5673,0.0051,10.1806,8.2818,-0.0376,0.8116,1.1548,-2.7499,
6.713533,0.5999,1.7656,-0.1253,10.1806,8.2818,-0.0376,0.8116,1.1548,-2.7499,
6.715201,0.7840,1.7016,-0.4041,10.1806,8.2818,-0.0376,0.8116,1.1548,-2.7499,
6.716053,0.6885,1.4452,-0.4400,10.1806,8.2818,-0.0376,0.8116,1.1548,-2.7499,
6.753667,0.6885,1.4452,-0.4400,10.1806,8.2818,-0.0376,1.0666,3.4472,-3.4329,
6.757283,0.6885,1.4452,-0.4400,4.5832,3.8706,-0.3379,1.0666,3.4472,-3.4329,
6.772929,-0.0493,0.9610,-0.3230,4.5832,3.8706,-0.3379,1.0666,3.4472,-3.4329,
6.774892,-1.0760,0.9054,-0.3487,4.5832,3.8706,-0.3379,1.0666,3.4472,-3.4329,
6.776692,-1.4731,1.1854,-0.3091,4.5832,3.8706,-0.3379,1.0666,3.4472,-3.4329,
6.812044,-1.4731,1.1854,-0.3091,4.5832,3.8706,-0.3379,1.4952,0.9815,-2.2101,
6.821372,-1.4731,1.1854,-0.3091,-5.3738,2.8339,1.6062,1.4952,0.9815,-2.2101,
6.831701,-1.2377,0.9774,-0.2593,-5.3738,2.8339,1.6062,1.4952,0.9815,-2.2101,
6.833867,-0.9916,0.4949,-0.2176,-5.3738,2.8339,1.6062,1.4952,0.9815,-2.2101,
6.834591,-0.7061,0.3316,-0.0623,-5.3738,2.8339,1.6062,1.4952,0.9815,-2.2101,
6.870477,-0.7061,0.3316,-0.0623,-5.3738,2.8339,1.6062,0.1093,-2.3663,1.4121,
6.873757,-0.7061,0.3316,-0.0623,3.4561,-5.0768,2.9584,0.1093,-2.3663,1.4121,
6.891492,-0.3489,0.1633,-0.1030,3.4561,-5.0768,2.9584,0.1093,-2.3663,1.4121,
6.892918,0.0679,-0.1233,0.0850,3.4561,-5.0768,2.9584,0.1093,-2.3663,1.4121,
6.894126,0.2029,-0.2073,0.0132,3.4561,-5.0768,2.9584,0.1093,-2.3663,1.4121,
6.928411,0.2029,-0.2073,0.0132,5.0748,-6.7846,1.6101,0.1093,-2.3663,1.4121,
6.931882,0.2029,-0.2073,0.0132,5.0748,-6.7846,1.6101,0.8143,-2.1085,3.5783,
6.949079,-0.0461,0.0632,-0.1348,5.0748,-6.7846,1.6101,0.8143,-2.1085,3.5783,
6.951289,-0.2932,0.3108,-0.2281,5.0748,-6.7846,1.6101,0.8143,-2.1085,3.5783,
6.952065,-0.4253,0.4170,-0.1204,5.0748,-6.7846,1.6101,0.8143,-2.1085,3.5783,
6.986035,-0.4253,0.4170,-0.1204,5.0748,-6.7846,1.6101,1.1289,-2.8511,5.6064,
6.988251,-0.4253,0.4170,-0.1204,-1.5061,-3.7448,0.5795,1.1289,-2.8511,5.6064,
7.007703,-0.4981,0.4629,-0.1685,-1.5061,-3.7448,0.5795,1.1289,-2.8511,5.6064,
7.010701,-0.5643,0.5923,-0.3067,-1.5061,-3.7448,0.5795,1.1289,-2.8511,5.6064,
7.013781,-0.6173,0.8871,-0.3912,-1.5061,-3.7448,0.5795,1.1289,-2.8511,5.6064,
7.045121,-0.6173,0.8871,-0.3912,-5.2085,3.0170,-1.4961,1.1289,-2.8511,5.6064,
7.047007,-0.6173,0.8871,-0.3912,-5.2085,3.0170,-1.4961,1.7632,-6.5149,7.2519,
7.064666,-0.6431,1.2277,-0.4502,-5.2085,3.0170,-1.4961,1.7632,-6.5149,7.2519,
7.067323,-0.5284,1.6127,-0.4625,-5.2085,3.0170,-1.4961,1.7632,-6.5149,7.2519,
7.069059,-0.6544,1.9160,-0.2483,-5.2085,3.0170,-1.4961,1.7632,-6.5149,7.2519,
7.102658,-0.6544,1.9160,-0.2483,-5.2085,3.0170,-1.4961,1.4107,-9.0329,5.0222,
7.104463,-0.6544,1.9160,-0.2483,-4.6119,6.4910,4.4131,1.4107,-9.0329,5.0222,
7.123755,-0.5530,1.6469,0.0459,-4.6119,6.4910,4.4131,1.4107,-9.0329,5.0222,
7.126321,-0.1170,1.1820,0.4922,-4.6119,6.4910,4.4131,1.4107,-9.0329,5.0222,
7.128290,-0.7291,1.3099,0.5025,-4.6119,6.4910,4.4131,1.4107,-9.0329,5.0222,
7.161042,-0.7291,1.3099,0.5025,-4.6119,6.4910,4.4131,-0.4594,-4.2600,0.5822,
7.163013,-0.7291,1.3099,0.5025,0.3814,2.0141,15.1170,-0.4594,-4.2600,0.5822,
7.181311,-0.7254,1.5006,1.5844,0.3814,2.0141,15.1170,-0.4594,-4.2600,0.5822,
7.183305,1.4889,0.5972,1.6196,0.3814,2.0141,15.1170,-0.4594,-4.2600,0.5822,
7.184485,1.2428,1.1327,0.1909,0.3814,2.0141,15.1170,-0.4594,-4.2600,0.5822,
7.220029,1.2428,1.1327,0.1909,0.3814,2.0141,15.1170,-0.6044,1.5180,-1.3231,
7.222872,1.2428,1.1327,0.1909,2.3957,4.6712,-3.0730,-0.6044,1.5180,-1.3231,
7.242285,0.0608,1.6196,-0.9134,2.3957,4.6712,-3.0730,-0.6044,1.5180,-1.3231,
7.245382,-0.7813,1.5111,-1.0738,2.3957,4.6712,-3.0730,-0.6044,1.5180,-1.3231,
7.248392,-0.7315,1.1363,-0.7764,2.3957,4.6712,-3.0730,-0.6044,1.5180,-1.3231,
7.278817,-0.7315,1.1363,-0.7764,2.3957,4.6712,-3.0730,-0.4618,-1.5357,-0.3924,
7.282737,-0.7315,1.1363,-0.7764,-1.6593,0.1051,-0.6058,-0.4618,-1.5357,-0.3924,
7.297400,-0.1670,0.9229,-0.2097,-1.6593,0.1051,-0.6058,-0.4618,-1.5357,-0.3924,
7.299942,0.0352,0.8228,0.0457,-1.6593,0.1051,-0.6058,-0.4618,-1.5357,-0.3924,
7.301041,-0.0879,0.8612,0.1362,-1.6593,0.1051,-0.6058,-0.4618,-1.5357,-0.3924,
7.339762,-0.0879,0.8612,0.1362,-1.6593,0.1051,-0.6058,-0.2087,-0.6271,-0.0700,
7.343465,-0.0879,0.8612,0.1362,-1.2079,0.0160,1.8326,-0.2087,-0.6271,-0.0700,
7.365547,-0.3081,0.9747,0.0254,-1.2079,0.0160,1.8326,-0.2087,-0.6271,-0.0700,
7.369664,-0.3738,1.0265,-0.2976,-1.2079,0.0160,1.8326,-0.2087,-0.6271,-0.0700,
7.371050,-0.2478,1.0240,-0.3682,-1.2079,0.0160,1.8326,-0.2087,-0.6271,-0.0700,
7.394804,-0.2478,1.0240,-0.3682,-1.2079,0.0160,1.8326,-0.0784,-0.3498,0.3439,
7.397829,-0.2478,1.0240,-0.3682,-0.4278,0.4329,-0.7862,-0.0784,-0.3498,0.3439,
7.414902,-0.1055,1.0045,-0.3160,-0.4278,0.4329,-0.7862,-0.0784,-0.3498,0.3439,
7.417968,-0.1365,0.9745,-0.2366,-0.4278,0.4329,-0.7862,-0.0784,-0.3498,0.3439,
7.420220,-0.1651,0.9459,-0.2896,-0.4278,0.4329,-0.7862,-0.0784,-0.3498,0.3439,
7.453722,-0.1651,0.9459,-0.2896,-0.4278,0.4329,-0.7862,-0.1259,-0.3655,0.4026,
7.456870,-0.1651,0.9459,-0.2896,0.5696,0.0547,-0.0723,-0.1259,-0.3655,0.4026,
7.475893,-0.0481,0.9730,-0.2444,0.5696,0.0547,-0.0723,-0.1259,-0.3655,0.4026,
7.479750,0.0850,0.9813,-0.1404,0.5696,0.0547,-0.0723,-0.1259,-0.3655,0.4026,
7.482661,0.0430,0.9562,-0.0921,0.5696,0.0547,-0.0723,-0.1259,-0.3655,0.4026,
7.512187,0.0430,0.9562,-0.0921,0.5696,0.0547,-0.0723,0.0289,-0.1916,0.0813,
7.514599,0.0430,0.9562,-0.0921,0.5873,0.1446,0.5456,0.0289,-0.1916,0.0813,
7.539021,-0.0732,0.9952,-0.1909,0.5873,0.1446,0.5456,0.0289,-0.1916,0.0813,
7.541974,-0.0830,0.9774,-0.2009,0.5873,0.1446,0.5456,0.0289,-0.1916,0.0813,
7.543700,-0.0608,0.9859,-0.1226,0.5873,0.1446,0.5456,0.0289,-0.1916,0.0813,
7.570386,-0.0608,0.9859,-0.1226,0.5873,0.1446,0.5456,0.2620,-0.4278,-0.1089,
7.574364,-0.0608,0.9859,-0.1226,0.9016,0.3076,1.2013,0.2620,-0.4278,-0.1089,
7.591246,0.0383,1.0030,-0.0942,0.9016,0.3076,1.2013,0.2620,-0.4278,-0.1089,
7.592318,-0.0249,0.9791,-0.0964,0.9016,0.3076,1.2013,0.2620,-0.4278,-0.1089,
7.594617,-0.1113,0.9549,-0.1692,0.9016,0.3076,1.2013,0.2620,-0.4278,-0.1089,
7.628277,-0.1113,0.9549,-0.1692,0.9016,0.3076,1.2013,0.6312,-0.4396,-0.3152,
7.633225,-0.1113,0.9549,-0.1692,-0.2396,0.2844,0.7409,0.6312,-0.4396,-0.3152,
7.648555,-0.1836,0.9623,-0.1900,-0.2396,0.2844,0.7409,0.6312,-0.4396,-0.3152,
7.658906,-0.1741,1.0118,-0.1873,-0.2396,0.2844,0.7409,0.6312,-0.4396,-0.3152,
7.660331,-0.0798,1.0326,-0.1934,-0.2396,0.2844,0.7409,0.6312,-0.4396,-0.3152,
7.685835,-0.0798,1.0326,-0.1934,-0.2396,0.2844,0.7409,1.0358,-0.7530,-0.2791,
7.687684,-0.0798,1.0326,-0.1934,1.0238,0.8666,0.5845,1.0358,-0.7530,-0.2791,
7.705813,-0.0317,1.0091,-0.2591,1.0238,0.8666,0.5845,1.0358,-0.7530,-0.2791,
7.708472,-0.0486,1.0116,-0.2896,1.0238,0.8666,0.5845,1.0358,-0.7530,-0.2791,
7.713056,-0.0366,1.1088,-0.2456,1.0238,0.8666,0.5845,1.0358,-0.7530,-0.2791,
7.745710,-0.0366,1.1088,-0.2456,1.0238,0.8666,0.5845,1.4846,-0.7428,-0.4559,
7.748949,-0.0366,1.1088,-0.2456,1.7791,2.2388,1.4670,1.4846,-0.7428,-0.4559,
7.766469,-0.0305,1.1466,-0.1887,1.7791,2.2388,1.4670,1.4846,-0.7428,-0.4559,
7.769345,0.0303,1.1263,-0.2442,1.7791,2.2388,1.4670,1.4846,-0.7428,-0.4559,
7.770806,0.1553,1.1871,-0.2632,1.7791,2.2388,1.4670,1.4846,-0.7428,-0.4559,
7.802482,0.1553,1.1871,-0.2632,1.7791,2.2388,1.4670,2.1590,-0.7330,-0.5740,
7.803947,0.1553,1.1871,-0.2632,5.8933,5.5900,3.1870,2.1590,-0.7330,-0.5740,
7.825090,0.3572,1.4037,-0.1719,5.8933,5.5900,3.1870,2.1590,-0.7330,-0.5740,
7.826569,0.5989,1.6628,-0.0010,5.8933,5.5900,3.1870,2.1590,-0.7330,-0.5740,
7.827378,0.6168,1.8518,0.1152,5.8933,5.5900,3.1870,2.1590,-0.7330,-0.5740,
7.861186,0.6168,1.8518,0.1152,5.8933,5.5900,3.1870,2.4526,-1.4439,-1.3785,
7.863062,0.6168,1.8518,0.1152,3.3304,8.6138,7.5358,2.4526,-1.4439,-1.3785,
7.880606,0.1111,1.6557,0.3343,3.3304,8.6138,7.5358,2.4526,-1.4439,-1.3785,
7.882154,-0.7078,1.4252,0.2127,3.3304,8.6138,7.5358,2.4526,-1.4439,-1.3785,
7.882862,-1.2667,1.4572,0.0918,3.3304,8.6138,7.5358,2.4526,-1.4439,-1.3785,
7.919669,-1.2667,1.4572,0.0918,3.3304,8.6138,7.5358,2.2101,-3.6909,-1.6127,
7.921549,-1.2667,1.4572,0.0918,-6.6177,5.3817,4.0030,2.2101,-3.6909,-1.6127,
7.938666,-1.4064,1.2975,-0.0884,-6.6177,5.3817,4.0030,2.2101,-3.6909,-1.6127,
7.941590,-0.9469,0.8814,-0.3995,-6.6177,5.3817,4.0030,2.2101,-3.6909,-1.6127,
7.943310,-0.3665,0.9310,-0.3936,-6.6177,5.3817,4.0030,2.2101,-3.6909,-1.6127,
7.978068,-0.3665,0.9310,-0.3936,-6.6177,5.3817,4.0030,1.1338,-4.6224,0.9228,
7.979956,-0.3665,0.9310,-0.3936,4.2571,0.2352,4.1199,1.1338,-4.6224,0.9228,
7.997763,-0.0713,0.6663,0.1113,4.2571,0.2352,4.1199,1.1338,-4.6224,0.9228,
7.999961,-0.1214,0.4639,0.2913,4.2571,0.2352,4.1199,1.1338,-4.6224,0.9228,
8.001100,-0.1304,0.3714,0.1685,4.2571,0.2352,4.1199,1.1338,-4.6224,0.9228,
8.036445,-0.1304,0.3714,0.1685,4.2571,0.2352,4.1199,0.6058,-3.2944,2.4602,
8.038672,-0.1304,0.3714,0.1685,2.8044,-3.2610,4.5122,0.6058,-3.2944,2.4602,
8.055440,-0.3050,0.4251,0.1152,2.8044,-3.2610,4.5122,0.6058,-3.2944,2.4602,
8.057753,-0.4666,0.4026,0.1516,2.8044,-3.2610,4.5122,0.6058,-3.2944,2.4602,
8.058817,-0.4969,0.3789,0.1445,2.8044,-3.2610,4.5122,0.6058,-3.2944,2.4602,
8.094339,-0.4969,0.3789,0.1445,2.8044,-3.2610,4.5122,0.1582,-2.8546,4.6805,
8.096018,-0.4969,0.3789,0.1445,0.9546,-4.3673,3.6464,0.1582,-2.8546,4.6805,
8.113308,-0.2884,0.3755,0.1316,0.9546,-4.3673,3.6464,0.1582,-2.8546,4.6805,
8.114546,-0.1575,0.4900,0.1494,0.9546,-4.3673,3.6464,0.1582,-2.8546,4.6805,
8.115032,-0.1680,0.6788,0.1543,0.9546,-4.3673,3.6464,0.1582,-2.8546,4.6805,
8.152539,-0.1680,0.6788,0.1543,0.9546,-4.3673,3.6464,-0.0802,-1.6994,5.9330,
8.154257,-0.1680,0.6788,0.1543,-0.9089,-0.4875,2.6826,-0.0802,-1.6994,5.9330,
8.172032,-0.2112,0.9088,0.0884,-0.9089,-0.4875,2.6826,-0.0802,-1.6994,5.9330,
8.174082,-0.2515,1.1234,0.0012,-0.9089,-0.4875,2.6826,-0.0802,-1.6994,5.9330,
8.175905,-0.3362,1.3300,0.0093,-0.9089,-0.4875,2.6826,-0.0802,-1.6994,5.9330,
8.210606,-0.3362,1.3300,0.0093,-0.9089,-0.4875,2.6826,-0.7267,-0.4775,6.2704,
8.212156,-0.3362,1.3300,0.0093,-5.6194,6.1073,0.7356,-0.7267,-0.4775,6.2704,
8.230268,-0.3391,1.5851,-0.1055,-5.6194,6.1073,0.7356,-0.7267,-0.4775,6.2704,
8.231822,-0.3912,1.8085,-0.1287,-5.6194,6.1073,0.7356,-0.7267,-0.4775,6.2704,
8.232598,-0.7069,1.8244,-0.0203,-5.6194,6.1073,0.7356,-0.7267,-0.4775,6.2704,
8.269301,-0.7069,1.8244,-0.0203,-5.6194,6.1073,0.7356,-1.0721,0.3395,4.4807,
8.271204,-0.7069,1.8244,-0.0203,-12.7355,5.9939,0.1263,-1.0721,0.3395,4.4807,
8.288530,-0.9376,1.5024,-0.0234,-12.7355,5.9939,0.1263,-1.0721,0.3395,4.4807,
8.290740,-0.9422,1.1490,-0.1726,-12.7355,5.9939,0.1263,-1.0721,0.3395,4.4807,
8.292147,-1.1029,0.9833,-0.2268,-12.7355,5.9939,0.1263,-1.0721,0.3395,4.4807,
8.327500,-1.1029,0.9833,-0.2268,-12.7355,5.9939,0.1263,-0.5284,-0.7281,-0.0368,
8.329678,-1.1029,0.9833,-0.2268,-14.9056,0.8832,-2.1915,-0.5284,-0.7281,-0.0368,
8.346929,-1.1761,0.8885,-0.2361,-14.9056,0.8832,-2.1915,-0.5284,-0.7281,-0.0368,
8.348915,-1.0648,1.0538,-0.4515,-14.9056,0.8832,-2.1915,-0.5284,-0.7281,-0.0368,
8.350402,-0.1419,1.3690,-0.6163,-14.9056,0.8832,-2.1915,-0.5284,-0.7281,-0.0368,
8.386142,-0.1419,1.3690,-0.6163,-14.9056,0.8832,-2.1915,-0.3716,-2.0995,-1.8507,
8.388824,-0.1419,1.3690,-0.6163,9.8087,5.5783,-2.2200,-0.3716,-2.0995,-1.8507,
8.420868,2.1814,1.4679,0.0418,9.8087,5.5783,-2.2200,-0.3716,-2.0995,-1.8507,
8.422903,1.9057,1.6747,-0.4319,9.8087,5.5783,-2.2200,-0.3716,-2.0995,-1.8507,
8.424322,-0.9027,1.3510,-0.7633,9.8087,5.5783,-2.2200,-0.3716,-2.0995,-1.8507,
8.444625,-0.9027,1.3510,-0.7633,9.8087,5.5783,-2.2200,-0.3077,-0.2832,-2.5827,
8.446501,-0.9027,1.3510,-0.7633,-9.2133,-0.0236,-1.3046,-0.3077,-0.2832,-2.5827,
8.465098,-1.2899,0.9288,-0.2652,-9.2133,-0.0236,-1.3046,-0.3077,-0.2832,-2.5827,
8.466823,-0.1704,0.6314,0.3308,-9.2133,-0.0236,-1.3046,-0.3077,-0.2832,-2.5827,
8.467901,0.0242,0.9144,0.4310,-9.2133,-0.0236,-1.3046,-0.3077,-0.2832,-2.5827,
8.502761,0.0242,0.9144,0.4310,-9.2133,-0.0236,-1.3046,-0.2478,-0.6481,-1.1122,
8.505028,0.0242,0.9144,0.4310,-0.7938,0.2842,2.5100,-0.2478,-0.6481,-1.1122,
8.523034,0.0935,1.0760,0.2796,-0.7938,0.2842,2.5100,-0.2478,-0.6481,-1.1122,
8.526718,-0.1084,1.0438,-0.1973,-0.7938,0.2842,2.5100,-0.2478,-0.6481,-1.1122,
8.529798,0.0156,1.1168,-0.3203,-0.7938,0.2842,2.5100,-0.2478,-0.6481,-1.1122,
8.563175,0.0156,1.1168,-0.3203,0.6944,1.1360,-1.5155,-0.2478,-0.6481,-1.1122,
8.567241,0.0156,1.1168,-0.3203,0.6944,1.1360,-1.5155,-0.1387,-0.2001,-0.8035,
8.582376,0.2254,1.1246,-0.2910,0.6944,1.1360,-1.5155,-0.1387,-0.2001,-0.8035,
8.591067,0.0862,1.0699,-0.0940,0.6944,1.1360,-1.5155,-0.1387,-0.2001,-0.8035,
8.593376,-0.0300,0.9720,0.0796,0.6944,1.1360,-1.5155,-0.1387,-0.2001,-0.8035,
8.619778,-0.0300,0.9720,0.0796,0.6944,1.1360,-1.5155,0.0063,-0.3954,-0.9792,
8.622294,-0.0300,0.9720,0.0796,1.2778,-0.3426,1.6350,0.0063,-0.3954,-0.9792,
8.639473,0.1040,0.9369,0.1043,1.2778,-0.3426,1.6350,0.0063,-0.3954,-0.9792,
8.641575,0.2635,0.9496,0.0820,1.2778,-0.3426,1.6350,0.0063,-0.3954,-0.9792,
8.642871,0.1336,0.9623,0.0256,1.2778,-0.3426,1.6350,0.0063,-0.3954,-0.9792,
8.678588,0.1336,0.9623,0.0256,1.2778,-0.3426,1.6350,0.1832,0.1597,-1.3848,
8.682250,0.1336,0.9623,0.0256,0.6339,0.0468,0.7813,0.1832,0.1597,-1.3848,
8.698879,-0.1238,0.9989,-0.0327,0.6339,0.0468,0.7813,0.1832,0.1597,-1.3848,
8.702018,-0.1025,1.0001,-0.0181,0.6339,0.0468,0.7813,0.1832,0.1597,-1.3848,
8.704542,-0.0523,1.0091,0.0015,0.6339,0.0468,0.7813,0.1832,0.1597,-1.3848,
8.737416,-0.0523,1.0091,0.0015,0.6339,0.0468,0.7813,0.3461,0.0397,-1.5037,
8.740863,-0.0523,1.0091,0.0015,0.5464,0.4440,0.6485,0.3461,0.0397,-1.5037,
8.758781,-0.1226,1.0126,-0.0203,0.5464,0.4440,0.6485,0.3461,0.0397,-1.5037,
8.762531,-0.1980,1.0211,-0.1035,0.5464,0.4440,0.6485,0.3461,0.0397,-1.5037,
8.767584,-0.1528,1.0692,-0.1448,0.5464,0.4440,0.6485,0.3461,0.0397,-1.5037,
8.795665,-0.1528,1.0692,-0.1448,1.7777,1.0637,-0.2393,0.3461,0.0397,-1.5037,
8.800373,-0.1528,1.0692,-0.1448,1.7777,1.0637,-0.2393,0.4209,0.2352,-1.6269,
8.814906,-0.0781,1.0458,-0.1643,1.7777,1.0637,-0.2393,0.4209,0.2352,-1.6269,
8.818518,-0.0234,1.0502,-0.1663,1.7777,1.0637,-0.2393,0.4209,0.2352,-1.6269,
8.820649,-0.0686,1.1573,-0.1253,1.7777,1.0637,-0.2393,0.4209,0.2352,-1.6269,
8.852476,-0.0686,1.1573,-0.1253,1.7777,1.0637,-0.2393,0.6823,0.0234,-2.1060,
8.853802,-0.0686,1.1573,-0.1253,2.4592,2.9406,0.1426,0.6823,0.0234,-2.1060,
8.871866,-0.1719,1.2445,-0.1548,2.4592,2.9406,0.1426,0.6823,0.0234,-2.1060,
8.873411,-0.1328,1.2157,-0.1890,2.4592,2.9406,0.1426,0.6823,0.0234,-2.1060,
8.874267,-0.0632,1.2528,-0.1614,2.4592,2.9406,0.1426,0.6823,0.0234,-2.1060,
8.913743,-0.0632,1.2528,-0.1614,2.4592,2.9406,0.1426,1.0311,0.0072,-2.2763,
8.915965,-0.0632,1.2528,-0.1614,6.8327,6.9374,2.2534,1.0311,0.0072,-2.2763,
8.931782,0.0864,1.5375,-0.0205,6.8327,6.9374,2.2534,1.0311,0.0072,-2.2763,
8.934003,0.6302,1.8781,0.2129,6.8327,6.9374,2.2534,1.0311,0.0072,-2.2763,
8.935406,1.1415,1.9961,0.1726,6.8327,6.9374,2.2534,1.0311,0.0072,-2.2763,
8.970374,1.1415,1.9961,0.1726,6.8327,6.9374,2.2534,0.8157,1.3767,-3.0553,
8.973005,1.1415,1.9961,0.1726,12.3569,8.5305,4.1960,0.8157,1.3767,-3.0553,
8.989906,1.0675,1.6867,0.1682,12.3569,8.5305,4.1960,0.8157,1.3767,-3.0553,
8.992403,-0.1619,1.1908,0.0598,12.3569,8.5305,4.1960,0.8157,1.3767,-3.0553,
8.994449,-1.0777,1.2745,-0.2373,12.3569,8.5305,4.1960,0.8157,1.3767,-3.0553,
9.027632,-1.0777,1.2745,-0.2373,12.3569,8.5305,4.1960,1.2378,2.3700,-3.3801,
9.029745,-1.0777,1.2745,-0.2373,-2.9065,5.9948,1.5223,1.2378,2.3700,-3.3801,
9.047297,-1.0502,1.4479,-0.1843,-2.9065,5.9948,1.5223,1.2378,2.3700,-3.3801,
9.048710,-0.7655,0.9574,-0.3958,-2.9065,5.9948,1.5223,1.2378,2.3700,-3.3801,
9.049684,-0.5828,0.5423,-0.2950,-2.9065,5.9948,1.5223,1.2378,2.3700,-3.3801,
9.085834,-0.5828,0.5423,-0.2950,-2.9065,5.9948,1.5223,-0.2928,0.1291,-0.4514,
9.088058,-0.5828,0.5423,-0.2950,2.2155,-1.7875,0.5931,-0.2928,0.1291,-0.4514,
9.105939,-0.4339,0.4078,-0.4422,2.2155,-1.7875,0.5931,-0.2928,0.1291,-0.4514,
9.108399,-0.3348,0.3074,-0.3462,2.2155,-1.7875,0.5931,-0.2928,0.1291,-0.4514,
9.110462,-0.2693,0.1768,-0.1287,2.2155,-1.7875,0.5931,-0.2928,0.1291,-0.4514,
9.145038,-0.2693,0.1768,-0.1287,2.2155,-1.7875,0.5931,-1.7367,-0.2570,2.3030,
9.148439,-0.2693,0.1768,-0.1287,3.9364,-5.4733,1.7594,-1.7367,-0.2570,2.3030,
9.164878,-0.1685,0.1270,-0.1836,3.9364,-5.4733,1.7594,-1.7367,-0.2570,2.3030,
9.167959,-0.1150,0.1702,-0.1751,3.9364,-5.4733,1.7594,-1.7367,-0.2570,2.3030,
9.172508,-0.1387,0.2940,-0.3135,3.9364,-5.4733,1.7594,-1.7367,-0.2570,2.3030,
9.204217,-0.1387,0.2940,-0.3135,3.9364,-5.4733,1.7594,-2.1600,-0.9572,4.4001,
9.208592,-0.1387,0.2940,-0.3135,2.6250,-4.5893,-1.0818,-2.1600,-0.9572,4.4001,
9.223763,-0.1145,0.4124,-0.3528,2.6250,-4.5893,-1.0818,-2.1600,-0.9572,4.4001,
9.228308,-0.1143,0.5008,-0.3118,2.6250,-4.5893,-1.0818,-2.1600,-0.9572,4.4001,
9.231645,-0.1250,0.5999,-0.3194,2.6250,-4.5893,-1.0818,-2.1600,-0.9572,4.4001,
9.261632,-0.1250,0.5999,-0.3194,2.6250,-4.5893,-1.0818,-2.0214,0.1487,6.1313,
9.265138,-0.1250,0.5999,-0.3194,0.1941,-1.7663,-1.5996,-2.0214,0.1487,6.1313,
9.283431,-0.0481,0.7335,-0.2312,0.1941,-1.7663,-1.5996,-2.0214,0.1487,6.1313,
9.287971,0.0649,1.0292,-0.2664,0.1941,-1.7663,-1.5996,-2.0214,0.1487,6.1313,
9.291485,0.0007,1.6142,-0.4954,0.1941,-1.7663,-1.5996,-2.0214,0.1487,6.1313,
9.319230,0.0007,1.6142,-0.4954,0.1941,-1.7663,-1.5996,-1.9982,0.9196,6.3626,
9.321289,0.0007,1.6142,-0.4954,-8.0202,10.3494,-5.0571,-1.9982,0.9196,6.3626,
9.338747,-0.5149,2.2558,-0.5560,-8.0202,10.3494,-5.0571,-1.9982,0.9196,6.3626,
9.340939,-1.0751,2.1338,-0.4908,-8.0202,10.3494,-5.0571,-1.9982,0.9196,6.3626,
9.348065,-1.1193,1.5832,-0.0586,-8.0202,10.3494,-5.0571,-1.9982,0.9196,6.3626,
9.378617,-1.1193,1.5832,-0.0586,-8.0202,10.3494,-5.0571,-1.4793,-0.0085,4.1187,
9.382899,-1.1193,1.5832,-0.0586,-14.0937,3.6490,-3.0464,-1.4793,-0.0085,4.1187,
9.403597,-0.7996,1.1500,-0.1900,-14.0937,3.6490,-3.0464,-1.4793,-0.0085,4.1187,
9.405551,-0.9525,0.9398,-0.4646,-14.0937,3.6490,-3.0464,-1.4793,-0.0085,4.1187,
9.406907,-1.2785,0.8133,-0.2849,-14.0937,3.6490,-3.0464,-1.4793,-0.0085,4.1187,
9.436270,-1.2785,0.8133,-0.2849,-14.0937,3.6490,-3.0464,-0.1049,-1.5640,-1.8762,
9.438487,-1.2785,0.8133,-0.2849,-11.8966,2.3242,-3.1124,-0.1049,-1.5640,-1.8762,
9.456156,-1.2189,0.9391,-0.3675,-11.8966,2.3242,-3.1124,-0.1049,-1.5640,-1.8762,
9.459471,-0.0342,1.6689,-0.2066,-11.8966,2.3242,-3.1124,-0.1049,-1.5640,-1.8762,
9.462042,3.0787,1.7465,0.7037,-11.8966,2.3242,-3.1124,-0.1049,-1.5640,-1.8762,
9.495442,3.0787,1.7465,0.7037,-11.8966,2.3242,-3.1124,-0.3437,-1.9562,-2.6664,
9.500096,3.0787,1.7465,0.7037,9.3477,5.6203,-1.9774,-0.3437,-1.9562,-2.6664,
9.536607,1.7494,1.6027,-0.1616,9.3477,5.6203,-1.9774,-0.3437,-1.9562,-2.6664,
9.538953,-1.2338,1.2489,-1.1110,9.3477,5.6203,-1.9774,-0.3437,-1.9562,-2.6664,
9.540990,-1.2511,0.9044,-0.1035,9.3477,5.6203,-1.9774,-0.3437,-1.9562,-2.6664,
9.552575,-1.2511,0.9044,-0.1035,9.3477,5.6203,-1.9774,0.0252,0.5956,-2.6711,
9.554024,-1.2511,0.9044,-0.1035,-5.1507,-1.0390,1.8622,0.0252,0.5956,-2.6711,
9.575415,-0.1035,0.7662,0.4908,-5.1507,-1.0390,1.8622,0.0252,0.5956,-2.6711,
9.577079,0.0271,0.9625,0.2364,-5.1507,-1.0390,1.8622,0.0252,0.5956,-2.6711,
9.578077,-0.1489,0.9835,0.0022,-5.1507,-1.0390,1.8622,0.0252,0.5956,-2.6711,
9.611587,-0.1489,0.9835,0.0022,-5.1507,-1.0390,1.8622,0.2435,-0.2152,-1.5892,
9.615142,-0.1489,0.9835,0.0022,-1.9966,0.4517,-0.7032,0.2435,-0.2152,-1.5892,
9.634071,-0.3543,1.0577,-0.1106,-1.9966,0.4517,-0.7032,0.2435,-0.2152,-1.5892,
9.635737,-0.1431,1.0614,-0.0991,-1.9966,0.4517,-0.7032,0.2435,-0.2152,-1.5892,
9.636449,0.0840,1.0480,-0.0271,-1.9966,0.4517,-0.7032,0.2435,-0.2152,-1.5892,
9.669183,0.0840,1.0480,-0.0271,-1.9966,0.4517,-0.7032,0.1949,0.1020,-1.1688,
9.670770,0.0840,1.0480,-0.0271,0.1814,0.5260,0.3239,0.1949,0.1020,-1.1688,
9.688760,-0.0017,1.0626,0.0398,0.1814,0.5260,0.3239,0.1949,0.1020,-1.1688,
9.690837,-0.2627,1.0082,0.0610,0.1814,0.5260,0.3239,0.1949,0.1020,-1.1688,
9.691650,-0.1509,0.9745,0.0308,0.1814,0.5260,0.3239,0.1949,0.1020,-1.1688,
9.727458,-0.1509,0.9745,0.0308,0.1814,0.5260,0.3239,0.2413,-0.0833,-1.0792,
9.729004,-0.1509,0.9745,0.0308,1.1469,-0.0181,0.3009,0.2413,-0.0833,-1.0792,
9.750127,0.0649,0.9750,-0.0066,1.1469,-0.0181,0.3009,0.2413,-0.0833,-1.0792,
9.751862,0.0212,0.9813,0.0044,1.1469,-0.0181,0.3009,0.2413,-0.0833,-1.0792,
9.752784,-0.1538,0.9681,0.0105,1.1469,-0.0181,0.3009,0.2413,-0.0833,-1.0792,
9.786195,-0.1538,0.9681,0.0105,1.1469,-0.0181,0.3009,0.2692,0.4814,-1.3015,
9.788798,-0.1538,0.9681,0.0105,-0.0086,0.2610,0.2726,0.2692,0.4814,-1.3015,
9.808370,-0.2332,0.9830,-0.0012,-0.0086,0.2610,0.2726,0.2692,0.4814,-1.3015,
9.813260,-0.2503,1.0250,-0.0491,-0.0086,0.2610,0.2726,0.2692,0.4814,-1.3015,
9.815390,-0.2420,1.0260,-0.0750,-0.0086,0.2610,0.2726,0.2692,0.4814,-1.3015,
9.845847,-0.2420,1.0260,-0.0750,-0.0086,0.2610,0.2726,0.2747,0.2484,-1.2480,
9.847795,-0.2420,1.0260,-0.0750,1.0084,0.3304,-0.1091,0.2747,0.2484,-1.2480,
9.865702,-0.1760,0.9840,-0.0615,1.0084,0.3304,-0.1091,0.2747,0.2484,-1.2480,
9.868781,-0.1094,0.9330,-0.0772,1.0084,0.3304,-0.1091,0.2747,0.2484,-1.2480,
9.872903,-0.1348,0.9225,-0.1060,1.0084,0.3304,-0.1091,0.2747,0.2484,-1.2480,
9.902432,-0.1348,0.9225,-0.1060,1.0084,0.3304,-0.1091,0.2818,0.3409,-1.6233,
9.904684,-0.1348,0.9225,-0.1060,1.3279,0.8765,-0.1535,0.2818,0.3409,-1.6233,
9.922334,-0.2329,0.9862,-0.1204,1.3279,0.8765,-0.1535,0.2818,0.3409,-1.6233,
9.924030,-0.3155,1.1110,-0.0669,1.3279,0.8765,-0.1535,0.2818,0.3409,-1.6233,
9.925625,-0.2483,1.1869,-0.0205,1.3279,0.8765,-0.1535,0.2818,0.3409,-1.6233,
9.961386,-0.2483,1.1869,-0.0205,1.3279,0.8765,-0.1535,0.5243,-0.0374,-1.8884,
9.964517,-0.2483,1.1869,-0.0205,3.2426,2.9929,0.7709,0.5243,-0.0374,-1.8884,
9.983319,-0.0916,1.2076,-0.0063,3.2426,2.9929,0.7709,0.5243,-0.0374,-1.8884,
9.986674,-0.0366,1.1432,-0.0581,3.2426,2.9929,0.7709,0.5243,-0.0374,-1.8884,
9.988637,-0.1228,1.1896,-0.1248,3.2426,2.9929,0.7709,0.5243,-0.0374,-1.8884,
10.019200,-0.1228,1.1896,-0.1248,3.2426,2.9929,0.7709,0.6978,0.9499,-2.3262,
10.020635,-0.1228,1.1896,-0.1248,6.4434,7.4363,1.0197,0.6978,0.9499,-2.3262,
10.038341,-0.0347,1.5421,-0.1116,6.4434,7.4363,1.0197,0.6978,0.9499,-2.3262,
10.039864,0.4766,1.9802,0.0444,6.4434,7.4363,1.0197,0.6978,0.9499,-2.3262,
10.040606,1.1691,1.8994,-0.1333,6.4434,7.4363,1.0197,0.6978,0.9499,-2.3262,
10.077668,1.1691,1.8994,-0.1333,6.4434,7.4363,1.0197,0.7803,2.4728,-2.9715,
10.079208,1.1691,1.8994,-0.1333,10.5778,7.0222,1.4048,0.7803,2.4728,-2.9715,
10.096813,0.7227,1.3925,-0.1611,10.5778,7.0222,1.4048,0.7803,2.4728,-2.9715,
10.098480,-0.5460,0.9847,-0.1387,10.5778,7.0222,1.4048,0.7803,2.4728,-2.9715,
10.099631,-1.2924,1.2130,-0.2786,10.5778,7.0222,1.4048,0.7803,2.4728,-2.9715,
10.136972,-1.2924,1.2130,-0.2786,10.5778,7.0222,1.4048,1.3064,1.9800,-2.7692,
10.140380,-1.2924,1.2130,-0.2786,-4.0714,5.4455,1.6517,1.3064,1.9800,-2.7692,
10.155828,-1.2133,1.3795,-0.2720,-4.0714,5.4455,1.6517,1.3064,1.9800,-2.7692,
10.157773,-0.8458,0.8263,-0.1746,-4.0714,5.4455,1.6517,1.3064,1.9800,-2.7692,
10.158546,-0.7569,0.4554,-0.3098,-4.0714,5.4455,1.6517,1.3064,1.9800,-2.7692,
10.195709,-0.7569,0.4554,-0.3098,-4.0714,5.4455,1.6517,-0.0994,-0.6345,0.4020,
10.199773,-0.7569,0.4554,-0.3098,1.0988,-2.5458,1.1990,-0.0994,-0.6345,0.4020,
10.221644,-0.6741,0.3206,-0.3836,1.0988,-2.5458,1.1990,-0.0994,-0.6345,0.4020,
10.223667,-0.3345,0.2395,-0.0752,1.0988,-2.5458,1.1990,-0.0994,-0.6345,0.4020,
10.225194,-0.0503,-0.0095,0.1162,1.0988,-2.5458,1.1990,-0.0994,-0.6345,0.4020,
10.253374,-0.0503,-0.0095,0.1162,1.0988,-2.5458,1.1990,-0.4881,-1.0814,3.3134,
10.256762,-0.0503,-0.0095,0.1162,4.8065,-6.6135,3.2614,-0.4881,-1.0814,3.3134,
10.274067,-0.0525,-0.0085,0.0327,4.8065,-6.6135,3.2614,-0.4881,-1.0814,3.3134,
10.277092,-0.1814,0.1609,-0.0884,4.8065,-6.6135,3.2614,-0.4881,-1.0814,3.3134,
10.279738,-0.3040,0.4070,-0.3186,4.8065,-6.6135,3.2614,-0.4881,-1.0814,3.3134,
10.311989,-0.3040,0.4070,-0.3186,4.8065,-6.6135,3.2614,0.0069,-1.6418,5.3054,
10.315872,-0.3040,0.4070,-0.3186,-0.4418,-3.7060,0.5068,0.0069,-1.6418,5.3054,
10.352950,-0.4353,0.5398,-0.2959,-0.4418,-3.7060,0.5068,0.0069,-1.6418,5.3054,
10.354720,-0.4908,0.5113,-0.0298,-0.4418,-3.7060,0.5068,0.0069,-1.6418,5.3054,
10.355487,-0.5750,0.5042,-0.1961,-0.4418,-3.7060,0.5068,0.0069,-1.6418,5.3054,
10.371711,-0.5750,0.5042,-0.1961,-0.4418,-3.7060,0.5068,0.9558,-4.7953,6.9334,
10.373325,-0.5750,0.5042,-0.1961,-7.3174,-0.7182,-0.7377,0.9558,-4.7953,6.9334,
10.388816,-0.8285,0.8075,-0.4012,-7.3174,-0.7182,-0.7377,0.9558,-4.7953,6.9334,
10.391201,-1.0768,1.2770,-0.4124,-7.3174,-0.7182,-0.7377,0.9558,-4.7953,6.9334,
10.392027,-1.0003,1.5065,-0.4039,-7.3174,-0.7182,-0.7377,0.9558,-4.7953,6.9334,
10.427264,-1.0003,1.5065,-0.4039,-7.3174,-0.7182,-0.7377,2.0456,-10.0215,6.6760,
10.429406,-1.0003,1.5065,-0.4039,-8.7547,7.1166,1.6458,2.0456,-10.0215,6.6760,
10.461988,-0.8470,1.6801,-0.2857,-8.7547,7.1166,1.6458,2.0456,-10.0215,6.6760,
10.465123,-0.5987,1.6948,0.0364,-8.7547,7.1166,1.6458,2.0456,-10.0215,6.6760,
10.470020,0.0168,1.5370,0.4830,-8.7547,7.1166,1.6458,2.0456,-10.0215,6.6760,
10.486042,0.0168,1.5370,0.4830,-8.7547,7.1166,1.6458,-0.0517,-7.4365,2.4728,
10.488120,0.0168,1.5370,0.4830,0.0504,1.9869,8.7523,-0.0517,-7.4365,2.4728,
10.509713,0.3746,1.0152,0.7867,0.0504,1.9869,8.7523,-0.0517,-7.4365,2.4728,
10.511763,-0.2898,0.7413,0.2163,0.0504,1.9869,8.7523,-0.0517,-7.4365,2.4728,
10.513641,-1.2162,1.3932,0.0837,0.0504,1.9869,8.7523,-0.0517,-7.4365,2.4728,
10.544331,-1.2162,1.3932,0.0837,0.0504,1.9869,8.7523,-0.6017,0.1310,-1.0930,
10.546915,-1.2162,1.3932,0.0837,-4.7874,1.8633,8.6695,-0.6017,0.1310,-1.0930,
10.567214,-0.5103,1.0460,1.2938,-4.7874,1.8633,8.6695,-0.6017,0.1310,-1.0930,
10.571026,0.1546,0.8641,0.2171,-4.7874,1.8633,8.6695,-0.6017,0.1310,-1.0930,
10.573411,-0.1560,1.3805,-0.8414,-4.7874,1.8633,8.6695,-0.6017,0.1310,-1.0930,
10.602597,-0.1560,1.3805,-0.8414,-4.7874,1.8633,8.6695,-0.5993,-0.6328,-0.3968,
10.604960,-0.1560,1.3805,-0.8414,-1.2297,4.8357,-4.6552,-0.5993,-0.6328,-0.3968,
10.623163,-0.2490,1.6398,-1.0670,-1.2297,4.8357,-4.6552,-0.5993,-0.6328,-0.3968,
10.625942,-0.1846,1.2499,-0.4976,-1.2297,4.8357,-4.6552,-0.5993,-0.6328,-0.3968,
10.627549,0.3460,0.9769,-0.4683,-1.2297,4.8357,-4.6552,-0.5993,-0.6328,-0.3968,
10.662039,0.3460,0.9769,-0.4683,-1.2297,4.8357,-4.6552,-0.6245,-1.1623,-0.1311,
10.666227,0.3460,0.9769,-0.4683,2.4540,-0.2268,0.9042,-0.6245,-1.1623,-0.1311,
10.684439,0.3509,0.8355,-0.1719,2.4540,-0.2268,0.9042,-0.6245,-1.1623,-0.1311,
10.687970,-0.2298,0.9386,0.0606,2.4540,-0.2268,0.9042,-0.6245,-1.1623,-0.1311,
10.692463,-0.4273,0.9811,0.0059,2.4540,-0.2268,0.9042,-0.6245,-1.1623,-0.1311,
10.719868,-0.4273,0.9811,0.0059,-2.0578,0.1520,1.2306,-0.6245,-1.1623,-0.1311,
10.722581,-0.4273,0.9811,0.0059,-2.0578,0.1520,1.2306,-0.2307,-0.3087,-0.1391,
10.738770,-0.3113,0.9364,-0.1900,-2.0578,0.1520,1.2306,-0.2307,-0.3087,-0.1391,
10.741201,-0.2241,0.9591,-0.2459,-2.0578,0.1520,1.2306,-0.2307,-0.3087,-0.1391,
10.742191,-0.2012,0.9586,-0.2346,-2.0578,0.1520,1.2306,-0.2307,-0.3087,-0.1391,
10.778640,-0.2012,0.9586,-0.2346,-2.0578,0.1520,1.2306,-0.0601,-0.6628,0.3126,
10.782552,-0.2012,0.9586,-0.2346,-1.0793,0.1027,-0.0827,-0.0601,-0.6628,0.3126,
10.799595,-0.2478,0.9493,-0.2803,-1.0793,0.1027,-0.0827,-0.0601,-0.6628,0.3126,
10.803707,-0.1988,0.9627,-0.2950,-1.0793,0.1027,-0.0827,-0.0601,-0.6628,0.3126,
10.806103,-0.0662,0.9837,-0.2322,-1.0793,0.1027,-0.0827,-0.0601,-0.6628,0.3126,
10.836902,-0.0662,0.9837,-0.2322,-1.0793,0.1027,-0.0827,0.0358,-0.5029,0.4311,
10.840617,-0.0662,0.9837,-0.2322,1.1019,0.0778,0.3843,0.0358,-0.5029,0.4311,
10.865976,0.0784,0.9610,-0.2058,1.1019,0.0778,0.3843,0.0358,-0.5029,0.4311,
10.868552,0.0620,0.9244,-0.2241,1.1019,0.0778,0.3843,0.0358,-0.5029,0.4311,
10.870416,-0.0530,0.9522,-0.2183,1.1019,0.0778,0.3843,0.0358,-0.5029,0.4311,
10.894816,-0.0530,0.9522,-0.2183,1.1019,0.0778,0.3843,0.1694,-0.4657,0.0607,
10.897400,-0.0530,0.9522,-0.2183,0.0979,0.0986,0.3926,0.1694,-0.4657,0.0607,
10.916480,-0.0867,0.9447,-0.2715,0.0979,0.0986,0.3926,0.1694,-0.4657,0.0607,
10.918969,-0.1043,0.9723,-0.1887,0.0979,0.0986,0.3926,0.1694,-0.4657,0.0607,
10.920681,-0.0381,0.9850,-0.1358,0.0979,0.0986,0.3926,0.1694,-0.4657,0.0607,
10.954451,-0.0381,0.9850,-0.1358,0.0979,0.0986,0.3926,0.4097,-0.5300,-0.0317,
10.958074,-0.0381,0.9850,-0.1358,0.3543,0.2352,0.7346,0.4097,-0.5300,-0.0317,
10.977270,-0.0383,0.9444,-0.2300,0.3543,0.2352,0.7346,0.4097,-0.5300,-0.0317,
10.979047,-0.1179,0.9625,-0.2630,0.3543,0.2352,0.7346,0.4097,-0.5300,-0.0317,
10.981198,-0.1375,0.9774,-0.2586,0.3543,0.2352,0.7346,0.4097,-0.5300,-0.0317,
11.013076,-0.1375,0.9774,-0.2586,0.0288,0.6092,0.7365,0.4097,-0.5300,-0.0317,
11.017071,-0.1375,0.9774,-0.2586,0.0288,0.6092,0.7365,0.6797,-0.3294,-0.0641,
11.036501,-0.1218,0.9859,-0.2337,0.0288,0.6092,0.7365,0.6797,-0.3294,-0.0641,
11.039573,-0.0623,1.0091,-0.2371,0.0288,0.6092,0.7365,0.6797,-0.3294,-0.0641,
11.041520,0.0354,1.0624,-0.1853,0.0288,0.6092,0.7365,0.6797,-0.3294,-0.0641,
11.069492,0.0354,1.0624,-0.1853,0.0288,0.6092,0.7365,1.1421,-0.3710,-0.2374,
11.071482,0.0354,1.0624,-0.1853,1.8431,1.6320,1.2288,1.1421,-0.3710,-0.2374,
11.088950,0.1055,1.0760,-0.2176,1.8431,1.6320,1.2288,1.1421,-0.3710,-0.2374,
11.091198,0.0420,1.0812,-0.3448,1.8431,1.6320,1.2288,1.1421,-0.3710,-0.2374,
11.093049,-0.0273,1.2247,-0.3516,1.8431,1.6320,1.2288,1.1421,-0.3710,-0.2374,
11.127513,-0.0273,1.2247,-0.3516,1.8431,1.6320,1.2288,1.9704,-1.2187,-0.5157,
11.129167,-0.0273,1.2247,-0.3516,3.1340,5.4955,2.2876,1.9704,-1.2187,-0.5157,
11.148364,0.0969,1.4398,-0.2329,3.1340,5.4955,2.2876,1.9704,-1.2187,-0.5157,
11.151224,0.3550,1.6071,-0.0979,3.1340,5.4955,2.2876,1.9704,-1.2187,-0.5157,
11.153256,0.5679,1.7270,-0.1072,3.1340,5.4955,2.2876,1.9704,-1.2187,-0.5157,
11.187600,0.5679,1.7270,-0.1072,3.1340,5.4955,2.2876,2.5838,-2.2714,-0.9623,
11.190319,0.5679,1.7270,-0.1072,6.9101,7.7912,6.5131,2.5838,-2.2714,-0.9623,
11.205561,0.5489,1.6156,0.1931,6.9101,7.7912,6.5131,2.5838,-2.2714,-0.9623,
11.207317,0.1582,1.4020,0.2813,6.9101,7.7912,6.5131,2.5838,-2.2714,-0.9623,
11.208083,-0.6163,1.3351,0.3001,6.9101,7.7912,6.5131,2.5838,-2.2714,-0.9623,
11.244504,-0.6163,1.3351,0.3001,6.9101,7.7912,6.5131,2.2435,-3.4455,-1.5750,
11.247194,-0.6163,1.3351,0.3001,-5.6586,6.5606,6.4932,2.2435,-3.4455,-1.5750,
11.267369,-1.2816,1.4442,0.1946,-5.6586,6.5606,6.4932,2.2435,-3.4455,-1.5750,
11.271076,-1.2438,1.3004,-0.1655,-5.6586,6.5606,6.4932,2.2435,-3.4455,-1.5750,
11.273878,-0.8209,0.9784,-0.3553,-5.6586,6.5606,6.4932,2.2435,-3.4455,-1.5750,
11.302867,-0.8209,0.9784,-0.3553,-5.6586,6.5606,6.4932,1.5441,-5.3337,0.3482,
11.305000,-0.8209,0.9784,-0.3553,1.6262,1.9827,1.7528,1.5441,-5.3337,0.3482,
11.323614,-0.4549,0.8482,-0.3484,1.6262,1.9827,1.7528,1.5441,-5.3337,0.3482,
11.326561,-0.0593,0.7608,-0.0757,1.6262,1.9827,1.7528,1.5441,-5.3337,0.3482,
11.327512,0.1546,0.5223,0.3074,1.6262,1.9827,1.7528,1.5441,-5.3337,0.3482,
11.361699,0.1546,0.5223,0.3074,1.6262,1.9827,1.7528,0.7202,-4.0940,2.2578,
11.364874,0.1546,0.5223,0.3074,5.9345,-2.2197,5.9381,0.7202,-4.0940,2.2578,
11.386146,0.0127,0.4554,0.3860,5.9345,-2.2197,5.9381,0.7202,-4.0940,2.2578,
11.388811,-0.1526,0.5088,0.1997,5.9345,-2.2197,5.9381,0.7202,-4.0940,2.2578,
11.393094,-0.1514,0.5545,0.1179,5.9345,-2.2197,5.9381,0.7202,-4.0940,2.2578,
11.419879,-0.1514,0.5545,0.1179,5.9345,-2.2197,5.9381,0.3280,-1.3838,3.9177,
11.421800,-0.1514,0.5545,0.1179,2.9110,-2.3638,3.4695,0.3280,-1.3838,3.9177,
11.439658,-0.1221,0.5801,0.0779,2.9110,-2.3638,3.4695,0.3280,-1.3838,3.9177,
11.441796,-0.1565,0.6424,0.0515,2.9110,-2.3638,3.4695,0.3280,-1.3838,3.9177,
11.443130,-0.1948,0.7379,0.0005,2.9110,-2.3638,3.4695,0.3280,-1.3838,3.9177,
11.479742,-0.1948,0.7379,0.0005,2.9110,-2.3638,3.4695,-0.6109,0.1556,5.4227,
11.484076,-0.1948,0.7379,0.0005,-0.7195,-0.3104,1.9055,-0.6109,0.1556,5.4227,
11.514359,-0.2420,0.8849,-0.0527,-0.7195,-0.3104,1.9055,-0.6109,0.1556,5.4227,
11.515927,-0.2547,1.0958,-0.0747,-0.7195,-0.3104,1.9055,-0.6109,0.1556,5.4227,
11.517491,-0.2425,1.2877,-0.1709,-0.7195,-0.3104,1.9055,-0.6109,0.1556,5.4227,
11.535733,-0.2425,1.2877,-0.1709,-0.7195,-0.3104,1.9055,-1.5728,-0.1427,6.2653,
11.537704,-0.2425,1.2877,-0.1709,-6.7019,4.8108,-1.0199,-1.5728,-0.1427,6.2653,
11.555346,-0.4512,1.4794,-0.2637,-6.7019,4.8108,-1.0199,-1.5728,-0.1427,6.2653,
11.557446,-0.8226,1.5793,-0.3323,-6.7019,4.8108,-1.0199,-1.5728,-0.1427,6.2653,
11.558825,-1.1893,1.6193,-0.3496,-6.7019,4.8108,-1.0199,-1.5728,-0.1427,6.2653,
11.595594,-1.1893,1.6193,-0.3496,-15.2573,6.0650,-1.0688,-1.5728,-0.1427,6.2653,
11.601362,-1.1893,1.6193,-0.3496,-15.2573,6.0650,-1.0688,-1.5706,-0.3736,4.9805,
11.613835,-1.1881,1.5822,-0.1067,-15.2573,6.0650,-1.0688,-1.5706,-0.3736,4.9805,
11.615905,-1.0387,1.3178,-0.0994,-15.2573,6.0650,-1.0688,-1.5706,-0.3736,4.9805,
11.617046,-1.2789,1.0218,-0.2532,-15.2573,6.0650,-1.0688,-1.5706,-0.3736,4.9805,
11.652843,-1.2789,1.0218,-0.2532,-15.2573,6.0650,-1.0688,-0.5023,-0.7147,-0.0541,
11.655404,-1.2789,1.0218,-0.2532,-16.5392,1.1192,-4.1119,-0.5023,-0.7147,-0.0541,
11.673294,-1.4569,0.8490,-0.3374,-16.5392,1.1192,-4.1119,-0.5023,-0.7147,-0.0541,
11.677150,-1.1754,1.1500,-0.8954,-16.5392,1.1192,-4.1119,-0.5023,-0.7147,-0.0541,
11.679387,1.0846,1.5907,-0.1157,-16.5392,1.1192,-4.1119,-0.5023,-0.7147,-0.0541,
11.711259,1.0846,1.5907,-0.1157,10.7863,6.3288,-0.3686,-0.5023,-0.7147,-0.0541,
11.713693,1.0846,1.5907,-0.1157,10.7863,6.3288,-0.3686,-0.3794,-2.3960,-2.0201,
11.731836,3.0289,1.8288,0.1565,10.7863,6.3288,-0.3686,-0.3794,-2.3960,-2.0201,
11.734452,0.0359,1.3493,-0.4595,10.7863,6.3288,-0.3686,-0.3794,-2.3960,-2.0201,
11.736412,-1.5202,1.0189,-0.7786,10.7863,6.3288,-0.3686,-0.3794,-2.3960,-2.0201,
11.772429,-1.5202,1.0189,-0.7786,10.7863,6.3288,-0.3686,-0.2780,0.0122,-2.7186,
11.775052,-1.5202,1.0189,-0.7786,-8.3744,-1.4635,0.6121,-0.2780,0.0122,-2.7186,
11.789898,-0.6473,0.6612,0.1392,-8.3744,-1.4635,0.6121,-0.2780,0.0122,-2.7186,
11.794515,-0.0508,0.7982,0.5660,-8.3744,-1.4635,0.6121,-0.2780,0.0122,-2.7186,
11.795990,0.3062,1.0563,0.1799,-8.3744,-1.4635,0.6121,-0.2780,0.0122,-2.7186,
11.827980,0.3062,1.0563,0.1799,-0.0931,0.9253,0.2472,-0.2780,0.0122,-2.7186,
11.831915,0.3062,1.0563,0.1799,-0.0931,0.9253,0.2472,0.0142,-0.0151,-1.3922,
11.852080,0.0811,1.1073,-0.2036,-0.0931,0.9253,0.2472,0.0142,-0.0151,-1.3922,
11.853450,-0.3096,1.0690,-0.1629,-0.0931,0.9253,0.2472,0.0142,-0.0151,-1.3922,
11.854521,-0.1353,1.0433,-0.1011,-0.0931,0.9253,0.2472,0.0142,-0.0151,-1.3922,
11.887214,-0.1353,1.0433,-0.1011,-0.0931,0.9253,0.2472,0.0615,-0.2781,-1.0759,
11.890858,-0.1353,1.0433,-0.1011,0.1288,0.2957,0.4813,0.0615,-0.2781,-1.0759,
11.907506,0.0742,0.9964,-0.0393,0.1288,0.2957,0.4813,0.0615,-0.2781,-1.0759,
11.913498,0.0178,1.0013,0.0176,0.1288,0.2957,0.4813,0.0615,-0.2781,-1.0759,
11.915878,-0.0662,1.0047,-0.0059,0.1288,0.2957,0.4813,0.0615,-0.2781,-1.0759,
11.944638,-0.0662,1.0047,-0.0059,0.1288,0.2957,0.4813,0.1649,-0.2248,-1.1183,
11.946993,-0.0662,1.0047,-0.0059,0.1592,0.1797,0.3514,0.1649,-0.2248,-1.1183,
11.964789,-0.0913,0.9979,-0.0816,0.1592,0.1797,0.3514,0.1649,-0.2248,-1.1183,
11.968213,-0.0713,0.9894,-0.0994,0.1592,0.1797,0.3514,0.1649,-0.2248,-1.1183,
11.972111,-0.0942,1.0167,-0.0779,0.1592,0.1797,0.3514,0.1649,-0.2248,-1.1183,
12.003113,-0.0942,1.0167,-0.0779,0.4371,0.5260,0.4557,0.1649,-0.2248,-1.1183,
12.005035,-0.0942,1.0167,-0.0779,0.4371,0.5260,0.4557,0.1837,0.0782,-1.1631,
12.024664,-0.1218,1.0326,-0.0647,0.4371,0.5260,0.4557,0.1837,0.0782,-1.1631,
12.026606,-0.1223,1.0226,-0.0432,0.4371,0.5260,0.4557,0.1837,0.0782,-1.1631,
12.028177,-0.1382,1.0045,-0.0557,0.4371,0.5260,0.4557,0.1837,0.0782,-1.1631,
12.062114,-0.1382,1.0045,-0.0557,0.4371,0.5260,0.4557,0.2653,0.1607,-1.2578,
12.065325,-0.1382,1.0045,-0.0557,0.3441,0.4252,0.4893,0.2653,0.1607,-1.2578,
12.082654,-0.2061,0.9962,-0.0720,0.3441,0.4252,0.4893,0.2653,0.1607,-1.2578,
12.085269,-0.2295,0.9947,-0.0955,0.3441,0.4252,0.4893,0.2653,0.1607,-1.2578,
12.087251,-0.1563,0.9913,-0.1441,0.3441,0.4252,0.4893,0.2653,0.1607,-1.2578,
12.120722,-0.1563,0.9913,-0.1441,0.3441,0.4252,0.4893,0.3295,0.2297,-1.4243,
12.122886,-0.1563,0.9913,-0.1441,2.2752,0.9116,0.2760,0.3295,0.2297,-1.4243,
12.140954,-0.0322,0.9957,-0.1348,2.2752,0.9116,0.2760,0.3295,0.2297,-1.4243,
12.143356,-0.0120,1.0882,-0.0732,2.2752,0.9116,0.2760,0.3295,0.2297,-1.4243,
12.144642,-0.1167,1.2333,-0.0835,2.2752,0.9116,0.2760,0.3295,0.2297,-1.4243,
12.179031,-0.1167,1.2333,-0.0835,2.2752,0.9116,0.2760,0.6960,-0.1598,-2.0362,
12.183885,-0.1167,1.2333,-0.0835,2.8629,3.4757,0.3664,0.6960,-0.1598,-2.0362,
12.205453,-0.1284,1.2421,-0.1599,2.8629,3.4757,0.3664,0.6960,-0.1598,-2.0362,
12.208712,-0.0891,1.2570,-0.1792,2.8629,3.4757,0.3664,0.6960,-0.1598,-2.0362,
12.210837,0.0378,1.3996,-0.1528,2.8629,3.4757,0.3664,0.6960,-0.1598,-2.0362,
12.235433,0.0378,1.3996,-0.1528,2.8629,3.4757,0.3664,1.1114,0.0414,-2.2606,
12.236804,0.0378,1.3996,-0.1528,9.4003,8.9539,2.6167,1.1114,0.0414,-2.2606,
12.256022,0.3028,1.7399,0.0571,9.4003,8.9539,2.6167,1.1114,0.0414,-2.2606,
12.257416,1.0389,2.0940,0.2061,9.4003,8.9539,2.6167,1.1114,0.0414,-2.2606,
12.258795,1.4081,1.9311,0.0935,9.4003,8.9539,2.6167,1.1114,0.0414,-2.2606,
12.294707,1.4081,1.9311,0.0935,9.4003,8.9539,2.6167,0.8886,1.8609,-3.2736,
12.297296,1.4081,1.9311,0.0935,9.8420,7.0613,3.3863,0.8886,1.8609,-3.2736,
12.313977,0.5750,1.2914,0.1170,9.8420,7.0613,3.3863,0.8886,1.8609,-3.2736,
12.316284,-0.7667,1.1034,-0.1531,9.8420,7.0613,3.3863,0.8886,1.8609,-3.2736,
12.317733,-1.1288,1.4066,-0.1389,9.8420,7.0613,3.3863,0.8886,1.8609,-3.2736,
12.353828,-1.1288,1.4066,-0.1389,9.8420,7.0613,3.3863,1.0609,1.9446,-2.8037,
12.356965,-1.1288,1.4066,-0.1389,-2.5111,5.2521,2.4447,1.0609,1.9446,-2.8037,
12.374551,-0.8636,1.2780,-0.1211,-2.5111,5.2521,2.4447,1.0609,1.9446,-2.8037,
12.376800,-0.7794,0.7320,-0.2964,-2.5111,5.2521,2.4447,1.0609,1.9446,-2.8037,
12.377809,-0.7767,0.5213,-0.4436,-2.5111,5.2521,2.4447,1.0609,1.9446,-2.8037,
12.412243,-0.7767,0.5213,-0.4436,1.3598,-2.2253,0.4715,1.0609,1.9446,-2.8037,
12.416734,-0.7767,0.5213,-0.4436,1.3598,-2.2253,0.4715,-0.6543,-0.3170,0.3804,
12.434462,-0.4993,0.4112,-0.4949,1.3598,-2.2253,0.4715,-0.6543,-0.3170,0.3804,
12.436242,-0.2847,0.2762,-0.1126,1.3598,-2.2253,0.4715,-0.6543,-0.3170,0.3804,
12.437468,-0.1497,0.0855,-0.0186,1.3598,-2.2253,0.4715,-0.6543,-0.3170,0.3804,
12.470378,-0.1497,0.0855,-0.0186,3.9046,-6.2563,1.9787,-0.6543,-0.3170,0.3804,
12.475114,-0.1497,0.0855,-0.0186,3.9046,-6.2563,1.9787,-1.8218,-0.7908,3.3857,
12.489973,-0.0879,0.0999,-0.0642,3.9046,-6.2563,1.9787,-1.8218,-0.7908,3.3857,
12.492355,-0.1506,0.2232,-0.1875,3.9046,-6.2563,1.9787,-1.8218,-0.7908,3.3857,
12.493672,-0.1402,0.3816,-0.3243,3.9046,-6.2563,1.9787,-1.8218,-0.7908,3.3857,
12.527888,-0.1402,0.3816,-0.3243,3.9046,-6.2563,1.9787,-2.1651,-0.3565,5.2295,
12.532053,-0.1402,0.3816,-0.3243,1.3994,-3.8520,-0.7922,-2.1651,-0.3565,5.2295,
12.548371,-0.0842,0.5355,-0.2774,1.3994,-3.8520,-0.7922,-2.1651,-0.3565,5.2295,
12.554244,-0.1528,0.6656,-0.1692,1.3994,-3.8520,-0.7922,-2.1651,-0.3565,5.2295,
12.555763,-0.1240,0.8119,-0.0820,1.3994,-3.8520,-0.7922,-2.1651,-0.3565,5.2295,
12.586716,-0.1240,0.8119,-0.0820,1.3994,-3.8520,-0.7922,-2.2136,0.5895,6.4451,
12.590813,-0.1240,0.8119,-0.0820,-2.7696,3.1011,-2.2459,-2.2136,0.5895,6.4451,
12.612228,-0.0982,1.1979,-0.3726,-2.7696,3.1011,-2.2459,-2.2136,0.5895,6.4451,
12.615120,-0.3550,1.8623,-0.4068,-2.7696,3.1011,-2.2459,-2.2136,0.5895,6.4451,
12.616430,-0.7205,2.2480,-0.6251,-2.7696,3.1011,-2.2459,-2.2136,0.5895,6.4451,
12.646580,-0.7205,2.2480,-0.6251,-2.7696,3.1011,-2.2459,-2.3620,0.8237,6.1488,
12.648580,-0.7205,2.2480,-0.6251,-11.6495,9.4538,-3.9918,-2.3620,0.8237,6.1488,
12.668834,-0.8363,1.9084,-0.3807,-11.6495,9.4538,-3.9918,-2.3620,0.8237,6.1488,
12.671250,-0.7918,1.4225,0.0156,-11.6495,9.4538,-3.9918,-2.3620,0.8237,6.1488,
12.673545,-0.7240,1.2001,-0.3401,-11.6495,9.4538,-3.9918,-2.3620,0.8237,6.1488,
12.702631,-0.7240,1.2001,-0.3401,-11.6495,9.4538,-3.9918,-0.9342,-0.4555,1.9135,
12.705315,-0.7240,1.2001,-0.3401,-14.4851,0.7397,-5.0037,-0.9342,-0.4555,1.9135,
12.723066,-1.0738,0.9078,-0.5413,-14.4851,0.7397,-5.0037,-0.9342,-0.4555,1.9135,
12.724855,-1.1945,0.6387,-0.3426,-14.4851,0.7397,-5.0037,-0.9342,-0.4555,1.9135,
12.725881,-0.9669,0.7779,-0.2498,-14.4851,0.7397,-5.0037,-0.9342,-0.4555,1.9135,
12.761698,-0.9669,0.7779,-0.2498,-14.4851,0.7397,-5.0037,-0.0821,-1.8609,-2.3284,
12.765317,-0.9669,0.7779,-0.2498,-0.9571,3.1204,-1.4364,-0.0821,-1.8609,-2.3284,
12.781790,-0.3164,1.3685,-0.4432,-0.9571,3.1204,-1.4364,-0.0821,-1.8609,-2.3284,
12.785719,2.1003,1.5177,0.4227,-0.9571,3.1204,-1.4364,-0.0821,-1.8609,-2.3284,
12.787858,3.0255,1.5170,0.1934,-0.9571,3.1204,-1.4364,-0.0821,-1.8609,-2.3284,
12.819642,3.0255,1.5170,0.1934,-0.9571,3.1204,-1.4364,-0.0532,-0.4205,-2.8843,
12.822923,3.0255,1.5170,0.1934,0.0053,6.1942,-4.4256,-0.0532,-0.4205,-2.8843,
12.840145,-0.4944,1.8859,-0.5347,0.0053,6.1942,-4.4256,-0.0532,-0.4205,-2.8843,
12.843385,-1.8847,1.3820,-0.8834,0.0053,6.1942,-4.4256,-0.0532,-0.4205,-2.8843,
12.847200,-0.5452,0.6270,0.3067,0.0053,6.1942,-4.4256,-0.0532,-0.4205,-2.8843,
12.878151,-0.5452,0.6270,0.3067,0.0053,6.1942,-4.4256,0.0126,-0.1796,-1.8118,
12.881613,-0.5452,0.6270,0.3067,-2.2781,-1.6269,2.5672,0.0126,-0.1796,-1.8118,
12.910318,0.0535,0.8175,0.4161,-2.2781,-1.6269,2.5672,0.0126,-0.1796,-1.8118,
12.912025,0.1201,0.9898,0.1990,-2.2781,-1.6269,2.5672,0.0126,-0.1796,-1.8118,
12.913047,-0.0005,1.0895,0.1423,-2.2781,-1.6269,2.5672,0.0126,-0.1796,-1.8118,
12.937192,-0.0005,1.0895,0.1423,-2.2781,-1.6269,2.5672,0.2551,-0.0440,-1.3146,
12.938998,-0.0005,1.0895,0.1423,-0.2550,0.5156,-0.1201,0.2551,-0.0440,-1.3146,
12.955985,0.0242,1.0143,-0.0313,-0.2550,0.5156,-0.1201,0.2551,-0.0440,-1.3146,
12.958679,-0.0027,1.0072,-0.0571,-0.2550,0.5156,-0.1201,0.2551,-0.0440,-1.3146,
12.961253,-0.0557,1.0328,0.0225,-0.2550,0.5156,-0.1201,0.2551,-0.0440,-1.3146,
12.995095,-0.0557,1.0328,0.0225,-0.2550,0.5156,-0.1201,0.1924,0.0636,-1.1158,
12.997784,-0.0557,1.0328,0.0225,-0.3570,0.1876,0.7558,0.1924,0.0636,-1.1158,
13.014404,-0.1121,1.0077,0.1174,-0.3570,0.1876,0.7558,0.1924,0.0636,-1.1158,
13.017016,-0.0369,0.9720,0.1528,-0.3570,0.1876,0.7558,0.1924,0.0636,-1.1158,
13.018372,0.0930,0.9657,0.0825,-0.3570,0.1876,0.7558,0.1924,0.0636,-1.1158,
13.053496,0.0930,0.9657,0.0825,-0.3570,0.1876,0.7558,0.2932,0.0735,-1.1963,
13.056616,0.0930,0.9657,0.0825,1.5936,-0.0867,0.5111,0.2932,0.0735,-1.1963,
13.072263,0.1248,0.9779,0.0498,1.5936,-0.0867,0.5111,0.2932,0.0735,-1.1963,
13.074262,-0.0230,0.9713,0.0369,1.5936,-0.0867,0.5111,0.2932,0.0735,-1.1963,
13.076596,-0.1870,0.9745,0.0212,1.5936,-0.0867,0.5111,0.2932,0.0735,-1.1963,
13.112275,-0.1870,0.9745,0.0212,1.5936,-0.0867,0.5111,0.3148,0.3800,-1.4048,
13.115381,-0.1870,0.9745,0.0212,-0.1056,0.3171,0.1981,0.3148,0.3800,-1.4048,
13.131354,-0.1980,1.0116,0.0134,-0.1056,0.3171,0.1981,0.3148,0.3800,-1.4048,
13.132857,-0.1802,1.0199,-0.0234,-0.1056,0.3171,0.1981,0.3148,0.3800,-1.4048,
13.133801,-0.2193,0.9747,-0.0425,-0.1056,0.3171,0.1981,0.3148,0.3800,-1.4048,
13.169430,-0.2193,0.9747,-0.0425,-0.1056,0.3171,0.1981,0.3166,0.1434,-1.3763,
13.172557,-0.2193,0.9747,-0.0425,0.1993,-0.0112,-0.1666,0.3166,0.1434,-1.3763,
13.189767,-0.2251,0.9359,-0.0493,0.1993,-0.0112,-0.1666,0.3166,0.1434,-1.3763,
13.193085,-0.2574,0.9413,-0.0679,0.1993,-0.0112,-0.1666,0.3166,0.1434,-1.3763,
13.195342,-0.2029,0.9593,-0.0664,0.1993,-0.0112,-0.1666,0.3166,0.1434,-1.3763,
13.227404,-0.2029,0.9593,-0.0664,0.1993,-0.0112,-0.1666,0.2753,0.2338,-1.5102,
13.228869,-0.2029,0.9593,-0.0664,1.2445,0.8298,-0.0498,0.2753,0.2338,-1.5102,
13.247116,-0.1804,1.0091,-0.0610,1.2445,0.8298,-0.0498,0.2753,0.2338,-1.5102,
13.249604,-0.2383,1.0648,-0.0542,1.2445,0.8298,-0.0498,0.2753,0.2338,-1.5102,
13.251379,-0.2547,1.1312,-0.0654,1.2445,0.8298,-0.0498,0.2753,0.2338,-1.5102,
13.286158,-0.2547,1.1312,-0.0654,1.2445,0.8298,-0.0498,0.4412,-0.1315,-1.7807,
13.288948,-0.2547,1.1312,-0.0654,1.7613,2.4247,0.0918,0.4412,-0.1315,-1.7807,
13.306195,-0.2644,1.1613,-0.0642,1.7613,2.4247,0.0918,0.4412,-0.1315,-1.7807,
13.309600,-0.2193,1.1175,-0.0689,1.7613,2.4247,0.0918,0.4412,-0.1315,-1.7807,
13.310821,-0.1106,1.1771,-0.0725,1.7613,2.4247,0.0918,0.4412,-0.1315,-1.7807,
13.344031,-0.1106,1.1771,-0.0725,1.7613,2.4247,0.0918,0.5339,0.7461,-2.1331,
13.345420,-0.1106,1.1771,-0.0725,5.7822,6.4677,0.9208,0.5339,0.7461,-2.1331,
13.363334,0.0049,1.4694,-0.0320,5.7822,6.4677,0.9208,0.5339,0.7461,-2.1331,
13.364940,0.3208,1.8471,0.0208,5.7822,6.4677,0.9208,0.5339,0.7461,-2.1331,
13.365858,0.8692,1.8720,-0.2725,5.7822,6.4677,0.9208,0.5339,0.7461,-2.1331,
13.403042,0.8692,1.8720,-0.2725,5.7822,6.4677,0.9208,0.6003,2.5009,-2.9405,
13.405297,0.8692,1.8720,-0.2725,11.9154,7.4069,-0.8991,0.6003,2.5009,-2.9405,
13.421933,0.8641,1.5900,-0.4483,11.9154,7.4069,-0.8991,0.6003,2.5009,-2.9405,
13.423627,0.0940,1.0426,-0.2617,11.9154,7.4069,-0.8991,0.6003,2.5009,-2.9405,
13.424748,-0.9681,0.8155,-0.2615,11.9154,7.4069,-0.8991,0.6003,2.5009,-2.9405,
13.461266,-0.9681,0.8155,-0.2615,11.9154,7.4069,-0.8991,1.2690,2.5697,-3.3186,
13.463886,-0.9681,0.8155,-0.2615,-5.3914,4.1598,1.1686,1.2690,2.5697,-3.3186,
13.481302,-1.5263,1.1241,-0.3223,-5.3914,4.1598,1.1686,1.2690,2.5697,-3.3186,
13.484522,-1.2575,1.1439,-0.2014,-5.3914,4.1598,1.1686,1.2690,2.5697,-3.3186,
13.486507,-0.9916,0.5643,-0.2029,-5.3914,4.1598,1.1686,1.2690,2.5697,-3.3186,
13.520862,-0.9916,0.5643,-0.2029,-0.6816,-2.1037,1.6821,1.2690,2.5697,-3.3186,
13.524343,-0.9916,0.5643,-0.2029,-0.6816,-2.1037,1.6821,0.3909,-1.1470,-0.0320,
13.540200,-0.8463,0.3567,-0.2234,-0.6816,-2.1037,1.6821,0.3909,-1.1470,-0.0320,
13.544296,-0.5538,0.2051,-0.0879,-0.6816,-2.1037,1.6821,0.3909,-1.1470,-0.0320,
13.546340,-0.1707,0.0347,0.1428,-0.6816,-2.1037,1.6821,0.3909,-1.1470,-0.0320,
13.578021,-0.1707,0.0347,0.1428,-0.6816,-2.1037,1.6821,0.0570,-1.9120,2.8911,
13.580960,-0.1707,0.0347,0.1428,6.7042,-7.8081,3.1706,0.0570,-1.9120,2.8911,
13.597122,0.1323,-0.2166,0.1052,6.7042,-7.8081,3.1706,0.0570,-1.9120,2.8911,
13.599530,0.1682,-0.1311,-0.0625,6.7042,-7.8081,3.1706,0.0570,-1.9120,2.8911,
13.601032,-0.1904,0.1951,-0.1673,6.7042,-7.8081,3.1706,0.0570,-1.9120,2.8911,
13.637231,-0.1904,0.1951,-0.1673,6.7042,-7.8081,3.1706,0.9086,-1.6953,4.4254,
13.640990,-0.1904,0.1951,-0.1673,0.4637,-4.1057,0.7166,0.9086,-1.6953,4.4254,
13.655552,-0.5130,0.4991,-0.2688,0.4637,-4.1057,0.7166,0.9086,-1.6953,4.4254,
13.657758,-0.5582,0.4981,-0.0803,0.4637,-4.1057,0.7166,0.9086,-1.6953,4.4254,
13.658973,-0.4593,0.4581,-0.0637,0.4637,-4.1057,0.7166,0.9086,-1.6953,4.4254,
13.695387,-0.4593,0.4581,-0.0637,0.4637,-4.1057,0.7166,1.3852,-4.1060,6.4807,
13.698832,-0.4593,0.4581,-0.0637,-3.5178,-1.4829,-0.1095,1.3852,-4.1060,6.4807,
13.714683,-0.5228,0.7037,-0.3455,-3.5178,-1.4829,-0.1095,1.3852,-4.1060,6.4807,
13.718439,-0.6907,1.1451,-0.3391,-3.5178,-1.4829,-0.1095,1.3852,-4.1060,6.4807,
13.724646,-0.7449,1.4645,-0.3179,-3.5178,-1.4829,-0.1095,1.3852,-4.1060,6.4807,
13.752319,-0.7449,1.4645,-0.3179,-3.5178,-1.4829,-0.1095,2.1307,-8.1345,6.4738,
13.753826,-0.7449,1.4645,-0.3179,-6.7097,7.2819,1.2050,2.1307,-8.1345,6.4738,
13.772510,-0.6771,1.7704,-0.2735,-6.7097,7.2819,1.2050,2.1307,-8.1345,6.4738,
13.780871,-0.5997,1.7807,0.0066,-6.7097,7.2819,1.2050,2.1307,-8.1345,6.4738,
13.782446,-0.3455,1.4210,0.3335,-6.7097,7.2819,1.2050,2.1307,-8.1345,6.4738,
13.810957,-0.3455,1.4210,0.3335,-6.7097,7.2819,1.2050,0.4264,-7.1854,2.9862,
13.814105,-0.3455,1.4210,0.3335,-3.5876,2.0604,7.9852,0.4264,-7.1854,2.9862,
13.830883,-0.1619,1.0629,0.7020,-3.5876,2.0604,7.9852,0.4264,-7.1854,2.9862,
13.832740,-0.5281,0.9019,0.3848,-3.5876,2.0604,7.9852,0.4264,-7.1854,2.9862,
13.833802,-1.3378,1.5180,0.3423,-3.5876,2.0604,7.9852,0.4264,-7.1854,2.9862,
13.869927,-1.3378,1.5180,0.3423,-3.5876,2.0604,7.9852,-0.4388,-1.2280,-0.2482,
13.873724,-1.3378,1.5180,0.3423,-0.6790,2.3460,10.7988,-0.4388,-1.2280,-0.2482,
13.905256,-0.0520,1.0721,1.6950,-0.6790,2.3460,10.7988,-0.4388,-1.2280,-0.2482,
13.908421,1.1268,0.9193,0.3665,-0.6790,2.3460,10.7988,-0.4388,-1.2280,-0.2482,
13.910616,0.4441,1.3898,-0.7818,-0.6790,2.3460,10.7988,-0.4388,-1.2280,-0.2482,
13.927505,0.4441,1.3898,-0.7818,-0.6790,2.3460,10.7988,-0.4115,0.8815,-0.9825,
13.929872,0.4441,1.3898,-0.7818,-1.6625,3.9433,-5.2822,-0.4115,0.8815,-0.9825,
13.946995,-0.3985,1.5558,-1.0550,-1.6625,3.9433,-5.2822,-0.4115,0.8815,-0.9825,
13.949620,-0.7347,1.0873,-0.6492,-1.6625,3.9433,-5.2822,-0.4115,0.8815,-0.9825,
13.951364,-0.2688,0.9305,-0.3533,-1.6625,3.9433,-5.2822,-0.4115,0.8815,-0.9825,
13.986604,-0.2688,0.9305,-0.3533,-1.6625,3.9433,-5.2822,-0.5044,-1.5125,0.1511,
13.989765,-0.2688,0.9305,-0.3533,0.7779,-0.0177,0.8566,-0.5044,-1.5125,0.1511,
14.007031,0.1511,0.9427,-0.1384,0.7779,-0.0177,0.8566,-0.5044,-1.5125,0.1511,
14.010716,0.1336,0.9732,-0.0081,0.7779,-0.0177,0.8566,-0.5044,-1.5125,0.1511,
14.013380,-0.0952,0.9564,0.0471,0.7779,-0.0177,0.8566,-0.5044,-1.5125,0.1511,
14.044523,-0.0952,0.9564,0.0471,0.7779,-0.0177,0.8566,-0.2230,-0.1639,-0.0437,
14.047008,-0.0952,0.9564,0.0471,-0.5631,0.2273,1.0361,-0.2230,-0.1639,-0.0437,
14.066107,-0.1880,0.9776,-0.1594,-0.5631,0.2273,1.0361,-0.2230,-0.1639,-0.0437,
14.069372,-0.1289,0.9977,-0.2879,-0.5631,0.2273,1.0361,-0.2230,-0.1639,-0.0437,
14.072289,-0.1536,1.0038,-0.2620,-0.5631,0.2273,1.0361,-0.2230,-0.1639,-0.0437,
14.102776,-0.1536,1.0038,-0.2620,-0.5006,0.3688,0.0531,-0.2230,-0.1639,-0.0437,
14.105151,-0.1536,1.0038,-0.2620,-0.5006,0.3688,0.0531,-0.1035,-0.3671,0.1666,
14.122966,-0.1292,0.9889,-0.2202,-0.5006,0.3688,0.0531,-0.1035,-0.3671,0.1666,
14.125780,-0.1001,0.9908,-0.1963,-0.5006,0.3688,0.0531,-0.1035,-0.3671,0.1666,
14.127909,0.0210,0.9405,-0.1785,-0.5006,0.3688,0.0531,-0.1035,-0.3671,0.1666,
14.161124,0.0210,0.9405,-0.1785,-0.5006,0.3688,0.0531,0.0476,-0.4563,0.1024,
14.163079,0.0210,0.9405,-0.1785,1.4139,-0.0944,0.9186,0.0476,-0.4563,0.1024,
14.187297,0.1279,0.9449,-0.0913,1.4139,-0.0944,0.9186,0.0476,-0.4563,0.1024,
14.189613,0.0603,0.9552,-0.1409,1.4139,-0.0944,0.9186,0.0476,-0.4563,0.1024,
14.190817,-0.1094,0.9671,-0.2327,1.4139,-0.0944,0.9186,0.0476,-0.4563,0.1024,
14.219336,-0.1094,0.9671,-0.2327,1.4139,-0.0944,0.9186,0.2290,-0.3461,-0.1985,
14.221566,-0.1094,0.9671,-0.2327,-0.3257,0.2762,0.5454,0.2290,-0.3461,-0.1985,
14.240613,-0.1568,0.9867,-0.1790,-0.3257,0.2762,0.5454,0.2290,-0.3461,-0.1985,
14.243693,-0.1062,0.9894,-0.1438,-0.3257,0.2762,0.5454,0.2290,-0.3461,-0.1985,
14.245681,-0.1257,0.9613,-0.1760,-0.3257,0.2762,0.5454,0.2290,-0.3461,-0.1985,
14.278813,-0.1257,0.9613,-0.1760,-0.3257,0.2762,0.5454,0.4109,-0.4469,-0.0947,
14.282377,-0.1257,0.9613,-0.1760,-0.7048,0.1151,0.4104,0.4109,-0.4469,-0.0947,
14.299652,-0.1919,0.9454,-0.2302,-0.7048,0.1151,0.4104,0.4109,-0.4469,-0.0947,
14.303180,-0.2097,0.9681,-0.2490,-0.7048,0.1151,0.4104,0.4109,-0.4469,-0.0947,
14.304760,-0.1314,0.9579,-0.2659,-0.7048,0.1151,0.4104,0.4109,-0.4469,-0.0947,
14.336303,-0.1314,0.9579,-0.2659,-0.0784,0.4510,0.3691,0.4109,-0.4469,-0.0947,
14.338075,-0.1314,0.9579,-0.2659,-0.0784,0.4510,0.3691,0.5803,-0.5367,0.0857,
14.356417,-0.1558,1.0028,-0.2473,-0.0784,0.4510,0.3691,0.5803,-0.5367,0.0857,
14.362687,-0.0606,0.9930,-0.2385,-0.0784,0.4510,0.3691,0.5803,-0.5367,0.0857,
14.364787,0.0647,0.9977,-0.1868,-0.0784,0.4510,0.3691,0.5803,-0.5367,0.0857,
14.395206,0.0647,0.9977,-0.1868,-0.0784,0.4510,0.3691,0.9366,-0.3655,-0.0739,
14.398124,0.0647,0.9977,-0.1868,1.6618,0.8354,0.6208,0.9366,-0.3655,-0.0739,
14.414207,0.1145,1.0382,-0.2476,1.6618,0.8354,0.6208,0.9366,-0.3655,-0.0739,
14.417159,-0.0173,0.9872,-0.3824,1.6618,0.8354,0.6208,0.9366,-0.3655,-0.0739,
14.418646,-0.2346,1.0482,-0.3733,1.6618,0.8354,0.6208,0.9366,-0.3655,-0.0739,
14.453601,-0.2346,1.0482,-0.3733,1.6618,0.8354,0.6208,1.4539,-0.6324,-0.1535,
14.456784,-0.2346,1.0482,-0.3733,0.4736,2.3654,0.9009,1.4539,-0.6324,-0.1535,
14.477070,-0.1172,1.1327,-0.3096,0.4736,2.3654,0.9009,1.4539,-0.6324,-0.1535,
14.479589,0.0869,1.2247,-0.2600,0.4736,2.3654,0.9009,1.4539,-0.6324,-0.1535,
14.481621,0.2891,1.3961,-0.1785,0.4736,2.3654,0.9009,1.4539,-0.6324,-0.1535,
14.510528,0.2891,1.3961,-0.1785,0.4736,2.3654,0.9009,2.2246,-1.6225,-0.2808,
14.511934,0.2891,1.3961,-0.1785,6.4738,6.1627,4.3930,2.2246,-1.6225,-0.2808,
14.530471,0.5403,1.5065,-0.0217,6.4738,6.1627,4.3930,2.2246,-1.6225,-0.2808,
14.531650,0.6036,1.5119,0.0596,6.4738,6.1627,4.3930,2.2246,-1.6225,-0.2808,
14.532380,0.2385,1.5099,0.0938,6.4738,6.1627,4.3930,2.2246,-1.6225,-0.2808,
14.570485,0.2385,1.5099,0.0938,6.4738,6.1627,4.3930,2.4650,-1.7872,-1.1317,
14.572614,0.2385,1.5099,0.0938,0.2533,6.4525,8.0975,2.4650,-1.7872,-1.1317,
14.589470,-0.2259,1.4040,0.3587,0.2533,6.4525,8.0975,2.4650,-1.7872,-1.1317,
14.591357,-0.8094,1.3412,0.3118,0.2533,6.4525,8.0975,2.4650,-1.7872,-1.1317,
14.593026,-1.2753,1.3410,-0.0254,0.2533,6.4525,8.0975,2.4650,-1.7872,-1.1317,
14.627677,-1.2753,1.3410,-0.0254,0.2533,6.4525,8.0975,2.4604,-4.1388,-1.0580,
14.629990,-1.2753,1.3410,-0.0254,-5.6067,5.7879,2.1470,2.4604,-4.1388,-1.0580,
14.650038,-1.2826,1.2184,-0.4668,-5.6067,5.7879,2.1470,2.4604,-4.1388,-1.0580,
14.652134,-0.6170,1.2006,-0.5784,-5.6067,5.7879,2.1470,2.4604,-4.1388,-1.0580,
14.653086,0.0593,0.9996,-0.2315,-5.6067,5.7879,2.1470,2.4604,-4.1388,-1.0580,
14.686384,0.0593,0.9996,-0.2315,-5.6067,5.7879,2.1470,1.2066,-4.4852,0.8271,
14.688718,0.0593,0.9996,-0.2315,5.6097,1.7445,4.7449,1.2066,-4.4852,0.8271,
14.709062,0.1096,0.7708,0.0686,5.6097,1.7445,4.7449,1.2066,-4.4852,0.8271,
14.712837,-0.2066,0.7283,0.2053,5.6097,1.7445,4.7449,1.2066,-4.4852,0.8271,
14.716798,-0.3589,0.6466,0.2002,5.6097,1.7445,4.7449,1.2066,-4.4852,0.8271,
14.744154,-0.3589,0.6466,0.2002,5.6097,1.7445,4.7449,0.3856,-3.6176,2.3297,
14.745986,-0.3589,0.6466,0.2002,2.9323,-1.6988,4.9956,0.3856,-3.6176,2.3297,
14.764697,-0.2805,0.5169,0.1502,2.9323,-1.6988,4.9956,0.3856,-3.6176,2.3297,
14.766762,-0.1863,0.4842,0.1240,2.9323,-1.6988,4.9956,0.3856,-3.6176,2.3297,
14.767563,-0.1919,0.5406,0.1655,2.9323,-1.6988,4.9956,0.3856,-3.6176,2.3297,
14.802229,-0.1919,0.5406,0.1655,2.9323,-1.6988,4.9956,-0.0839,-1.7837,4.3952,
14.804632,-0.1919,0.5406,0.1655,2.0608,-2.2943,4.3495,-0.0839,-1.7837,4.3952,
14.838768,-0.2029,0.6114,0.1670,2.0608,-2.2943,4.3495,-0.0839,-1.7837,4.3952,
14.842384,-0.1804,0.6883,0.1409,2.0608,-2.2943,4.3495,-0.0839,-1.7837,4.3952,
14.846713,-0.2044,0.7913,0.1409,2.0608,-2.2943,4.3495,-0.0839,-1.7837,4.3952,
14.861529,-0.2044,0.7913,0.1409,2.0608,-2.2943,4.3495,-0.8406,-0.4598,5.6314,
14.864059,-0.2044,0.7913,0.1409,-1.6461,0.3979,2.9435,-0.8406,-0.4598,5.6314,
14.880663,-0.2884,0.9791,0.0745,-1.6461,0.3979,2.9435,-0.8406,-0.4598,5.6314,
14.882527,-0.3565,1.1918,0.0039,-1.6461,0.3979,2.9435,-0.8406,-0.4598,5.6314,
14.883594,-0.4681,1.4438,-0.0684,-1.6461,0.3979,2.9435,-0.8406,-0.4598,5.6314,
14.919278,-0.4681,1.4438,-0.0684,-1.6461,0.3979,2.9435,-1.8949,-0.9924,6.2236,
14.922596,-0.4681,1.4438,-0.0684,-7.4906,6.1800,0.6840,-1.8949,-0.9924,6.2236,
14.939772,-0.5782,1.6689,-0.1182,-7.4906,6.1800,0.6840,-1.8949,-0.9924,6.2236,
14.941702,-0.6187,1.6513,0.0237,-7.4906,6.1800,0.6840,-1.8949,-0.9924,6.2236,
14.943216,-0.7274,1.6078,0.1372,-7.4906,6.1800,0.6840,-1.8949,-0.9924,6.2236,
14.981358,-0.7274,1.6078,0.1372,-7.4906,6.1800,0.6840,-1.9583,-0.2439,4.6186,
14.984114,-0.7274,1.6078,0.1372,-12.4405,6.1188,0.5545,-1.9583,-0.2439,4.6186,
14.997018,-0.8639,1.5719,0.1030,-12.4405,6.1188,0.5545,-1.9583,-0.2439,4.6186,
14.998758,-0.9122,1.3522,-0.1365,-12.4405,6.1188,0.5545,-1.9583,-0.2439,4.6186,
15.000192,-1.0697,1.0043,-0.3294,-12.4405,6.1188,0.5545,-1.9583,-0.2439,4.6186,
15.036319,-1.0697,1.0043,-0.3294,-12.4405,6.1188,0.5545,-0.8974,0.8725,0.0666,
15.038161,-1.0697,1.0043,-0.3294,-15.7215,-0.7376,-4.4427,-0.8974,0.8725,0.0666,
15.059052,-1.2335,0.7437,-0.3247,-15.7215,-0.7376,-4.4427,-0.8974,0.8725,0.0666,
15.062987,-1.2792,0.6749,-0.5877,-15.7215,-0.7376,-4.4427,-0.8974,0.8725,0.0666,
15.065910,-0.9786,1.2172,-1.2067,-15.7215,-0.7376,-4.4427,-0.8974,0.8725,0.0666,
15.095020,-0.9786,1.2172,-1.2067,6.1221,5.6298,-5.8180,-0.8974,0.8725,0.0666,
15.098468,-0.9786,1.2172,-1.2067,6.1221,5.6298,-5.8180,-0.4343,-3.3907,-1.7747,
15.123024,1.0726,1.6584,-0.3069,6.1221,5.6298,-5.8180,-0.4343,-3.3907,-1.7747,
15.125715,2.7725,1.6374,-0.3277,6.1221,5.6298,-5.8180,-0.4343,-3.3907,-1.7747,
15.128007,0.5516,1.6613,-0.7452,6.1221,5.6298,-5.8180,-0.4343,-3.3907,-1.7747,
15.153339,0.5516,1.6613,-0.7452,6.1221,5.6298,-5.8180,-0.2861,-1.7228,-2.5092,
15.156655,0.5516,1.6613,-0.7452,-4.0867,2.5096,-1.9523,-0.2861,-1.7228,-2.5092,
15.174262,-1.1144,1.4511,-0.3872,-4.0867,2.5096,-1.9523,-0.2861,-1.7228,-2.5092,
15.176730,-0.1431,0.5740,0.4290,-4.0867,2.5096,-1.9523,-0.2861,-1.7228,-2.5092,
15.179560,0.1660,0.6058,0.6380,-4.0867,2.5096,-1.9523,-0.2861,-1.7228,-2.5092,
15.211900,0.1660,0.6058,0.6380,-4.0867,2.5096,-1.9523,-0.0322,0.2835,-1.7169,
15.215028,0.1660,0.6058,0.6380,-2.4058,-0.6531,2.1666,-0.0322,0.2835,-1.7169,
15.231049,-0.3015,1.0211,0.0845,-2.4058,-0.6531,2.1666,-0.0322,0.2835,-1.7169,
15.233303,-0.3614,1.1280,-0.1448,-2.4058,-0.6531,2.1666,-0.0322,0.2835,-1.7169,
15.234435,-0.0908,1.1048,-0.1604,-2.4058,-0.6531,2.1666,-0.0322,0.2835,-1.7169,
15.269197,-0.0908,1.1048,-0.1604,-2.4058,-0.6531,2.1666,-0.0855,-0.0780,-0.9389,
15.273095,-0.0908,1.1048,-0.1604,0.9348,0.9302,-0.6632,-0.0855,-0.0780,-0.9389,
15.291955,0.2371,1.1075,-0.1326,0.9348,0.9302,-0.6632,-0.0855,-0.0780,-0.9389,
15.295265,0.2219,1.0411,0.0154,0.9348,0.9302,-0.6632,-0.0855,-0.0780,-0.9389,
15.297380,-0.0635,0.9688,0.1648,0.9348,0.9302,-0.6632,-0.0855,-0.0780,-0.9389,
15.327584,-0.0635,0.9688,0.1648,0.9348,0.9302,-0.6632,0.1254,-0.2838,-1.1403,
15.329470,-0.0635,0.9688,0.1648,0.5140,-0.4216,1.9370,0.1254,-0.2838,-1.1403,
15.357943,-0.0664,0.9293,0.2114,0.5140,-0.4216,1.9370,0.1254,-0.2838,-1.1403,
15.359638,0.1731,0.9376,0.1309,0.5140,-0.4216,1.9370,0.1254,-0.2838,-1.1403,
15.360863,0.1680,0.9872,0.0420,0.5140,-0.4216,1.9370,0.1254,-0.2838,-1.1403,
15.385995,0.1680,0.9872,0.0420,0.5140,-0.4216,1.9370,0.2895,-0.0120,-1.5066,
15.388020,0.1680,0.9872,0.0420,0.8862,0.1522,0.6287,0.2895,-0.0120,-1.5066,
15.408739,-0.0503,1.0060,0.0344,0.8862,0.1522,0.6287,0.2895,-0.0120,-1.5066,
15.411130,-0.2156,0.9957,-0.0166,0.8862,0.1522,0.6287,0.2895,-0.0120,-1.5066,
15.412744,-0.2046,1.0250,-0.0361,0.8862,0.1522,0.6287,0.2895,-0.0120,-1.5066,
15.445623,-0.2046,1.0250,-0.0361,0.8862,0.1522,0.6287,0.3370,-0.0014,-1.5115,
15.448658,-0.2046,1.0250,-0.0361,-0.1176,0.5473,0.1476,0.3370,-0.0014,-1.5115,
15.467403,-0.2044,1.0423,-0.0447,-0.1176,0.5473,0.1476,0.3370,-0.0014,-1.5115,
15.471925,-0.2544,0.9981,-0.0632,-0.1176,0.5473,0.1476,0.3370,-0.0014,-1.5115,
15.474115,-0.2586,0.9598,-0.1060,-0.1176,0.5473,0.1476,0.3370,-0.0014,-1.5115,
15.503626,-0.2586,0.9598,-0.1060,-0.1176,0.5473,0.1476,0.2189,0.3038,-1.4418,
15.506978,-0.2586,0.9598,-0.1060,0.2717,-0.0733,-0.6479,0.2189,0.3038,-1.4418,
15.523480,-0.2490,0.9447,-0.1516,0.2717,-0.0733,-0.6479,0.2189,0.3038,-1.4418,
15.525891,-0.2725,0.9051,-0.1836,0.2717,-0.0733,-0.6479,0.2189,0.3038,-1.4418,
15.527625,-0.2864,0.9439,-0.1238,0.2717,-0.0733,-0.6479,0.2189,0.3038,-1.4418,
15.561731,-0.2864,0.9439,-0.1238,0.2717,-0.0733,-0.6479,0.1977,0.0745,-1.5021,
15.564095,-0.2864,0.9439,-0.1238,0.9630,1.7279,0.1748,0.1977,0.0745,-1.5021,
15.581562,-0.2696,1.1163,-0.0679,0.9630,1.7279,0.1748,0.1977,0.0745,-1.5021,
15.584219,-0.2508,1.2203,-0.0330,0.9630,1.7279,0.1748,0.1977,0.0745,-1.5021,
15.585567,-0.1182,1.2213,-0.0076,0.9630,1.7279,0.1748,0.1977,0.0745,-1.5021,
15.621207,-0.1182,1.2213,-0.0076,3.8923,3.6733,0.8491,0.1977,0.0745,-1.5021,
15.626598,-0.1182,1.2213,-0.0076,3.8923,3.6733,0.8491,0.4779,0.0532,-1.8224,
15.643307,-0.0149,1.2496,-0.0127,3.8923,3.6733,0.8491,0.4779,0.0532,-1.8224,
15.646526,-0.0410,1.2831,-0.0720,3.8923,3.6733,0.8491,0.4779,0.0532,-1.8224,
15.648802,-0.0095,1.3773,-0.0872,3.8923,3.6733,0.8491,0.4779,0.0532,-1.8224,
15.677233,-0.0095,1.3773,-0.0872,3.8923,3.6733,0.8491,0.7428,0.9068,-2.2406,
15.678718,-0.0095,1.3773,-0.0872,9.8425,8.7892,2.2761,0.7428,0.9068,-2.2406,
15.697040,0.3250,1.7758,0.1255,9.8425,8.7892,2.2761,0.7428,0.9068,-2.2406,
15.698921,1.0770,1.9943,0.1272,9.8425,8.7892,2.2761,0.7428,0.9068,-2.2406,
15.700375,1.2286,1.7053,0.0264,9.8425,8.7892,2.2761,0.7428,0.9068,-2.2406,
15.735821,1.2286,1.7053,0.0264,9.8425,8.7892,2.2761,0.6398,2.9104,-3.4457,
15.737739,1.2286,1.7053,0.0264,8.2188,6.6516,2.0203,0.6398,2.9104,-3.4457,
15.755990,0.2483,1.2159,-0.0701,8.2188,6.6516,2.0203,0.6398,2.9104,-3.4457,
15.758003,-0.8709,1.2179,-0.2515,8.2188,6.6516,2.0203,0.6398,2.9104,-3.4457,
15.760286,-1.0365,1.4547,-0.1736,8.2188,6.6516,2.0203,0.6398,2.9104,-3.4457,
15.795523,-1.0365,1.4547,-0.1736,8.2188,6.6516,2.0203,0.8149,2.4459,-2.8521,
15.798958,-1.0365,1.4547,-0.1736,-1.6165,5.0358,1.8118,0.8149,2.4459,-2.8521,
15.813571,-0.8155,1.1471,-0.2544,-1.6165,5.0358,1.8118,0.8149,2.4459,-2.8521,
15.815003,-0.7232,0.6829,-0.2976,-1.6165,5.0358,1.8118,0.8149,2.4459,-2.8521,
15.815869,-0.6839,0.4871,-0.5269,-1.6165,5.0358,1.8118,0.8149,2.4459,-2.8521,
15.852708,-0.6839,0.4871,-0.5269,-1.6165,5.0358,1.8118,-1.0259,0.2820,0.1969,
15.855340,-0.6839,0.4871,-0.5269,2.4466,-2.7365,-0.9489,-1.0259,0.2820,0.1969,
15.872856,-0.4227,0.3172,-0.6370,2.4466,-2.7365,-0.9489,-1.0259,0.2820,0.1969,
15.875370,-0.1687,0.1863,-0.3406,2.4466,-2.7365,-0.9489,-1.0259,0.2820,0.1969,
15.877382,0.0034,0.0652,-0.2744,2.4466,-2.7365,-0.9489,-1.0259,0.2820,0.1969,
15.915153,0.0034,0.0652,-0.2744,2.4466,-2.7365,-0.9489,-1.9829,-0.7803,3.1700,
15.919494,0.0034,0.0652,-0.2744,5.0479,-5.5886,-0.4737,-1.9829,-0.7803,3.1700,
15.933088,-0.0247,0.1304,-0.2715,5.0479,-5.5886,-0.4737,-1.9829,-0.7803,3.1700,
15.934710,-0.0952,0.3601,-0.4935,5.0479,-5.5886,-0.4737,-1.9829,-0.7803,3.1700,
15.936255,-0.0146,0.4859,-0.5010,5.0479,-5.5886,-0.4737,-1.9829,-0.7803,3.1700,
15.968862,-0.0146,0.4859,-0.5010,5.0479,-5.5886,-0.4737,-2.0365,-0.3030,5.2443,
15.970908,-0.0146,0.4859,-0.5010,2.6138,-3.2819,-2.6155,-2.0365,-0.3030,5.2443,
15.988633,0.0105,0.5818,-0.4246,2.6138,-3.2819,-2.6155,-2.0365,-0.3030,5.2443,
15.990771,-0.0828,0.6605,-0.4588,2.6138,-3.2819,-2.6155,-2.0365,-0.3030,5.2443,
15.991910,-0.1016,0.7855,-0.2971,2.6138,-3.2819,-2.6155,-2.0365,-0.3030,5.2443,
16.027560,-0.1016,0.7855,-0.2971,2.6138,-3.2819,-2.6155,-1.7748,0.8432,6.2553,
16.030011,-0.1016,0.7855,-0.2971,-2.1180,1.6686,-2.9150,-1.7748,0.8432,6.2553,
16.046487,-0.1067,1.0970,-0.3955,-2.1180,1.6686,-2.9150,-1.7748,0.8432,6.2553,
16.048154,-0.2749,1.5480,-0.5157,-2.1180,1.6686,-2.9150,-1.7748,0.8432,6.2553,
16.049331,-0.7572,1.9682,-0.5127,-2.1180,1.6686,-2.9150,-1.7748,0.8432,6.2553,
16.085306,-0.7572,1.9682,-0.5127,-2.1180,1.6686,-2.9150,-1.9943,0.7137,6.0116,
16.086641,-0.7572,1.9682,-0.5127,-13.4446,9.0026,-3.7614,-1.9943,0.7137,6.0116,
16.105048,-1.1227,1.9575,-0.4324,-13.4446,9.0026,-3.7614,-1.9943,0.7137,6.0116,
16.106984,-1.1376,1.5761,-0.1839,-13.4446,9.0026,-3.7614,-1.9943,0.7137,6.0116,
16.108234,-0.8680,1.1886,-0.0613,-13.4446,9.0026,-3.7614,-1.9943,0.7137,6.0116,
16.143805,-0.8680,1.1886,-0.0613,-13.4446,9.0026,-3.7614,-1.0043,-0.9719,2.4339,
16.145415,-0.8680,1.1886,-0.0613,-14.0883,1.5603,-2.2197,-1.0043,-0.9719,2.4339,
16.163503,-0.9203,1.0155,-0.3196,-14.0883,1.5603,-2.2197,-1.0043,-0.9719,2.4339,
16.165154,-1.1166,0.8397,-0.2114,-14.0883,1.5603,-2.2197,-1.0043,-0.9719,2.4339,
16.166017,-1.0226,0.8512,-0.1414,-14.0883,1.5603,-2.2197,-1.0043,-0.9719,2.4339,
16.201994,-1.0226,0.8512,-0.1414,-14.0883,1.5603,-2.2197,-0.1880,-1.8774,-2.1653,
16.203554,-1.0226,0.8512,-0.1414,-4.2302,3.0075,-0.6047,-0.1880,-1.8774,-2.1653,
16.225285,-0.6221,1.2535,-0.3804,-4.2302,3.0075,-0.6047,-0.1880,-1.8774,-2.1653,
16.227061,1.4057,1.5541,0.3074,-4.2302,3.0075,-0.6047,-0.1880,-1.8774,-2.1653,
16.228078,3.4320,1.5268,0.3123,-4.2302,3.0075,-0.6047,-0.1880,-1.8774,-2.1653,
16.260219,3.4320,1.5268,0.3123,-4.2302,3.0075,-0.6047,-0.0558,-0.7955,-2.6149,
16.261374,3.4320,1.5268,0.3123,5.8666,4.8118,-3.8743,-0.0558,-0.7955,-2.6149,
16.279827,0.4563,1.5627,-0.5091,5.8666,4.8118,-3.8743,-0.0558,-0.7955,-2.6149,
16.281402,-1.4364,1.2753,-1.0712,5.8666,4.8118,-3.8743,-0.0558,-0.7955,-2.6149,
16.282174,-1.0382,0.7232,0.2639,5.8666,4.8118,-3.8743,-0.0558,-0.7955,-2.6149,
16.318999,-1.0382,0.7232,0.2639,5.8666,4.8118,-3.8743,-0.0739,-0.2914,-2.2645,
16.320798,-1.0382,0.7232,0.2639,-4.2080,-1.5458,3.1589,-0.0739,-0.2914,-2.2645,
16.338378,-0.0579,0.7804,0.3186,-4.2080,-1.5458,3.1589,-0.0739,-0.2914,-2.2645,
16.340188,0.0540,0.9684,0.3228,-4.2080,-1.5458,3.1589,-0.0739,-0.2914,-2.2645,
16.342076,-0.0435,1.0528,0.0352,-4.2080,-1.5458,3.1589,-0.0739,-0.2914,-2.2645,
16.378514,-0.0435,1.0528,0.0352,-4.2080,-1.5458,3.1589,0.2364,-0.1832,-1.4803,
16.381419,-0.0435,1.0528,0.0352,-1.6103,0.3778,-0.4184,0.2364,-0.1832,-1.4803,
16.400633,-0.2696,0.9855,-0.1348,-1.6103,0.3778,-0.4184,0.2364,-0.1832,-1.4803,
16.401640,-0.1980,1.0336,-0.1343,-1.6103,0.3778,-0.4184,0.2364,-0.1832,-1.4803,
16.402623,0.0271,1.1127,-0.1709,-1.6103,0.3778,-0.4184,0.2364,-0.1832,-1.4803,
16.436706,0.0271,1.1127,-0.1709,-1.6103,0.3778,-0.4184,0.1490,-0.2178,-1.0301,
16.439552,0.0271,1.1127,-0.1709,-0.2299,0.8136,-0.4035,0.1490,-0.2178,-1.0301,
16.456602,-0.0508,1.0712,-0.0769,-0.2299,0.8136,-0.4035,0.1490,-0.2178,-1.0301,
16.458912,-0.2449,1.0182,-0.0078,-0.2299,0.8136,-0.4035,0.1490,-0.2178,-1.0301,
16.461037,-0.1172,0.9901,-0.0415,-0.2299,0.8136,-0.4035,0.1490,-0.2178,-1.0301,
16.495190,-0.1172,0.9901,-0.0415,-0.2299,0.8136,-0.4035,0.1564,-0.0890,-0.8682,
16.498291,-0.1172,0.9901,-0.0415,1.0429,-0.0500,0.2922,0.1564,-0.0890,-0.8682,
16.514079,0.0703,0.9522,-0.0288,1.0429,-0.0500,0.2922,0.1564,-0.0890,-0.8682,
16.516391,0.0234,0.9798,0.0037,1.0429,-0.0500,0.2922,0.1564,-0.0890,-0.8682,
16.518098,-0.1563,0.9903,-0.0024,1.0429,-0.0500,0.2922,0.1564,-0.0890,-0.8682,
16.553682,-0.1563,0.9903,-0.0024,-0.0449,0.3418,0.3387,0.1564,-0.0890,-0.8682,
16.557080,-0.1563,0.9903,-0.0024,-0.0449,0.3418,0.3387,0.1779,0.2069,-1.0177,
16.572315,-0.2129,1.0050,-0.0347,-0.0449,0.3418,0.3387,0.1779,0.2069,-1.0177,
16.573785,-0.1590,1.0213,-0.0493,-0.0449,0.3418,0.3387,0.1779,0.2069,-1.0177,
16.574493,-0.1160,0.9793,-0.0442,-0.0449,0.3418,0.3387,0.1779,0.2069,-1.0177,
16.611790,-0.1160,0.9793,-0.0442,1.0646,0.2001,0.3037,0.1779,0.2069,-1.0177,
16.614775,-0.1160,0.9793,-0.0442,1.0646,0.2001,0.3037,0.2822,0.0892,-1.0600,
16.630995,-0.1155,0.9576,-0.0305,1.0646,0.2001,0.3037,0.2822,0.0892,-1.0600,
16.632458,-0.1294,0.9964,-0.0715,1.0646,0.2001,0.3037,0.2822,0.0892,-1.0600,
16.633146,-0.1433,1.0353,-0.1316,1.0646,0.2001,0.3037,0.2822,0.0892,-1.0600,
16.669895,-0.1433,1.0353,-0.1316,1.0646,0.2001,0.3037,0.3751,0.1821,-1.3773,
16.673324,-0.1433,1.0353,-0.1316,1.9479,1.2710,0.0832,0.3751,0.1821,-1.3773,
16.689795,-0.0781,1.0428,-0.1038,1.9479,1.2710,0.0832,0.3751,0.1821,-1.3773,
16.691288,-0.0840,1.1195,-0.0486,1.9479,1.2710,0.0832,0.3751,0.1821,-1.3773,
16.692071,-0.0769,1.1620,-0.0374,1.9479,1.2710,0.0832,0.3751,0.1821,-1.3773,
16.727825,-0.0769,1.1620,-0.0374,1.9479,1.2710,0.0832,0.6931,0.0000,-1.9509,
16.731058,-0.0769,1.1620,-0.0374,3.1125,2.4718,0.6535,0.6931,0.0000,-1.9509,
16.753008,-0.0691,1.1381,-0.0828,3.1125,2.4718,0.6535,0.6931,0.0000,-1.9509,
16.754928,-0.0991,1.1427,-0.0964,3.1125,2.4718,0.6535,0.6931,0.0000,-1.9509,
16.755645,-0.0481,1.2677,-0.0952,3.1125,2.4718,0.6535,0.6931,0.0000,-1.9509,
16.785440,-0.0481,1.2677,-0.0952,3.1125,2.4718,0.6535,0.9307,0.8204,-2.4090,
16.786697,-0.0481,1.2677,-0.0952,7.1723,6.6101,0.3890,0.9307,0.8204,-2.4090,
16.805200,0.1975,1.5067,-0.1411,7.1723,6.6101,0.3890,0.9307,0.8204,-2.4090,
16.806717,0.5482,1.7487,-0.2659,7.1723,6.6101,0.3890,0.9307,0.8204,-2.4090,
16.807467,0.9776,1.8139,-0.3572,7.1723,6.6101,0.3890,0.9307,0.8204,-2.4090,
16.844122,0.9776,1.8139,-0.3572,7.1723,6.6101,0.3890,1.0541,2.1922,-3.0093,
16.845616,0.9776,1.8139,-0.3572,9.8718,6.8198,1.6174,1.0541,2.1922,-3.0093,
16.863584,0.7813,1.5089,-0.1284,9.8718,6.8198,1.6174,1.0541,2.1922,-3.0093,
16.864637,-0.4908,0.9593,0.0100,9.8718,6.8198,1.6174,1.0541,2.1922,-3.0093,
16.865122,-1.6530,1.1022,-0.3365,9.8718,6.8198,1.6174,1.0541,2.1922,-3.0093,
16.902439,-1.6530,1.1022,-0.3365,-7.3604,4.8451,1.1339,1.0541,2.1922,-3.0093,
16.903776,-1.6530,1.1022,-0.3365,-7.3604,4.8451,1.1339,1.7693,0.7832,-2.8375,
16.922351,-1.7541,1.3417,-0.4217,-7.3604,4.8451,1.1339,1.7693,0.7832,-2.8375,
16.924694,-0.9183,0.8282,-0.1482,-7.3604,4.8451,1.1339,1.7693,0.7832,-2.8375,
16.926507,-0.6414,0.3374,-0.2195,-7.3604,4.8451,1.1339,1.7693,0.7832,-2.8375,
16.962045,-0.6414,0.3374,-0.2195,-7.3604,4.8451,1.1339,0.3704,-2.0360,0.8208,
16.965483,-0.6414,0.3374,-0.2195,1.7562,-3.2887,2.8264,0.3704,-2.0360,0.8208,
16.987467,-0.5694,0.2930,-0.0549,1.7562,-3.2887,2.8264,0.3704,-2.0360,0.8208,
16.990463,-0.3662,0.2097,0.1150,1.7562,-3.2887,2.8264,0.3704,-2.0360,0.8208,
16.991714,-0.0823,-0.0828,0.3238,1.7562,-3.2887,2.8264,0.3704,-2.0360,0.8208,
17.019784,-0.0823,-0.0828,0.3238,1.7562,-3.2887,2.8264,0.5384,-2.1348,3.2558,
17.022239,-0.0823,-0.0828,0.3238,4.8147,-7.9800,4.4387,0.5384,-2.1348,3.2558,
17.040049,-0.0881,-0.1968,0.2027,4.8147,-7.9800,4.4387,0.5384,-2.1348,3.2558,
17.044116,-0.1763,-0.0081,0.0178,4.8147,-7.9800,4.4387,0.5384,-2.1348,3.2558,
17.046123,-0.1707,0.1914,-0.0066,4.8147,-7.9800,4.4387,0.5384,-2.1348,3.2558,
17.078094,-0.1707,0.1914,-0.0066,4.8147,-7.9800,4.4387,1.3298,-1.3989,5.1456,
17.081803,-0.1707,0.1914,-0.0066,0.1724,-3.8028,2.4117,1.3298,-1.3989,5.1456,
17.102904,-0.4043,0.4732,-0.1043,0.1724,-3.8028,2.4117,1.3298,-1.3989,5.1456,
17.106458,-0.5482,0.6968,-0.0098,0.1724,-3.8028,2.4117,1.3298,-1.3989,5.1456,
17.109768,-0.5333,0.7699,0.1065,0.1724,-3.8028,2.4117,1.3298,-1.3989,5.1456,
17.136008,-0.5333,0.7699,0.1065,0.1724,-3.8028,2.4117,1.1136,-4.3386,6.6180,
17.138367,-0.5333,0.7699,0.1065,-5.8763,2.1640,1.9404,1.1136,-4.3386,6.6180,
17.155435,-0.7391,1.0726,-0.1294,-5.8763,2.1640,1.9404,1.1136,-4.3386,6.6180,
17.158772,-0.9166,1.5978,-0.2183,-5.8763,2.1640,1.9404,1.1136,-4.3386,6.6180,
17.161181,-0.8502,1.6288,-0.2156,-5.8763,2.1640,1.9404,1.1136,-4.3386,6.6180,
17.193791,-0.8502,1.6288,-0.2156,-5.8763,2.1640,1.9404,0.9794,-9.3685,6.6986,
17.195597,-0.8502,1.6288,-0.2156,-5.1758,6.3053,3.0560,0.9794,-9.3685,6.6986,
17.215474,-0.4644,1.5238,-0.0425,-5.1758,6.3053,3.0560,0.9794,-9.3685,6.6986,
17.216925,-0.0840,1.5595,0.2344,-5.1758,6.3053,3.0560,0.9794,-9.3685,6.6986,
17.217741,-0.0391,1.4814,0.3448,-5.1758,6.3053,3.0560,0.9794,-9.3685,6.6986,
17.252553,-0.0391,1.4814,0.3448,-5.1758,6.3053,3.0560,0.0652,-6.6715,2.6870,
17.254636,-0.0391,1.4814,0.3448,-1.6144,3.1009,7.8243,0.0652,-6.6715,2.6870,
17.271964,0.0017,1.2579,0.5022,-1.6144,3.1009,7.8243,0.0652,-6.6715,2.6870,
17.273953,-0.2454,0.9664,0.5232,-1.6144,3.1009,7.8243,0.0652,-6.6715,2.6870,
17.274613,-0.4571,0.8001,0.3006,-1.6144,3.1009,7.8243,0.0652,-6.6715,2.6870,
17.312250,-0.4571,0.8001,0.3006,-1.6144,3.1009,7.8243,-0.3056,-1.2576,-0.6332,
17.316614,-0.4571,0.8001,0.3006,-9.2994,1.0723,5.9670,-0.3056,-1.2576,-0.6332,
17.344843,-0.9542,0.8724,0.2720,-9.2994,1.0723,5.9670,-0.3056,-1.2576,-0.6332,
17.346729,-1.4503,1.4381,0.2945,-9.2994,1.0723,5.9670,-0.3056,-1.2576,-0.6332,
17.347723,-0.1553,0.8736,0.5503,-9.2994,1.0723,5.9670,-0.3056,-1.2576,-0.6332,
17.369562,-0.1553,0.8736,0.5503,-9.2994,1.0723,5.9670,-0.6644,0.0094,-0.9411,
17.371835,-0.1553,0.8736,0.5503,1.6144,0.1353,0.2817,-0.6644,0.0094,-0.9411,
17.388614,0.5523,0.6527,-0.4227,1.6144,0.1353,0.2817,-0.6644,0.0094,-0.9411,
17.391181,-0.0630,1.3280,-0.8922,1.6144,0.1353,0.2817,-0.6644,0.0094,-0.9411,
17.392147,-0.4571,1.8515,-0.6600,1.6144,0.1353,0.2817,-0.6644,0.0094,-0.9411,
17.427628,-0.4571,1.8515,-0.6600,1.6144,0.1353,0.2817,-0.4264,-1.2136,-0.5966,
17.431379,-0.4571,1.8515,-0.6600,0.7477,3.4188,-1.9135,-0.4264,-1.2136,-0.5966,
17.448402,0.0366,1.2062,-0.4456,0.7477,3.4188,-1.9135,-0.4264,-1.2136,-0.5966,
17.452340,0.3384,0.8316,-0.2530,0.7477,3.4188,-1.9135,-0.4264,-1.2136,-0.5966,
17.454767,0.0525,0.9422,0.0146,0.7477,3.4188,-1.9135,-0.4264,-1.2136,-0.5966,
17.485805,0.0525,0.9422,0.0146,0.7477,3.4188,-1.9135,-0.1690,-0.4005,-0.7876,
17.487746,0.0525,0.9422,0.0146,-1.2004,-0.2078,2.3440,-0.1690,-0.4005,-0.7876,
17.505446,-0.3526,0.9493,0.0752,-1.2004,-0.2078,2.3440,-0.1690,-0.4005,-0.7876,
17.507728,-0.5328,0.8761,-0.0964,-1.2004,-0.2078,2.3440,-0.1690,-0.4005,-0.7876,
17.509724,-0.4715,0.9405,-0.1695,-1.2004,-0.2078,2.3440,-0.1690,-0.4005,-0.7876,
17.544687,-0.4715,0.9405,-0.1695,-1.2004,-0.2078,2.3440,0.2313,-0.4308,-0.0723,
17.546685,-0.4715,0.9405,-0.1695,-1.7120,0.2628,0.4206,0.2313,-0.4308,-0.0723,
17.581132,-0.3467,0.9735,-0.2022,-1.7120,0.2628,0.4206,0.2313,-0.4308,-0.0723,
17.583544,-0.2105,0.9872,-0.2473,-1.7120,0.2628,0.4206,0.2313,-0.4308,-0.0723,
17.585864,-0.1956,1.0099,-0.2776,-1.7120,0.2628,0.4206,0.2313,-0.4308,-0.0723,
17.602451,-0.1956,1.0099,-0.2776,-1.7120,0.2628,0.4206,0.3726,-0.5591,0.2283,
17.604142,-0.1956,1.0099,-0.2776,-0.4440,0.3065,-0.2338,0.3726,-0.5591,0.2283,
17.621866,-0.2212,0.9837,-0.2876,-0.4440,0.3065,-0.2338,0.3726,-0.5591,0.2283,
17.623468,-0.2136,0.9124,-0.3001,-0.4440,0.3065,-0.2338,0.3726,-0.5591,0.2283,
17.624193,-0.1878,0.9249,-0.2588,-0.4440,0.3065,-0.2338,0.3726,-0.5591,0.2283,
17.661833,-0.1878,0.9249,-0.2588,-0.3610,0.0459,0.1046,0.3726,-0.5591,0.2283,
17.664319,-0.1878,0.9249,-0.2588,-0.3610,0.0459,0.1046,0.3700,-0.4661,0.3124,
17.682332,-0.1985,0.9540,-0.2649,-0.3610,0.0459,0.1046,0.3700,-0.4661,0.3124,
17.685049,-0.1917,0.9388,-0.2849,-0.3610,0.0459,0.1046,0.3700,-0.4661,0.3124,
17.686798,-0.1846,0.9244,-0.2805,-0.3610,0.0459,0.1046,0.3700,-0.4661,0.3124,
17.719668,-0.1846,0.9244,-0.2805,-0.3610,0.0459,0.1046,0.4168,-0.5052,0.3594,
17.721667,-0.1846,0.9244,-0.2805,-0.2785,0.0293,0.4010,0.4168,-0.5052,0.3594,
17.738534,-0.1697,0.9298,-0.2549,-0.2785,0.0293,0.4010,0.4168,-0.5052,0.3594,
17.740420,-0.1668,0.9469,-0.2351,-0.2785,0.0293,0.4010,0.4168,-0.5052,0.3594,
17.741331,-0.1973,0.9291,-0.2371,-0.2785,0.0293,0.4010,0.4168,-0.5052,0.3594,
17.778484,-0.1973,0.9291,-0.2371,-0.2785,0.0293,0.4010,0.4952,-0.4675,0.4026,
17.781927,-0.1973,0.9291,-0.2371,-0.2875,0.0051,0.5959,0.4952,-0.4675,0.4026,
17.797301,-0.1609,0.9095,-0.2708,-0.2875,0.0051,0.5959,0.4952,-0.4675,0.4026,
17.799454,-0.1270,0.9381,-0.2691,-0.2875,0.0051,0.5959,0.4952,-0.4675,0.4026,
17.800599,-0.0845,0.9686,-0.2620,-0.2875,0.0051,0.5959,0.4952,-0.4675,0.4026,
17.837038,-0.0845,0.9686,-0.2620,0.6669,0.7077,0.9111,0.4952,-0.4675,0.4026,
17.840632,-0.0845,0.9686,-0.2620,0.6669,0.7077,0.9111,0.6744,-0.1995,0.3682,
17.855589,-0.0469,0.9862,-0.2478,0.6669,0.7077,0.9111,0.6744,-0.1995,0.3682,
17.857131,-0.0105,1.0089,-0.2700,0.6669,0.7077,0.9111,0.6744,-0.1995,0.3682,
17.857747,0.0261,1.0441,-0.3138,0.6669,0.7077,0.9111,0.6744,-0.1995,0.3682,
17.895104,0.0261,1.0441,-0.3138,0.6669,0.7077,0.9111,1.1112,-0.2119,0.1295,
17.898070,0.0261,1.0441,-0.3138,1.8365,1.7879,1.0871,1.1112,-0.2119,0.1295,
17.913463,0.0523,1.0736,-0.3111,1.8365,1.7879,1.0871,1.1112,-0.2119,0.1295,
17.915328,0.1538,1.1144,-0.2671,1.8365,1.7879,1.0871,1.1112,-0.2119,0.1295,
17.916019,0.3184,1.2509,-0.2283,1.8365,1.7879,1.0871,1.1112,-0.2119,0.1295,
17.952157,0.3184,1.2509,-0.2283,1.8365,1.7879,1.0871,1.8709,-1.1287,-0.2981,
17.953365,0.3184,1.2509,-0.2283,4.9871,6.2922,4.0025,1.8709,-1.1287,-0.2981,
17.971491,0.3662,1.5856,-0.0816,4.9871,6.2922,4.0025,1.8709,-1.1287,-0.2981,
17.972670,0.4029,1.6520,0.0723,4.9871,6.2922,4.0025,1.8709,-1.1287,-0.2981,
17.973297,0.2149,1.4826,0.1460,4.9871,6.2922,4.0025,1.8709,-1.1287,-0.2981,
18.010590,0.2149,1.4826,0.1460,0.7712,6.3104,7.4632,1.8709,-1.1287,-0.2981,
18.011835,0.2149,1.4826,0.1460,0.7712,6.3104,7.4632,1.9772,-1.9230,-1.0712,
18.030343,-0.2056,1.4313,0.2212,0.7712,6.3104,7.4632,1.9772,-1.9230,-1.0712,
