
time,gFx,gFy,gFz,ax,ay,az,wx,wy,wz,
0.053759,0.0000,0.0000,0.0000,0.0000,0.0000,0.0000,0.0024,0.0019,-0.0034,
0.054532,0.0000,0.0000,0.0000,0.0000,0.0000,-0.0000,0.0024,0.0019,-0.0034,
0.074164,-0.0288,0.9847,0.0374,0.0000,0.0000,-0.0000,0.0024,0.0019,-0.0034,
0.075048,-0.0288,0.9847,0.0374,0.0000,0.0000,-0.0000,0.0024,0.0019,-0.0034,
0.075311,-0.0288,0.9847,0.0374,0.0000,0.0000,-0.0000,0.0024,0.0019,-0.0034,
0.075553,-0.0288,0.9847,0.0374,0.0000,0.0000,-0.0000,0.0024,0.0019,-0.0034,
0.111209,-0.0288,0.9847,0.0374,0.0000,0.0000,-0.0000,0.2050,-0.0425,-0.0682,
0.112445,-0.0288,0.9847,0.0374,-0.0007,0.0096,0.0728,0.2050,-0.0425,-0.0682,
0.131126,-0.0217,0.9942,0.0679,-0.0007,0.0096,0.0728,0.2050,-0.0425,-0.0682,
0.131959,-0.0715,0.9366,0.0408,-0.0007,0.0096,0.0728,0.2050,-0.0425,-0.0682,
0.132563,-0.0657,0.9627,0.0251,-0.0007,0.0096,0.0728,0.2050,-0.0425,-0.0682,
0.170591,-0.0657,0.9627,0.0251,-0.1665,-0.1284,0.2328,0.2050,-0.0425,-0.0682,
0.171692,-0.0657,0.9627,0.0251,-0.1665,-0.1284,0.2328,0.3681,-0.1181,0.0192,
0.191630,-0.0349,1.0099,-0.0076,-0.1665,-0.1284,0.2328,0.3681,-0.1181,0.0192,
0.192716,0.0273,1.0221,-0.0371,-0.1665,-0.1284,0.2328,0.3681,-0.1181,0.0192,
0.193296,0.0230,1.0096,-0.0459,-0.1665,-0.1284,0.2328,0.3681,-0.1181,0.0192,
0.228236,0.0230,1.0096,-0.0459,0.2906,0.2643,-0.2631,0.3681,-0.1181,0.0192,
0.229366,0.0230,1.0096,-0.0459,0.2906,0.2643,-0.2631,0.2655,0.0495,0.0281,
0.247659,-0.0256,0.9942,-0.0784,0.2906,0.2643,-0.2631,0.2655,0.0495,0.0281,
0.248382,-0.0322,0.9774,-0.1043,0.2906,0.2643,-0.2631,0.2655,0.0495,0.0281,
0.248798,-0.0234,0.9884,-0.1194,0.2906,0.2643,-0.2631,0.2655,0.0495,0.0281,
0.286660,-0.0234,0.9884,-0.1194,-0.0496,-0.0021,-0.7160,0.2655,0.0495,0.0281,
0.287378,-0.0234,0.9884,-0.1194,-0.0496,-0.0021,-0.7160,0.1020,0.0977,0.0646,
0.305990,-0.0083,1.0216,-0.1072,-0.0496,-0.0021,-0.7160,0.1020,0.0977,0.0646,
0.306720,0.0015,1.0304,-0.0679,-0.0496,-0.0021,-0.7160,0.1020,0.0977,0.0646,
0.307102,0.0193,1.0038,0.0017,-0.0496,-0.0021,-0.7160,0.1020,0.0977,0.0646,
0.344595,0.0193,1.0038,0.0017,-0.0496,-0.0021,-0.7160,-0.0035,0.1436,0.0778,
0.345777,0.0193,1.0038,0.0017,0.1754,0.2581,-0.2467,-0.0035,0.1436,0.0778,
0.364689,0.0474,0.9840,0.0117,0.1754,0.2581,-0.2467,-0.0035,0.1436,0.0778,
0.365846,0.0796,0.9750,-0.0166,0.1754,0.2581,-0.2467,-0.0035,0.1436,0.0778,
0.366898,0.0772,1.0123,-0.0015,0.1754,0.2581,-0.2467,-0.0035,0.1436,0.0778,
0.403074,0.0772,1.0123,-0.0015,0.1754,0.2581,-0.2467,0.0768,0.2474,-0.0761,
0.404105,0.0772,1.0123,-0.0015,0.7198,-0.0135,0.2953,0.0768,0.2474,-0.0761,
0.422824,0.0657,1.0152,0.0527,0.7198,-0.0135,0.2953,0.0768,0.2474,-0.0761,
0.423838,0.0496,0.9999,0.0461,0.7198,-0.0135,0.2953,0.0768,0.2474,-0.0761,
0.424433,0.0969,1.0172,-0.0110,0.7198,-0.0135,0.2953,0.0768,0.2474,-0.0761,
0.461992,0.0969,1.0172,-0.0110,0.7198,-0.0135,0.2953,0.2392,0.2169,-0.2160,
0.464336,0.0969,1.0172,-0.0110,0.7559,0.1686,0.6477,0.2392,0.2169,-0.2160,
0.485341,0.1050,0.9894,-0.0283,0.7559,0.1686,0.6477,0.2392,0.2169,-0.2160,
0.489526,-0.0105,0.9584,-0.0222,0.7559,0.1686,0.6477,0.2392,0.2169,-0.2160,
0.491941,-0.1428,0.9823,-0.0120,0.7559,0.1686,0.6477,0.2392,0.2169,-0.2160,
0.521095,-0.1428,0.9823,-0.0120,0.0256,-0.1364,0.3324,0.2392,0.2169,-0.2160,
0.523475,-0.1428,0.9823,-0.0120,0.0256,-0.1364,0.3324,0.3836,0.0106,-0.2185,
0.539877,-0.1629,1.0238,-0.0107,0.0256,-0.1364,0.3324,0.3836,0.0106,-0.2185,
0.542777,-0.0891,1.0353,0.0120,0.0256,-0.1364,0.3324,0.3836,0.0106,-0.2185,
0.544329,0.0020,1.0082,0.0256,0.0256,-0.1364,0.3324,0.3836,0.0106,-0.2185,
0.579092,0.0020,1.0082,0.0256,0.0256,-0.1364,0.3324,0.6033,-0.1688,-0.0273,
0.581354,0.0020,1.0082,0.0256,-0.5496,0.3033,0.8671,0.6033,-0.1688,-0.0273,
0.599093,0.0667,0.9823,0.0090,-0.5496,0.3033,0.8671,0.6033,-0.1688,-0.0273,
0.602032,0.0391,0.9623,-0.0230,-0.5496,0.3033,0.8671,0.6033,-0.1688,-0.0273,
0.606890,-0.0452,0.9732,-0.0759,-0.5496,0.3033,0.8671,0.6033,-0.1688,-0.0273,
0.637227,-0.0452,0.9732,-0.0759,-0.5496,0.3033,0.8671,0.8466,-0.1215,-0.1376,
0.645978,-0.0452,0.9732,-0.0759,0.4998,-0.1201,0.8748,0.8466,-0.1215,-0.1376,
0.656418,-0.1077,0.9908,-0.1038,0.4998,-0.1201,0.8748,0.8466,-0.1215,-0.1376,
0.657926,-0.1194,1.0104,-0.0818,0.4998,-0.1201,0.8748,0.8466,-0.1215,-0.1376,
0.658747,-0.0469,1.0506,-0.0002,0.4998,-0.1201,0.8748,0.8466,-0.1215,-0.1376,
0.695920,-0.0469,1.0506,-0.0002,0.4998,-0.1201,0.8748,1.2168,-0.7479,0.0562,
0.698502,-0.0469,1.0506,-0.0002,-0.5110,0.3882,1.1266,1.2168,-0.7479,0.0562,
0.718369,0.0291,1.0807,0.0588,-0.5110,0.3882,1.1266,1.2168,-0.7479,0.0562,
0.727873,-0.0315,1.0970,-0.0723,-0.5110,0.3882,1.1266,1.2168,-0.7479,0.0562,
0.729065,-0.1658,1.1124,-0.0576,-0.5110,0.3882,1.1266,1.2168,-0.7479,0.0562,
0.753712,-0.1658,1.1124,-0.0576,-0.5110,0.3882,1.1266,1.6125,-0.7065,0.1316,
0.755904,-0.1658,1.1124,-0.0576,-0.1382,1.2628,2.1950,1.6125,-0.7065,0.1316,
0.775738,-0.1992,1.1368,-0.0168,-0.1382,1.2628,2.1950,1.6125,-0.7065,0.1316,
0.777777,-0.1914,1.1986,-0.1358,-0.1382,1.2628,2.1950,1.6125,-0.7065,0.1316,
0.779285,-0.2422,1.2321,-0.2224,-0.1382,1.2628,2.1950,1.6125,-0.7065,0.1316,
0.813374,-0.2422,1.2321,-0.2224,-0.1382,1.2628,2.1950,1.6029,-1.7739,0.1055,
0.817461,-0.2422,1.2321,-0.2224,-1.3140,2.2580,1.8786,1.6029,-1.7739,0.1055,
0.837088,-0.3455,1.3705,-0.1118,-1.3140,2.2580,1.8786,1.6029,-1.7739,0.1055,
0.839632,-0.4195,1.4770,-0.1851,-1.3140,2.2580,1.8786,1.6029,-1.7739,0.1055,
0.841901,-0.4573,1.5295,-0.3369,-1.3140,2.2580,1.8786,1.6029,-1.7739,0.1055,
0.870806,-0.4573,1.5295,-0.3369,-1.3140,2.2580,1.8786,0.7422,-4.4430,0.1104,
0.873113,-0.4573,1.5295,-0.3369,-2.2972,4.6987,1.0661,0.7422,-4.4430,0.1104,
0.894637,-0.1673,1.4328,-0.2229,-2.2972,4.6987,1.0661,0.7422,-4.4430,0.1104,
0.903821,0.2967,1.1508,-0.0200,-2.2972,4.6987,1.0661,0.7422,-4.4430,0.1104,
0.906269,0.7779,0.8968,0.0034,-2.2972,4.6987,1.0661,0.7422,-4.4430,0.1104,
0.929330,0.7779,0.8968,0.0034,-2.2972,4.6987,1.0661,-0.4140,-4.3539,1.0124,
0.931488,0.7779,0.8968,0.0034,4.5101,1.4967,1.5518,-0.4140,-4.3539,1.0124,
0.953070,0.9034,0.7662,0.0051,4.5101,1.4967,1.5518,-0.4140,-4.3539,1.0124,
0.955180,0.6729,0.7305,0.0178,4.5101,1.4967,1.5518,-0.4140,-4.3539,1.0124,
0.956595,0.5203,0.6868,-0.0608,4.5101,1.4967,1.5518,-0.4140,-4.3539,1.0124,
0.986370,0.5203,0.6868,-0.0608,4.5101,1.4967,1.5518,-0.4266,-2.3082,2.1279,
0.988955,0.5203,0.6868,-0.0608,7.0059,-2.7574,1.6920,-0.4266,-2.3082,2.1279,
1.006430,0.3951,0.6495,-0.1392,7.0059,-2.7574,1.6920,-0.4266,-2.3082,2.1279,
1.008379,0.2752,0.6536,-0.2156,7.0059,-2.7574,1.6920,-0.4266,-2.3082,2.1279,
1.009535,0.2276,0.6666,-0.2945,7.0059,-2.7574,1.6920,-0.4266,-2.3082,2.1279,
1.045936,0.2276,0.6666,-0.2945,7.0059,-2.7574,1.6920,-0.5429,-1.7652,3.8041,
1.050256,0.2276,0.6666,-0.2945,1.0150,-3.1383,-0.5139,-0.5429,-1.7652,3.8041,
1.068244,0.1834,0.6846,-0.3289,1.0150,-3.1383,-0.5139,-0.5429,-1.7652,3.8041,
1.071676,0.0464,0.7918,-0.3626,1.0150,-3.1383,-0.5139,-0.5429,-1.7652,3.8041,
1.073396,-0.0855,0.9457,-0.4417,1.0150,-3.1383,-0.5139,-0.5429,-1.7652,3.8041,
1.103243,-0.0855,0.9457,-0.4417,1.0150,-3.1383,-0.5139,-0.5610,-2.0511,4.0075,
1.105558,-0.0855,0.9457,-0.4417,-3.2464,-0.9757,-1.9399,-0.5610,-2.0511,4.0075,
1.123940,-0.2405,0.9886,-0.3501,-3.2464,-0.9757,-1.9399,-0.5610,-2.0511,4.0075,
1.126793,-0.4175,0.9894,-0.2237,-3.2464,-0.9757,-1.9399,-0.5610,-2.0511,4.0075,
1.128549,-0.4993,1.0304,-0.1868,-3.2464,-0.9757,-1.9399,-0.5610,-2.0511,4.0075,
1.161885,-0.4993,1.0304,-0.1868,-3.2464,-0.9757,-1.9399,-0.7176,-1.8927,2.1916,
1.164700,-0.4993,1.0304,-0.1868,-7.9848,1.3288,-0.5841,-0.7176,-1.8927,2.1916,
1.183409,-0.6026,1.0670,-0.0232,-7.9848,1.3288,-0.5841,-0.7176,-1.8927,2.1916,
1.188518,-0.7628,1.1190,0.0474,-7.9848,1.3288,-0.5841,-0.7176,-1.8927,2.1916,
1.192562,-0.7088,1.0897,0.0193,-7.9848,1.3288,-0.5841,-0.7176,-1.8927,2.1916,
1.220013,-0.7088,1.0897,0.0193,-7.9848,1.3288,-0.5841,-0.4606,-1.1130,-1.9236,
1.222162,-0.7088,1.0897,0.0193,-9.4035,1.6608,1.9642,-0.4606,-1.1130,-1.9236,
1.239679,-0.5196,1.2682,-0.6810,-9.4035,1.6608,1.9642,-0.4606,-1.1130,-1.9236,
1.242371,-0.5606,2.7224,-1.3346,-9.4035,1.6608,1.9642,-0.4606,-1.1130,-1.9236,
1.245455,1.3036,2.1181,0.9535,-9.4035,1.6608,1.9642,-0.4606,-1.1130,-1.9236,
1.279501,1.3036,2.1181,0.9535,-9.4035,1.6608,1.9642,-0.3464,-1.7627,-2.7652,
1.284075,1.3036,2.1181,0.9535,-0.2105,10.1075,-1.5748,-0.3464,-1.7627,-2.7652,
1.307143,0.8475,-0.2805,-0.9513,-0.2105,10.1075,-1.5748,-0.3464,-1.7627,-2.7652,
1.310343,-0.7254,-0.0510,-0.3494,-0.2105,10.1075,-1.5748,-0.3464,-1.7627,-2.7652,
1.312844,-1.0880,1.2699,0.1189,-0.2105,10.1075,-1.5748,-0.3464,-1.7627,-2.7652,
1.336828,-1.0880,1.2699,0.1189,-0.2105,10.1075,-1.5748,-0.3739,-0.1826,-2.2240,
1.338758,-1.0880,1.2699,0.1189,-2.6697,-6.5593,-2.0746,-0.3739,-0.1826,-2.2240,
1.356460,-0.4688,1.6020,-0.3326,-2.6697,-6.5593,-2.0746,-0.3739,-0.1826,-2.2240,
1.359418,-0.4014,1.0873,0.0877,-2.6697,-6.5593,-2.0746,-0.3739,-0.1826,-2.2240,
1.360927,-0.1968,0.8377,-0.2005,-2.6697,-6.5593,-2.0746,-0.3739,-0.1826,-2.2240,
1.395896,-0.1968,0.8377,-0.2005,-2.6697,-6.5593,-2.0746,0.0631,-0.5394,-1.3435,
1.398709,-0.1968,0.8377,-0.2005,-2.1010,1.8905,0.3216,0.0631,-0.5394,-1.3435,
1.422254,-0.1565,0.9537,-0.2688,-2.1010,1.8905,0.3216,0.0631,-0.5394,-1.3435,
1.424491,-0.1975,1.0553,-0.2447,-2.1010,1.8905,0.3216,0.0631,-0.5394,-1.3435,
1.426442,-0.2871,1.0685,-0.1616,-2.1010,1.8905,0.3216,0.0631,-0.5394,-1.3435,
1.453742,-0.2871,1.0685,-0.1616,-2.1010,1.8905,0.3216,0.1539,-0.1053,-1.1618,
1.455734,-0.2871,1.0685,-0.1616,-0.0486,0.5326,-0.3382,0.1539,-0.1053,-1.1618,
1.473803,-0.3570,1.0441,-0.2249,-0.0486,0.5326,-0.3382,0.1539,-0.1053,-1.1618,
1.476735,-0.3589,0.9806,-0.2564,-0.0486,0.5326,-0.3382,0.1539,-0.1053,-1.1618,
1.478051,-0.2683,0.9835,-0.2193,-0.0486,0.5326,-0.3382,0.1539,-0.1053,-1.1618,
1.516578,-0.2683,0.9835,-0.2193,-0.0486,0.5326,-0.3382,0.1580,-0.3494,-0.9124,
1.519272,-0.2683,0.9835,-0.2193,-0.6035,0.4295,-0.3675,0.1580,-0.3494,-0.9124,
1.532496,-0.1958,1.0226,-0.1839,-0.6035,0.4295,-0.3675,0.1580,-0.3494,-0.9124,
1.535184,-0.2158,1.0296,-0.1651,-0.6035,0.4295,-0.3675,0.1580,-0.3494,-0.9124,
1.536819,-0.2525,0.9522,-0.1682,-0.6035,0.4295,-0.3675,0.1580,-0.3494,-0.9124,
1.571157,-0.2525,0.9522,-0.1682,-0.6035,0.4295,-0.3675,0.1541,0.1584,-1.0285,
1.573986,-0.2525,0.9522,-0.1682,0.9459,0.5861,0.3306,0.1541,0.1584,-1.0285,
1.591902,-0.3020,0.8995,-0.1160,0.9459,0.5861,0.3306,0.1541,0.1584,-1.0285,
1.595026,-0.3443,0.8954,-0.0725,0.9459,0.5861,0.3306,0.1541,0.1584,-1.0285,
1.597554,-0.3689,0.9088,-0.0537,0.9459,0.5861,0.3306,0.1541,0.1584,-1.0285,
1.628391,-0.3689,0.9088,-0.0537,0.9459,0.5861,0.3306,0.1723,0.6050,-1.0114,
1.630391,-0.3689,0.9088,-0.0537,0.2525,-0.1712,1.3882,0.1723,0.6050,-1.0114,
1.648418,-0.3040,0.9312,-0.0833,0.2525,-0.1712,1.3882,0.1723,0.6050,-1.0114,
1.651289,-0.1885,1.0086,-0.1499,0.2525,-0.1712,1.3882,0.1723,0.6050,-1.0114,
1.655435,-0.0498,1.0680,-0.2542,0.2525,-0.1712,1.3882,0.1723,0.6050,-1.0114,
1.686973,-0.0498,1.0680,-0.2542,2.3376,1.1526,0.9161,0.1723,0.6050,-1.0114,
1.689110,-0.0498,1.0680,-0.2542,2.3376,1.1526,0.9161,0.4942,0.4779,-1.3384,
1.706324,0.1104,1.1361,-0.3457,2.3376,1.1526,0.9161,0.4942,0.4779,-1.3384,
1.708261,0.2022,1.3060,-0.3140,2.3376,1.1526,0.9161,0.4942,0.4779,-1.3384,
1.709447,0.3457,1.4926,-0.0825,2.3376,1.1526,0.9161,0.4942,0.4779,-1.3384,
1.746007,0.3457,1.4926,-0.0825,7.0099,4.6979,0.4705,0.4942,0.4779,-1.3384,
1.748912,0.3457,1.4926,-0.0825,7.0099,4.6979,0.4705,0.9778,-0.2565,-1.9521,
1.765198,0.7203,1.7316,0.1025,7.0099,4.6979,0.4705,0.9778,-0.2565,-1.9521,
1.767907,1.1610,2.0930,0.1592,7.0099,4.6979,0.4705,0.9778,-0.2565,-1.9521,
1.772548,0.9627,1.8361,0.1799,7.0099,4.6979,0.4705,0.9778,-0.2565,-1.9521,
1.803329,0.9627,1.8361,0.1799,15.0597,11.4637,5.1464,0.9778,-0.2565,-1.9521,
1.805265,0.9627,1.8361,0.1799,15.0597,11.4637,5.1464,1.2667,1.2900,-3.8544,
1.823442,-0.1155,1.6701,-0.0410,15.0597,11.4637,5.1464,1.2667,1.2900,-3.8544,
1.826525,-0.6129,1.6872,-0.0747,15.0597,11.4637,5.1464,1.2667,1.2900,-3.8544,
1.828810,-0.8177,1.2457,-0.0369,15.0597,11.4637,5.1464,1.2667,1.2900,-3.8544,
1.861645,-0.8177,1.2457,-0.0369,15.0597,11.4637,5.1464,1.4040,0.1336,-2.9615,
1.863367,-0.8177,1.2457,-0.0369,1.7322,9.1337,3.6472,1.4040,0.1336,-2.9615,
1.880709,-1.1005,0.9845,-0.4649,1.7322,9.1337,3.6472,1.4040,0.1336,-2.9615,
1.882078,-1.2472,0.8780,-0.6417,1.7322,9.1337,3.6472,1.4040,0.1336,-2.9615,
1.882981,-0.6580,0.5572,-0.5088,1.7322,9.1337,3.6472,1.4040,0.1336,-2.9615,
1.919648,-0.6580,0.5572,-0.5088,1.7322,9.1337,3.6472,-0.8742,-0.7572,1.9811,
1.921644,-0.6580,0.5572,-0.5088,-3.4930,1.0213,-1.6953,-0.8742,-0.7572,1.9811,
1.945807,-0.3609,0.1416,-0.2097,-3.4930,1.0213,-1.6953,-0.8742,-0.7572,1.9811,
1.948452,-0.3340,0.0574,0.0024,-3.4930,1.0213,-1.6953,-0.8742,-0.7572,1.9811,
1.950898,-0.1658,0.0718,-0.0330,-3.4930,1.0213,-1.6953,-0.8742,-0.7572,1.9811,
1.978239,-0.1658,0.0718,-0.0330,-3.4930,1.0213,-1.6953,-1.2747,-1.0413,4.6601,
1.980179,-0.1658,0.0718,-0.0330,1.5407,-7.4747,1.8336,-1.2747,-1.0413,4.6601,
1.997855,-0.0986,0.2146,-0.1568,1.5407,-7.4747,1.8336,-1.2747,-1.0413,4.6601,
1.999541,-0.1922,0.3750,-0.3418,1.5407,-7.4747,1.8336,-1.2747,-1.0413,4.6601,
2.001333,-0.2644,0.4961,-0.2512,1.5407,-7.4747,1.8336,-1.2747,-1.0413,4.6601,
2.038452,-0.2644,0.4961,-0.2512,1.5407,-7.4747,1.8336,-1.5598,-0.0222,6.3323,
2.040948,-0.2644,0.4961,-0.2512,-0.7819,-5.8470,-0.6565,-1.5598,-0.0222,6.3323,
2.057723,-0.2063,0.5484,-0.1922,-0.7819,-5.8470,-0.6565,-1.5598,-0.0222,6.3323,
2.060731,-0.1116,0.6837,-0.2666,-0.7819,-5.8470,-0.6565,-1.5598,-0.0222,6.3323,
2.063621,-0.1360,1.0826,-0.3445,-0.7819,-5.8470,-0.6565,-1.5598,-0.0222,6.3323,
2.094959,-0.1360,1.0826,-0.3445,-0.7819,-5.8470,-0.6565,-1.8129,1.2157,6.7119,
2.097018,-0.1360,1.0826,-0.3445,-4.1089,-1.5849,-1.8573,-1.8129,1.2157,6.7119,
2.114293,-0.4134,1.7177,-0.5379,-4.1089,-1.5849,-1.8573,-1.8129,1.2157,6.7119,
2.117211,-0.6343,1.9362,-0.7552,-4.1089,-1.5849,-1.8573,-1.8129,1.2157,6.7119,
2.119428,-0.8390,1.7270,-0.6829,-4.1089,-1.5849,-1.8573,-1.8129,1.2157,6.7119,
2.154070,-0.8390,1.7270,-0.6829,-4.1089,-1.5849,-1.8573,-1.8222,1.8318,4.0332,
2.159131,-0.8390,1.7270,-0.6829,-10.5683,9.0362,-6.8385,-1.8222,1.8318,4.0332,
2.187160,-1.1595,1.3129,-0.5115,-10.5683,9.0362,-6.8385,-1.8222,1.8318,4.0332,
2.189552,-1.5583,0.9803,-0.3355,-10.5683,9.0362,-6.8385,-1.8222,1.8318,4.0332,
2.198780,-1.7214,0.8582,-0.4180,-10.5683,9.0362,-6.8385,-1.8222,1.8318,4.0332,
2.212286,-1.7214,0.8582,-0.4180,-18.4943,1.7498,-4.3518,-1.8222,1.8318,4.0332,
2.215116,-1.7214,0.8582,-0.4180,-18.4943,1.7498,-4.3518,-0.4681,-1.0268,0.1194,
2.230871,-1.3761,0.7420,-0.2288,-18.4943,1.7498,-4.3518,-0.4681,-1.0268,0.1194,
2.232697,-0.6551,0.8426,-0.2002,-18.4943,1.7498,-4.3518,-0.4681,-1.0268,0.1194,
2.234069,-0.5113,1.6413,-0.5784,-18.4943,1.7498,-4.3518,-0.4681,-1.0268,0.1194,
2.271630,-0.5113,1.6413,-0.5784,-11.3169,1.6623,-3.4307,-0.4681,-1.0268,0.1194,
2.275825,-0.5113,1.6413,-0.5784,-11.3169,1.6623,-3.4307,-0.6457,-1.4646,-1.3858,
2.290853,1.0353,2.4912,0.4104,-11.3169,1.6623,-3.4307,-0.6457,-1.4646,-1.3858,
2.294352,1.9248,1.8549,0.9442,-11.3169,1.6623,-3.4307,-0.6457,-1.4646,-1.3858,
2.299096,-0.3272,1.1034,-2.0251,-11.3169,1.6623,-3.4307,-0.6457,-1.4646,-1.3858,
2.330819,-0.3272,1.1034,-2.0251,-11.3169,1.6623,-3.4307,0.6208,-0.3305,-3.6573,
2.336677,-0.3272,1.1034,-2.0251,7.3460,8.2799,-1.8968,0.6208,-0.3305,-3.6573,
2.367203,-0.6607,0.6246,-0.7486,7.3460,8.2799,-1.8968,0.6208,-0.3305,-3.6573,
2.369613,-0.9723,0.6341,0.5811,7.3460,8.2799,-1.8968,0.6208,-0.3305,-3.6573,
2.370911,-0.5782,0.9891,0.0606,7.3460,8.2799,-1.8968,0.6208,-0.3305,-3.6573,
2.386871,-0.5782,0.9891,0.0606,-7.5174,-2.1926,0.0021,0.6208,-0.3305,-3.6573,
2.389874,-0.5782,0.9891,0.0606,-7.5174,-2.1926,0.0021,0.0753,-0.3671,-1.3704,
2.407293,-0.1174,1.1715,0.0398,-7.5174,-2.1926,0.0021,0.0753,-0.3671,-1.3704,
2.408944,0.0527,1.1373,-0.1978,-7.5174,-2.1926,0.0021,0.0753,-0.3671,-1.3704,
2.409760,0.0300,1.0160,-0.0476,-7.5174,-2.1926,0.0021,0.0753,-0.3671,-1.3704,
2.445689,0.0300,1.0160,-0.0476,-7.5174,-2.1926,0.0021,0.0949,0.2065,-1.1502,
2.447612,0.0300,1.0160,-0.0476,0.2221,1.2977,-0.2589,0.0949,0.2065,-1.1502,
2.464755,-0.1133,1.0091,-0.1214,0.2221,1.2977,-0.2589,0.0949,0.2065,-1.1502,
2.467504,-0.1670,1.0292,-0.0012,0.2221,1.2977,-0.2589,0.0949,0.2065,-1.1502,
2.469972,-0.1502,1.0306,0.0579,0.2221,1.2977,-0.2589,0.0949,0.2065,-1.1502,
2.505740,-0.1502,1.0306,0.0579,0.2221,1.2977,-0.2589,0.1777,0.1167,-0.9635,
2.508471,-0.1502,1.0306,0.0579,-0.5250,0.4889,0.2971,0.1777,0.1167,-0.9635,
2.524403,-0.0513,0.9889,0.0022,-0.5250,0.4889,0.2971,0.1777,0.1167,-0.9635,
2.526915,-0.0198,0.9811,-0.0137,-0.5250,0.4889,0.2971,0.1777,0.1167,-0.9635,
2.529285,-0.0227,0.9896,-0.0161,-0.5250,0.4889,0.2971,0.1777,0.1167,-0.9635,
2.562237,-0.0227,0.9896,-0.0161,-0.5250,0.4889,0.2971,0.2565,0.3401,-1.1981,
2.564790,-0.0227,0.9896,-0.0161,1.1986,0.2197,0.5716,0.2565,0.3401,-1.1981,
2.583106,-0.0908,0.9840,-0.0439,1.1986,0.2197,0.5716,0.2565,0.3401,-1.1981,
2.585427,-0.1785,0.9708,-0.0581,1.1986,0.2197,0.5716,0.2565,0.3401,-1.1981,
2.586890,-0.2307,0.9896,-0.0720,1.1986,0.2197,0.5716,0.2565,0.3401,-1.1981,
2.620917,-0.2307,0.9896,-0.0720,1.1986,0.2197,0.5716,0.2881,0.4297,-1.3027,
2.623389,-0.2307,0.9896,-0.0720,0.5524,0.3167,0.2907,0.2881,0.4297,-1.3027,
2.640503,-0.2405,1.0062,-0.0557,0.5524,0.3167,0.2907,0.2881,0.4297,-1.3027,
2.643071,-0.1692,0.9564,-0.0667,0.5524,0.3167,0.2907,0.2881,0.4297,-1.3027,
2.646312,-0.0757,0.8946,-0.0869,0.5524,0.3167,0.2907,0.2881,0.4297,-1.3027,
2.679312,-0.0757,0.8946,-0.0869,0.5524,0.3167,0.2907,0.3704,0.2032,-1.6057,
2.683674,-0.0757,0.8946,-0.0869,1.4172,0.2912,0.3952,0.3704,0.2032,-1.6057,
2.698159,-0.1294,0.9249,-0.1260,1.4172,0.2912,0.3952,0.3704,0.2032,-1.6057,
2.699893,-0.2312,1.0494,-0.0881,1.4172,0.2912,0.3952,0.3704,0.2032,-1.6057,
2.700873,-0.2503,1.1339,-0.1028,1.4172,0.2912,0.3952,0.3704,0.2032,-1.6057,
2.744052,-0.2503,1.1339,-0.1028,1.4172,0.2912,0.3952,0.5184,-0.0112,-1.9696,
2.747107,-0.2503,1.1339,-0.1028,1.9799,1.5185,0.3005,0.5184,-0.0112,-1.9696,
2.757805,-0.2005,1.1381,-0.1350,1.9799,1.5185,0.3005,0.5184,-0.0112,-1.9696,
2.759763,-0.1897,1.1620,-0.1702,1.9799,1.5185,0.3005,0.5184,-0.0112,-1.9696,
2.761594,-0.1633,1.2184,-0.1799,1.9799,1.5185,0.3005,0.5184,-0.0112,-1.9696,
2.795616,-0.1633,1.2184,-0.1799,1.9799,1.5185,0.3005,0.7499,0.2969,-2.2545,
2.797675,-0.1633,1.2184,-0.1799,3.1662,3.4472,0.1899,0.7499,0.2969,-2.2545,
2.814224,-0.0796,1.2343,-0.2354,3.1662,3.4472,0.1899,0.7499,0.2969,-2.2545,
2.816525,0.0620,1.4599,-0.2259,3.1662,3.4472,0.1899,0.7499,0.2969,-2.2545,
2.819709,0.4742,1.9838,-0.1045,3.1662,3.4472,0.1899,0.7499,0.2969,-2.2545,
2.852883,0.4742,1.9838,-0.1045,3.1662,3.4472,0.1899,0.9173,1.1637,-2.2651,
2.853702,0.4742,1.9838,-0.1045,7.1781,7.9022,0.6926,0.9173,1.1637,-2.2651,
2.873078,1.2098,2.0871,-0.1150,7.1781,7.9022,0.6926,0.9173,1.1637,-2.2651,
2.873858,1.0526,1.3842,-0.0144,7.1781,7.9022,0.6926,0.9173,1.1637,-2.2651,
2.874291,-0.4444,1.0878,-0.0034,7.1781,7.9022,0.6926,0.9173,1.1637,-2.2651,
2.911188,-0.4444,1.0878,-0.0034,7.1781,7.9022,0.6926,1.5860,1.7876,-4.2079,
2.912073,-0.4444,1.0878,-0.0034,12.6293,9.1829,3.3025,1.5860,1.7876,-4.2079,
2.931828,-1.4042,1.5016,-0.2307,12.6293,9.1829,3.3025,1.5860,1.7876,-4.2079,
2.932458,-1.4306,1.4132,-0.2788,12.6293,9.1829,3.3025,1.5860,1.7876,-4.2079,
2.933099,-0.9527,0.7752,-0.2005,12.6293,9.1829,3.3025,1.5860,1.7876,-4.2079,
2.969780,-0.9527,0.7752,-0.2005,12.6293,9.1829,3.3025,0.6265,-0.6974,-0.3803,
2.970554,-0.9527,0.7752,-0.2005,-5.2967,6.5014,1.3067,0.6265,-0.6974,-0.3803,
2.989507,-0.8663,0.5560,-0.1878,-5.2967,6.5014,1.3067,0.6265,-0.6974,-0.3803,
2.991008,-0.6297,0.3621,-0.4334,-5.2967,6.5014,1.3067,0.6265,-0.6974,-0.3803,
2.992042,-0.3140,0.1550,0.1670,-5.2967,6.5014,1.3067,0.6265,-0.6974,-0.3803,
3.029023,-0.3140,0.1550,0.1670,-5.2967,6.5014,1.3067,-0.3598,-1.0374,3.2299,
3.030991,-0.3140,0.1550,0.1670,0.1926,-3.3000,1.5726,-0.3598,-1.0374,3.2299,
3.048011,-0.2625,-0.0403,0.3113,0.1926,-3.3000,1.5726,-0.3598,-1.0374,3.2299,
3.050614,-0.1917,-0.0042,0.1604,0.1926,-3.3000,1.5726,-0.3598,-1.0374,3.2299,
3.052479,-0.1431,0.1743,-0.0603,0.1926,-3.3000,1.5726,-0.3598,-1.0374,3.2299,
3.087979,-0.1431,0.1743,-0.0603,0.1926,-3.3000,1.5726,0.4471,-0.9332,5.1855,
3.090652,-0.1431,0.1743,-0.0603,1.9804,-7.6925,4.2400,0.4471,-0.9332,5.1855,
3.113923,-0.2666,0.4080,-0.0584,1.9804,-7.6925,4.2400,0.4471,-0.9332,5.1855,
3.115709,-0.4720,0.5523,-0.3155,1.9804,-7.6925,4.2400,0.4471,-0.9332,5.1855,
3.117211,-0.6522,0.6607,-0.1875,1.9804,-7.6925,4.2400,0.4471,-0.9332,5.1855,
3.149415,-0.6522,0.6607,-0.1875,1.9804,-7.6925,4.2400,0.5754,-2.0641,6.3970,
3.151460,-0.6522,0.6607,-0.1875,-3.4196,-3.5938,1.0403,0.5754,-2.0641,6.3970,
3.165753,-0.7647,0.7449,-0.1585,-3.4196,-3.5938,1.0403,0.5754,-2.0641,6.3970,
3.167811,-1.0760,0.9608,-0.3904,-3.4196,-3.5938,1.0403,0.5754,-2.0641,6.3970,
3.169421,-1.3305,1.1288,-0.4436,-3.4196,-3.5938,1.0403,0.5754,-2.0641,6.3970,
3.204311,-1.3305,1.1288,-0.4436,-11.4338,0.7434,0.5615,0.5754,-2.0641,6.3970,
3.207841,-1.3305,1.1288,-0.4436,-11.4338,0.7434,0.5615,1.6062,-6.6845,7.1814,
3.239236,-0.9693,1.0824,-0.6175,-11.4338,0.7434,0.5615,1.6062,-6.6845,7.1814,
3.242954,-0.5543,1.2089,-0.5858,-11.4338,0.7434,0.5615,1.6062,-6.6845,7.1814,
3.246161,-0.3247,1.3751,-0.3479,-11.4338,0.7434,0.5615,1.6062,-6.6845,7.1814,
3.261748,-0.3247,1.3751,-0.3479,-11.4338,0.7434,0.5615,1.1812,-8.6917,5.0531,
3.263976,-0.3247,1.3751,-0.3479,-7.1354,4.0873,-0.0165,1.1812,-8.6917,5.0531,
3.280935,-0.1890,1.4140,-0.0347,-7.1354,4.0873,-0.0165,1.1812,-8.6917,5.0531,
3.282503,-0.0764,1.3737,0.3531,-7.1354,4.0873,-0.0165,1.1812,-8.6917,5.0531,
3.283206,-0.0681,1.1459,0.7156,-7.1354,4.0873,-0.0165,1.1812,-8.6917,5.0531,
3.321006,-0.0681,1.1459,0.7156,-1.5357,4.8803,8.3866,1.1812,-8.6917,5.0531,
3.323933,-0.0681,1.1459,0.7156,-1.5357,4.8803,8.3866,-0.2161,-4.0531,1.3146,
3.351877,-0.1326,0.7857,0.6458,-1.5357,4.8803,8.3866,-0.2161,-4.0531,1.3146,
3.356241,-0.7808,1.1024,-0.2713,-1.5357,4.8803,8.3866,-0.2161,-4.0531,1.3146,
3.359357,-1.2013,1.6088,1.2633,-1.5357,4.8803,8.3866,-0.2161,-4.0531,1.3146,
3.378172,-1.2013,1.6088,1.2633,-1.5357,4.8803,8.3866,-0.9951,-0.9126,-0.7469,
3.380213,-1.2013,1.6088,1.2633,-6.6192,3.1214,9.7345,-0.9951,-0.9126,-0.7469,
3.398383,-0.0447,0.9286,0.7200,-6.6192,3.1214,9.7345,-0.9951,-0.9126,-0.7469,
3.400898,0.2915,1.2772,-0.5401,-6.6192,3.1214,9.7345,-0.9951,-0.9126,-0.7469,
3.403110,0.4117,1.9553,-1.3725,-6.6192,3.1214,9.7345,-0.9951,-0.9126,-0.7469,
3.437536,0.4117,1.9553,-1.3725,-6.6192,3.1214,9.7345,-0.8359,-0.6465,-0.5548,
3.441650,0.4117,1.9553,-1.3725,2.8208,5.0173,0.0590,-0.8359,-0.6465,-0.5548,
3.457127,0.4060,1.5180,-0.9918,2.8208,5.0173,0.0590,-0.8359,-0.6465,-0.5548,
3.461389,-0.0505,0.8705,-0.2810,2.8208,5.0173,0.0590,-0.8359,-0.6465,-0.5548,
3.465479,-0.3147,0.7640,-0.1106,2.8208,5.0173,0.0590,-0.8359,-0.6465,-0.5548,
3.494912,-0.3147,0.7640,-0.1106,2.8208,5.0173,0.0590,-0.7595,-0.7177,-0.4005,
3.497350,-0.3147,0.7640,-0.1106,1.1420,1.5498,-0.9674,-0.7595,-0.7177,-0.4005,
3.514994,-0.4671,0.8932,0.0996,1.1420,1.5498,-0.9674,-0.7595,-0.7177,-0.4005,
3.518850,-0.2869,0.9742,-0.0864,1.1420,1.5498,-0.9674,-0.7595,-0.7177,-0.4005,
3.521889,-0.1819,0.9542,-0.2461,1.1420,1.5498,-0.9674,-0.7595,-0.7177,-0.4005,
3.553946,-0.1819,0.9542,-0.2461,1.1420,1.5498,-0.9674,-0.3148,-0.0941,0.1990,
3.559385,-0.1819,0.9542,-0.2461,-2.0957,0.3874,2.5801,-0.3148,-0.0941,0.1990,
3.572977,-0.1926,0.9300,-0.4346,-2.0957,0.3874,2.5801,-0.3148,-0.0941,0.1990,
3.576355,-0.2769,0.9295,-0.3919,-2.0957,0.3874,2.5801,-0.3148,-0.0941,0.1990,
3.577841,-0.3746,0.9237,-0.3245,-2.0957,0.3874,2.5801,-0.3148,-0.0941,0.1990,
3.612672,-0.3746,0.9237,-0.3245,-2.0957,0.3874,2.5801,-0.3814,-0.4084,0.6355,
3.617036,-0.3746,0.9237,-0.3245,-2.0142,0.1567,-0.6257,-0.3814,-0.4084,0.6355,
3.631217,-0.2364,0.9540,-0.2398,-2.0142,0.1567,-0.6257,-0.3814,-0.4084,0.6355,
3.633524,0.0601,0.9500,-0.2244,-2.0142,0.1567,-0.6257,-0.3814,-0.4084,0.6355,
3.634598,0.2061,0.9007,-0.2185,-2.0142,0.1567,-0.6257,-0.3814,-0.4084,0.6355,
3.670392,0.2061,0.9007,-0.2185,-2.0142,0.1567,-0.6257,-0.2488,-0.3616,0.4022,
3.673889,0.2061,0.9007,-0.2185,0.6830,0.1639,0.7474,-0.2488,-0.3616,0.4022,
3.690230,0.1738,0.9078,-0.2168,0.6830,0.1639,0.7474,-0.2488,-0.3616,0.4022,
3.696573,0.0593,0.9464,-0.2237,0.6830,0.1639,0.7474,-0.2488,-0.3616,0.4022,
3.699182,-0.0625,0.9513,-0.1516,0.6830,0.1639,0.7474,-0.2488,-0.3616,0.4022,
3.729098,-0.0625,0.9513,-0.1516,0.6830,0.1639,0.7474,-0.0387,-0.4803,-0.0641,
3.732909,-0.0625,0.9513,-0.1516,1.2386,0.1595,0.9887,-0.0387,-0.4803,-0.0641,
3.748930,-0.0183,0.9654,-0.1489,1.2386,0.1595,0.9887,-0.0387,-0.4803,-0.0641,
3.753536,0.0576,0.9925,-0.0566,1.2386,0.1595,0.9887,-0.0387,-0.4803,-0.0641,
3.758462,0.1079,0.9725,-0.0723,1.2386,0.1595,0.9887,-0.0387,-0.4803,-0.0641,
3.787370,0.1079,0.9725,-0.0723,1.2386,0.1595,0.9887,0.3447,-0.3879,-0.3820,
3.790846,0.1079,0.9725,-0.0723,1.4055,0.6358,2.1411,0.3447,-0.3879,-0.3820,
3.818407,0.0552,0.9500,-0.2979,1.4055,0.6358,2.1411,0.3447,-0.3879,-0.3820,
3.820507,-0.1372,0.9569,-0.3301,1.4055,0.6358,2.1411,0.3447,-0.3879,-0.3820,
3.822116,-0.2998,0.9855,-0.1585,1.4055,0.6358,2.1411,0.3447,-0.3879,-0.3820,
3.845203,-0.2998,0.9855,-0.1585,1.4055,0.6358,2.1411,0.5257,-0.2360,-0.3518,
3.847590,-0.2998,0.9855,-0.1585,-0.0955,0.6196,0.7256,0.5257,-0.2360,-0.3518,
3.865143,-0.2122,0.9940,-0.1873,-0.0955,0.6196,0.7256,0.5257,-0.2360,-0.3518,
3.868278,-0.1257,0.9500,-0.2696,-0.0955,0.6196,0.7256,0.5257,-0.2360,-0.3518,
3.870466,-0.1375,0.9586,-0.3694,-0.0955,0.6196,0.7256,0.5257,-0.2360,-0.3518,
3.903082,-0.1375,0.9586,-0.3694,-0.0955,0.6196,0.7256,0.7821,-0.2142,-0.1812,
3.904427,-0.1375,0.9586,-0.3694,-0.2606,0.8113,0.9627,0.7821,-0.2142,-0.1812,
3.924143,-0.1626,0.9752,-0.3514,-0.2606,0.8113,0.9627,0.7821,-0.2142,-0.1812,
3.926787,-0.1211,1.0152,-0.3113,-0.2606,0.8113,0.9627,0.7821,-0.2142,-0.1812,
3.928098,0.0154,1.0431,-0.2473,-0.2606,0.8113,0.9627,0.7821,-0.2142,-0.1812,
3.962155,0.0154,1.0431,-0.2473,-0.2606,0.8113,0.9627,1.3262,-0.6225,-0.2238,
3.965553,0.0154,1.0431,-0.2473,0.6604,1.5383,1.2745,1.3262,-0.6225,-0.2238,
3.986269,0.0986,1.0607,-0.2508,0.6604,1.5383,1.2745,1.3262,-0.6225,-0.2238,
3.989394,0.1001,1.1371,-0.2764,0.6604,1.5383,1.2745,1.3262,-0.6225,-0.2238,
3.991855,0.2041,1.2890,-0.1897,0.6604,1.5383,1.2745,1.3262,-0.6225,-0.2238,
4.023953,0.2041,1.2890,-0.1897,0.6604,1.5383,1.2745,2.2657,-1.2437,-0.6389,
4.026184,0.2041,1.2890,-0.1897,3.4369,3.6502,2.7861,2.2657,-1.2437,-0.6389,
4.040253,0.3946,1.5758,-0.1367,3.4369,3.6502,2.7861,2.2657,-1.2437,-0.6389,
4.041793,0.5096,1.8300,-0.1138,3.4369,3.6502,2.7861,2.2657,-1.2437,-0.6389,
4.042524,0.4031,1.7612,-0.1231,3.4369,3.6502,2.7861,2.2657,-1.2437,-0.6389,
4.077819,0.4031,1.7612,-0.1231,3.4369,3.6502,2.7861,2.6284,-1.9790,-1.1816,
4.079368,0.4031,1.7612,-0.1231,7.4061,10.0074,4.6292,2.6284,-1.9790,-1.1816,
4.098473,-0.0295,1.4591,0.2742,7.4061,10.0074,4.6292,2.6284,-1.9790,-1.1816,
4.099965,-0.6861,1.2042,0.5416,7.4061,10.0074,4.6292,2.6284,-1.9790,-1.1816,
4.101420,-1.4081,1.2233,-0.0029,7.4061,10.0074,4.6292,2.6284,-1.9790,-1.1816,
4.136370,-1.4081,1.2233,-0.0029,7.4061,10.0074,4.6292,2.5147,-4.8914,-1.6074,
4.137606,-1.4081,1.2233,-0.0029,-1.5315,6.9590,8.0633,2.5147,-4.8914,-1.6074,
4.156630,-1.8351,1.4223,-0.3311,-1.5315,6.9590,8.0633,2.5147,-4.8914,-1.6074,
4.158251,-0.9593,1.3178,-0.6302,-1.5315,6.9590,8.0633,2.5147,-4.8914,-1.6074,
4.159440,0.1868,0.9439,-0.6273,-1.5315,6.9590,8.0633,2.5147,-4.8914,-1.6074,
4.194637,0.1868,0.9439,-0.6273,-1.5315,6.9590,8.0633,1.0458,-4.8676,2.0974,
4.196720,0.1868,0.9439,-0.6273,-2.4241,5.7718,-1.0791,1.0458,-4.8676,2.0974,
4.214187,1.0477,0.4363,0.2771,-2.4241,5.7718,-1.0791,1.0458,-4.8676,2.0974,
4.216327,0.4449,0.4202,0.5691,-2.4241,5.7718,-1.0791,1.0458,-4.8676,2.0974,
4.217236,-0.2476,0.5848,0.4322,-2.4241,5.7718,-1.0791,1.0458,-4.8676,2.0974,
4.252884,-0.2476,0.5848,0.4322,-2.4241,5.7718,-1.0791,0.5001,-2.3873,2.9143,
4.255580,-0.2476,0.5848,0.4322,9.3900,-2.4005,7.5250,0.5001,-2.3873,2.9143,
4.272908,-0.4441,0.6634,0.2940,9.3900,-2.4005,7.5250,0.5001,-2.3873,2.9143,
4.274393,-0.3142,0.6429,0.1687,9.3900,-2.4005,7.5250,0.5001,-2.3873,2.9143,
4.275272,-0.2112,0.6549,0.1506,9.3900,-2.4005,7.5250,0.5001,-2.3873,2.9143,
4.312331,-0.2112,0.6549,0.1506,9.3900,-2.4005,7.5250,-0.3427,-0.5516,5.2195,
4.316343,-0.2112,0.6549,0.1506,-0.1220,-2.0242,4.9475,-0.3427,-0.5516,5.2195,
4.332356,-0.1594,0.7684,0.0693,-0.1220,-2.0242,4.9475,-0.3427,-0.5516,5.2195,
4.334104,-0.1887,0.9488,0.0068,-0.1220,-2.0242,4.9475,-0.3427,-0.5516,5.2195,
4.336032,-0.2552,1.1459,-0.0388,-0.1220,-2.0242,4.9475,-0.3427,-0.5516,5.2195,
4.369872,-0.2552,1.1459,-0.0388,-0.1220,-2.0242,4.9475,-1.8082,-0.0197,5.8031,
4.372354,-0.2552,1.1459,-0.0388,-1.9012,0.1284,2.0773,-1.8082,-0.0197,5.8031,
4.392628,-0.4148,1.3349,-0.1172,-1.9012,0.1284,2.0773,-1.8082,-0.0197,5.8031,
4.394536,-0.6707,1.5693,-0.1904,-1.9012,0.1284,2.0773,-1.8082,-0.0197,5.8031,
4.395474,-0.7547,1.6230,-0.3443,-1.9012,0.1284,2.0773,-1.8082,-0.0197,5.8031,
4.427528,-0.7547,1.6230,-0.3443,-1.9012,0.1284,2.0773,-2.2378,0.1083,5.6998,
4.429317,-0.7547,1.6230,-0.3443,-8.8471,5.7775,-1.3583,-2.2378,0.1083,5.6998,
4.447596,-0.6666,1.4062,-0.3362,-8.8471,5.7775,-1.3583,-2.2378,0.1083,5.6998,
4.449048,-0.7418,1.3082,-0.1883,-8.8471,5.7775,-1.3583,-2.2378,0.1083,5.6998,
4.449888,-1.1212,1.2697,-0.3667,-8.8471,5.7775,-1.3583,-2.2378,0.1083,5.6998,
4.486178,-1.1212,1.2697,-0.3667,-8.8471,5.7775,-1.3583,-1.1920,0.3814,1.6553,
4.488080,-1.1212,1.2697,-0.3667,-11.7642,4.2177,-2.7852,-1.1920,0.3814,1.6553,
4.516900,-1.4958,1.0309,-0.5342,-11.7642,4.2177,-2.7852,-1.1920,0.3814,1.6553,
4.519865,-1.6093,0.6502,-0.4019,-11.7642,4.2177,-2.7852,-1.1920,0.3814,1.6553,
4.522799,-1.5133,0.6168,-0.6080,-11.7642,4.2177,-2.7852,-1.1920,0.3814,1.6553,
4.544574,-1.5133,0.6168,-0.6080,-11.7642,4.2177,-2.7852,-0.4905,-2.5542,-1.1622,
4.548461,-1.5133,0.6168,-0.6080,-17.6553,-1.4855,-4.6083,-0.4905,-2.5542,-1.1622,
4.567117,-0.9564,1.5470,-1.0843,-17.6553,-1.4855,-4.6083,-0.4905,-2.5542,-1.1622,
4.574034,1.1852,2.0080,0.0994,-17.6553,-1.4855,-4.6083,-0.4905,-2.5542,-1.1622,
4.578032,2.6336,1.6847,0.1929,-17.6553,-1.4855,-4.6083,-0.4905,-2.5542,-1.1622,
4.604022,2.6336,1.6847,0.1929,-17.6553,-1.4855,-4.6083,0.0372,-1.4997,-1.3539,
4.608019,2.6336,1.6847,0.1929,7.4192,7.8214,-1.9033,0.0372,-1.4997,-1.3539,
4.627577,0.2107,1.4315,-1.1205,7.4192,7.8214,-1.9033,0.0372,-1.4997,-1.3539,
4.628843,-0.4549,0.7525,-0.4737,7.4192,7.8214,-1.9033,0.0372,-1.4997,-1.3539,
4.630031,-0.3518,0.5096,0.4900,7.4192,7.8214,-1.9033,0.0372,-1.4997,-1.3539,
4.661370,-0.3518,0.5096,0.4900,7.4192,7.8214,-1.9033,-0.2004,0.0133,-1.9165,
4.663608,-0.3518,0.5096,0.4900,-2.7816,-0.6494,-2.9755,-0.2004,0.0133,-1.9165,
4.687023,-0.3040,0.9496,0.3501,-2.7816,-0.6494,-2.9755,-0.2004,0.0133,-1.9165,
4.689253,-0.1138,1.1654,0.0664,-2.7816,-0.6494,-2.9755,-0.2004,0.0133,-1.9165,
4.691776,-0.0969,1.0839,-0.1643,-2.7816,-0.6494,-2.9755,-0.2004,0.0133,-1.9165,
4.719863,-0.0969,1.0839,-0.1643,-2.7816,-0.6494,-2.9755,0.0210,-0.0963,-1.0739,
4.722354,-0.0969,1.0839,-0.1643,-1.8871,0.9518,1.4448,0.0210,-0.0963,-1.0739,
4.755640,0.1243,1.0565,-0.1878,-1.8871,0.9518,1.4448,0.0210,-0.0963,-1.0739,
4.758160,0.1375,1.0304,-0.1343,-1.8871,0.9518,1.4448,0.0210,-0.0963,-1.0739,
4.759612,-0.0764,1.0091,-0.0002,-1.8871,0.9518,1.4448,0.0210,-0.0963,-1.0739,
4.778482,-0.0764,1.0091,-0.0002,-1.8871,0.9518,1.4448,0.0704,-0.1162,-1.0625,
4.780406,-0.0764,1.0091,-0.0002,0.9762,0.6139,-0.3870,0.0704,-0.1162,-1.0625,
4.797824,-0.1306,1.0113,0.0842,0.9762,0.6139,-0.3870,0.0704,-0.1162,-1.0625,
4.799621,0.0523,0.9942,0.0405,0.9762,0.6139,-0.3870,0.0704,-0.1162,-1.0625,
4.800353,0.1668,0.9769,0.0093,0.9762,0.6139,-0.3870,0.0704,-0.1162,-1.0625,
4.837274,0.1668,0.9769,0.0093,0.9762,0.6139,-0.3870,0.2545,0.0538,-1.1883,
4.840016,0.1668,0.9769,0.0093,1.2918,0.2973,1.2262,0.2545,0.0538,-1.1883,
4.857384,0.1172,0.9857,-0.0164,1.2918,0.2973,1.2262,0.2545,0.0538,-1.1883,
4.861212,-0.0159,1.0179,-0.0007,1.2918,0.2973,1.2262,0.2545,0.0538,-1.1883,
4.863512,-0.1008,1.0365,0.0022,1.2918,0.2973,1.2262,0.2545,0.0538,-1.1883,
4.895804,-0.1008,1.0365,0.0022,1.2918,0.2973,1.2262,0.3926,0.2279,-1.4178,
4.898916,-0.1008,1.0365,0.0022,1.7390,0.6106,0.9572,0.3926,0.2279,-1.4178,
4.915988,-0.1477,1.0338,-0.0483,1.7390,0.6106,0.9572,0.3926,0.2279,-1.4178,
4.918931,-0.1316,1.0196,-0.0813,1.7390,0.6106,0.9572,0.3926,0.2279,-1.4178,
4.920906,-0.1113,0.9957,-0.0801,1.7390,0.6106,0.9572,0.3926,0.2279,-1.4178,
4.954067,-0.1113,0.9957,-0.0801,1.7390,0.6106,0.9572,0.4416,0.4048,-1.4496,
4.957893,-0.1113,0.9957,-0.0801,1.1934,0.8344,0.5986,0.4416,0.4048,-1.4496,
4.973505,-0.1704,1.0018,-0.1165,1.1934,0.8344,0.5986,0.4416,0.4048,-1.4496,
4.976369,-0.2080,1.0170,-0.1360,1.1934,0.8344,0.5986,0.4416,0.4048,-1.4496,
4.978460,-0.1265,1.0182,-0.1465,1.1934,0.8344,0.5986,0.4416,0.4048,-1.4496,
5.012194,-0.1265,1.0182,-0.1465,1.1934,0.8344,0.5986,0.5068,0.3840,-1.5878,
5.015475,-0.1265,1.0182,-0.1465,1.5926,1.0851,0.3049,0.5068,0.3840,-1.5878,
5.033996,-0.0452,1.0477,-0.1214,1.5926,1.0851,0.3049,0.5068,0.3840,-1.5878,
5.036845,-0.0928,1.1661,-0.1316,1.5926,1.0851,0.3049,0.5068,0.3840,-1.5878,
5.039339,-0.0513,1.2538,-0.1538,1.5926,1.0851,0.3049,0.5068,0.3840,-1.5878,
5.069998,-0.0513,1.2538,-0.1538,1.5926,1.0851,0.3049,0.8416,-0.1537,-1.9827,
5.071908,-0.0513,1.2538,-0.1538,3.5739,2.9644,0.6535,0.8416,-0.1537,-1.9827,
5.092166,0.1485,1.2448,-0.1233,3.5739,2.9644,0.6535,0.8416,-0.1537,-1.9827,
5.095392,0.3174,1.3200,-0.0982,3.5739,2.9644,0.6535,0.8416,-0.1537,-1.9827,
5.097420,0.5984,1.7092,0.1470,3.5739,2.9644,0.6535,0.8416,-0.1537,-1.9827,
5.128658,0.5984,1.7092,0.1470,3.5739,2.9644,0.6535,1.0649,0.0375,-2.5888,
5.131432,0.5984,1.7092,0.1470,8.7158,6.3542,2.2069,1.0649,0.0375,-2.5888,
5.148771,1.1027,1.9716,0.0371,8.7158,6.3542,2.2069,1.0649,0.0375,-2.5888,
5.151205,1.1232,1.6999,0.0745,8.7158,6.3542,2.2069,1.0649,0.0375,-2.5888,
5.152886,0.3106,1.3463,0.1770,8.7158,6.3542,2.2069,1.0649,0.0375,-2.5888,
5.186785,0.3106,1.3463,0.1770,8.7158,6.3542,2.2069,1.2645,1.8473,-4.4188,
5.188892,0.3106,1.3463,0.1770,14.6868,10.3769,4.4726,1.2645,1.8473,-4.4188,
5.207201,-0.6605,1.4743,-0.1865,14.6868,10.3769,4.4726,1.2645,1.8473,-4.4188,
5.210603,-1.0567,1.5517,-0.2503,14.6868,10.3769,4.4726,1.2645,1.8473,-4.4188,
5.212744,-0.9251,1.1390,-0.3208,14.6868,10.3769,4.4726,1.2645,1.8473,-4.4188,
5.244687,-0.9251,1.1390,-0.3208,14.6868,10.3769,4.4726,0.8385,0.3142,-1.8922,
5.247835,-0.9251,1.1390,-0.3208,-1.6538,8.3689,1.4194,0.8385,0.3142,-1.8922,
5.265895,-0.7620,0.7689,-0.3582,-1.6538,8.3689,1.4194,0.8385,0.3142,-1.8922,
5.269859,-0.7467,0.5828,-0.4439,-1.6538,8.3689,1.4194,0.8385,0.3142,-1.8922,
5.274596,-0.4742,0.3716,-0.3687,-1.6538,8.3689,1.4194,0.8385,0.3142,-1.8922,
5.303346,-0.4742,0.3716,-0.3687,-1.6538,8.3689,1.4194,-1.0595,-0.2700,1.8571,
5.309825,-0.4742,0.3716,-0.3687,-0.0615,-0.5519,-0.3823,-1.0595,-0.2700,1.8571,
5.334248,-0.3216,0.1729,0.0364,-0.0615,-0.5519,-0.3823,-1.0595,-0.2700,1.8571,
5.336498,-0.2637,0.0146,0.1082,-0.0615,-0.5519,-0.3823,-1.0595,-0.2700,1.8571,
5.337899,-0.3181,0.0906,-0.1211,-0.0615,-0.5519,-0.3823,-1.0595,-0.2700,1.8571,
5.361382,-0.3181,0.0906,-0.1211,-0.0615,-0.5519,-0.3823,-1.0444,-1.0431,4.2268,
5.363412,-0.3181,0.0906,-0.1211,1.8869,-6.7456,2.7061,-1.0444,-1.0431,4.2268,
5.380877,-0.3250,0.2781,-0.3238,1.8869,-6.7456,2.7061,-1.0444,-1.0431,4.2268,
5.383349,-0.1868,0.3992,-0.3829,1.8869,-6.7456,2.7061,-1.0444,-1.0431,4.2268,
5.384531,-0.1958,0.4600,-0.2222,1.8869,-6.7456,2.7061,-1.0444,-1.0431,4.2268,
5.421126,-0.1958,0.4600,-0.2222,1.8869,-6.7456,2.7061,-1.6052,-0.8988,5.9519,
5.425343,-0.1958,0.4600,-0.2222,-0.2859,-5.2563,-1.3605,-1.6052,-0.8988,5.9519,
5.442065,-0.2447,0.5355,-0.0093,-0.2859,-5.2563,-1.3605,-1.6052,-0.8988,5.9519,
5.444268,-0.3035,0.6883,-0.1370,-0.2859,-5.2563,-1.3605,-1.6052,-0.8988,5.9519,
5.445865,-0.3050,0.9552,-0.2317,-0.2859,-5.2563,-1.3605,-1.6052,-0.8988,5.9519,
5.479456,-0.3050,0.9552,-0.2317,-0.2859,-5.2563,-1.3605,-1.1085,-0.2374,6.5948,
5.482744,-0.3050,0.9552,-0.2317,-4.2033,-2.0155,-0.1673,-1.1085,-0.2374,6.5948,
5.502225,-0.3709,1.3781,-0.3279,-4.2033,-2.0155,-0.1673,-1.1085,-0.2374,6.5948,
5.505436,-0.5272,1.6689,-0.3711,-4.2033,-2.0155,-0.1673,-1.1085,-0.2374,6.5948,
5.507841,-0.7867,1.7458,-0.2407,-4.2033,-2.0155,-0.1673,-1.1085,-0.2374,6.5948,
5.536298,-0.7867,1.7458,-0.2407,-4.2033,-2.0155,-0.1673,-0.9389,1.6866,4.8540,
5.538232,-0.7867,1.7458,-0.2407,-9.3264,7.1311,-2.7381,-0.9389,1.6866,4.8540,
5.555678,-0.9447,1.6677,-0.2740,-9.3264,7.1311,-2.7381,-0.9389,1.6866,4.8540,
5.557688,-0.8629,1.3949,-0.2813,-9.3264,7.1311,-2.7381,-0.9389,1.6866,4.8540,
5.558934,-0.8714,1.0155,-0.3929,-9.3264,7.1311,-2.7381,-0.9389,1.6866,4.8540,
5.594952,-0.8714,1.0155,-0.3929,-9.3264,7.1311,-2.7381,-0.1933,1.0320,-0.2551,
5.597271,-0.8714,1.0155,-0.3929,-12.2475,4.6587,-3.0487,-0.1933,1.0320,-0.2551,
5.615097,-1.1153,0.7034,-0.4710,-12.2475,4.6587,-3.0487,-0.1933,1.0320,-0.2551,
5.617532,-1.5160,0.8768,-0.5906,-12.2475,4.6587,-3.0487,-0.1933,1.0320,-0.2551,
5.618996,-0.8167,1.8203,-0.3826,-12.2475,4.6587,-3.0487,-0.1933,1.0320,-0.2551,
5.654340,-0.8167,1.8203,-0.3826,-14.2129,2.2898,-4.5209,-0.1933,1.0320,-0.2551,
5.659198,-0.8167,1.8203,-0.3826,-14.2129,2.2898,-4.5209,-0.6656,-2.1193,-0.5860,
5.672905,2.0407,2.0234,1.1359,-14.2129,2.2898,-4.5209,-0.6656,-2.1193,-0.5860,
5.676144,2.1032,1.6987,-0.1775,-14.2129,2.2898,-4.5209,-0.6656,-2.1193,-0.5860,
5.677904,-0.3391,1.1600,-1.3392,-14.2129,2.2898,-4.5209,-0.6656,-2.1193,-0.5860,
5.712599,-0.3391,1.1600,-1.3392,-14.2129,2.2898,-4.5209,0.2431,0.2641,-3.5379,
5.717546,-0.3391,1.1600,-1.3392,11.1552,6.6045,-0.9136,0.2431,0.2641,-3.5379,
5.739838,-0.4593,0.5897,0.2114,11.1552,6.6045,-0.9136,0.2431,0.2641,-3.5379,
5.741543,-0.4700,0.7274,0.2683,11.1552,6.6045,-0.9136,0.2431,0.2641,-3.5379,
5.742642,-0.5276,1.0624,0.1360,11.1552,6.6045,-0.9136,0.2431,0.2641,-3.5379,
5.770372,-0.5276,1.0624,0.1360,11.1552,6.6045,-0.9136,0.1837,-0.2113,-1.5848,
5.777035,-0.5276,1.0624,0.1360,-5.0746,-1.6171,2.4093,0.1837,-0.2113,-1.5848,
5.791149,-0.4478,1.1188,-0.0232,-5.0746,-1.6171,2.4093,0.1837,-0.2113,-1.5848,
5.794342,-0.1182,1.0421,-0.1348,-5.0746,-1.6171,2.4093,0.1837,-0.2113,-1.5848,
5.796316,0.1900,1.0550,-0.1223,-5.0746,-1.6171,2.4093,0.1837,-0.2113,-1.5848,
5.829064,0.1900,1.0550,-0.1223,-5.0746,-1.6171,2.4093,0.1238,-0.2435,-0.9472,
5.832240,0.1900,1.0550,-0.1223,-1.0013,1.0971,-0.4424,0.1238,-0.2435,-0.9472,
5.849072,0.2027,1.0419,-0.0540,-1.0013,1.0971,-0.4424,0.1238,-0.2435,-0.9472,
5.852534,-0.0737,1.0277,0.0313,-1.0013,1.0971,-0.4424,0.1238,-0.2435,-0.9472,
5.856303,-0.1514,0.9999,0.0327,-1.0013,1.0971,-0.4424,0.1238,-0.2435,-0.9472,
5.888086,-0.1514,0.9999,0.0327,-1.0013,1.0971,-0.4424,0.1786,0.0126,-0.9778,
5.891538,-0.1514,0.9999,0.0327,0.6776,0.6414,0.5948,0.1786,0.0126,-0.9778,
5.907386,-0.0095,0.9759,-0.0166,0.6776,0.6414,0.5948,0.1786,0.0126,-0.9778,
5.910582,0.0708,0.9945,-0.0344,0.6776,0.6414,0.5948,0.1786,0.0126,-0.9778,
5.912563,-0.0107,1.0138,-0.0100,0.6776,0.6414,0.5948,0.1786,0.0126,-0.9778,
5.944893,-0.0107,1.0138,-0.0100,1.4971,0.4339,0.4983,0.1786,0.0126,-0.9778,
5.947139,-0.0107,1.0138,-0.0100,1.4971,0.4339,0.4983,0.2319,0.2753,-1.1311,
5.965011,-0.0691,0.9908,-0.0320,1.4971,0.4339,0.4983,0.2319,0.2753,-1.1311,
5.967164,-0.0991,0.9955,-0.0393,1.4971,0.4339,0.4983,0.2319,0.2753,-1.1311,
5.968735,-0.1050,1.0162,-0.0220,1.4971,0.4339,0.4983,0.2319,0.2753,-1.1311,
6.003841,-0.1050,1.0162,-0.0220,1.4971,0.4339,0.4983,0.2938,0.2629,-1.2402,
6.007405,-0.1050,1.0162,-0.0220,1.0784,0.6169,0.5673,0.2938,0.2629,-1.2402,
6.025198,-0.1189,0.9745,-0.0259,1.0784,0.6169,0.5673,0.2938,0.2629,-1.2402,
6.028142,-0.1465,0.9142,-0.0711,1.0784,0.6169,0.5673,0.2938,0.2629,-1.2402,
6.030807,-0.1045,0.9276,-0.1113,1.0784,0.6169,0.5673,0.2938,0.2629,-1.2402,
6.062025,-0.1045,0.9276,-0.1113,1.0784,0.6169,0.5673,0.3380,0.0259,-1.4815,
6.064121,-0.1045,0.9276,-0.1113,1.5205,0.2277,0.3671,0.3380,0.0259,-1.4815,
6.081222,-0.0681,0.9994,-0.0855,1.5205,0.2277,0.3671,0.3380,0.0259,-1.4815,
6.083037,-0.1126,1.1132,-0.0842,1.5205,0.2277,0.3671,0.3380,0.0259,-1.4815,
6.083897,-0.1194,1.1766,-0.0703,1.5205,0.2277,0.3671,0.3380,0.0259,-1.4815,
6.120211,-0.1194,1.1766,-0.0703,1.5205,0.2277,0.3671,0.5628,-0.1773,-1.9075,
6.122676,-0.1194,1.1766,-0.0703,2.6930,2.1343,0.5089,0.5628,-0.1773,-1.9075,
6.140729,-0.0435,1.1725,-0.0400,2.6930,2.1343,0.5089,0.5628,-0.1773,-1.9075,
6.143533,-0.0037,1.1735,-0.0501,2.6930,2.1343,0.5089,0.5628,-0.1773,-1.9075,
6.145493,0.0159,1.2328,-0.0952,2.6930,2.1343,0.5089,0.5628,-0.1773,-1.9075,
6.177866,0.0159,1.2328,-0.0952,2.6930,2.1343,0.5089,0.8864,0.5140,-2.4363,
6.179496,0.0159,1.2328,-0.0952,4.6223,3.7028,1.2255,0.8864,0.5140,-2.4363,
6.197241,0.2166,1.4872,-0.0071,4.6223,3.7028,1.2255,0.8864,0.5140,-2.4363,
6.198953,0.6861,1.8354,-0.0735,4.6223,3.7028,1.2255,0.8864,0.5140,-2.4363,
6.199966,1.1161,1.9506,-0.3313,4.6223,3.7028,1.2255,0.8864,0.5140,-2.4363,
6.237505,1.1161,1.9506,-0.3313,4.6223,3.7028,1.2255,1.1441,2.2627,-3.2551,
6.240205,1.1161,1.9506,-0.3313,12.1989,10.2332,1.6603,1.1441,2.2627,-3.2551,
6.257133,1.0206,1.5121,-0.2581,12.1989,10.2332,1.6603,1.1441,2.2627,-3.2551,
6.259971,-0.0295,0.9488,-0.0825,12.1989,10.2332,1.6603,1.1441,2.2627,-3.2551,
6.261882,-1.0694,1.0065,-0.2774,12.1989,10.2332,1.6603,1.1441,2.2627,-3.2551,
6.296036,-1.0694,1.0065,-0.2774,12.1989,10.2332,1.6603,1.8674,1.5583,-3.9788,
6.299234,-1.0694,1.0065,-0.2774,6.3347,6.0638,2.1692,1.8674,1.5583,-3.9788,
6.315766,-1.6222,1.2052,-0.4676,6.3347,6.0638,2.1692,1.8674,1.5583,-3.9788,
6.319030,-1.5148,0.7721,-0.2657,6.3347,6.0638,2.1692,1.8674,1.5583,-3.9788,
6.321177,-1.1703,0.3689,-0.3296,6.3347,6.0638,2.1692,1.8674,1.5583,-3.9788,
6.354659,-1.1703,0.3689,-0.3296,6.3347,6.0638,2.1692,0.0187,-1.0619,0.7549,
6.358643,-1.1703,0.3689,-0.3296,-7.3420,2.0800,0.3005,0.0187,-1.0619,0.7549,
6.375276,-0.7249,0.2493,-0.4852,-7.3420,2.0800,0.3005,0.0187,-1.0619,0.7549,
6.378394,-0.2903,0.0032,-0.0166,-7.3420,2.0800,0.3005,0.0187,-1.0619,0.7549,
6.381291,0.0105,-0.3601,0.2376,-7.3420,2.0800,0.3005,0.0187,-1.0619,0.7549,
6.412665,0.0105,-0.3601,0.2376,-7.3420,2.0800,0.3005,-0.1049,-1.3207,3.8139,
6.417132,0.0105,-0.3601,0.2376,2.2743,-7.2163,2.3480,-0.1049,-1.3207,3.8139,
6.447936,0.0737,-0.3755,-0.0156,2.2743,-7.2163,2.3480,-0.1049,-1.3207,3.8139,
6.450408,-0.1387,0.0308,-0.2730,2.2743,-7.2163,2.3480,-0.1049,-1.3207,3.8139,
6.452385,-0.4122,0.3450,-0.4488,2.2743,-7.2163,2.3480,-0.1049,-1.3207,3.8139,
6.469914,-0.4122,0.3450,-0.4488,2.2743,-7.2163,2.3480,0.5335,-2.4927,5.3983,
6.471887,-0.4122,0.3450,-0.4488,2.0007,-8.0865,0.3698,0.5335,-2.4927,5.3983,
6.500056,-0.5826,0.4656,-0.2796,2.0007,-8.0865,0.3698,0.5335,-2.4927,5.3983,
6.501913,-0.6505,0.3875,-0.1492,2.0007,-8.0865,0.3698,0.5335,-2.4927,5.3983,
6.503786,-0.7183,0.4918,-0.3333,2.0007,-8.0865,0.3698,0.5335,-2.4927,5.3983,
6.529062,-0.7183,0.4918,-0.3333,2.0007,-8.0865,0.3698,1.5994,-5.6212,7.0949,
6.531943,-0.7183,0.4918,-0.3333,-5.3529,-4.2919,0.3675,1.5994,-5.6212,7.0949,
6.549333,-0.7740,0.8856,-0.3662,-5.3529,-4.2919,0.3675,1.5994,-5.6212,7.0949,
6.552821,-0.8043,1.2614,-0.4361,-5.3529,-4.2919,0.3675,1.5994,-5.6212,7.0949,
6.555853,-0.6304,1.5146,-0.4480,-5.3529,-4.2919,0.3675,1.5994,-5.6212,7.0949,
6.586365,-0.6304,1.5146,-0.4480,-5.3529,-4.2919,0.3675,1.9647,-8.8161,6.0362,
6.588512,-0.6304,1.5146,-0.4480,-7.4144,3.5130,-0.3258,1.9647,-8.8161,6.0362,
6.606683,-0.5464,1.7656,-0.2923,-7.4144,3.5130,-0.3258,1.9647,-8.8161,6.0362,
6.609398,-0.5723,1.7126,0.0794,-7.4144,3.5130,-0.3258,1.9647,-8.8161,6.0362,
6.611662,-0.1831,1.2973,0.5694,-7.4144,3.5130,-0.3258,1.9647,-8.8161,6.0362,
6.645857,-0.1831,1.2973,0.5694,-4.0557,6.9906,4.7485,1.9647,-8.8161,6.0362,
6.648525,-0.1831,1.2973,0.5694,-4.0557,6.9906,4.7485,-0.2928,-5.3534,1.7638,
6.664981,-0.2837,0.9928,0.3628,-4.0557,6.9906,4.7485,-0.2928,-5.3534,1.7638,
6.667072,-0.3365,1.2982,0.2063,-4.0557,6.9906,4.7485,-0.2928,-5.3534,1.7638,
6.668477,0.5445,0.8172,1.5229,-4.0557,6.9906,4.7485,-0.2928,-5.3534,1.7638,
6.702742,0.5445,0.8172,1.5229,-4.0557,6.9906,4.7485,-0.7263,0.6038,-0.6029,
6.704936,0.5445,0.8172,1.5229,0.1441,1.3893,9.8980,-0.7263,0.6038,-0.6029,
6.724185,0.5938,0.9073,0.2532,0.1441,1.3893,9.8980,-0.7263,0.6038,-0.6029,
6.727786,-0.1177,1.3993,-0.4749,0.1441,1.3893,9.8980,-0.7263,0.6038,-0.6029,
6.730671,-0.4834,1.5163,-1.0707,0.1441,1.3893,9.8980,-0.7263,0.6038,-0.6029,
6.761811,-0.4834,1.5163,-1.0707,0.1441,1.3893,9.8980,-0.5085,-0.3767,-0.3785,
6.764654,-0.4834,1.5163,-1.0707,0.6142,3.5873,-1.4074,-0.5085,-0.3767,-0.3785,
6.782337,-0.5088,1.3036,-0.6710,0.6142,3.5873,-1.4074,-0.5085,-0.3767,-0.3785,
6.785784,-0.0293,1.0477,-0.3599,0.6142,3.5873,-1.4074,-0.5085,-0.3767,-0.3785,
6.787987,0.3868,0.8607,-0.2490,0.6142,3.5873,-1.4074,-0.5085,-0.3767,-0.3785,
6.819936,0.3868,0.8607,-0.2490,0.6142,3.5873,-1.4074,-0.5256,-1.1421,0.0373,
6.823158,0.3868,0.8607,-0.2490,0.2948,1.4833,-1.6616,-0.5256,-1.1421,0.0373,
6.846541,0.1736,0.9322,0.1555,0.2948,1.4833,-1.6616,-0.5256,-1.1421,0.0373,
6.851175,-0.1528,1.0043,0.0867,0.2948,1.4833,-1.6616,-0.5256,-1.1421,0.0373,
6.854201,-0.2825,0.9837,-0.1448,0.2948,1.4833,-1.6616,-0.5256,-1.1421,0.0373,
6.878387,-0.2825,0.9837,-0.1448,0.2948,1.4833,-1.6616,-0.0220,-0.1912,-0.0185,
6.880782,-0.2825,0.9837,-0.1448,-0.0278,0.5190,2.7703,-0.0220,-0.1912,-0.0185,
6.899189,-0.1638,0.9632,-0.3399,-0.0278,0.5190,2.7703,-0.0220,-0.1912,-0.0185,
6.901634,-0.1455,0.9576,-0.3030,-0.0278,0.5190,2.7703,-0.0220,-0.1912,-0.0185,
6.902984,-0.2486,0.9693,-0.2498,-0.0278,0.5190,2.7703,-0.0220,-0.1912,-0.0185,
6.936794,-0.2486,0.9693,-0.2498,-0.0278,0.5190,2.7703,-0.0933,-0.7733,0.2985,
6.939737,-0.2486,0.9693,-0.2498,-1.0265,0.3872,-0.5405,-0.0933,-0.7733,0.2985,
6.957611,-0.1912,0.9623,-0.2591,-1.0265,0.3872,-0.5405,-0.0933,-0.7733,0.2985,
6.960621,-0.0779,0.9503,-0.2256,-1.0265,0.3872,-0.5405,-0.0933,-0.7733,0.2985,
6.963132,0.0012,0.9317,-0.1511,-1.0265,0.3872,-0.5405,-0.0933,-0.7733,0.2985,
6.995785,0.0012,0.9317,-0.1511,-1.0265,0.3872,-0.5405,0.0146,-0.8432,0.3089,
6.998829,0.0012,0.9317,-0.1511,-0.1243,0.2215,0.2639,0.0146,-0.8432,0.3089,
7.025568,0.1128,0.9254,-0.1487,-0.1243,0.2215,0.2639,0.0146,-0.8432,0.3089,
7.027026,0.1550,0.9801,-0.1709,-0.1243,0.2215,0.2639,0.0146,-0.8432,0.3089,
7.028393,0.0742,0.9969,-0.2549,-0.1243,0.2215,0.2639,0.0146,-0.8432,0.3089,
7.053358,0.0742,0.9969,-0.2549,-0.1243,0.2215,0.2639,0.2527,-0.3960,-0.1722,
7.056247,0.0742,0.9969,-0.2549,1.9802,0.4475,0.5695,0.2527,-0.3960,-0.1722,
7.073988,0.0049,0.9654,-0.1590,1.9802,0.4475,0.5695,0.2527,-0.3960,-0.1722,
7.076008,-0.0520,0.9620,-0.1541,1.9802,0.4475,0.5695,0.2527,-0.3960,-0.1722,
7.077930,-0.1194,0.9740,-0.1990,1.9802,0.4475,0.5695,0.2527,-0.3960,-0.1722,
7.112591,-0.1194,0.9740,-0.1990,1.9802,0.4475,0.5695,0.4818,-0.2736,-0.2531,
7.116429,-0.1194,0.9740,-0.1990,0.4840,0.5216,0.9944,0.4818,-0.2736,-0.2531,
7.131467,-0.1148,0.9815,-0.2390,0.4840,0.5216,0.9944,0.4818,-0.2736,-0.2531,
7.133524,-0.1201,0.9723,-0.2947,0.4840,0.5216,0.9944,0.4818,-0.2736,-0.2531,
7.134300,-0.1751,0.9776,-0.2920,0.4840,0.5216,0.9944,0.4818,-0.2736,-0.2531,
7.171225,-0.1751,0.9776,-0.2920,0.4840,0.5216,0.9944,0.6907,-0.1030,-0.1254,
7.174311,-0.1751,0.9776,-0.2920,-0.2255,0.7296,0.3160,0.6907,-0.1030,-0.1254,
7.191943,-0.1306,0.9908,-0.2395,-0.2255,0.7296,0.3160,0.6907,-0.1030,-0.1254,
7.194465,-0.0703,0.9930,-0.3111,-0.2255,0.7296,0.3160,0.6907,-0.1030,-0.1254,
7.197262,-0.1018,1.0160,-0.3023,-0.2255,0.7296,0.3160,0.6907,-0.1030,-0.1254,
7.229075,-0.1018,1.0160,-0.3023,-0.2255,0.7296,0.3160,1.0368,0.0782,-0.0600,
7.232734,-0.1018,1.0160,-0.3023,0.1377,1.1362,0.7492,1.0368,0.0782,-0.0600,
7.249806,-0.0483,1.0387,-0.3587,0.1377,1.1362,0.7492,1.0368,0.0782,-0.0600,
7.252826,0.0562,1.0848,-0.3882,0.1377,1.1362,0.7492,1.0368,0.0782,-0.0600,
7.256197,0.0833,1.0702,-0.4007,0.1377,1.1362,0.7492,1.0368,0.0782,-0.0600,
7.289228,0.0833,1.0702,-0.4007,0.1377,1.1362,0.7492,1.7094,-0.7974,-0.2749,
7.292453,0.0833,1.0702,-0.4007,1.7159,2.1461,0.5613,1.7094,-0.7974,-0.2749,
7.307151,0.0969,1.1881,-0.3284,1.7159,2.1461,0.5613,1.7094,-0.7974,-0.2749,
7.308765,0.3057,1.4713,-0.1721,1.7159,2.1461,0.5613,1.7094,-0.7974,-0.2749,
7.309688,0.5503,1.7028,-0.0286,1.7159,2.1461,0.5613,1.7094,-0.7974,-0.2749,
7.344522,0.5503,1.7028,-0.0286,1.7159,2.1461,0.5613,2.5677,-1.9688,-0.7023,
7.346330,0.5503,1.7028,-0.0286,5.3200,6.6482,3.4936,2.5677,-1.9688,-0.7023,
7.364215,0.6238,1.7448,-0.0046,5.3200,6.6482,3.4936,2.5677,-1.9688,-0.7023,
7.367166,0.3865,1.6740,0.3091,5.3200,6.6482,3.4936,2.5677,-1.9688,-0.7023,
7.368916,0.0168,1.5092,0.5418,5.3200,6.6482,3.4936,2.5677,-1.9688,-0.7023,
7.403145,0.0168,1.5092,0.5418,5.3200,6.6482,3.4936,2.3926,-2.5719,-1.6941,
7.405223,0.0168,1.5092,0.5418,6.9731,9.4059,8.3923,2.3926,-2.5719,-1.6941,
7.424040,-0.5801,1.4071,0.3416,6.9731,9.4059,8.3923,2.3926,-2.5719,-1.6941,
7.426961,-1.0694,1.5346,0.0928,6.9731,9.4059,8.3923,2.3926,-2.5719,-1.6941,
7.428964,-1.1710,1.3541,-0.1941,6.9731,9.4059,8.3923,2.3926,-2.5719,-1.6941,
7.461423,-1.1710,1.3541,-0.1941,6.9731,9.4059,8.3923,1.6092,-4.5528,-0.6760,
7.463241,-1.1710,1.3541,-0.1941,-3.8410,7.8873,5.7106,1.6092,-4.5528,-0.6760,
7.481949,-0.8914,1.0033,-0.5103,-3.8410,7.8873,5.7106,1.6092,-4.5528,-0.6760,
7.484352,-0.5579,0.9469,-0.5140,-3.8410,7.8873,5.7106,1.6092,-4.5528,-0.6760,
7.486311,-0.0061,0.6353,-0.1047,-3.8410,7.8873,5.7106,1.6092,-4.5528,-0.6760,
7.522268,-0.0061,0.6353,-0.1047,0.9337,1.6927,-0.0612,1.6092,-4.5528,-0.6760,
7.525788,-0.0061,0.6353,-0.1047,0.9337,1.6927,-0.0612,0.2071,-4.1598,1.9255,
7.542834,0.0640,0.3543,0.2393,0.9337,1.6927,-0.0612,0.2071,-4.1598,1.9255,
7.546631,-0.1099,0.3384,0.1719,0.9337,1.6927,-0.0612,0.2071,-4.1598,1.9255,
7.549501,-0.2466,0.4190,0.1143,0.9337,1.6927,-0.0612,0.2071,-4.1598,1.9255,
7.578386,-0.2466,0.4190,0.1143,0.9337,1.6927,-0.0612,-0.2572,-1.9487,3.8235,
7.581064,-0.2466,0.4190,0.1143,3.4047,-4.2416,4.5505,-0.2572,-1.9487,3.8235,
7.606041,-0.2661,0.4334,0.1436,3.4047,-4.2416,4.5505,-0.2572,-1.9487,3.8235,
7.608252,-0.2532,0.4463,0.0234,3.4047,-4.2416,4.5505,-0.2572,-1.9487,3.8235,
7.611950,-0.1900,0.5274,-0.0349,3.4047,-4.2416,4.5505,-0.2572,-1.9487,3.8235,
7.637839,-0.1900,0.5274,-0.0349,3.4047,-4.2416,4.5505,-0.7355,-0.1313,5.4993,
7.641658,-0.1900,0.5274,-0.0349,-0.6452,-4.2977,2.8046,-0.7355,-0.1313,5.4993,
7.660339,-0.1360,0.6385,-0.0288,-0.6452,-4.2977,2.8046,-0.7355,-0.1313,5.4993,
7.664202,-0.1709,0.8687,-0.0881,-0.6452,-4.2977,2.8046,-0.7355,-0.1313,5.4993,
7.667638,-0.2554,1.1676,-0.1931,-0.6452,-4.2977,2.8046,-0.7355,-0.1313,5.4993,
7.695227,-0.2554,1.1676,-0.1931,-0.6452,-4.2977,2.8046,-1.6435,-0.1447,6.1049,
7.697674,-0.2554,1.1676,-0.1931,-3.3295,-0.3601,0.4791,-1.6435,-0.1447,6.1049,
7.714246,-0.3890,1.4645,-0.2583,-3.3295,-0.3601,0.4791,-1.6435,-0.1447,6.1049,
7.716420,-0.7003,1.6823,-0.3299,-3.3295,-0.3601,0.4791,-1.6435,-0.1447,6.1049,
7.717883,-1.0619,1.6203,-0.4165,-3.3295,-0.3601,0.4791,-1.6435,-0.1447,6.1049,
7.753753,-1.0619,1.6203,-0.4165,-3.3295,-0.3601,0.4791,-1.9210,-1.0914,5.0762,
7.757913,-1.0619,1.6203,-0.4165,-10.8802,7.0604,-2.5407,-1.9210,-1.0914,5.0762,
7.790718,-1.2404,1.4899,-0.2241,-10.8802,7.0604,-2.5407,-1.9210,-1.0914,5.0762,
7.792966,-1.1605,1.3009,-0.0642,-10.8802,7.0604,-2.5407,-1.9210,-1.0914,5.0762,
7.794563,-1.0033,1.0143,-0.2564,-10.8802,7.0604,-2.5407,-1.9210,-1.0914,5.0762,
7.812028,-1.0033,1.0143,-0.2564,-14.8496,3.9058,-1.0770,-1.9210,-1.0914,5.0762,
7.814274,-1.0033,1.0143,-0.2564,-14.8496,3.9058,-1.0770,-0.7958,-1.3873,0.3672,
7.831561,-1.1703,0.7999,-0.3528,-14.8496,3.9058,-1.0770,-0.7958,-1.3873,0.3672,
7.833192,-1.3204,0.8751,-0.6495,-14.8496,3.9058,-1.0770,-0.7958,-1.3873,0.3672,
7.834455,-0.6622,1.6337,-1.0890,-14.8496,3.9058,-1.0770,-0.7958,-1.3873,0.3672,
7.870493,-0.6622,1.6337,-1.0890,-14.8496,3.9058,-1.0770,-0.4572,-2.3459,-0.1969,
7.874744,-0.6622,1.6337,-1.0890,-13.5881,2.1847,-5.7600,-0.4572,-2.3459,-0.1969,
7.891175,1.6100,1.7995,0.0598,-13.5881,2.1847,-5.7600,-0.4572,-2.3459,-0.1969,
7.898233,2.7119,1.3358,-0.2891,-13.5881,2.1847,-5.7600,-0.4572,-2.3459,-0.1969,
7.899654,0.0002,1.2765,-0.7696,-13.5881,2.1847,-5.7600,-0.4572,-2.3459,-0.1969,
7.928197,0.0002,1.2765,-0.7696,-13.5881,2.1847,-5.7600,-0.3869,-0.6707,-3.2011,
7.931261,0.0002,1.2765,-0.7696,12.3237,5.2218,-2.2389,-0.3869,-0.6707,-3.2011,
7.949341,-0.9002,0.8800,-0.4966,12.3237,5.2218,-2.2389,-0.3869,-0.6707,-3.2011,
7.952194,-0.9261,0.6031,0.4026,12.3237,5.2218,-2.2389,-0.3869,-0.6707,-3.2011,
7.953758,-0.3133,0.8614,0.5047,12.3237,5.2218,-2.2389,-0.3869,-0.6707,-3.2011,
7.986585,-0.3133,0.8614,0.5047,12.3237,5.2218,-2.2389,-0.1851,-0.1150,-0.9739,
7.988125,-0.3133,0.8614,0.5047,-8.1156,-1.6019,2.2388,-0.1851,-0.1150,-0.9739,
8.006530,0.2722,1.1031,0.1836,-8.1156,-1.6019,2.2388,-0.1851,-0.1150,-0.9739,
8.009834,0.2952,1.1385,-0.3802,-8.1156,-1.6019,2.2388,-0.1851,-0.1150,-0.9739,
8.012484,0.0430,1.1085,-0.2429,-8.1156,-1.6019,2.2388,-0.1851,-0.1150,-0.9739,
8.045087,0.0430,1.1085,-0.2429,-8.1156,-1.6019,2.2388,-0.1254,-0.1484,-0.9487,
8.048948,0.0430,1.1085,-0.2429,1.3662,1.6020,-0.5890,-0.1254,-0.1484,-0.9487,
8.066844,-0.0273,1.0221,-0.1109,1.3662,1.6020,-0.5890,-0.1254,-0.1484,-0.9487,
8.069085,0.0139,0.9759,0.0039,1.3662,1.6020,-0.5890,-0.1254,-0.1484,-0.9487,
8.070318,0.1423,0.9742,0.0991,1.3662,1.6020,-0.5890,-0.1254,-0.1484,-0.9487,
8.102820,0.1423,0.9742,0.0991,1.3662,1.6020,-0.5890,0.0366,-0.4441,-0.9273,
8.104389,0.1423,0.9742,0.0991,0.3160,0.3436,0.8357,0.0366,-0.4441,-0.9273,
8.130522,0.2249,0.9715,0.0242,0.3160,0.3436,0.8357,0.0366,-0.4441,-0.9273,
8.131800,0.1875,0.9686,-0.0156,0.3160,0.3436,0.8357,0.0366,-0.4441,-0.9273,
8.132823,0.1182,0.9608,-0.0288,0.3160,0.3436,0.8357,0.0366,-0.4441,-0.9273,
8.161011,0.1182,0.9608,-0.0288,0.3160,0.3436,0.8357,0.1926,0.0281,-1.3781,
8.162421,0.1182,0.9608,-0.0288,2.3389,0.1405,0.8872,0.1926,0.0281,-1.3781,
8.180371,-0.0161,0.9918,-0.0364,2.3389,0.1405,0.8872,0.1926,0.0281,-1.3781,
8.181601,-0.2063,1.0111,-0.0645,2.3389,0.1405,0.8872,0.1926,0.0281,-1.3781,
8.182551,-0.2276,0.9960,-0.0806,2.3389,0.1405,0.8872,0.1926,0.0281,-1.3781,
8.220584,-0.2276,0.9960,-0.0806,2.3389,0.1405,0.8872,0.2425,0.0163,-1.2388,
8.224393,-0.2276,0.9960,-0.0806,-0.1902,0.5337,0.4849,0.2425,0.0163,-1.2388,
8.242655,-0.1165,0.9784,-0.0801,-0.1902,0.5337,0.4849,0.2425,0.0163,-1.2388,
8.245688,-0.1233,1.0067,-0.1384,-0.1902,0.5337,0.4849,0.2425,0.0163,-1.2388,
8.246915,-0.1299,1.0243,-0.1841,-0.1902,0.5337,0.4849,0.2425,0.0163,-1.2388,
8.278339,-0.1299,1.0243,-0.1841,-0.1902,0.5337,0.4849,0.2460,0.1776,-1.2915,
8.280452,-0.1299,1.0243,-0.1841,0.7408,0.6950,-0.0869,0.2460,0.1776,-1.2915,
8.298593,-0.0623,0.9774,-0.1450,0.7408,0.6950,-0.0869,0.2460,0.1776,-1.2915,
8.301318,-0.0364,0.9955,-0.0784,0.7408,0.6950,-0.0869,0.2460,0.1776,-1.2915,
8.303212,-0.1013,1.0873,-0.0899,0.7408,0.6950,-0.0869,0.2460,0.1776,-1.2915,
8.337262,-0.1013,1.0873,-0.0899,0.7408,0.6950,-0.0869,0.4993,0.0660,-1.6715,
8.346181,-0.1013,1.0873,-0.0899,2.1320,1.1144,0.4678,0.4993,0.0660,-1.6715,
8.360302,-0.1079,1.1796,-0.1160,2.1320,1.1144,0.4678,0.4993,0.0660,-1.6715,
8.363449,-0.0051,1.2465,-0.1045,2.1320,1.1144,0.4678,0.4993,0.0660,-1.6715,
8.367174,0.0408,1.2990,-0.0913,2.1320,1.1144,0.4678,0.4993,0.0660,-1.6715,
8.394286,0.0408,1.2990,-0.0913,2.1320,1.1144,0.4678,0.9379,0.3183,-2.1561,
8.395890,0.0408,1.2990,-0.0913,3.5432,3.7369,0.9907,0.9379,0.3183,-2.1561,
8.414262,0.0903,1.3871,-0.1043,3.5432,3.7369,0.9907,0.9379,0.3183,-2.1561,
8.416061,0.2913,1.6193,0.0142,3.5432,3.7369,0.9907,0.9379,0.3183,-2.1561,
8.417286,0.7108,1.8854,0.0444,3.5432,3.7369,0.9907,0.9379,0.3183,-2.1561,
8.453193,0.7108,1.8854,0.0444,3.5432,3.7369,0.9907,1.1796,0.4903,-2.7572,
8.455758,0.7108,1.8854,0.0444,8.4267,8.2781,2.4956,1.1796,0.4903,-2.7572,
8.473041,1.0470,1.8735,-0.1057,8.4267,8.2781,2.4956,1.1796,0.4903,-2.7572,
8.474399,1.1222,1.6176,-0.0371,8.4267,8.2781,2.4956,1.1796,0.4903,-2.7572,
8.475448,0.2818,1.1932,0.0964,8.4267,8.2781,2.4956,1.1796,0.4903,-2.7572,
8.511961,0.2818,1.1932,0.0964,8.4267,8.2781,2.4956,1.4565,1.9436,-4.3663,
8.515338,0.2818,1.1932,0.0964,14.0079,9.1472,3.6587,1.4565,1.9436,-4.3663,
8.531222,-0.7989,1.1852,-0.1270,14.0079,9.1472,3.6587,1.4565,1.9436,-4.3663,
8.533309,-1.2382,1.3825,-0.2031,14.0079,9.1472,3.6587,1.4565,1.9436,-4.3663,
8.534298,-1.0294,1.0314,-0.4458,14.0079,9.1472,3.6587,1.4565,1.9436,-4.3663,
8.570273,-1.0294,1.0314,-0.4458,14.0079,9.1472,3.6587,0.6734,-0.0458,-1.5465,
8.573390,-1.0294,1.0314,-0.4458,-3.4208,6.2155,1.4554,0.6734,-0.0458,-1.5465,
8.593766,-0.6844,0.5643,-0.3426,-3.4208,6.2155,1.4554,0.6734,-0.0458,-1.5465,
8.603059,-0.5320,0.4798,-0.3960,-3.4208,6.2155,1.4554,0.6734,-0.0458,-1.5465,
8.604928,-0.2393,0.3113,-0.4590,-3.4208,6.2155,1.4554,0.6734,-0.0458,-1.5465,
8.628496,-0.2393,0.3113,-0.4590,-3.4208,6.2155,1.4554,-1.4675,-0.3050,1.8021,
8.631382,-0.2393,0.3113,-0.4590,1.2498,-2.0584,-0.5413,-1.4675,-0.3050,1.8021,
8.655056,-0.1870,0.1550,-0.0691,1.2498,-2.0584,-0.5413,-1.4675,-0.3050,1.8021,
8.656934,-0.1670,0.0554,-0.0305,1.2498,-2.0584,-0.5413,-1.4675,-0.3050,1.8021,
8.658673,-0.1560,0.1482,-0.1614,1.2498,-2.0584,-0.5413,-1.4675,-0.3050,1.8021,
8.687725,-0.1560,0.1482,-0.1614,1.2498,-2.0584,-0.5413,-1.7094,-0.4213,3.9686,
8.691561,-0.1560,0.1482,-0.1614,2.6786,-6.7065,1.6393,-1.7094,-0.4213,3.9686,
8.709887,-0.2029,0.2962,-0.2600,2.6786,-6.7065,1.6393,-1.7094,-0.4213,3.9686,
8.713776,-0.1609,0.4192,-0.2888,2.6786,-6.7065,1.6393,-1.7094,-0.4213,3.9686,
8.717022,-0.1450,0.5552,-0.3308,2.6786,-6.7065,1.6393,-1.7094,-0.4213,3.9686,
8.746617,-0.1450,0.5552,-0.3308,-0.3455,-4.8973,-1.4163,-1.7094,-0.4213,3.9686,
8.750250,-0.1450,0.5552,-0.3308,-0.3455,-4.8973,-1.4163,-2.1662,0.2112,6.0026,
8.768736,-0.1284,0.6700,-0.2534,-0.3455,-4.8973,-1.4163,-2.1662,0.2112,6.0026,
8.771998,-0.0466,0.7913,-0.1150,-0.3455,-4.8973,-1.4163,-2.1662,0.2112,6.0026,
8.776652,0.0059,1.0372,-0.1629,-0.3455,-4.8973,-1.4163,-2.1662,0.2112,6.0026,
8.803706,0.0059,1.0372,-0.1629,-2.8470,-0.7721,-1.2890,-2.1662,0.2112,6.0026,
8.808382,0.0059,1.0372,-0.1629,-2.8470,-0.7721,-1.2890,-1.8617,0.9707,6.7768,
8.822445,0.0361,1.5392,-0.4295,-2.8470,-0.7721,-1.2890,-1.8617,0.9707,6.7768,
8.823932,-0.2232,2.3650,-0.7142,-2.8470,-0.7721,-1.2890,-1.8617,0.9707,6.7768,
8.825446,-0.9281,2.2998,-0.6746,-2.8470,-0.7721,-1.2890,-1.8617,0.9707,6.7768,
8.861418,-0.9281,2.2998,-0.6746,-2.8470,-0.7721,-1.2890,-1.8485,0.8404,4.7223,
8.863682,-0.9281,2.2998,-0.6746,-8.1389,12.0993,-6.4711,-1.8485,0.8404,4.7223,
8.883597,-1.3146,1.5045,-0.0261,-8.1389,12.0993,-6.4711,-1.8485,0.8404,4.7223,
8.887308,-1.3085,0.9852,-0.0911,-8.1389,12.0993,-6.4711,-1.8485,0.8404,4.7223,
8.888636,-1.1505,0.7752,-0.5247,-8.1389,12.0993,-6.4711,-1.8485,0.8404,4.7223,
8.919769,-1.1505,0.7752,-0.5247,-8.1389,12.0993,-6.4711,-0.2739,-1.5451,-0.5748,
8.922889,-1.1505,0.7752,-0.5247,-16.3131,2.3216,-2.3070,-0.2739,-1.5451,-0.5748,
8.946026,-1.2902,0.7061,-0.3521,-16.3131,2.3216,-2.3070,-0.2739,-1.5451,-0.5748,
8.947921,-1.2108,0.9352,-0.2989,-16.3131,2.3216,-2.3070,-0.2739,-1.5451,-0.5748,
8.949601,-0.3431,1.7641,-0.4258,-16.3131,2.3216,-2.3070,-0.2739,-1.5451,-0.5748,
8.977738,-0.3431,1.7641,-0.4258,-16.3131,2.3216,-2.3070,-0.4413,-2.5821,-0.0918,
8.979857,-0.3431,1.7641,-0.4258,-13.0143,2.7135,-3.2922,-0.4413,-2.5821,-0.0918,
9.000918,2.0927,1.7841,0.5167,-13.0143,2.7135,-3.2922,-0.4413,-2.5821,-0.0918,
9.004467,3.2325,1.3383,-0.0899,-13.0143,2.7135,-3.2922,-0.4413,-2.5821,-0.0918,
9.007296,0.4019,1.7582,-1.3192,-13.0143,2.7135,-3.2922,-0.4413,-2.5821,-0.0918,
9.037670,0.4019,1.7582,-1.3192,16.8638,6.7639,-2.6370,-0.4413,-2.5821,-0.0918,
9.042349,0.4019,1.7582,-1.3192,16.8638,6.7639,-2.6370,0.0590,0.3277,-4.2347,
9.077340,-0.7681,1.0267,-0.5897,16.8638,6.7639,-2.6370,0.0590,0.3277,-4.2347,
9.080320,-1.0306,0.3250,0.7877,16.8638,6.7639,-2.6370,0.0590,0.3277,-4.2347,
9.082372,-0.5960,0.7630,0.2517,16.8638,6.7639,-2.6370,0.0590,0.3277,-4.2347,
9.095607,-0.5960,0.7630,0.2517,-8.5729,-2.3673,1.8426,0.0590,0.3277,-4.2347,
9.098171,-0.5960,0.7630,0.2517,-8.5729,-2.3673,1.8426,0.1718,-0.5060,-1.7391,
9.114301,-0.0498,1.0240,0.1966,-8.5729,-2.3673,1.8426,0.1718,-0.5060,-1.7391,
9.116394,-0.0264,1.1324,-0.1321,-8.5729,-2.3673,1.8426,0.1718,-0.5060,-1.7391,
9.117137,0.0168,1.0526,-0.1629,-8.5729,-2.3673,1.8426,0.1718,-0.5060,-1.7391,
9.153523,0.0168,1.0526,-0.1629,-8.5729,-2.3673,1.8426,0.1887,0.0072,-1.2653,
9.156901,0.0168,1.0526,-0.1629,-0.2542,1.1625,0.1532,0.1887,0.0072,-1.2653,
9.174046,0.1477,1.0433,-0.0740,-0.2542,1.1625,0.1532,0.1887,0.0072,-1.2653,
9.177232,0.0139,1.0277,-0.0972,-0.2542,1.1625,0.1532,0.1887,0.0072,-1.2653,
9.178712,-0.1804,1.0365,0.0193,-0.2542,1.1625,0.1532,0.1887,0.0072,-1.2653,
9.212056,-0.1804,1.0365,0.0193,-0.2542,1.1625,0.1532,0.1973,-0.1775,-1.1958,
9.217787,-0.1804,1.0365,0.0193,0.5243,0.8411,0.0809,0.1973,-0.1775,-1.1958,
9.231706,-0.0994,1.0069,-0.0330,0.5243,0.8411,0.0809,0.1973,-0.1775,-1.1958,
9.234458,0.0264,0.9635,-0.0471,0.5243,0.8411,0.0809,0.1973,-0.1775,-1.1958,
9.236545,0.0779,0.9815,-0.0164,0.5243,0.8411,0.0809,0.1973,-0.1775,-1.1958,
9.270076,0.0779,0.9815,-0.0164,0.5243,0.8411,0.0809,0.2559,0.3028,-1.2630,
9.273266,0.0779,0.9815,-0.0164,1.2522,0.4040,0.4114,0.2559,0.3028,-1.2630,
9.289732,-0.0396,1.0189,-0.0381,1.2522,0.4040,0.4114,0.2559,0.3028,-1.2630,
9.291992,-0.1773,0.9999,-0.0554,1.2522,0.4040,0.4114,0.2559,0.3028,-1.2630,
9.292789,-0.2334,0.9920,-0.0901,1.2522,0.4040,0.4114,0.2559,0.3028,-1.2630,
9.330450,-0.2334,0.9920,-0.0901,1.2522,0.4040,0.4114,0.3215,0.3409,-1.2333,
9.333924,-0.2334,0.9920,-0.0901,0.4028,0.7120,0.3244,0.3215,0.3409,-1.2333,
9.348730,-0.2400,1.0184,-0.0955,0.4028,0.7120,0.3244,0.3215,0.3409,-1.2333,
9.350868,-0.1665,0.9767,-0.0437,0.4028,0.7120,0.3244,0.3215,0.3409,-1.2333,
9.352054,-0.0982,0.9237,-0.0381,0.4028,0.7120,0.3244,0.3215,0.3409,-1.2333,
9.387660,-0.0982,0.9237,-0.0381,0.4028,0.7120,0.3244,0.3504,0.2242,-1.3219,
9.391282,-0.0982,0.9237,-0.0381,0.8928,0.5931,0.5490,0.3504,0.2242,-1.3219,
9.407927,-0.1524,0.9398,-0.1270,0.8928,0.5931,0.5490,0.3504,0.2242,-1.3219,
9.410533,-0.1514,0.9745,-0.1792,0.8928,0.5931,0.5490,0.3504,0.2242,-1.3219,
9.412254,-0.0833,1.0450,-0.1765,0.8928,0.5931,0.5490,0.3504,0.2242,-1.3219,
9.445973,-0.0833,1.0450,-0.1765,0.8928,0.5931,0.5490,0.4968,0.0251,-1.7076,
9.449353,-0.0833,1.0450,-0.1765,2.1144,1.0411,-0.1877,0.4968,0.0251,-1.7076,
9.466701,-0.1182,1.1788,-0.1255,2.1144,1.0411,-0.1877,0.4968,0.0251,-1.7076,
9.468570,-0.1631,1.2682,-0.1172,2.1144,1.0411,-0.1877,0.4968,0.0251,-1.7076,
9.469215,-0.0173,1.2282,-0.0935,2.1144,1.0411,-0.1877,0.4968,0.0251,-1.7076,
9.502814,-0.0173,1.2282,-0.0935,2.1144,1.0411,-0.1877,0.6986,0.0939,-2.1694,
9.504499,-0.0173,1.2282,-0.0935,3.3945,3.8727,0.6420,0.6986,0.0939,-2.1694,
9.522375,0.1807,1.1891,-0.0869,3.3945,3.8727,0.6420,0.6986,0.0939,-2.1694,
9.524133,0.2483,1.2816,-0.1646,3.3945,3.8727,0.6420,0.6986,0.0939,-2.1694,
9.526709,0.3619,1.6103,-0.2122,3.3945,3.8727,0.6420,0.6986,0.0939,-2.1694,
9.562200,0.3619,1.6103,-0.2122,3.3945,3.8727,0.6420,0.8100,1.5757,-2.6202,
9.564064,0.3619,1.6103,-0.2122,7.8026,5.9452,1.0288,0.8100,1.5757,-2.6202,
9.580453,0.8421,1.9267,-0.1926,7.8026,5.9452,1.0288,0.8100,1.5757,-2.6202,
9.581850,1.1092,1.6584,-0.0852,7.8026,5.9452,1.0288,0.8100,1.5757,-2.6202,
9.582482,-0.0371,1.0336,0.0947,7.8026,5.9452,1.0288,0.8100,1.5757,-2.6202,
9.620439,-0.0371,1.0336,0.0947,12.5042,9.3068,3.2042,0.8100,1.5757,-2.6202,
9.623169,-0.0371,1.0336,0.0947,12.5042,9.3068,3.2042,1.7587,1.8833,-4.1724,
9.640759,-1.1029,1.1774,-0.1453,12.5042,9.3068,3.2042,1.7587,1.8833,-4.1724,
9.644322,-1.6166,1.4181,-0.3208,12.5042,9.3068,3.2042,1.7587,1.8833,-4.1724,
9.646878,-1.6908,0.9469,-0.3841,12.5042,9.3068,3.2042,1.7587,1.8833,-4.1724,
9.680198,-1.6908,0.9469,-0.3841,12.5042,9.3068,3.2042,1.0488,-1.6520,-0.8128,
9.683402,-1.6908,0.9469,-0.3841,-7.4067,6.2207,0.6991,1.0488,-1.6520,-0.8128,
9.701596,-1.3930,0.6998,-0.4827,-7.4067,6.2207,0.6991,1.0488,-1.6520,-0.8128,
9.705596,-0.4725,0.4920,-0.4146,-7.4067,6.2207,0.6991,1.0488,-1.6520,-0.8128,
9.706685,0.1165,0.0723,0.3421,-7.4067,6.2207,0.6991,1.0488,-1.6520,-0.8128,
9.737255,0.1165,0.0723,0.3421,-7.4067,6.2207,0.6991,-0.1580,-1.0411,3.1692,
9.741284,0.1165,0.0723,0.3421,0.3758,-2.4278,1.1724,-0.1580,-1.0411,3.1692,
9.757467,0.4353,-0.3074,0.5022,0.3758,-2.4278,1.1724,-0.1580,-1.0411,3.1692,
9.760648,0.2488,-0.2246,0.0457,0.3758,-2.4278,1.1724,-0.1580,-1.0411,3.1692,
9.763277,-0.2544,0.2625,-0.1133,0.3758,-2.4278,1.1724,-0.1580,-1.0411,3.1692,
9.795660,-0.2544,0.2625,-0.1133,0.3758,-2.4278,1.1724,0.7687,-0.3732,4.2063,
9.798365,-0.2544,0.2625,-0.1133,5.6998,-8.4515,4.5341,0.7687,-0.3732,4.2063,
9.824008,-0.5560,0.5152,-0.1477,5.6998,-8.4515,4.5341,0.7687,-0.3732,4.2063,
9.826674,-0.6473,0.6343,-0.3484,5.6998,-8.4515,4.5341,0.7687,-0.3732,4.2063,
9.828206,-0.6175,0.5760,-0.0002,5.6998,-8.4515,4.5341,0.7687,-0.3732,4.2063,
9.854158,-0.6175,0.5760,-0.0002,5.6998,-8.4515,4.5341,0.1792,-2.2911,6.6723,
9.857526,-0.6175,0.5760,-0.0002,-4.3751,-2.9883,1.1791,0.1792,-2.2911,6.6723,
9.874255,-0.5943,0.6268,-0.0845,-4.3751,-2.9883,1.1791,0.1792,-2.2911,6.6723,
9.876982,-0.6658,0.8846,-0.2964,-4.3751,-2.9883,1.1791,0.1792,-2.2911,6.6723,
9.878704,-1.0133,1.3073,-0.2852,-4.3751,-2.9883,1.1791,0.1792,-2.2911,6.6723,
9.914114,-1.0133,1.3073,-0.2852,-8.2653,0.6402,1.0441,0.1792,-2.2911,6.6723,
9.917258,-1.0133,1.3073,-0.2852,-8.2653,0.6402,1.0441,0.9448,-6.9393,7.3704,
9.930839,-0.8871,1.4789,-0.3426,-8.2653,0.6402,1.0441,0.9448,-6.9393,7.3704,
9.932234,-0.5516,1.5412,-0.2271,-8.2653,0.6402,1.0441,0.9448,-6.9393,7.3704,
9.933498,-0.4849,1.4799,0.0925,-8.2653,0.6402,1.0441,0.9448,-6.9393,7.3704,
9.970128,-0.4849,1.4799,0.0925,-8.2653,0.6402,1.0441,0.2708,-7.8024,4.8106,
9.972730,-0.4849,1.4799,0.0925,-7.7006,6.4488,2.3711,0.2708,-7.8024,4.8106,
9.989978,-0.1760,1.3954,0.3152,-7.7006,6.4488,2.3711,0.2708,-7.8024,4.8106,
9.993210,-0.0115,1.2311,0.5750,-7.7006,6.4488,2.3711,0.2708,-7.8024,4.8106,
9.996654,-0.2058,0.9459,0.6002,-7.7006,6.4488,2.3711,0.2708,-7.8024,4.8106,
10.028910,-0.2058,0.9459,0.6002,-7.7006,6.4488,2.3711,-0.6821,-2.3761,0.3667,
10.032773,-0.2058,0.9459,0.6002,-2.2877,3.2435,8.5147,-0.6821,-2.3761,0.3667,
10.053086,-0.3506,0.7447,0.4700,-2.2877,3.2435,8.5147,-0.6821,-2.3761,0.3667,
10.055311,-0.8744,1.0292,0.3528,-2.2877,3.2435,8.5147,-0.6821,-2.3761,0.3667,
10.057115,-1.0895,1.7665,0.5333,-2.2877,3.2435,8.5147,-0.6821,-2.3761,0.3667,
10.087020,-1.0895,1.7665,0.5333,-2.2877,3.2435,8.5147,-0.8495,-0.1246,-1.3264,
10.090639,-1.0895,1.7665,0.5333,-7.7405,2.8717,7.5378,-0.8495,-0.1246,-1.3264,
10.107288,0.1575,1.6078,-0.1948,-7.7405,2.8717,7.5378,-0.8495,-0.1246,-1.3264,
10.111339,0.9286,1.5275,-1.1945,-7.7405,2.8717,7.5378,-0.8495,-0.1246,-1.3264,
10.114079,0.3030,1.2035,-0.7464,-7.7405,2.8717,7.5378,-0.8495,-0.1246,-1.3264,
10.145197,0.3030,1.2035,-0.7464,-7.7405,2.8717,7.5378,-0.6648,-1.0700,-1.1722,
10.148253,0.3030,1.2035,-0.7464,5.0517,5.2897,-4.1541,-0.6648,-1.0700,-1.1722,
10.165558,-0.5511,0.8438,-0.3069,5.0517,5.2897,-4.1541,-0.6648,-1.0700,-1.1722,
10.169079,-0.2976,0.7376,-0.1480,5.0517,5.2897,-4.1541,-0.6648,-1.0700,-1.1722,
10.170977,-0.1240,0.9181,0.0134,5.0517,5.2897,-4.1541,-0.6648,-1.0700,-1.1722,
10.205564,-0.1240,0.9181,0.0134,5.0517,5.2897,-4.1541,-0.3576,-0.4988,-0.3852,
10.209730,-0.1240,0.9181,0.0134,-2.3445,-0.7482,1.1556,-0.3576,-0.4988,-0.3852,
10.223612,-0.1985,1.0372,0.0254,-2.3445,-0.7482,1.1556,-0.3576,-0.4988,-0.3852,
10.226763,-0.3186,0.9857,-0.1487,-2.3445,-0.7482,1.1556,-0.3576,-0.4988,-0.3852,
10.229157,-0.3304,0.9449,-0.2283,-2.3445,-0.7482,1.1556,-0.3576,-0.4988,-0.3852,
10.262823,-0.3304,0.9449,-0.2283,-2.3445,-0.7482,1.1556,-0.0513,-0.6009,0.2199,
10.266395,-0.3304,0.9449,-0.2283,-1.9276,0.7504,1.3696,-0.0513,-0.6009,0.2199,
10.286601,-0.2823,0.9352,-0.2884,-1.9276,0.7504,1.3696,-0.0513,-0.6009,0.2199,
10.290293,-0.1392,0.9823,-0.3262,-1.9276,0.7504,1.3696,-0.0513,-0.6009,0.2199,
10.292865,0.0222,1.0204,-0.2837,-1.9276,0.7504,1.3696,-0.0513,-0.6009,0.2199,
10.319498,0.0222,1.0204,-0.2837,-1.9276,0.7504,1.3696,-0.0350,-0.5887,0.4052,
10.321733,0.0222,1.0204,-0.2837,-0.5794,0.6183,-0.4538,-0.0350,-0.5887,0.4052,
10.339488,0.0225,0.9957,-0.2090,-0.5794,0.6183,-0.4538,-0.0350,-0.5887,0.4052,
10.342864,-0.0579,0.9317,-0.2129,-0.5794,0.6183,-0.4538,-0.0350,-0.5887,0.4052,
10.344511,-0.1057,0.9256,-0.1980,-0.5794,0.6183,-0.4538,-0.0350,-0.5887,0.4052,
10.380052,-0.1057,0.9256,-0.1980,-0.5794,0.6183,-0.4538,0.1022,-0.2738,0.3038,
10.383791,-0.1057,0.9256,-0.1980,0.1420,0.3388,0.4899,0.1022,-0.2738,0.3038,
10.407842,-0.1270,0.9403,-0.1736,0.1420,0.3388,0.4899,0.1022,-0.2738,0.3038,
10.409061,-0.1494,0.9469,-0.3033,0.1420,0.3388,0.4899,0.1022,-0.2738,0.3038,
10.409853,-0.1316,0.9825,-0.3418,0.1420,0.3388,0.4899,0.1022,-0.2738,0.3038,
10.436248,-0.1316,0.9825,-0.3418,0.1420,0.3388,0.4899,0.0513,-0.3292,0.5223,
10.437952,-0.1316,0.9825,-0.3418,-0.9393,0.3792,-0.1396,0.0513,-0.3292,0.5223,
10.456569,-0.0171,1.0008,-0.3023,-0.9393,0.3792,-0.1396,0.0513,-0.3292,0.5223,
10.458985,0.0212,0.9996,-0.2444,-0.9393,0.3792,-0.1396,0.0513,-0.3292,0.5223,
10.460377,0.0071,0.9640,-0.2576,-0.9393,0.3792,-0.1396,0.0513,-0.3292,0.5223,
10.496751,0.0071,0.9640,-0.2576,-0.9393,0.3792,-0.1396,0.1551,-0.5455,0.4195,
10.500431,0.0071,0.9640,-0.2576,0.2871,0.6924,-0.0208,0.1551,-0.5455,0.4195,
10.517573,0.0168,0.9544,-0.1892,0.2871,0.6924,-0.0208,0.1551,-0.5455,0.4195,
10.520594,0.0989,0.9947,-0.1499,0.2871,0.6924,-0.0208,0.1551,-0.5455,0.4195,
10.523514,0.2744,0.9557,-0.1209,0.2871,0.6924,-0.0208,0.1551,-0.5455,0.4195,
10.553223,0.2744,0.9557,-0.1209,0.2871,0.6924,-0.0208,0.5766,-0.3726,0.0010,
10.555393,0.2744,0.9557,-0.1209,1.5571,0.5806,1.3757,0.5766,-0.3726,0.0010,
10.573329,0.2234,0.9405,-0.2271,1.5571,0.5806,1.3757,0.5766,-0.3726,0.0010,
10.577332,-0.0249,0.9898,-0.2495,1.5571,0.5806,1.3757,0.5766,-0.3726,0.0010,
10.580021,-0.1113,1.0050,-0.2200,1.5571,0.5806,1.3757,0.5766,-0.3726,0.0010,
10.613741,-0.1113,1.0050,-0.2200,1.5571,0.5806,1.3757,1.0348,-0.2022,-0.1283,
10.617357,-0.1113,1.0050,-0.2200,0.6583,0.8580,1.1121,1.0348,-0.2022,-0.1283,
10.631219,-0.0132,0.9825,-0.1848,0.6583,0.8580,1.1121,1.0348,-0.2022,-0.1283,
10.633150,0.0540,1.0145,-0.2224,0.6583,0.8580,1.1121,1.0348,-0.2022,-0.1283,
10.634022,0.1248,1.0299,-0.3008,0.6583,0.8580,1.1121,1.0348,-0.2022,-0.1283,
10.670938,0.1248,1.0299,-0.3008,0.6583,0.8580,1.1121,1.6216,-1.0087,-0.2399,
10.674383,0.1248,1.0299,-0.3008,1.2372,1.4969,1.8207,1.6216,-1.0087,-0.2399,
10.695795,0.2471,1.1573,-0.2830,1.2372,1.4969,1.8207,1.6216,-1.0087,-0.2399,
10.697712,0.3958,1.4547,-0.2107,1.2372,1.4969,1.8207,1.6216,-1.0087,-0.2399,
10.698813,0.4778,1.5558,-0.0178,1.2372,1.4969,1.8207,1.6216,-1.0087,-0.2399,
10.728737,0.4778,1.5558,-0.0178,1.2372,1.4969,1.8207,2.4021,-1.5184,-0.6909,
10.731477,0.4778,1.5558,-0.0178,5.0104,5.8229,3.4413,2.4021,-1.5184,-0.6909,
10.748759,0.4627,1.4897,0.0557,5.0104,5.8229,3.4413,2.4021,-1.5184,-0.6909,
10.759448,0.3064,1.4977,0.2007,5.0104,5.8229,3.4413,2.4021,-1.5184,-0.6909,
10.763401,0.0342,1.4462,0.3474,5.0104,5.8229,3.4413,2.4021,-1.5184,-0.6909,
10.789387,0.0342,1.4462,0.3474,5.0104,5.8229,3.4413,2.2802,-2.5595,-1.3844,
10.791805,0.0342,1.4462,0.3474,5.2984,7.4605,7.6294,2.2802,-2.5595,-1.3844,
10.806123,-0.4375,1.3766,0.3650,5.2984,7.4605,7.6294,2.2802,-2.5595,-1.3844,
10.807593,-0.9356,1.3615,0.1668,5.2984,7.4605,7.6294,2.2802,-2.5595,-1.3844,
10.808565,-1.2323,1.2091,-0.1275,5.2984,7.4605,7.6294,2.2802,-2.5595,-1.3844,
10.844250,-1.2323,1.2091,-0.1275,5.2984,7.4605,7.6294,1.8234,-4.3311,-0.6909,
10.845475,-1.2323,1.2091,-0.1275,-4.0732,6.4980,6.6726,1.8234,-4.3311,-0.6909,
10.863629,-1.1603,1.0619,-0.5455,-4.0732,6.4980,6.6726,1.8234,-4.3311,-0.6909,
10.864674,-0.6068,1.0528,-0.5696,-4.0732,6.4980,6.6726,1.8234,-4.3311,-0.6909,
10.865549,-0.1406,0.8700,-0.2678,-4.0732,6.4980,6.6726,1.8234,-4.3311,-0.6909,
10.902340,-0.1406,0.8700,-0.2678,-4.0732,6.4980,6.6726,0.1932,-5.1745,1.6019,
10.903388,-0.1406,0.8700,-0.2678,-0.9667,2.8992,-0.5790,0.1932,-5.1745,1.6019,
10.922176,0.1758,0.6094,0.0049,-0.9667,2.8992,-0.5790,0.1932,-5.1745,1.6019,
10.923368,0.1111,0.5174,0.1467,-0.9667,2.8992,-0.5790,0.1932,-5.1745,1.6019,
10.924384,-0.1052,0.5433,0.0945,-0.9667,2.8992,-0.5790,0.1932,-5.1745,1.6019,
10.960817,-0.1052,0.5433,0.0945,-0.9667,2.8992,-0.5790,-0.4938,-3.0089,3.0334,
10.962803,-0.1052,0.5433,0.0945,5.0720,-2.3342,3.5773,-0.4938,-3.0089,3.0334,
10.980635,-0.1809,0.5511,0.0342,5.0720,-2.3342,3.5773,-0.4938,-3.0089,3.0334,
10.981708,-0.1262,0.5406,-0.0125,5.0720,-2.3342,3.5773,-0.4938,-3.0089,3.0334,
10.982451,-0.0974,0.5613,-0.0498,5.0720,-2.3342,3.5773,-0.4938,-3.0089,3.0334,
11.019108,-0.0974,0.5613,-0.0498,5.0720,-2.3342,3.5773,-0.6131,-0.6493,4.7772,
11.021037,-0.0974,0.5613,-0.0498,0.9096,-3.3756,2.1880,-0.6131,-0.6493,4.7772,
11.038577,-0.1099,0.6570,-0.0899,0.9096,-3.3756,2.1880,-0.6131,-0.6493,4.7772,
11.039884,-0.1646,0.8385,-0.1636,0.9096,-3.3756,2.1880,-0.6131,-0.6493,4.7772,
11.041576,-0.2027,1.0419,-0.2151,0.9096,-3.3756,2.1880,-0.6131,-0.6493,4.7772,
11.080238,-0.2027,1.0419,-0.2151,0.9096,-3.3756,2.1880,-1.3920,-0.1374,5.8876,
11.081980,-0.2027,1.0419,-0.2151,-2.3807,-0.8671,-0.0012,-1.3920,-0.1374,5.8876,
11.106058,-0.2410,1.2257,-0.2378,-2.3807,-0.8671,-0.0012,-1.3920,-0.1374,5.8876,
11.107679,-0.4212,1.5297,-0.3560,-2.3807,-0.8671,-0.0012,-1.3920,-0.1374,5.8876,
11.109054,-0.6570,1.6865,-0.4131,-2.3807,-0.8671,-0.0012,-1.3920,-0.1374,5.8876,
11.136039,-0.6570,1.6865,-0.4131,-2.3807,-0.8671,-0.0012,-1.7052,-0.5777,5.4854,
11.137571,-0.6570,1.6865,-0.4131,-7.8198,5.8640,-2.5215,-1.7052,-0.5777,5.4854,
11.155879,-0.7957,1.5241,-0.2422,-7.8198,5.8640,-2.5215,-1.7052,-0.5777,5.4854,
11.157751,-1.0067,1.4523,-0.1995,-7.8198,5.8640,-2.5215,-1.7052,-0.5777,5.4854,
11.160324,-1.1691,1.1932,-0.1487,-7.8198,5.8640,-2.5215,-1.7052,-0.5777,5.4854,
11.194269,-1.1691,1.1932,-0.1487,-7.8198,5.8640,-2.5215,-0.8471,-0.5610,1.2142,
11.196158,-1.1691,1.1932,-0.1487,-13.5716,5.1273,-1.4252,-0.8471,-0.5610,1.2142,
11.214453,-1.1688,0.9173,-0.2578,-13.5716,5.1273,-1.4252,-0.8471,-0.5610,1.2142,
11.216000,-1.2672,0.7513,-0.3357,-13.5716,5.1273,-1.4252,-0.8471,-0.5610,1.2142,
11.216959,-1.3119,1.0250,-0.6517,-13.5716,5.1273,-1.4252,-0.8471,-0.5610,1.2142,
11.252601,-1.3119,1.0250,-0.6517,-13.5716,5.1273,-1.4252,-0.3904,-1.6410,-0.9315,
11.254149,-1.3119,1.0250,-0.6517,-15.3273,0.0963,-3.3507,-0.3904,-1.6410,-0.9315,
11.272055,-0.1299,1.6357,-0.8553,-15.3273,0.0963,-3.3507,-0.3904,-1.6410,-0.9315,
11.274183,2.0676,1.7280,0.1756,-15.3273,0.0963,-3.3507,-0.3904,-1.6410,-0.9315,
11.275862,1.9975,1.4616,-0.2259,-15.3273,0.0963,-3.3507,-0.3904,-1.6410,-0.9315,
11.310941,1.9975,1.4616,-0.2259,-15.3273,0.0963,-3.3507,-0.0242,-1.3612,-2.4015,
11.312982,1.9975,1.4616,-0.2259,10.8960,6.6062,-2.0188,-0.0242,-1.3612,-2.4015,
11.339673,-0.5628,1.3090,-0.8890,10.8960,6.6062,-2.0188,-0.0242,-1.3612,-2.4015,
11.342423,-0.8079,0.6346,-0.3667,10.8960,6.6062,-2.0188,-0.0242,-1.3612,-2.4015,
11.344663,-0.5035,0.5972,0.6905,10.8960,6.6062,-2.0188,-0.0242,-1.3612,-2.4015,
11.369966,-0.5035,0.5972,0.6905,10.8960,6.6062,-2.0188,-0.3213,-0.2468,-1.5834,
11.373229,-0.5035,0.5972,0.6905,-7.0944,-0.9964,-1.0368,-0.3213,-0.2468,-1.5834,
11.390962,-0.0154,0.9168,0.6177,-7.0944,-0.9964,-1.0368,-0.3213,-0.2468,-1.5834,
11.395037,0.3733,1.0748,0.0906,-7.0944,-0.9964,-1.0368,-0.3213,-0.2468,-1.5834,
11.397367,0.1397,1.0807,-0.3423,-7.0944,-0.9964,-1.0368,-0.3213,-0.2468,-1.5834,
11.429857,0.1397,1.0807,-0.3423,-7.0944,-0.9964,-1.0368,0.1741,-0.0187,-1.4200,
11.433289,0.1397,1.0807,-0.3423,1.4027,0.6886,2.0665,0.1741,-0.0187,-1.4200,
11.458371,-0.0400,1.0829,-0.0501,1.4027,0.6886,2.0665,0.1741,-0.0187,-1.4200,
11.460447,-0.2781,1.0130,-0.0640,1.4027,0.6886,2.0665,0.1741,-0.0187,-1.4200,
11.462540,-0.3936,1.0260,-0.3460,1.4027,0.6886,2.0665,0.1741,-0.0187,-1.4200,
11.486770,-0.3936,1.0260,-0.3460,-2.0753,0.8377,-0.6051,0.1741,-0.0187,-1.4200,
11.488555,-0.3936,1.0260,-0.3460,-2.0753,0.8377,-0.6051,0.0344,-0.6499,-0.7405,
11.505524,-0.0225,1.0621,-0.1487,-2.0753,0.8377,-0.6051,0.0344,-0.6499,-0.7405,
11.507089,0.1538,1.0589,-0.1799,-2.0753,0.8377,-0.6051,0.0344,-0.6499,-0.7405,
11.507546,0.1323,1.0221,-0.0623,-2.0753,0.8377,-0.6051,0.0344,-0.6499,-0.7405,
11.544309,0.1323,1.0221,-0.0623,-2.0753,0.8377,-0.6051,0.0729,0.0112,-0.9474,
11.546318,0.1323,1.0221,-0.0623,1.6003,0.9236,-0.3320,0.0729,0.0112,-0.9474,
11.564324,0.0811,0.9762,-0.0391,1.6003,0.9236,-0.3320,0.0729,0.0112,-0.9474,
11.566322,-0.0393,0.9872,0.0220,1.6003,0.9236,-0.3320,0.0729,0.0112,-0.9474,
11.567159,-0.0923,0.9955,-0.0190,1.6003,0.9236,-0.3320,0.0729,0.0112,-0.9474,
11.602834,-0.0923,0.9955,-0.0190,1.6003,0.9236,-0.3320,0.2413,0.1800,-1.1409,
11.604622,-0.0923,0.9955,-0.0190,1.1626,0.3984,0.9530,0.2413,0.1800,-1.1409,
11.624169,-0.0940,1.0213,-0.0640,1.1626,0.3984,0.9530,0.2413,0.1800,-1.1409,
11.627649,-0.0588,1.0040,-0.0645,1.1626,0.3984,0.9530,0.2413,0.1800,-1.1409,
11.630123,-0.0635,0.9862,-0.0798,1.1626,0.3984,0.9530,0.2413,0.1800,-1.1409,
11.661321,-0.0635,0.9862,-0.0798,1.1626,0.3984,0.9530,0.3506,0.2157,-1.3657,
11.663646,-0.0635,0.9862,-0.0798,1.3161,0.7170,0.5899,0.3506,0.2157,-1.3657,
11.681759,-0.0593,0.9901,-0.1350,1.3161,0.7170,0.5899,0.3506,0.2157,-1.3657,
11.683636,0.0073,1.0130,-0.0999,1.3161,0.7170,0.5899,0.3506,0.2157,-1.3657,
11.686169,0.0208,1.1022,-0.0520,1.3161,0.7170,0.5899,0.3506,0.2157,-1.3657,
11.720172,0.0208,1.1022,-0.0520,1.3161,0.7170,0.5899,0.6237,0.1128,-1.8633,
11.723204,0.0208,1.1022,-0.0520,2.8380,1.3258,0.6637,0.6237,0.1128,-1.8633,
11.741213,-0.1209,1.2296,-0.0693,2.8380,1.3258,0.6637,0.6237,0.1128,-1.8633,
11.745885,-0.1111,1.2489,-0.1253,2.8380,1.3258,0.6637,0.6237,0.1128,-1.8633,
11.747320,0.0654,1.2443,-0.1397,2.8380,1.3258,0.6637,0.6237,0.1128,-1.8633,
11.777649,0.0654,1.2443,-0.1397,2.8380,1.3258,0.6637,0.9875,0.2030,-2.2070,
11.779355,0.0654,1.2443,-0.1397,3.4173,3.8344,1.0254,0.9875,0.2030,-2.2070,
11.797414,0.1585,1.3112,-0.1778,3.4173,3.8344,1.0254,0.9875,0.2030,-2.2070,
11.798930,0.2801,1.4787,-0.0859,3.4173,3.8344,1.0254,0.9875,0.2030,-2.2070,
11.799653,0.5975,1.7211,-0.0066,3.4173,3.8344,1.0254,0.9875,0.2030,-2.2070,
11.836776,0.5975,1.7211,-0.0066,3.4173,3.8344,1.0254,1.0967,0.3934,-2.5009,
11.839107,0.5975,1.7211,-0.0066,8.3072,7.1045,1.8164,1.0967,0.3934,-2.5009,
11.856204,0.9898,1.8537,0.0554,8.3072,7.1045,1.8164,1.0967,0.3934,-2.5009,
11.858588,1.0948,1.5790,0.2569,8.3072,7.1045,1.8164,1.0967,0.3934,-2.5009,
11.860216,0.1218,1.1207,0.1443,8.3072,7.1045,1.8164,1.0967,0.3934,-2.5009,
11.894716,0.1218,1.1207,0.1443,8.3072,7.1045,1.8164,1.4133,2.5903,-4.1677,
11.898744,0.1218,1.1207,0.1443,13.0548,8.7250,5.5109,1.4133,2.5903,-4.1677,
11.914098,-0.8238,1.2650,-0.3006,13.0548,8.7250,5.5109,1.4133,2.5903,-4.1677,
11.915696,-1.0611,1.4083,-0.3213,13.0548,8.7250,5.5109,1.4133,2.5903,-4.1677,
11.916408,-0.8328,1.0033,-0.3704,13.0548,8.7250,5.5109,1.4133,2.5903,-4.1677,
11.953151,-0.8328,1.0033,-0.3704,13.0548,8.7250,5.5109,0.6469,0.6595,-1.6477,
11.955635,-0.8328,1.0033,-0.3704,-2.5932,6.4918,1.2053,0.6469,0.6595,-1.6477,
11.973271,-0.6636,0.6619,-0.3499,-2.5932,6.4918,1.2053,0.6469,0.6595,-1.6477,
11.976957,-0.6038,0.5608,-0.3382,-2.5932,6.4918,1.2053,0.6469,0.6595,-1.6477,
11.978609,-0.4097,0.4100,-0.3829,-2.5932,6.4918,1.2053,0.6469,0.6595,-1.6477,
12.011501,-0.4097,0.4100,-0.3829,-2.5932,6.4918,1.2053,-1.2832,-0.1627,1.4254,
12.013897,-0.4097,0.4100,-0.3829,0.3443,-0.9872,0.4425,-1.2832,-0.1627,1.4254,
12.036587,-0.3418,0.2696,-0.2071,0.3443,-0.9872,0.4425,-1.2832,-0.1627,1.4254,
12.038136,-0.3357,0.1668,-0.0503,0.3443,-0.9872,0.4425,-1.2832,-0.1627,1.4254,
12.039318,-0.2610,0.1631,-0.1004,0.3443,-0.9872,0.4425,-1.2832,-0.1627,1.4254,
12.069380,-0.2610,0.1631,-0.1004,0.3443,-0.9872,0.4425,-1.8949,-0.8859,3.9348,
12.070933,-0.2610,0.1631,-0.1004,1.2701,-5.8198,1.6943,-1.8949,-0.8859,3.9348,
12.089614,-0.2307,0.2398,-0.2193,1.2701,-5.8198,1.6943,-1.8949,-0.8859,3.9348,
12.091007,-0.1951,0.3855,-0.3748,1.2701,-5.8198,1.6943,-1.8949,-0.8859,3.9348,
12.091825,-0.1477,0.5433,-0.3467,1.2701,-5.8198,1.6943,-1.8949,-0.8859,3.9348,
12.128380,-0.1477,0.5433,-0.3467,-0.3673,-5.2065,-1.5600,-1.8949,-0.8859,3.9348,
12.130100,-0.1477,0.5433,-0.3467,-0.3673,-5.2065,-1.5600,-2.5695,-0.5127,5.8267,
12.147641,-0.1333,0.5994,-0.1778,-0.3673,-5.2065,-1.5600,-2.5695,-0.5127,5.8267,
12.149148,-0.1663,0.7227,-0.0813,-0.3673,-5.2065,-1.5600,-2.5695,-0.5127,5.8267,
12.150017,-0.1748,1.0331,-0.1616,-0.3673,-5.2065,-1.5600,-2.5695,-0.5127,5.8267,
12.186397,-0.1748,1.0331,-0.1616,-0.3673,-5.2065,-1.5600,-2.2352,0.0487,6.7748,
12.188017,-0.1748,1.0331,-0.1616,-3.5998,-1.3080,-1.0476,-2.2352,0.0487,6.7748,
12.205456,-0.0410,1.6203,-0.3584,-3.5998,-1.3080,-1.0476,-2.2352,0.0487,6.7748,
12.207057,-0.1277,2.3393,-0.6011,-3.5998,-1.3080,-1.0476,-2.2352,0.0487,6.7748,
12.207983,-0.7474,2.1679,-0.3653,-3.5998,-1.3080,-1.0476,-2.2352,0.0487,6.7748,
12.244024,-0.7474,2.1679,-0.3653,-3.5998,-1.3080,-1.0476,-1.9743,1.4350,4.5640,
12.246029,-0.7474,2.1679,-0.3653,-7.1823,11.7042,-5.1945,-1.9743,1.4350,4.5640,
12.263667,-1.0829,1.4550,-0.0552,-7.1823,11.7042,-5.1945,-1.9743,1.4350,4.5640,
12.265572,-1.1180,1.0484,-0.3604,-7.1823,11.7042,-5.1945,-1.9743,1.4350,4.5640,
12.267012,-1.1280,0.8123,-0.6783,-7.1823,11.7042,-5.1945,-1.9743,1.4350,4.5640,
12.302561,-1.1280,0.8123,-0.6783,-7.1823,11.7042,-5.1945,-0.2464,-0.4268,-0.8124,
12.304489,-1.1280,0.8123,-0.6783,-14.4465,2.3039,-4.3818,-0.2464,-0.4268,-0.8124,
12.327459,-1.3964,0.5914,-0.4590,-14.4465,2.3039,-4.3818,-0.2464,-0.4268,-0.8124,
12.329653,-1.4125,0.8099,-0.5987,-14.4465,2.3039,-4.3818,-0.2464,-0.4268,-0.8124,
12.331054,-0.1878,1.7944,-0.4290,-14.4465,2.3039,-4.3818,-0.2464,-0.4268,-0.8124,
12.361130,-0.1878,1.7944,-0.4290,-14.4465,2.3039,-4.3818,-0.5897,-2.5526,-0.0464,
12.362789,-0.1878,1.7944,-0.4290,-13.2174,1.8941,-5.3349,-0.5897,-2.5526,-0.0464,
12.387526,2.1577,1.8229,0.6925,-13.2174,1.8941,-5.3349,-0.5897,-2.5526,-0.0464,
12.391384,2.5894,1.5639,0.0427,-13.2174,1.8941,-5.3349,-0.5897,-2.5526,-0.0464,
12.394191,-0.2520,1.5522,-1.3856,-13.2174,1.8941,-5.3349,-0.5897,-2.5526,-0.0464,
12.419203,-0.2520,1.5522,-1.3856,-13.2174,1.8941,-5.3349,0.1600,0.4356,-3.7334,
12.421056,-0.2520,1.5522,-1.3856,12.9749,6.9285,-2.5150,0.1600,0.4356,-3.7334,
12.441214,-0.8998,0.9520,-0.2996,12.9749,6.9285,-2.5150,0.1600,0.4356,-3.7334,
12.443580,-0.5611,0.5606,0.5806,12.9749,6.9285,-2.5150,0.1600,0.4356,-3.7334,
12.444730,-0.4749,0.9601,0.0466,12.9749,6.9285,-2.5150,0.1600,0.4356,-3.7334,
12.477542,-0.4749,0.9601,0.0466,12.9749,6.9285,-2.5150,0.0662,-0.2223,-1.3689,
12.479412,-0.4749,0.9601,0.0466,-7.1757,-1.2160,0.7175,0.0662,-0.2223,-1.3689,
12.502412,-0.1665,1.1146,0.2381,-7.1757,-1.2160,0.7175,0.0662,-0.2223,-1.3689,
12.506045,0.1209,1.0492,-0.0022,-7.1757,-1.2160,0.7175,0.0662,-0.2223,-1.3689,
12.508014,0.3316,1.0267,0.0437,-7.1757,-1.2160,0.7175,0.0662,-0.2223,-1.3689,
12.536147,0.3316,1.0267,0.0437,-7.1757,-1.2160,0.7175,0.1498,0.0629,-1.1887,
12.538022,0.3316,1.0267,0.0437,0.7165,1.0714,0.6301,0.1498,0.0629,-1.1887,
12.556306,0.2598,0.9798,0.0247,0.7165,1.0714,0.6301,0.1498,0.0629,-1.1887,
12.558874,-0.1555,0.9903,0.1372,0.7165,1.0714,0.6301,0.1498,0.0629,-1.1887,
12.560583,-0.2810,0.9881,0.1260,0.7165,1.0714,0.6301,0.1498,0.0629,-1.1887,
12.595407,-0.2810,0.9881,0.1260,0.7165,1.0714,0.6301,0.1999,-0.0014,-1.0108,
12.598527,-0.2810,0.9881,0.1260,-0.2393,0.3084,0.7534,0.1999,-0.0014,-1.0108,
12.615839,-0.0689,0.9759,0.0696,-0.2393,0.3084,0.7534,0.1999,-0.0014,-1.0108,
12.619067,0.0913,0.9713,0.0369,-0.2393,0.3084,0.7534,0.1999,-0.0014,-1.0108,
12.620960,0.0847,1.0082,0.0698,-0.2393,0.3084,0.7534,0.1999,-0.0014,-1.0108,
12.653321,0.0847,1.0082,0.0698,-0.2393,0.3084,0.7534,0.2525,0.2686,-1.1272,
12.656101,0.0847,1.0082,0.0698,1.2821,0.3339,0.5282,0.2525,0.2686,-1.1272,
12.673563,0.0076,1.0155,0.0352,1.2821,0.3339,0.5282,0.2525,0.2686,-1.1272,
12.676917,-0.0571,1.0108,0.0022,1.2821,0.3339,0.5282,0.2525,0.2686,-1.1272,
12.682922,-0.1106,1.0189,0.0105,1.2821,0.3339,0.5282,0.2525,0.2686,-1.1272,
12.710762,-0.1106,1.0189,0.0105,1.2821,0.3339,0.5282,0.3154,0.3160,-1.2608,
12.712066,-0.1106,1.0189,0.0105,1.0722,0.7100,0.2979,0.3154,0.3160,-1.2608,
12.730836,-0.1262,1.0187,0.0339,1.0722,0.7100,0.2979,0.3154,0.3160,-1.2608,
12.732730,-0.0571,0.9847,0.0452,1.0722,0.7100,0.2979,0.3154,0.3160,-1.2608,
12.733838,-0.0103,0.9388,-0.0066,1.0722,0.7100,0.2979,0.3154,0.3160,-1.2608,
12.770387,-0.0103,0.9388,-0.0066,1.0722,0.7100,0.2979,0.3286,0.3093,-1.6062,
12.773347,-0.0103,0.9388,-0.0066,1.7851,0.5582,0.5802,0.3286,0.3093,-1.6062,
12.788920,-0.0159,0.9256,-0.0391,1.7851,0.5582,0.5802,0.3286,0.3093,-1.6062,
12.790222,-0.1143,0.9986,-0.0566,1.7851,0.5582,0.5802,0.3286,0.3093,-1.6062,
12.791190,-0.2461,1.1085,-0.0789,1.7851,0.5582,0.5802,0.3286,0.3093,-1.6062,
12.828652,-0.2461,1.1085,-0.0789,1.7851,0.5582,0.5802,0.3808,-0.0014,-1.9594,
12.831688,-0.2461,1.1085,-0.0789,2.1681,1.1787,-0.0308,0.3808,-0.0014,-1.9594,
12.847956,-0.2342,1.1510,-0.0713,2.1681,1.1787,-0.0308,0.3808,-0.0014,-1.9594,
12.850178,-0.1314,1.1454,-0.0513,2.1681,1.1787,-0.0308,0.3808,-0.0014,-1.9594,
12.851974,-0.0303,1.1466,-0.0518,2.1681,1.1787,-0.0308,0.3808,-0.0014,-1.9594,
12.886861,-0.0303,1.1466,-0.0518,2.1681,1.1787,-0.0308,0.4253,0.2890,-2.2989,
12.888741,-0.0303,1.1466,-0.0518,3.1745,3.0164,0.2443,0.4253,0.2890,-2.2989,
12.906328,0.0095,1.1854,-0.0942,3.1745,3.0164,0.2443,0.4253,0.2890,-2.2989,
12.908167,0.1497,1.4745,-0.0681,3.1745,3.0164,0.2443,0.4253,0.2890,-2.2989,
12.909357,0.6641,1.9397,-0.0161,3.1745,3.0164,0.2443,0.4253,0.2890,-2.2989,
12.944626,0.6641,1.9397,-0.0161,3.1745,3.0164,0.2443,0.5952,2.1556,-2.7800,
12.947813,0.6641,1.9397,-0.0161,8.1264,7.5287,1.1258,0.5952,2.1556,-2.7800,
12.968048,1.2684,2.0698,-0.3670,8.1264,7.5287,1.1258,0.5952,2.1556,-2.7800,
12.969879,1.2672,1.5275,-0.3409,8.1264,7.5287,1.1258,0.5952,2.1556,-2.7800,
12.970736,-0.0364,0.8619,-0.1204,8.1264,7.5287,1.1258,0.5952,2.1556,-2.7800,
13.002922,-0.0364,0.8619,-0.1204,8.1264,7.5287,1.1258,1.5023,3.1600,-4.7939,
13.005359,-0.0364,0.8619,-0.1204,14.7190,8.8772,0.7031,1.5023,3.1600,-4.7939,
13.023701,-1.1588,0.9605,-0.3118,14.7190,8.8772,0.7031,1.5023,3.1600,-4.7939,
13.027812,-1.7795,1.2780,-0.4720,14.7190,8.8772,0.7031,1.5023,3.1600,-4.7939,
13.030142,-1.7614,0.8619,-0.3570,14.7190,8.8772,0.7031,1.5023,3.1600,-4.7939,
13.061946,-1.7614,0.8619,-0.3570,14.7190,8.8772,0.7031,0.5905,-0.7035,-0.5815,
13.064988,-1.7614,0.8619,-0.3570,-8.3251,4.7031,-0.4086,0.5905,-0.7035,-0.5815,
13.082364,-1.2806,0.4627,-0.3482,-8.3251,4.7031,-0.4086,0.5905,-0.7035,-0.5815,
13.085725,-0.7061,0.2622,-0.3623,-8.3251,4.7031,-0.4086,0.5905,-0.7035,-0.5815,
13.087014,-0.2735,0.0520,0.1406,-8.3251,4.7031,-0.4086,0.5905,-0.7035,-0.5815,
13.119702,-0.2735,0.0520,0.1406,-8.3251,4.7031,-0.4086,-0.4714,-1.5652,3.3513,
13.122363,-0.2735,0.0520,0.1406,-1.2616,-4.1851,0.6659,-0.4714,-1.5652,3.3513,
13.143172,0.0842,-0.2432,0.3833,-1.2616,-4.1851,0.6659,-0.4714,-1.5652,3.3513,
13.146348,0.2022,-0.3350,0.1775,-1.2616,-4.1851,0.6659,-0.4714,-1.5652,3.3513,
13.147774,-0.0322,-0.0059,-0.1255,-1.2616,-4.1851,0.6659,-0.4714,-1.5652,3.3513,
13.178198,-0.0322,-0.0059,-0.1255,4.9579,-9.7057,4.1675,-0.4714,-1.5652,3.3513,
13.181224,-0.0322,-0.0059,-0.1255,4.9579,-9.7057,4.1675,1.0871,-0.5864,4.6233,
13.213382,-0.0806,0.3223,-0.3033,4.9579,-9.7057,4.1675,1.0871,-0.5864,4.6233,
13.215992,-0.1509,0.5699,-0.3948,4.9579,-9.7057,4.1675,1.0871,-0.5864,4.6233,
13.218354,-0.6595,0.6815,-0.0872,4.9579,-9.7057,4.1675,1.0871,-0.5864,4.6233,
13.236494,-0.6595,0.6815,-0.0872,-1.3140,-3.4586,0.2484,1.0871,-0.5864,4.6233,
13.238306,-0.6595,0.6815,-0.0872,-1.3140,-3.4586,0.2484,0.8041,-1.9546,5.9352,
13.255733,-0.9400,0.6915,-0.1494,-1.3140,-3.4586,0.2484,0.8041,-1.9546,5.9352,
13.257239,-1.1683,0.8243,-0.4534,-1.3140,-3.4586,0.2484,0.8041,-1.9546,5.9352,
13.258071,-1.1967,1.0465,-0.5120,-1.3140,-3.4586,0.2484,0.8041,-1.9546,5.9352,
13.294713,-1.1967,1.0465,-0.5120,-1.3140,-3.4586,0.2484,1.6605,-7.7224,7.2256,
13.297167,-1.1967,1.0465,-0.5120,-11.2448,-0.0856,-0.1175,1.6605,-7.7224,7.2256,
13.317744,-0.8844,1.1918,-0.5355,-11.2448,-0.0856,-0.1175,1.6605,-7.7224,7.2256,
13.319341,-0.6710,1.3707,-0.4722,-11.2448,-0.0856,-0.1175,1.6605,-7.7224,7.2256,
13.320471,-0.5499,1.4919,-0.1594,-11.2448,-0.0856,-0.1175,1.6605,-7.7224,7.2256,
13.354025,-0.5499,1.4919,-0.1594,-11.2448,-0.0856,-0.1175,0.8678,-8.9398,3.9558,
13.357710,-0.5499,1.4919,-0.1594,-7.0706,5.0351,0.4210,0.8678,-8.9398,3.9558,
13.372544,-0.3626,1.4025,0.2305,-7.0706,5.0351,0.4210,0.8678,-8.9398,3.9558,
13.374099,-0.5052,1.2335,0.3694,-7.0706,5.0351,0.4210,0.8678,-8.9398,3.9558,
13.375422,-0.5804,1.5277,0.2617,-7.0706,5.0351,0.4210,0.8678,-8.9398,3.9558,
13.412240,-0.5804,1.5277,0.2617,-7.0706,5.0351,0.4210,-0.8780,-0.8238,-0.2651,
13.418712,-0.5804,1.5277,0.2617,-4.5019,5.1056,6.5263,-0.8780,-0.8238,-0.2651,
13.441845,0.4297,0.8416,1.4274,-4.5019,5.1056,6.5263,-0.8780,-0.8238,-0.2651,
13.444458,0.8983,0.6500,0.2022,-4.5019,5.1056,6.5263,-0.8780,-0.8238,-0.2651,
13.446927,0.1729,1.6413,-0.7506,-4.5019,5.1056,6.5263,-0.8780,-0.8238,-0.2651,
13.469817,0.1729,1.6413,-0.7506,-4.5019,5.1056,6.5263,-0.7689,0.9693,-1.2895,
13.472320,0.1729,1.6413,-0.7506,5.4876,1.5881,6.1236,-0.7689,0.9693,-1.2895,
13.489541,-0.2244,2.1711,-1.0016,5.4876,1.5881,6.1236,-0.7689,0.9693,-1.2895,
13.492189,-0.5313,1.1947,-0.5433,5.4876,1.5881,6.1236,-0.7689,0.9693,-1.2895,
13.494208,-0.2029,0.8258,-0.2539,5.4876,1.5881,6.1236,-0.7689,0.9693,-1.2895,
13.528562,-0.2029,0.8258,-0.2539,5.4876,1.5881,6.1236,-0.7253,-1.2675,-0.2009,
13.532084,-0.2029,0.8258,-0.2539,-2.1877,4.8427,-3.0009,-0.7253,-1.2675,-0.2009,
13.548167,0.1939,0.8270,-0.2061,-2.1877,4.8427,-3.0009,-0.7253,-1.2675,-0.2009,
13.551994,-0.0657,0.8409,0.1035,-2.1877,4.8427,-3.0009,-0.7253,-1.2675,-0.2009,
13.553295,-0.2981,0.9337,0.1028,-2.1877,4.8427,-3.0009,-0.7253,-1.2675,-0.2009,
13.587180,-0.2981,0.9337,0.1028,-2.1877,4.8427,-3.0009,-0.2138,-0.1321,-0.1568,
13.590813,-0.2981,0.9337,0.1028,0.4837,-0.3709,2.7121,-0.2138,-0.1321,-0.1568,
13.606705,-0.4056,0.9762,-0.0984,0.4837,-0.3709,2.7121,-0.2138,-0.1321,-0.1568,
13.610489,-0.3145,1.0135,-0.1843,0.4837,-0.3709,2.7121,-0.2138,-0.1321,-0.1568,
13.613341,-0.1746,0.9815,-0.2971,0.4837,-0.3709,2.7121,-0.2138,-0.1321,-0.1568,
13.644367,-0.1746,0.9815,-0.2971,0.4837,-0.3709,2.7121,0.0495,-0.7216,0.4176,
13.647032,-0.1746,0.9815,-0.2971,-1.9534,0.8066,0.7872,0.0495,-0.7216,0.4176,
13.684031,-0.2100,0.9725,-0.3338,-1.9534,0.8066,0.7872,0.0495,-0.7216,0.4176,
13.693073,-0.2056,0.9708,-0.3142,-1.9534,0.8066,0.7872,0.0495,-0.7216,0.4176,
13.694770,-0.0711,0.9420,-0.3179,-1.9534,0.8066,0.7872,0.0495,-0.7216,0.4176,
13.703382,-0.0711,0.9420,-0.3179,-1.9534,0.8066,0.7872,-0.0016,-0.7381,0.5809,
13.706121,-0.0711,0.9420,-0.3179,-0.7946,0.4876,-0.5041,-0.0016,-0.7381,0.5809,
13.722316,0.0732,0.9308,-0.2901,-0.7946,0.4876,-0.5041,-0.0016,-0.7381,0.5809,
13.724143,0.1304,0.9525,-0.1944,-0.7946,0.4876,-0.5041,-0.0016,-0.7381,0.5809,
13.726073,0.0840,0.9623,-0.2786,-0.7946,0.4876,-0.5041,-0.0016,-0.7381,0.5809,
13.761668,0.0840,0.9623,-0.2786,1.6773,0.3636,0.2043,-0.0016,-0.7381,0.5809,
13.764310,0.0840,0.9623,-0.2786,1.6773,0.3636,0.2043,0.1154,-0.2462,0.1287,
13.791973,0.0022,1.0148,-0.2837,1.6773,0.3636,0.2043,0.1154,-0.2462,0.1287,
13.793103,0.0063,1.0025,-0.1729,1.6773,0.3636,0.2043,0.1154,-0.2462,0.1287,
13.794283,0.0396,0.9215,-0.1626,1.6773,0.3636,0.2043,0.1154,-0.2462,0.1287,
13.819353,0.0396,0.9215,-0.1626,1.6773,0.3636,0.2043,0.3922,-0.4807,-0.1303,
13.820991,0.0396,0.9215,-0.1626,1.0230,0.7259,0.8409,0.3922,-0.4807,-0.1303,
13.839359,0.0410,0.9347,-0.2312,1.0230,0.7259,0.8409,0.3922,-0.4807,-0.1303,
13.841263,0.0161,0.9735,-0.1853,1.0230,0.7259,0.8409,0.3922,-0.4807,-0.1303,
13.842725,-0.0479,0.9662,-0.0925,1.0230,0.7259,0.8409,0.3922,-0.4807,-0.1303,
13.878943,-0.0479,0.9662,-0.0925,1.0230,0.7259,0.8409,0.7746,-0.2262,-0.3651,
13.880995,-0.0479,0.9662,-0.0925,1.1045,0.6632,1.5592,0.7746,-0.2262,-0.3651,
13.898226,-0.1585,0.9620,-0.1865,1.1045,0.6632,1.5592,0.7746,-0.2262,-0.3651,
13.903152,-0.2808,0.9667,-0.3086,1.1045,0.6632,1.5592,0.7746,-0.2262,-0.3651,
13.905541,-0.2027,1.0135,-0.3399,1.1045,0.6632,1.5592,0.7746,-0.2262,-0.3651,
13.937202,-0.2027,1.0135,-0.3399,1.1045,0.6632,1.5592,1.0977,-0.2681,-0.0256,
13.940117,-0.2027,1.0135,-0.3399,-0.9391,1.0914,1.0112,1.0977,-0.2681,-0.0256,
13.957570,-0.0137,1.0726,-0.3514,-0.9391,1.0914,1.0112,1.0977,-0.2681,-0.0256,
13.960738,0.0415,1.1222,-0.3628,-0.9391,1.0914,1.0112,1.0977,-0.2681,-0.0256,
13.962793,0.0571,1.1459,-0.4305,-0.9391,1.0914,1.0112,1.0977,-0.2681,-0.0256,
13.995045,0.0571,1.1459,-0.4305,-0.9391,1.0914,1.0112,1.6687,-0.7422,-0.1213,
13.996857,0.0571,1.1459,-0.4305,1.6456,2.7568,0.7423,1.6687,-0.7422,-0.1213,
14.013930,0.1406,1.2941,-0.3587,1.6456,2.7568,0.7423,1.6687,-0.7422,-0.1213,
14.015085,0.2693,1.5368,-0.1526,1.6456,2.7568,0.7423,1.6687,-0.7422,-0.1213,
14.016452,0.4766,1.6569,0.0044,1.6456,2.7568,0.7423,1.6687,-0.7422,-0.1213,
14.053056,0.4766,1.6569,0.0044,1.6456,2.7568,0.7423,2.3706,-2.1207,-0.4443,
14.055518,0.4766,1.6569,0.0044,4.9946,7.1116,3.6247,2.3706,-2.1207,-0.4443,
14.073878,0.5540,1.5959,0.0308,4.9946,7.1116,3.6247,2.3706,-2.1207,-0.4443,
14.076411,0.2361,1.4728,0.3199,4.9946,7.1116,3.6247,2.3706,-2.1207,-0.4443,
14.079705,-0.2449,1.3449,0.4729,4.9946,7.1116,3.6247,2.3706,-2.1207,-0.4443,
14.112426,-0.2449,1.3449,0.4729,4.9946,7.1116,3.6247,2.5956,-2.9900,-1.3864,
14.115796,-0.2449,1.3449,0.4729,5.3334,7.8202,8.3964,2.5956,-2.9900,-1.3864,
14.132155,-0.8541,1.4582,0.1524,5.3334,7.8202,8.3964,2.5956,-2.9900,-1.3864,
14.135645,-1.2086,1.4003,-0.0669,5.3334,7.8202,8.3964,2.5956,-2.9900,-1.3864,
14.137886,-1.2433,1.0687,-0.1770,5.3334,7.8202,8.3964,2.5956,-2.9900,-1.3864,
14.169789,-1.2433,1.0687,-0.1770,5.3334,7.8202,8.3964,2.1889,-3.5774,-0.2282,
14.172340,-1.2433,1.0687,-0.1770,-5.8686,6.8935,5.2254,2.1889,-3.5774,-0.2282,
14.189346,-0.8514,1.0445,-0.4637,-5.8686,6.8935,5.2254,2.1889,-3.5774,-0.2282,
14.192005,-0.2212,0.9825,-0.3350,-5.8686,6.8935,5.2254,2.1889,-3.5774,-0.2282,
14.193342,-0.0628,0.6424,0.0874,-5.8686,6.8935,5.2254,2.1889,-3.5774,-0.2282,
14.228069,-0.0628,0.6424,0.0874,-5.8686,6.8935,5.2254,0.8291,-3.7306,1.6201,
14.229576,-0.0628,0.6424,0.0874,1.7453,2.4940,2.3010,0.8291,-3.7306,1.6201,
14.246995,-0.1902,0.4661,-0.0413,1.7453,2.4940,2.3010,0.8291,-3.7306,1.6201,
14.248232,-0.3357,0.3848,-0.0930,1.7453,2.4940,2.3010,0.8291,-3.7306,1.6201,
14.249114,-0.4517,0.3379,-0.0894,1.7453,2.4940,2.3010,0.8291,-3.7306,1.6201,
14.287342,-0.4517,0.3379,-0.0894,1.6523,-3.3993,2.7249,0.8291,-3.7306,1.6201,
14.290936,-0.4517,0.3379,-0.0894,1.6523,-3.3993,2.7249,0.0470,-3.6949,3.6905,
14.306327,-0.3958,0.3235,-0.0493,1.6523,-3.3993,2.7249,0.0470,-3.6949,3.6905,
14.309105,-0.2195,0.3421,-0.0276,1.6523,-3.3993,2.7249,0.0470,-3.6949,3.6905,
14.310687,-0.0801,0.4490,0.0317,1.6523,-3.3993,2.7249,0.0470,-3.6949,3.6905,
14.346190,-0.0801,0.4490,0.0317,1.6523,-3.3993,2.7249,-0.0766,-2.7253,5.4946,
14.351109,-0.0801,0.4490,0.0317,0.5058,-4.8185,2.5915,-0.0766,-2.7253,5.4946,
14.388999,-0.1069,0.6146,0.0691,0.5058,-4.8185,2.5915,-0.0766,-2.7253,5.4946,
14.392309,-0.2041,0.7728,0.0911,0.5058,-4.8185,2.5915,-0.0766,-2.7253,5.4946,
14.393674,-0.1936,0.9688,0.1140,0.5058,-4.8185,2.5915,-0.0766,-2.7253,5.4946,
14.402982,-0.1936,0.9688,0.1140,0.5058,-4.8185,2.5915,-0.4641,-1.5080,6.2847,
14.405993,-0.1936,0.9688,0.1140,-1.8493,-1.2889,3.2048,-0.4641,-1.5080,6.2847,
14.422035,-0.2627,1.2494,0.0171,-1.8493,-1.2889,3.2048,-0.4641,-1.5080,6.2847,
14.423736,-0.4515,1.5536,-0.1004,-1.8493,-1.2889,3.2048,-0.4641,-1.5080,6.2847,
14.424531,-0.5821,1.6481,-0.0444,-1.8493,-1.2889,3.2048,-0.4641,-1.5080,6.2847,
14.460792,-0.5821,1.6481,-0.0444,-1.8493,-1.2889,3.2048,-1.1560,-0.3584,5.5276,
14.462676,-0.5821,1.6481,-0.0444,-7.1261,5.8366,1.2925,-1.1560,-0.3584,5.5276,
14.481645,-0.7215,1.5920,-0.0413,-7.1261,5.8366,1.2925,-1.1560,-0.3584,5.5276,
14.484988,-0.9164,1.5441,-0.1416,-7.1261,5.8366,1.2925,-1.1560,-0.3584,5.5276,
14.486669,-0.9803,1.4672,-0.0366,-7.1261,5.8366,1.2925,-1.1560,-0.3584,5.5276,
14.519220,-0.9803,1.4672,-0.0366,-7.1261,5.8366,1.2925,-1.2289,0.2578,2.2071,
14.521252,-0.9803,1.4672,-0.0366,-12.3530,6.5669,0.3211,-1.2289,0.2578,2.2071,
14.542367,-0.9286,1.1241,-0.1130,-12.3530,6.5669,0.3211,-1.2289,0.2578,2.2071,
14.545307,-0.9989,0.8045,-0.1362,-12.3530,6.5669,0.3211,-1.2289,0.2578,2.2071,
14.547833,-1.1102,0.7572,-0.3382,-12.3530,6.5669,0.3211,-1.2289,0.2578,2.2071,
14.578016,-1.1102,0.7572,-0.3382,-12.3530,6.5669,0.3211,-0.1892,-1.1460,-1.8503,
14.581134,-1.1102,0.7572,-0.3382,-12.5051,-0.0621,-0.7359,-0.1892,-1.1460,-1.8503,
14.599135,-1.0484,0.9625,-0.6973,-12.5051,-0.0621,-0.7359,-0.1892,-1.1460,-1.8503,
14.602940,-0.3382,1.4074,-0.9544,-12.5051,-0.0621,-0.7359,-0.1892,-1.1460,-1.8503,
14.606956,1.4113,1.3541,-0.2007,-12.5051,-0.0621,-0.7359,-0.1892,-1.1460,-1.8503,
14.636230,1.4113,1.3541,-0.2007,-12.5051,-0.0621,-0.7359,-0.5897,-2.7411,-0.2175,
14.638651,1.4113,1.3541,-0.2007,-2.1569,3.2005,-4.7180,-0.5897,-2.7411,-0.2175,
14.658829,2.1614,1.4274,-0.5420,-2.1569,3.2005,-4.7180,-0.5897,-2.7411,-0.2175,
14.661283,-0.0877,1.7160,-0.5020,-2.1569,3.2005,-4.7180,-0.5897,-2.7411,-0.2175,
14.663568,-0.6883,0.9332,-0.1433,-2.1569,3.2005,-4.7180,-0.5897,-2.7411,-0.2175,
14.697138,-0.6883,0.9332,-0.1433,3.4930,4.0360,-2.6796,-0.5897,-2.7411,-0.2175,
14.703183,-0.6883,0.9332,-0.1433,3.4930,4.0360,-2.6796,-0.4694,-0.5665,-2.2966,
14.714358,-0.1267,0.4732,0.6453,3.4930,4.0360,-2.6796,-0.4694,-0.5665,-2.2966,
14.716927,0.1653,0.7974,0.6224,3.4930,4.0360,-2.6796,-0.4694,-0.5665,-2.2966,
14.718587,0.1868,1.0655,-0.0874,3.4930,4.0360,-2.6796,-0.4694,-0.5665,-2.2966,
14.753591,0.1868,1.0655,-0.0874,3.4930,4.0360,-2.6796,0.2397,0.0851,-1.6446,
14.756145,0.1868,1.0655,-0.0874,0.5804,-1.6597,5.0988,0.2397,0.0851,-1.6446,
14.784357,-0.2420,1.1329,-0.4478,0.5804,-1.6597,5.0988,0.2397,0.0851,-1.6446,
14.786534,-0.2845,1.1300,-0.3326,0.5804,-1.6597,5.0988,0.2397,0.0851,-1.6446,
14.787675,-0.0977,1.0511,-0.2075,0.5804,-1.6597,5.0988,0.2397,0.0851,-1.6446,
14.811189,-0.0977,1.0511,-0.2075,0.5804,-1.6597,5.0988,0.0562,-0.5086,-1.0576,
14.813190,-0.0977,1.0511,-0.2075,-1.5574,1.5219,-1.9277,0.0562,-0.5086,-1.0576,
14.836304,-0.0923,0.9925,-0.1467,-1.5574,1.5219,-1.9277,0.0562,-0.5086,-1.0576,
14.837977,-0.0857,0.9969,-0.0364,-1.5574,1.5219,-1.9277,0.0562,-0.5086,-1.0576,
14.838701,-0.0100,0.9991,-0.0899,-1.5574,1.5219,-1.9277,0.0562,-0.5086,-1.0576,
14.870211,-0.0100,0.9991,-0.0899,-1.5574,1.5219,-1.9277,0.1268,-0.1008,-1.0142,
14.873239,-0.0100,0.9991,-0.0899,0.4166,0.5051,0.4650,0.1268,-0.1008,-1.0142,
14.890504,0.0728,0.9923,-0.1460,0.4166,0.5051,0.4650,0.1268,-0.1008,-1.0142,
14.893515,-0.0503,0.9967,-0.1370,0.4166,0.5051,0.4650,0.1268,-0.1008,-1.0142,
14.895820,-0.2678,1.0189,-0.1228,0.4166,0.5051,0.4650,0.1268,-0.1008,-1.0142,
14.927802,-0.2678,1.0189,-0.1228,0.4166,0.5051,0.4650,0.1557,0.0737,-1.0582,
14.930105,-0.2678,1.0189,-0.1228,0.7785,0.6509,0.1189,0.1557,0.0737,-1.0582,
14.949514,-0.2727,1.0318,-0.1384,0.7785,0.6509,0.1189,0.1557,0.0737,-1.0582,
14.954395,-0.1047,1.0465,-0.1426,0.7785,0.6509,0.1189,0.1557,0.0737,-1.0582,
14.961849,-0.0066,1.0145,-0.1084,0.7785,0.6509,0.1189,0.1557,0.0737,-1.0582,
14.987051,-0.0066,1.0145,-0.1084,0.7785,0.6509,0.1189,0.2449,0.2364,-1.1309,
14.989666,-0.0066,1.0145,-0.1084,0.8902,1.0558,0.3232,0.2449,0.2364,-1.1309,
15.006608,-0.0159,0.9708,-0.1109,0.8902,1.0558,0.3232,0.2449,0.2364,-1.1309,
15.008885,-0.0410,0.9586,-0.1035,0.8902,1.0558,0.3232,0.2449,0.2364,-1.1309,
15.010298,-0.0220,0.9920,-0.0879,0.8902,1.0558,0.3232,0.2449,0.2364,-1.1309,
15.044351,-0.0220,0.9920,-0.0879,0.8902,1.0558,0.3232,0.5066,0.2045,-1.7076,
15.047809,-0.0220,0.9920,-0.0879,2.7073,0.7909,0.8861,0.5066,0.2045,-1.7076,
15.065796,-0.0537,1.0756,-0.1045,2.7073,0.7909,0.8861,0.5066,0.2045,-1.7076,
15.067403,-0.1548,1.1571,-0.1404,2.7073,0.7909,0.8861,0.5066,0.2045,-1.7076,
15.068476,-0.2085,1.1945,-0.2117,2.7073,0.7909,0.8861,0.5066,0.2045,-1.7076,
15.102938,-0.2085,1.1945,-0.2117,2.7073,0.7909,0.8861,0.8927,-0.0232,-1.9918,
15.105580,-0.2085,1.1945,-0.2117,2.5517,2.9053,0.8052,0.8927,-0.0232,-1.9918,
15.124306,-0.1116,1.2118,-0.2342,2.5517,2.9053,0.8052,0.8927,-0.0232,-1.9918,
15.126958,0.0537,1.3290,-0.1963,2.5517,2.9053,0.8052,0.8927,-0.0232,-1.9918,
15.128095,0.3189,1.6198,0.0005,2.5517,2.9053,0.8052,0.8927,-0.0232,-1.9918,
15.160960,0.3189,1.6198,0.0005,2.5517,2.9053,0.8052,1.1934,0.1151,-2.2317,
15.167150,0.3189,1.6198,0.0005,5.6845,5.9573,1.4491,1.1934,0.1151,-2.2317,
15.181855,0.8531,2.0012,0.0544,5.6845,5.9573,1.4491,1.1934,0.1151,-2.2317,
15.183771,1.3595,1.9968,0.0056,5.6845,5.9573,1.4491,1.1934,0.1151,-2.2317,
15.187261,0.8631,1.4052,0.1463,5.6845,5.9573,1.4491,1.1934,0.1151,-2.2317,
15.219574,0.8631,1.4052,0.1463,5.6845,5.9573,1.4491,1.2820,2.2277,-4.1582,
15.221756,0.8631,1.4052,0.1463,15.8198,11.4121,4.6861,1.2820,2.2277,-4.1582,
15.239661,-0.3399,0.9955,-0.0359,15.8198,11.4121,4.6861,1.2820,2.2277,-4.1582,
15.242005,-1.1300,1.2142,-0.2686,15.8198,11.4121,4.6861,1.2820,2.2277,-4.1582,
15.243821,-1.3344,1.2365,-0.3760,15.8198,11.4121,4.6861,1.2820,2.2277,-4.1582,
15.277781,-1.3344,1.2365,-0.3760,15.8198,11.4121,4.6861,0.8697,0.9175,-2.3638,
15.279631,-1.3344,1.2365,-0.3760,-2.7815,5.9735,2.3609,0.8697,0.9175,-2.3638,
15.299100,-0.9960,0.8243,-0.5127,-2.7815,5.9735,2.3609,0.8697,0.9175,-2.3638,
15.301566,-0.6165,0.5428,-0.3057,-2.7815,5.9735,2.3609,0.8697,0.9175,-2.3638,
15.304166,-0.3369,0.3794,-0.5623,-2.7815,5.9735,2.3609,0.8697,0.9175,-2.3638,
15.337051,-0.3369,0.3794,-0.5623,-2.7815,5.9735,2.3609,-1.3158,0.1428,1.1607,
15.340821,-0.3369,0.3794,-0.5623,-0.4074,-0.3293,-0.2994,-1.3158,0.1428,1.1607,
15.366494,-0.1851,0.2505,-0.2466,-0.4074,-0.3293,-0.2994,-1.3158,0.1428,1.1607,
15.368409,-0.2329,0.1528,-0.0523,-0.4074,-0.3293,-0.2994,-1.3158,0.1428,1.1607,
15.369706,-0.2464,0.1900,-0.1953,-0.4074,-0.3293,-0.2994,-1.3158,0.1428,1.1607,
15.394454,-0.2464,0.1900,-0.1953,-0.4074,-0.3293,-0.2994,-1.8835,-0.6626,3.3498,
15.397639,-0.2464,0.1900,-0.1953,2.5597,-5.4694,1.6202,-1.8835,-0.6626,3.3498,
15.416217,-0.2356,0.2632,-0.2759,2.5597,-5.4694,1.6202,-1.8835,-0.6626,3.3498,
15.419046,-0.2217,0.3536,-0.3902,2.5597,-5.4694,1.6202,-1.8835,-0.6626,3.3498,
15.421342,-0.2036,0.4769,-0.3870,2.5597,-5.4694,1.6202,-1.8835,-0.6626,3.3498,
15.453114,-0.2036,0.4769,-0.3870,-0.0180,-5.2643,-1.5570,-1.8835,-0.6626,3.3498,
15.455615,-0.2036,0.4769,-0.3870,-0.0180,-5.2643,-1.5570,-2.6833,-0.4058,5.5078,
15.472173,-0.0996,0.5733,-0.3079,-0.0180,-5.2643,-1.5570,-2.6833,-0.4058,5.5078,
15.473904,-0.0137,0.6353,-0.1336,-0.0180,-5.2643,-1.5570,-2.6833,-0.4058,5.5078,
15.475057,-0.0234,0.8558,-0.2163,-0.0180,-5.2643,-1.5570,-2.6833,-0.4058,5.5078,
15.511696,-0.0234,0.8558,-0.2163,-0.0180,-5.2643,-1.5570,-2.4567,0.6760,6.1543,
15.516930,-0.0234,0.8558,-0.2163,-1.5975,-2.4074,-1.5438,-2.4567,0.6760,6.1543,
15.536027,-0.1253,1.2484,-0.4935,-1.5975,-2.4074,-1.5438,-2.4567,0.6760,6.1543,
15.538537,-0.2437,1.7294,-0.4539,-1.5975,-2.4074,-1.5438,-2.4567,0.6760,6.1543,
15.540930,-0.4161,2.1159,-0.5018,-1.5975,-2.4074,-1.5438,-2.4567,0.6760,6.1543,
15.571027,-0.4161,2.1159,-0.5018,-1.5975,-2.4074,-1.5438,-2.3712,0.5995,5.7505,
15.573233,-0.4161,2.1159,-0.5018,-6.5548,8.2469,-5.3475,-2.3712,0.5995,5.7505,
15.589578,-0.6671,1.9902,-0.4258,-6.5548,8.2469,-5.3475,-2.3712,0.5995,5.7505,
15.592068,-0.8150,1.3219,-0.0444,-6.5548,8.2469,-5.3475,-2.3712,0.5995,5.7505,
15.593371,-0.9244,0.9486,-0.1421,-6.5548,8.2469,-5.3475,-2.3712,0.5995,5.7505,
15.627391,-0.9244,0.9486,-0.1421,-6.5548,8.2469,-5.3475,-0.7491,-0.3816,1.3731,
15.629150,-0.9244,0.9486,-0.1421,-12.3205,5.8076,-2.8204,-0.7491,-0.3816,1.3731,
15.648177,-0.8475,0.7733,-0.3765,-12.3205,5.8076,-2.8204,-0.7491,-0.3816,1.3731,
15.651167,-1.0101,0.6722,-0.3882,-12.3205,5.8076,-2.8204,-0.7491,-0.3816,1.3731,
15.652619,-1.2133,0.8241,-0.2134,-12.3205,5.8076,-2.8204,-0.7491,-0.3816,1.3731,
15.689922,-1.2133,0.8241,-0.2134,-13.1217,-1.2429,-3.3915,-0.7491,-0.3816,1.3731,
15.695626,-1.2133,0.8241,-0.2134,-13.1217,-1.2429,-3.3915,-0.0198,-2.4773,-2.5021,
15.706455,-0.6937,1.4960,-0.5284,-13.1217,-1.2429,-3.3915,-0.0198,-2.4773,-2.5021,
15.709965,0.9413,1.8779,0.3330,-13.1217,-1.2429,-3.3915,-0.0198,-2.4773,-2.5021,
15.712412,2.8877,1.1710,0.3426,-13.1217,-1.2429,-3.3915,-0.0198,-2.4773,-2.5021,
15.744209,2.8877,1.1710,0.3426,-13.1217,-1.2429,-3.3915,-0.0841,-1.3506,-1.1887,
15.747523,2.8877,1.1710,0.3426,7.6220,5.8968,0.4528,-0.0841,-1.3506,-1.1887,
15.782732,1.4452,1.4442,-0.6451,7.6220,5.8968,0.4528,-0.0841,-1.3506,-1.1887,
15.786171,-0.6204,1.5568,-1.0287,7.6220,5.8968,0.4528,-0.0841,-1.3506,-1.1887,
15.788716,-1.1508,0.9874,-0.2774,7.6220,5.8968,0.4528,-0.0841,-1.3506,-1.1887,
15.803312,-1.1508,0.9874,-0.2774,-2.1479,3.7089,-6.3959,-0.0841,-1.3506,-1.1887,
15.805253,-1.1508,0.9874,-0.2774,-2.1479,3.7089,-6.3959,-0.1680,0.2153,-2.8169,
15.821991,-0.3799,0.6649,0.5853,-2.1479,3.7089,-6.3959,-0.1680,0.2153,-2.8169,
15.823608,-0.1135,0.9090,0.3633,-2.1479,3.7089,-6.3959,-0.1680,0.2153,-2.8169,
15.824311,0.1939,1.0135,0.1565,-2.1479,3.7089,-6.3959,-0.1680,0.2153,-2.8169,
15.861743,0.1939,1.0135,0.1565,-2.1479,3.7089,-6.3959,0.3140,-0.2093,-1.5520,
15.864557,0.1939,1.0135,0.1565,-1.1934,-0.9109,3.7022,0.3140,-0.2093,-1.5520,
15.892403,0.1209,1.0155,-0.0271,-1.1934,-0.9109,3.7022,0.3140,-0.2093,-1.5520,
15.893745,-0.0127,1.0052,-0.0679,-1.1934,-0.9109,3.7022,0.3140,-0.2093,-1.5520,
15.894741,-0.1152,0.9952,-0.0754,-1.1934,-0.9109,3.7022,0.3140,-0.2093,-1.5520,
15.919564,-0.1152,0.9952,-0.0754,-1.1934,-0.9109,3.7022,0.2616,0.1796,-1.4009,
15.921354,-0.1152,0.9952,-0.0754,0.5165,0.4967,-0.3130,0.2616,0.1796,-1.4009,
15.939356,-0.2544,1.0314,-0.0662,0.5165,0.4967,-0.3130,0.2616,0.1796,-1.4009,
15.941298,-0.2752,1.0494,-0.0068,0.5165,0.4967,-0.3130,0.2616,0.1796,-1.4009,
15.942130,-0.1438,0.9972,-0.0295,0.5165,0.4967,-0.3130,0.2616,0.1796,-1.4009,
15.977992,-0.1438,0.9972,-0.0295,0.5165,0.4967,-0.3130,0.1755,-0.1291,-0.9291,
15.980515,-0.1438,0.9972,-0.0295,-1.1328,0.7328,-0.0025,0.1755,-0.1291,-0.9291,
16.007142,-0.0232,0.9627,-0.0501,-1.1328,0.7328,-0.0025,0.1755,-0.1291,-0.9291,
16.009571,0.0278,0.9759,-0.0347,-1.1328,0.7328,-0.0025,0.1755,-0.1291,-0.9291,
16.011194,-0.0203,0.9833,0.0037,-1.1328,0.7328,-0.0025,0.1755,-0.1291,-0.9291,
16.036240,-0.0203,0.9833,0.0037,-1.1328,0.7328,-0.0025,0.2044,0.3342,-1.1684,
16.038151,-0.0203,0.9833,0.0037,1.6126,0.3166,0.2029,0.2044,0.3342,-1.1684,
16.056433,-0.0930,1.0133,0.0508,1.6126,0.3166,0.2029,0.2044,0.3342,-1.1684,
16.058592,-0.1480,1.0299,-0.0063,1.6126,0.3166,0.2029,0.2044,0.3342,-1.1684,
16.059848,-0.2090,0.9930,-0.0801,1.6126,0.3166,0.2029,0.2044,0.3342,-1.1684,
16.095899,-0.2090,0.9930,-0.0801,1.6126,0.3166,0.2029,0.2755,0.1990,-1.2665,
16.099329,-0.2090,0.9930,-0.0801,0.8491,0.8324,0.5123,0.2755,0.1990,-1.2665,
16.117716,-0.1821,0.9400,-0.0676,0.8491,0.8324,0.5123,0.2755,0.1990,-1.2665,
16.120514,-0.1409,0.9574,-0.0403,0.8491,0.8324,0.5123,0.2755,0.1990,-1.2665,
16.122974,-0.1089,0.9759,-0.0488,0.8491,0.8324,0.5123,0.2755,0.1990,-1.2665,
16.152548,-0.1089,0.9759,-0.0488,0.8491,0.8324,0.5123,0.2679,0.4256,-1.5520,
16.154327,-0.1089,0.9759,-0.0488,1.6736,0.5488,0.3197,0.2679,0.4256,-1.5520,
16.171811,-0.1531,1.0108,-0.0886,1.6736,0.5488,0.3197,0.2679,0.4256,-1.5520,
16.173030,-0.2244,1.0284,-0.1084,1.6736,0.5488,0.3197,0.2679,0.4256,-1.5520,
16.173593,-0.2893,1.0824,-0.0899,1.6736,0.5488,0.3197,0.2679,0.4256,-1.5520,
16.211652,-0.2893,1.0824,-0.0899,1.6736,0.5488,0.3197,0.4140,0.2077,-1.7923,
16.215534,-0.2893,1.0824,-0.0899,1.7691,1.7233,0.1425,0.4140,0.2077,-1.7923,
16.231724,-0.2886,1.1180,-0.0825,1.7691,1.7233,0.1425,0.4140,0.2077,-1.7923,
16.234162,-0.1646,1.1361,-0.0759,1.7691,1.7233,0.1425,0.4140,0.2077,-1.7923,
16.235824,-0.0942,1.1620,-0.1040,1.7691,1.7233,0.1425,0.4140,0.2077,-1.7923,
16.269322,-0.0942,1.1620,-0.1040,1.7691,1.7233,0.1425,0.5714,0.5125,-2.1535,
16.270740,-0.0942,1.1620,-0.1040,3.0961,3.2320,0.6184,0.5714,0.5125,-2.1535,
16.288443,-0.0923,1.1923,-0.1629,3.0961,3.2320,0.6184,0.5714,0.5125,-2.1535,
16.289483,-0.0432,1.3439,-0.2288,3.0961,3.2320,0.6184,0.5714,0.5125,-2.1535,
16.290078,0.2400,1.7199,-0.2171,3.0961,3.2320,0.6184,0.5714,0.5125,-2.1535,
16.327092,0.2400,1.7199,-0.2171,3.0961,3.2320,0.6184,0.6658,1.2790,-2.3547,
16.328192,0.2400,1.7199,-0.2171,6.0221,6.6679,0.1791,0.6658,1.2790,-2.3547,
16.347040,0.8140,1.9812,-0.1787,6.0221,6.6679,0.1791,0.6658,1.2790,-2.3547,
16.348729,1.2098,1.7072,-0.1470,6.0221,6.6679,0.1791,0.6658,1.2790,-2.3547,
16.351482,0.2847,1.0555,-0.0295,6.0221,6.6679,0.1791,0.6658,1.2790,-2.3547,
16.386111,0.2847,1.0555,-0.0295,6.0221,6.6679,0.1791,1.2946,2.4803,-4.2103,
16.387985,0.2847,1.0555,-0.0295,14.1363,9.8604,2.3621,1.2946,2.4803,-4.2103,
16.405820,-0.9911,1.0907,-0.2166,14.1363,9.8604,2.3621,1.2946,2.4803,-4.2103,
16.407535,-1.4987,1.3873,-0.4278,14.1363,9.8604,2.3621,1.2946,2.4803,-4.2103,
16.408560,-1.2047,1.0118,-0.4295,14.1363,9.8604,2.3621,1.2946,2.4803,-4.2103,
16.444663,-1.2047,1.0118,-0.4295,14.1363,9.8604,2.3621,0.9379,0.4535,-1.1971,
16.447852,-1.2047,1.0118,-0.4295,-5.1109,6.3352,0.4693,0.9379,0.4535,-1.1971,
16.466108,-0.8497,0.5684,-0.1633,-5.1109,6.3352,0.4693,0.9379,0.4535,-1.1971,
16.470051,-0.7325,0.2449,-0.4961,-5.1109,6.3352,0.4693,0.9379,0.4535,-1.1971,
16.471086,-0.4559,0.1887,-0.2923,-5.1109,6.3352,0.4693,0.9379,0.4535,-1.1971,
16.503488,-0.4559,0.1887,-0.2923,-0.4142,-2.7981,0.5622,0.9379,0.4535,-1.1971,
16.506894,-0.4559,0.1887,-0.2923,-0.4142,-2.7981,0.5622,-0.3228,-0.4879,2.5498,
16.532263,-0.1475,-0.0212,0.2456,-0.4142,-2.7981,0.5622,-0.3228,-0.4879,2.5498,
16.534724,-0.2317,-0.0459,0.2090,-0.4142,-2.7981,0.5622,-0.3228,-0.4879,2.5498,
16.537305,-0.2935,0.1572,-0.0110,-0.4142,-2.7981,0.5622,-0.3228,-0.4879,2.5498,
16.561227,-0.2935,0.1572,-0.0110,-0.4142,-2.7981,0.5622,0.2323,-1.1407,4.7884,
16.563348,-0.2935,0.1572,-0.0110,2.3265,-7.1275,4.7749,0.2323,-1.1407,4.7884,
16.580958,-0.2481,0.3489,-0.3553,2.3265,-7.1275,4.7749,0.2323,-1.1407,4.7884,
16.582871,-0.2837,0.5147,-0.1306,2.3265,-7.1275,4.7749,0.2323,-1.1407,4.7884,
16.583949,-0.5154,0.5152,-0.0623,2.3265,-7.1275,4.7749,0.2323,-1.1407,4.7884,
16.619435,-0.5154,0.5152,-0.0623,2.3265,-7.1275,4.7749,0.3773,-2.0851,6.3714,
16.621423,-0.5154,0.5152,-0.0623,-1.4826,-3.9869,1.3011,0.3773,-2.0851,6.3714,
16.639170,-0.6849,0.6353,-0.1016,-1.4826,-3.9869,1.3011,0.3773,-2.0851,6.3714,
16.646709,-0.7728,0.9085,-0.1052,-1.4826,-3.9869,1.3011,0.3773,-2.0851,6.3714,
16.647261,-0.9920,1.3217,-0.2691,-1.4826,-3.9869,1.3011,0.3773,-2.0851,6.3714,
16.677408,-0.9920,1.3217,-0.2691,-1.4826,-3.9869,1.3011,0.9379,-6.6705,7.1313,
16.678613,-0.9920,1.3217,-0.2691,-8.2923,0.7439,1.7551,0.9379,-6.6705,7.1313,
16.696635,-1.0961,1.4601,-0.2632,-8.2923,0.7439,1.7551,0.9379,-6.6705,7.1313,
16.697813,-0.8724,1.4125,-0.3006,-8.2923,0.7439,1.7551,0.9379,-6.6705,7.1313,
16.698532,-0.5462,1.3996,-0.1409,-8.2923,0.7439,1.7551,0.9379,-6.6705,7.1313,
16.735951,-0.5462,1.3996,-0.1409,-8.2923,0.7439,1.7551,0.5836,-9.2673,5.3193,
16.737177,-0.5462,1.3996,-0.1409,-8.9962,5.6048,1.6919,0.5836,-9.2673,5.3193,
16.755167,-0.0674,1.3637,0.2505,-8.9962,5.6048,1.6919,0.5836,-9.2673,5.3193,
16.756389,0.2354,1.2618,0.3267,-8.9962,5.6048,1.6919,0.5836,-9.2673,5.3193,
16.757082,0.0461,1.1092,0.4493,-8.9962,5.6048,1.6919,0.5836,-9.2673,5.3193,
16.794190,0.0461,1.1092,0.4493,-8.9962,5.6048,1.6919,-0.4150,-3.9393,1.1063,
16.795995,0.0461,1.1092,0.4493,0.3047,3.7383,7.1827,-0.4150,-3.9393,1.1063,
16.813671,-0.3323,0.9610,0.4014,0.3047,3.7383,7.1827,-0.4150,-3.9393,1.1063,
16.815308,-0.6234,0.8519,0.3689,0.3047,3.7383,7.1827,-0.4150,-3.9393,1.1063,
16.816679,-1.2587,1.2408,-0.0759,0.3047,3.7383,7.1827,-0.4150,-3.9393,1.1063,
16.853222,-1.2587,1.2408,-0.0759,0.3047,3.7383,7.1827,-0.7982,-0.4475,-1.2123,
16.856921,-1.2587,1.2408,-0.0759,-6.8048,1.3245,5.6186,-0.7982,-0.4475,-1.2123,
16.882095,-0.9081,1.4059,0.2486,-6.8048,1.3245,5.6186,-0.7982,-0.4475,-1.2123,
16.885977,0.0322,0.8187,0.4488,-6.8048,1.3245,5.6186,-0.7982,-0.4475,-1.2123,
16.888530,0.0098,0.8849,-0.3948,-6.8048,1.3245,5.6186,-0.7982,-0.4475,-1.2123,
16.911354,0.0098,0.8849,-0.3948,-6.8048,1.3245,5.6186,-0.5928,-0.7460,-0.5312,
16.913741,0.0098,0.8849,-0.3948,-1.9601,1.3915,3.9418,-0.5928,-0.7460,-0.5312,
16.930238,-0.2080,1.4086,-0.6986,-1.9601,1.3915,3.9418,-0.5928,-0.7460,-0.5312,
16.932147,-0.3130,1.4611,-0.6197,-1.9601,1.3915,3.9418,-0.5928,-0.7460,-0.5312,
16.933830,-0.0757,1.0817,-0.4046,-1.9601,1.3915,3.9418,-0.5928,-0.7460,-0.5312,
16.969947,-0.0757,1.0817,-0.4046,-1.9601,1.3915,3.9418,-0.4026,-1.5730,0.0670,
16.973289,-0.0757,1.0817,-0.4046,-0.8448,4.0032,-2.9237,-0.4026,-1.5730,0.0670,
16.989008,0.2598,0.9408,-0.3379,-0.8448,4.0032,-2.9237,-0.4026,-1.5730,0.0670,
16.991012,0.2810,0.9693,-0.1502,-0.8448,4.0032,-2.9237,-0.4026,-1.5730,0.0670,
16.992020,-0.1072,0.9813,-0.0027,-0.8448,4.0032,-2.9237,-0.4026,-1.5730,0.0670,
17.028268,-0.1072,0.9813,-0.0027,-0.8448,4.0032,-2.9237,-0.0639,-0.2229,-0.4121,
17.032396,-0.1072,0.9813,-0.0027,2.7240,0.5515,1.0359,-0.0639,-0.2229,-0.4121,
17.047825,-0.4283,0.9483,-0.1863,2.7240,0.5515,1.0359,-0.0639,-0.2229,-0.4121,
17.050497,-0.4266,0.9356,-0.3355,2.7240,0.5515,1.0359,-0.0639,-0.2229,-0.4121,
17.051969,-0.3167,0.9261,-0.2962,2.7240,0.5515,1.0359,-0.0639,-0.2229,-0.4121,
17.087226,-0.3167,0.9261,-0.2962,-2.5788,0.2601,-0.0552,-0.0639,-0.2229,-0.4121,
17.090937,-0.3167,0.9261,-0.2962,-2.5788,0.2601,-0.0552,0.0016,-0.3219,0.2932,
17.126182,-0.2991,0.9142,-0.3304,-2.5788,0.2601,-0.0552,0.0016,-0.3219,0.2932,
17.128144,-0.2998,0.9593,-0.3250,-2.5788,0.2601,-0.0552,0.0016,-0.3219,0.2932,
17.129147,-0.1231,0.9679,-0.3277,-2.5788,0.2601,-0.0552,0.0016,-0.3219,0.2932,
17.144213,-0.1231,0.9679,-0.3277,-2.5788,0.2601,-0.0552,-0.0607,-0.6854,0.6170,
17.146351,-0.1231,0.9679,-0.3277,-1.3070,0.3069,-0.6604,-0.0607,-0.6854,0.6170,
17.165924,0.0488,0.9342,-0.2845,-1.3070,0.3069,-0.6604,-0.0607,-0.6854,0.6170,
17.168153,0.0552,0.9315,-0.2791,-1.3070,0.3069,-0.6604,-0.0607,-0.6854,0.6170,
17.169708,-0.0046,0.9591,-0.2390,-1.3070,0.3069,-0.6604,-0.0607,-0.6854,0.6170,
17.203789,-0.0046,0.9591,-0.2390,-1.3070,0.3069,-0.6604,0.0786,-0.5447,0.1859,
17.207455,-0.0046,0.9591,-0.2390,1.3370,0.2490,-0.0614,0.0786,-0.5447,0.1859,
17.230908,-0.0400,0.9740,-0.1746,1.3370,0.2490,-0.0614,0.0786,-0.5447,0.1859,
17.231973,-0.0784,0.9312,-0.1726,1.3370,0.2490,-0.0614,0.0786,-0.5447,0.1859,
17.232667,-0.1221,0.9417,-0.1682,1.3370,0.2490,-0.0614,0.0786,-0.5447,0.1859,
17.261227,-0.1221,0.9417,-0.1682,1.3370,0.2490,-0.0614,0.3183,-0.5355,0.0792,
17.263087,-0.1221,0.9417,-0.1682,0.2626,0.3595,0.9940,0.3183,-0.5355,0.0792,
17.281790,-0.0852,0.9935,-0.1951,0.2626,0.3595,0.9940,0.3183,-0.5355,0.0792,
17.286108,0.0117,0.9693,-0.2373,0.2626,0.3595,0.9940,0.3183,-0.5355,0.0792,
17.287775,-0.0442,0.9708,-0.2312,0.2626,0.3595,0.9940,0.3183,-0.5355,0.0792,
17.319754,-0.0442,0.9708,-0.2312,0.2626,0.3595,0.9940,0.5925,-0.2718,-0.0547,
17.325591,-0.0442,0.9708,-0.2312,0.7241,0.7313,0.7868,0.5925,-0.2718,-0.0547,
17.340433,-0.1873,0.9735,-0.2574,0.7241,0.7313,0.7868,0.5925,-0.2718,-0.0547,
17.343067,-0.2268,0.9735,-0.2405,0.7241,0.7313,0.7868,0.5925,-0.2718,-0.0547,
17.344653,-0.0960,1.0067,-0.2398,0.7241,0.7313,0.7868,0.5925,-0.2718,-0.0547,
17.378734,-0.0960,1.0067,-0.2398,0.7241,0.7313,0.7868,0.9688,-0.2380,0.1061,
17.382086,-0.0960,1.0067,-0.2398,-0.5583,0.9542,1.0080,0.9688,-0.2380,0.1061,
17.398482,0.0837,1.0553,-0.2500,-0.5583,0.9542,1.0080,0.9688,-0.2380,0.1061,
17.402341,0.1438,1.0482,-0.2937,-0.5583,0.9542,1.0080,0.9688,-0.2380,0.1061,
17.405649,-0.0042,1.0621,-0.3047,-0.5583,0.9542,1.0080,0.9688,-0.2380,0.1061,
17.439574,-0.0042,1.0621,-0.3047,2.0751,1.9883,1.3751,0.9688,-0.2380,0.1061,
17.442627,-0.0042,1.0621,-0.3047,2.0751,1.9883,1.3751,1.6223,-0.7361,-0.2199,
17.457220,-0.0361,1.1490,-0.3279,2.0751,1.9883,1.3751,1.6223,-0.7361,-0.2199,
17.461171,0.0667,1.2245,-0.3020,2.0751,1.9883,1.3751,1.6223,-0.7361,-0.2199,
17.463159,0.2161,1.3126,-0.1624,2.0751,1.9883,1.3751,1.6223,-0.7361,-0.2199,
17.494126,0.2161,1.3126,-0.1624,2.0751,1.9883,1.3751,2.3907,-1.4567,-0.2525,
17.495711,0.2161,1.3126,-0.1624,2.6212,4.2880,2.4996,2.3907,-1.4567,-0.2525,
17.513631,0.4563,1.4555,0.0259,2.6212,4.2880,2.4996,2.3907,-1.4567,-0.2525,
17.516055,0.5748,1.6081,0.1116,2.6212,4.2880,2.4996,2.3907,-1.4567,-0.2525,
17.518122,0.3824,1.6745,0.3194,2.6212,4.2880,2.4996,2.3907,-1.4567,-0.2525,
17.553112,0.3824,1.6745,0.3194,2.6212,4.2880,2.4996,2.5068,-2.2223,-1.3231,
17.555212,0.3824,1.6745,0.3194,7.5780,8.5747,7.2090,2.5068,-2.2223,-1.3231,
17.573353,0.0098,1.5685,0.4170,7.5780,8.5747,7.2090,2.5068,-2.2223,-1.3231,
17.575260,-0.6368,1.5216,0.2078,7.5780,8.5747,7.2090,2.5068,-2.2223,-1.3231,
17.576411,-1.2167,1.5024,-0.0090,7.5780,8.5747,7.2090,2.5068,-2.2223,-1.3231,
17.611818,-1.2167,1.5024,-0.0090,7.5780,8.5747,7.2090,2.2217,-4.3339,-1.3600,
17.615140,-1.2167,1.5024,-0.0090,-1.0910,8.9983,7.4279,2.2217,-4.3339,-1.3600,
17.631679,-1.1473,1.1786,-0.3113,-1.0910,8.9983,7.4279,2.2217,-4.3339,-1.3600,
17.635061,-0.8004,1.1234,-0.6492,-1.0910,8.9983,7.4279,2.2217,-4.3339,-1.3600,
17.637606,-0.3267,1.0934,-0.5731,-1.0910,8.9983,7.4279,2.2217,-4.3339,-1.3600,
17.670365,-0.3267,1.0934,-0.5731,-1.0910,8.9983,7.4279,0.8495,-5.2586,1.1442,
17.672720,-0.3267,1.0934,-0.5731,-1.4074,4.8689,-0.9903,0.8495,-5.2586,1.1442,
17.692378,0.1348,0.6876,0.0608,-1.4074,4.8689,-0.9903,0.8495,-5.2586,1.1442,
17.697031,0.0205,0.5098,0.2085,-1.4074,4.8689,-0.9903,0.8495,-5.2586,1.1442,
17.699942,-0.1851,0.4947,0.1443,-1.4074,4.8689,-0.9903,0.8495,-5.2586,1.1442,
17.727555,-0.1851,0.4947,0.1443,-1.4074,4.8689,-0.9903,0.2126,-2.5909,2.9348,
17.729091,-0.1851,0.4947,0.1443,5.2376,-1.6176,4.4821,0.2126,-2.5909,2.9348,
17.747444,-0.2371,0.5191,0.1602,5.2376,-1.6176,4.4821,0.2126,-2.5909,2.9348,
17.749218,-0.2009,0.4749,0.1345,5.2376,-1.6176,4.4821,0.2126,-2.5909,2.9348,
17.750255,-0.2574,0.4866,0.0837,5.2376,-1.6176,4.4821,0.2126,-2.5909,2.9348,
17.786849,-0.2574,0.4866,0.0837,5.2376,-1.6176,4.4821,-0.1711,-0.3449,4.8067,
17.790530,-0.2574,0.4866,0.0837,0.9198,-3.4940,4.1060,-0.1711,-0.3449,4.8067,
17.812807,-0.3213,0.6002,-0.0347,0.9198,-3.4940,4.1060,-0.1711,-0.3449,4.8067,
17.814043,-0.3562,0.7340,-0.0986,0.9198,-3.4940,4.1060,-0.1711,-0.3449,4.8067,
17.815508,-0.4017,0.8941,-0.1025,0.9198,-3.4940,4.1060,-0.1711,-0.3449,4.8067,
17.844385,-0.4017,0.8941,-0.1025,0.9198,-3.4940,4.1060,-1.3101,-0.3832,6.1246,
17.846960,-0.4017,0.8941,-0.1025,-3.3700,-1.8099,1.3609,-1.3101,-0.3832,6.1246,
17.863793,-0.4671,1.1031,-0.1179,-3.3700,-1.8099,1.3609,-1.3101,-0.3832,6.1246,
17.865656,-0.5223,1.3007,-0.1140,-3.3700,-1.8099,1.3609,-1.3101,-0.3832,6.1246,
17.866817,-0.6754,1.4850,-0.1590,-3.3700,-1.8099,1.3609,-1.3101,-0.3832,6.1246,
17.902255,-0.6754,1.4850,-0.1590,-3.3700,-1.8099,1.3609,-1.8778,-0.8167,6.1179,
17.903642,-0.6754,1.4850,-0.1590,-8.2828,3.8756,-0.0572,-1.8778,-0.8167,6.1179,
17.922331,-0.8170,1.5883,-0.1541,-8.2828,3.8756,-0.0572,-1.8778,-0.8167,6.1179,
17.923683,-0.9654,1.6039,-0.1358,-8.2828,3.8756,-0.0572,-1.8778,-0.8167,6.1179,
17.924399,-0.9410,1.4589,0.0281,-8.2828,3.8756,-0.0572,-1.8778,-0.8167,6.1179,
17.960801,-0.9410,1.4589,0.0281,-8.2828,3.8756,-0.0572,-1.6365,0.4370,2.8723,
17.962335,-0.9410,1.4589,0.0281,-12.9739,6.7750,-0.5450,-1.6365,0.4370,2.8723,
17.980180,-0.9334,1.1969,-0.0952,-12.9739,6.7750,-0.5450,-1.6365,0.4370,2.8723,
17.981825,-1.1703,0.7950,-0.3777,-12.9739,6.7750,-0.5450,-1.6365,0.4370,2.8723,
17.982855,-1.3153,0.4493,-0.4808,-12.9739,6.7750,-0.5450,-1.6365,0.4370,2.8723,
