
time,gFx,gFy,gFz,ax,ay,az,wx,wy,wz,
0.062213,-0.2451,0.7169,0.6656,0.0000,0.0000,0.0000,0.0000,0.0000,0.0000,
0.062886,-0.2451,0.7169,0.6656,0.0000,0.0000,0.0000,0.0000,0.0000,0.0000,
0.063123,-0.2451,0.7169,0.6656,0.0000,0.0000,0.0000,0.0000,0.0000,0.0000,
0.063365,-0.2451,0.7169,0.6656,0.0000,0.0000,0.0000,0.4129,0.0782,0.1505,
0.063700,-0.2451,0.7169,0.6656,0.0206,-0.1261,0.1088,0.4129,0.0782,0.1505,
0.120512,-0.2466,0.7110,0.6483,0.0206,-0.1261,0.1088,0.4129,0.0782,0.1505,
0.121131,-0.2383,0.7232,0.6448,0.0206,-0.1261,0.1088,0.4129,0.0782,0.1505,
0.121487,-0.2405,0.7313,0.6414,0.0206,-0.1261,0.1088,0.4129,0.0782,0.1505,
0.121954,-0.2405,0.7313,0.6414,0.0206,-0.1261,0.1088,0.0959,-0.0334,0.0271,
0.122286,-0.2405,0.7313,0.6414,0.0197,-0.0781,-0.0394,0.0959,-0.0334,0.0271,
0.179168,-0.2405,0.7313,0.6414,-0.1015,-0.0967,-0.0526,0.0959,-0.0334,0.0271,
0.180094,-0.2559,0.7244,0.6390,-0.1015,-0.0967,-0.0526,0.0959,-0.0334,0.0271,
0.180732,-0.2581,0.7252,0.6336,-0.1015,-0.0967,-0.0526,0.0959,-0.0334,0.0271,
0.181324,-0.2512,0.7210,0.6319,-0.1015,-0.0967,-0.0526,0.0959,-0.0334,0.0271,
0.181960,-0.2512,0.7210,0.6319,-0.1015,-0.0967,-0.0526,0.1712,-0.0315,0.0318,
0.237471,-0.2483,0.7354,0.6277,-0.1015,-0.0967,-0.0526,0.1712,-0.0315,0.0318,
0.238384,-0.2442,0.7449,0.6285,-0.1015,-0.0967,-0.0526,0.1712,-0.0315,0.0318,
0.238963,-0.2512,0.7401,0.6199,-0.1015,-0.0967,-0.0526,0.1712,-0.0315,0.0318,
0.239542,-0.2512,0.7401,0.6199,-0.1015,-0.0967,-0.0526,0.2626,-0.0596,0.0175,
0.240044,-0.2512,0.7401,0.6199,-0.0482,-0.0254,-0.0340,0.2626,-0.0596,0.0175,
0.296646,-0.2654,0.7264,0.6050,-0.0482,-0.0254,-0.0340,0.2626,-0.0596,0.0175,
0.297669,-0.2762,0.7130,0.5928,-0.0482,-0.0254,-0.0340,0.2626,-0.0596,0.0175,
0.298264,-0.2639,0.7047,0.5831,-0.0482,-0.0254,-0.0340,0.2626,-0.0596,0.0175,
0.298909,-0.2639,0.7047,0.5831,-0.0482,-0.0254,-0.0340,0.3812,-0.1580,0.0074,
0.299525,-0.2639,0.7047,0.5831,-0.2577,-0.3429,-0.1695,0.3812,-0.1580,0.0074,
0.354158,-0.2346,0.7081,0.5577,-0.2577,-0.3429,-0.1695,0.3812,-0.1580,0.0074,
0.355131,-0.2381,0.7000,0.5342,-0.2577,-0.3429,-0.1695,0.3812,-0.1580,0.0074,
0.355812,-0.2503,0.6646,0.5091,-0.2577,-0.3429,-0.1695,0.3812,-0.1580,0.0074,
0.356408,-0.2503,0.6646,0.5091,-0.2577,-0.3429,-0.1695,0.5477,-0.2433,0.0414,
0.356927,-0.2503,0.6646,0.5091,-0.0768,-0.6595,-0.4736,0.5477,-0.2433,0.0414,
0.412869,-0.2503,0.6646,0.5091,-0.0109,-1.2602,-0.5964,0.5477,-0.2433,0.0414,
0.413861,-0.2537,0.6336,0.4839,-0.0109,-1.2602,-0.5964,0.5477,-0.2433,0.0414,
0.414499,-0.2271,0.6285,0.4827,-0.0109,-1.2602,-0.5964,0.5477,-0.2433,0.0414,
0.414939,-0.1853,0.6485,0.4810,-0.0109,-1.2602,-0.5964,0.5477,-0.2433,0.0414,
0.415341,-0.1853,0.6485,0.4810,-0.0109,-1.2602,-0.5964,0.7572,-0.3154,0.0436,
0.472198,-0.1582,0.6578,0.4583,-0.0109,-1.2602,-0.5964,0.7572,-0.3154,0.0436,
0.473814,-0.1790,0.6654,0.4441,-0.0109,-1.2602,-0.5964,0.7572,-0.3154,0.0436,
0.475196,-0.1988,0.6883,0.4407,-0.0109,-1.2602,-0.5964,0.7572,-0.3154,0.0436,
0.476159,-0.1988,0.6883,0.4407,-0.0109,-1.2602,-0.5964,0.9336,-0.3730,0.0357,
0.477159,-0.1988,0.6883,0.4407,0.2546,-1.0801,-0.5042,0.9336,-0.3730,0.0357,
0.530894,-0.1941,0.7337,0.4434,0.2546,-1.0801,-0.5042,0.9336,-0.3730,0.0357,
0.533356,-0.1651,0.7811,0.4353,0.2546,-1.0801,-0.5042,0.9336,-0.3730,0.0357,
0.535281,-0.1402,0.8106,0.4178,0.2546,-1.0801,-0.5042,0.9336,-0.3730,0.0357,
0.537177,-0.1402,0.8106,0.4178,0.1495,-0.3430,-0.1743,0.9336,-0.3730,0.0357,
0.539484,-0.1402,0.8106,0.4178,0.1495,-0.3430,-0.1743,1.1348,-0.4897,0.1644,
0.590585,-0.1402,0.8106,0.4178,0.1490,-0.1371,0.0841,1.1348,-0.4897,0.1644,
0.593782,-0.1336,0.8172,0.4017,0.1490,-0.1371,0.0841,1.1348,-0.4897,0.1644,
0.595637,-0.1485,0.8162,0.4017,0.1490,-0.1371,0.0841,1.1348,-0.4897,0.1644,
0.596434,-0.1292,0.8538,0.4060,0.1490,-0.1371,0.0841,1.1348,-0.4897,0.1644,
0.597260,-0.1292,0.8538,0.4060,0.1490,-0.1371,0.0841,1.2737,-0.5331,0.3057,
0.646868,-0.0850,0.9151,0.3870,0.1490,-0.1371,0.0841,1.2737,-0.5331,0.3057,
0.649769,-0.0718,0.9508,0.3611,0.1490,-0.1371,0.0841,1.2737,-0.5331,0.3057,
0.651732,-0.1065,0.9347,0.3492,0.1490,-0.1371,0.0841,1.2737,-0.5331,0.3057,
0.653692,-0.1065,0.9347,0.3492,0.3127,0.5369,0.2904,1.2737,-0.5331,0.3057,
0.655945,-0.1065,0.9347,0.3492,0.3127,0.5369,0.2904,1.3036,-0.5219,0.3716,
0.706302,-0.1345,0.9068,0.3536,0.3127,0.5369,0.2904,1.3036,-0.5219,0.3716,
0.709216,-0.1121,0.9237,0.3494,0.3127,0.5369,0.2904,1.3036,-0.5219,0.3716,
0.710622,-0.0547,0.9632,0.3345,0.3127,0.5369,0.2904,1.3036,-0.5219,0.3716,
0.711922,-0.0547,0.9632,0.3345,-0.0914,0.2506,0.6521,1.3036,-0.5219,0.3716,
0.713955,-0.0547,0.9632,0.3345,-0.0914,0.2506,0.6521,1.2602,-0.5113,0.3887,
0.765534,-0.0139,0.9847,0.3091,-0.0914,0.2506,0.6521,1.2602,-0.5113,0.3887,
0.767749,-0.0310,0.9793,0.2764,-0.0914,0.2506,0.6521,1.2602,-0.5113,0.3887,
0.769595,-0.0603,0.9503,0.2713,-0.0914,0.2506,0.6521,1.2602,-0.5113,0.3887,
0.771904,-0.0603,0.9503,0.2713,-0.0914,0.2506,0.6521,1.1729,-0.6253,0.3592,
0.774738,-0.0603,0.9503,0.2713,0.2530,0.4286,0.6019,1.1729,-0.6253,0.3592,
0.823388,-0.0435,0.9598,0.2556,0.2530,0.4286,0.6019,1.1729,-0.6253,0.3592,
0.827362,-0.0335,1.0040,0.2427,0.2530,0.4286,0.6019,1.1729,-0.6253,0.3592,
0.829381,-0.0286,1.0416,0.2390,0.2530,0.4286,0.6019,1.1729,-0.6253,0.3592,
0.831104,-0.0286,1.0416,0.2390,0.2530,0.4286,0.6019,1.0941,-0.5673,0.3303,
0.833126,-0.0286,1.0416,0.2390,0.0116,0.5552,0.7286,1.0941,-0.5673,0.3303,
0.880137,-0.0083,1.0782,0.2178,0.0116,0.5552,0.7286,1.0941,-0.5673,0.3303,
0.883049,-0.0190,1.1180,0.1843,0.0116,0.5552,0.7286,1.0941,-0.5673,0.3303,
0.884618,-0.0347,1.1534,0.1890,0.0116,0.5552,0.7286,1.0941,-0.5673,0.3303,
0.887022,-0.0347,1.1534,0.1890,0.0116,0.5552,0.7286,0.9318,-0.2830,0.2883,
0.888940,-0.0347,1.1534,0.1890,-0.0255,1.4977,0.7052,0.9318,-0.2830,0.2883,
0.940354,-0.0376,1.1801,0.1983,-0.0255,1.4977,0.7052,0.9318,-0.2830,0.2883,
0.943715,-0.0337,1.1918,0.1843,-0.0255,1.4977,0.7052,0.9318,-0.2830,0.2883,
0.946206,-0.0225,1.1688,0.1746,-0.0255,1.4977,0.7052,0.9318,-0.2830,0.2883,
0.948231,-0.0225,1.1688,0.1746,-0.0255,1.4977,0.7052,0.7349,0.0568,0.2879,
0.950404,-0.0225,1.1688,0.1746,-0.2687,1.9539,0.9414,0.7349,0.0568,0.2879,
0.997469,0.0991,1.1632,0.2261,-0.2687,1.9539,0.9414,0.7349,0.0568,0.2879,
1.000199,0.3076,1.3471,0.0115,-0.2687,1.9539,0.9414,0.7349,0.0568,0.2879,
1.001960,0.1438,1.3275,-0.0144,-0.2687,1.9539,0.9414,0.7349,0.0568,0.2879,
1.003596,0.1438,1.3275,-0.0144,-0.2687,1.9539,0.9414,0.7104,-0.0179,0.5504,
1.006318,0.1438,1.3275,-0.0144,1.4417,2.7390,0.2355,0.7104,-0.0179,0.5504,
1.057451,-0.0337,1.2106,0.0342,1.4417,2.7390,0.2355,0.7104,-0.0179,0.5504,
1.065284,-0.1008,1.0753,0.0967,1.4417,2.7390,0.2355,0.7104,-0.0179,0.5504,
1.068168,-0.0068,1.0057,0.0303,1.4417,2.7390,0.2355,0.7104,-0.0179,0.5504,
1.071494,-0.0068,1.0057,0.0303,1.4417,2.7390,0.2355,0.5058,-0.1875,0.5286,
1.073826,-0.0068,1.0057,0.0303,-1.0652,0.9097,0.3106,0.5058,-0.1875,0.5286,
1.112760,0.1382,1.0008,-0.0447,-1.0652,0.9097,0.3106,0.5058,-0.1875,0.5286,
1.113870,0.2771,1.1127,-0.1326,-1.0652,0.9097,0.3106,0.5058,-0.1875,0.5286,
1.114702,0.1836,1.2391,-0.1467,-1.0652,0.9097,0.3106,0.5058,-0.1875,0.5286,
1.115380,0.1836,1.2391,-0.1467,-1.0652,0.9097,0.3106,0.5369,-0.2857,0.2784,
1.115911,0.1836,1.2391,-0.1467,1.1330,1.0625,-0.9068,0.5369,-0.2857,0.2784,
1.172568,-0.0542,1.1451,-0.0227,1.1330,1.0625,-0.9068,0.5369,-0.2857,0.2784,
1.173897,-0.0779,1.0079,0.0244,1.1330,1.0625,-0.9068,0.5369,-0.2857,0.2784,
1.175093,0.0493,1.0057,-0.0527,1.1330,1.0625,-0.9068,0.5369,-0.2857,0.2784,
1.176226,0.0493,1.0057,-0.0527,-1.1303,0.4228,0.2127,0.5369,-0.2857,0.2784,
1.177176,0.0493,1.0057,-0.0527,-1.1303,0.4228,0.2127,0.4113,-0.0267,0.1613,
1.230602,0.1216,1.0050,-0.0874,-1.1303,0.4228,0.2127,0.4113,-0.0267,0.1613,
1.233214,0.1157,0.9996,-0.1023,-1.1303,0.4228,0.2127,0.4113,-0.0267,0.1613,
1.236311,0.0855,0.9986,-0.1150,-1.1303,0.4228,0.2127,0.4113,-0.0267,0.1613,
1.238408,0.0855,0.9986,-0.1150,-1.1303,0.4228,0.2127,0.4518,-0.2875,0.2230,
1.240717,0.0855,0.9986,-0.1150,0.0716,-0.0570,-0.3246,0.4518,-0.2875,0.2230,
1.297863,0.0901,1.0108,-0.0820,0.0716,-0.0570,-0.3246,0.4518,-0.2875,0.2230,
1.300948,0.0872,1.0655,-0.0378,0.0716,-0.0570,-0.3246,0.4518,-0.2875,0.2230,
1.303339,0.0501,1.1588,-0.0393,0.0716,-0.0570,-0.3246,0.4518,-0.2875,0.2230,
1.305847,0.0501,1.1588,-0.0393,-0.3268,0.6988,0.3735,0.4518,-0.2875,0.2230,
1.308280,0.0501,1.1588,-0.0393,-0.3268,0.6988,0.3735,0.3946,-0.2138,0.1935,
1.346360,0.0859,1.1913,-0.1194,-0.3268,0.6988,0.3735,0.3946,-0.2138,0.1935,
1.347964,0.0686,1.2655,-0.1514,-0.3268,0.6988,0.3735,0.3946,-0.2138,0.1935,
1.348814,-0.0261,1.2814,-0.0676,-0.3268,0.6988,0.3735,0.3946,-0.2138,0.1935,
1.349706,-0.0261,1.2814,-0.0676,-0.3268,0.6988,0.3735,0.5033,-0.1954,0.1914,
1.350650,-0.0261,1.2814,-0.0676,-0.7168,2.2857,0.0861,0.5033,-0.1954,0.1914,
1.411065,-0.0715,1.2565,-0.0496,-0.7168,2.2857,0.0861,0.5033,-0.1954,0.1914,
1.413624,-0.0295,1.2299,-0.0808,-0.7168,2.2857,0.0861,0.5033,-0.1954,0.1914,
1.415503,-0.0251,1.1078,-0.1428,-0.7168,2.2857,0.0861,0.5033,-0.1954,0.1914,
1.416572,-0.0251,1.1078,-0.1428,-0.7168,2.2857,0.0861,0.4408,-0.4575,0.3441,
1.417425,-0.0251,1.1078,-0.1428,-1.6428,1.7989,0.5627,0.4408,-0.4575,0.3441,
1.464364,-0.1016,1.0795,-0.1751,-1.6428,1.7989,0.5627,0.4408,-0.4575,0.3441,
1.467892,-0.1975,1.0763,-0.0686,-1.6428,1.7989,0.5627,0.4408,-0.4575,0.3441,
1.469968,-0.3680,0.9374,0.0237,-1.6428,1.7989,0.5627,0.4408,-0.4575,0.3441,
1.471988,-0.3680,0.9374,0.0237,-1.6428,1.7989,0.5627,0.0311,-0.3091,0.5425,
1.474083,-0.3680,0.9374,0.0237,-3.5543,0.2003,0.7491,0.0311,-0.3091,0.5425,
1.523224,-0.5518,0.8067,0.0410,-3.5543,0.2003,0.7491,0.0311,-0.3091,0.5425,
1.525685,-0.5645,0.8424,0.0095,-3.5543,0.2003,0.7491,0.0311,-0.3091,0.5425,
1.528226,-0.4434,0.8717,-0.0711,-3.5543,0.2003,0.7491,0.0311,-0.3091,0.5425,
1.530197,-0.4434,0.8717,-0.0711,-6.0962,-1.6485,1.1814,0.0311,-0.3091,0.5425,
1.532047,-0.4434,0.8717,-0.0711,-6.0962,-1.6485,1.1814,-0.4891,-1.4066,-0.0444,
1.579212,-0.3553,0.8819,-0.1033,-6.0962,-1.6485,1.1814,-0.4891,-1.4066,-0.0444,
1.581384,-0.2661,0.9007,-0.1069,-6.0962,-1.6485,1.1814,-0.4891,-1.4066,-0.0444,
1.582334,-0.2188,0.9044,-0.0947,-6.0962,-1.6485,1.1814,-0.4891,-1.4066,-0.0444,
1.583324,-0.2188,0.9044,-0.0947,-6.0962,-1.6485,1.1814,-0.9896,-2.0448,-0.8896,
1.584379,-0.2188,0.9044,-0.0947,-2.9975,-1.1558,-0.2285,-0.9896,-2.0448,-0.8896,
1.641039,-0.1724,0.9195,-0.0488,-2.9975,-1.1558,-0.2285,-0.9896,-2.0448,-0.8896,
1.645606,-0.0982,0.9298,-0.0063,-2.9975,-1.1558,-0.2285,-0.9896,-2.0448,-0.8896,
1.648141,-0.0251,0.9247,-0.0210,-2.9975,-1.1558,-0.2285,-0.9896,-2.0448,-0.8896,
1.650227,-0.0251,0.9247,-0.0210,-2.9975,-1.1558,-0.2285,-1.5445,-1.9560,-1.2706,
1.653395,-0.0251,0.9247,-0.0210,-0.4260,-0.8591,-0.3783,-1.5445,-1.9560,-1.2706,
1.697335,0.0381,0.8792,-0.0515,-0.4260,-0.8591,-0.3783,-1.5445,-1.9560,-1.2706,
1.699640,0.0430,0.8167,-0.0894,-0.4260,-0.8591,-0.3783,-1.5445,-1.9560,-1.2706,
1.701531,0.0969,0.8172,-0.0852,-0.4260,-0.8591,-0.3783,-1.5445,-1.9560,-1.2706,
1.703055,0.0969,0.8172,-0.0852,-0.4260,-0.8591,-0.3783,-1.3040,-1.9476,-1.3592,
1.705885,0.0969,0.8172,-0.0852,1.7788,-1.5440,-1.6643,-1.3040,-1.9476,-1.3592,
1.754361,0.1463,0.8416,-0.1170,1.7788,-1.5440,-1.6643,-1.3040,-1.9476,-1.3592,
1.759070,0.1817,0.8675,-0.1445,1.7788,-1.5440,-1.6643,-1.3040,-1.9476,-1.3592,
1.762174,0.2976,0.8858,-0.1016,1.7788,-1.5440,-1.6643,-1.3040,-1.9476,-1.3592,
1.764316,0.2976,0.8858,-0.1016,1.7788,-1.5440,-1.6643,-1.0401,-1.5638,-1.0095,
1.766965,0.2976,0.8858,-0.1016,3.5748,-1.0788,-2.7387,-1.0401,-1.5638,-1.0095,
1.812806,0.4063,0.8661,-0.1179,3.5748,-1.0788,-2.7387,-1.0401,-1.5638,-1.0095,
1.817543,0.3958,0.8893,-0.2097,3.5748,-1.0788,-2.7387,-1.0401,-1.5638,-1.0095,
1.819539,0.3570,0.7542,-0.3211,3.5748,-1.0788,-2.7387,-1.0401,-1.5638,-1.0095,
1.821941,0.3570,0.7542,-0.3211,5.0934,-1.2490,-3.9655,-1.0401,-1.5638,-1.0095,
1.824328,0.3570,0.7542,-0.3211,5.0934,-1.2490,-3.9655,-0.5441,-1.3282,-0.1405,
1.870506,0.5054,1.0499,-0.9557,5.0934,-1.2490,-3.9655,-0.5441,-1.3282,-0.1405,
1.872686,0.1055,2.4749,0.2549,5.0934,-1.2490,-3.9655,-0.5441,-1.3282,-0.1405,
1.874350,-1.3380,2.0612,1.2440,5.0934,-1.2490,-3.9655,-0.5441,-1.3282,-0.1405,
1.876016,-1.3380,2.0612,1.2440,-1.3823,8.4513,0.1590,-0.5441,-1.3282,-0.1405,
1.877132,-1.3380,2.0612,1.2440,-1.3823,8.4513,0.1590,0.3058,1.0434,0.8365,
1.930855,-0.1275,0.4830,-0.6986,-1.3823,8.4513,0.1590,0.3058,1.0434,0.8365,
1.932822,-0.0906,0.7967,-0.7601,-1.3823,8.4513,0.1590,0.3058,1.0434,0.8365,
1.933816,-0.0232,1.1180,0.5440,-1.3823,8.4513,0.1590,0.3058,1.0434,0.8365,
1.934840,-0.0232,1.1180,0.5440,-0.5702,-2.0359,-3.8295,0.3058,1.0434,0.8365,
1.936465,-0.0232,1.1180,0.5440,-0.5702,-2.0359,-3.8295,1.0586,1.3374,1.5537,
1.989205,0.0877,1.1095,0.1465,-0.5702,-2.0359,-3.8295,1.0586,1.3374,1.5537,
1.992297,0.5191,0.9935,-0.2307,-0.5702,-2.0359,-3.8295,1.0586,1.3374,1.5537,
1.994308,0.6866,0.9559,-0.1260,-0.5702,-2.0359,-3.8295,1.0586,1.3374,1.5537,
1.996813,0.6866,0.9559,-0.1260,-0.5702,-2.0359,-3.8295,0.3150,-1.0782,1.4062,
1.998668,0.6866,0.9559,-0.1260,3.4875,0.1231,-1.2860,0.3150,-1.0782,1.4062,
2.046654,0.1890,1.0260,-0.0664,3.4875,0.1231,-1.2860,0.3150,-1.0782,1.4062,
2.048896,-0.1692,1.1063,0.0256,3.4875,0.1231,-1.2860,0.3150,-1.0782,1.4062,
2.051137,-0.1812,1.0121,0.1423,3.4875,0.1231,-1.2860,0.3150,-1.0782,1.4062,
2.053200,-0.1812,1.0121,0.1423,-1.5982,0.4180,-0.1138,0.3150,-1.0782,1.4062,
2.056532,-0.1812,1.0121,0.1423,-1.5982,0.4180,-0.1138,0.3074,0.4197,0.6793,
2.104331,0.1016,0.9505,0.1814,-1.5982,0.4180,-0.1138,0.3074,0.4197,0.6793,
2.106459,0.1900,0.9652,0.1611,-1.5982,0.4180,-0.1138,0.3074,0.4197,0.6793,
2.107828,0.2090,0.9364,0.0857,-1.5982,0.4180,-0.1138,0.3074,0.4197,0.6793,
2.108996,0.2090,0.9364,0.0857,-1.5982,0.4180,-0.1138,0.4192,-0.4693,0.9601,
2.110187,0.2090,0.9364,0.0857,0.0064,-0.4562,1.1992,0.4192,-0.4693,0.9601,
2.164007,0.2166,0.9535,0.0039,0.0064,-0.4562,1.1992,0.4192,-0.4693,0.9601,
2.167734,0.2307,0.9815,-0.0447,0.0064,-0.4562,1.1992,0.4192,-0.4693,0.9601,
2.169248,0.1101,1.0006,-0.0371,0.0064,-0.4562,1.1992,0.4192,-0.4693,0.9601,
2.172994,0.1101,1.0006,-0.0371,0.0064,-0.4562,1.1992,0.5671,-0.2519,0.9023,
2.175795,0.1101,1.0006,-0.0371,-0.3120,-0.0827,-0.1026,0.5671,-0.2519,0.9023,
2.222261,0.1389,0.9728,-0.0186,-0.3120,-0.0827,-0.1026,0.5671,-0.2519,0.9023,
2.224734,0.2954,0.9542,-0.0181,-0.3120,-0.0827,-0.1026,0.5671,-0.2519,0.9023,
2.227010,0.3474,0.9793,-0.0215,-0.3120,-0.0827,-0.1026,0.5671,-0.2519,0.9023,
2.229742,0.3474,0.9793,-0.0215,-0.3120,-0.0827,-0.1026,0.5715,-0.2995,0.9687,
2.231719,0.3474,0.9793,-0.0215,-0.1126,-0.0308,0.3158,0.5715,-0.2995,0.9687,
2.280554,0.2669,0.9935,-0.0523,-0.1126,-0.0308,0.3158,0.5715,-0.2995,0.9687,
2.283276,0.1990,1.0157,-0.0501,-0.1126,-0.0308,0.3158,0.5715,-0.2995,0.9687,
2.285638,0.1663,1.0616,-0.0679,-0.1126,-0.0308,0.3158,0.5715,-0.2995,0.9687,
2.287561,0.1663,1.0616,-0.0679,-0.1126,-0.0308,0.3158,0.5799,-0.3217,0.9778,
2.289394,0.1663,1.0616,-0.0679,-1.0985,0.6800,0.3158,0.5799,-0.3217,0.9778,
2.338114,0.2193,1.0333,-0.0913,-1.0985,0.6800,0.3158,0.5799,-0.3217,0.9778,
2.340211,0.2757,1.0089,-0.0952,-1.0985,0.6800,0.3158,0.5799,-0.3217,0.9778,
2.341860,0.2544,1.0487,-0.1270,-1.0985,0.6800,0.3158,0.5799,-0.3217,0.9778,
2.343501,0.2544,1.0487,-0.1270,-1.3072,1.0126,0.3125,0.5799,-0.3217,0.9778,
2.346068,0.2544,1.0487,-0.1270,-1.3072,1.0126,0.3125,0.5432,-0.8843,1.2700,
2.397898,0.1846,1.0704,-0.1563,-1.3072,1.0126,0.3125,0.5432,-0.8843,1.2700,
2.400901,0.1260,1.0524,-0.1883,-1.3072,1.0126,0.3125,0.5432,-0.8843,1.2700,
2.403155,0.1367,1.0555,-0.2161,-1.3072,1.0126,0.3125,0.5432,-0.8843,1.2700,
2.405961,0.1367,1.0555,-0.2161,-1.3072,1.0126,0.3125,0.7858,-0.9733,1.5087,
2.411096,0.1367,1.0555,-0.2161,-2.9101,1.6940,0.1410,0.7858,-0.9733,1.5087,
2.453714,0.0754,1.1175,-0.1944,-2.9101,1.6940,0.1410,0.7858,-0.9733,1.5087,
2.456240,-0.0781,1.2343,-0.1065,-2.9101,1.6940,0.1410,0.7858,-0.9733,1.5087,
2.457372,-0.3262,1.5290,0.0874,-2.9101,1.6940,0.1410,0.7858,-0.9733,1.5087,
2.459027,-0.3262,1.5290,0.0874,-2.9101,1.6940,0.1410,1.1885,-1.0847,1.9375,
2.460719,-0.3262,1.5290,0.0874,-6.0922,4.5869,2.1050,1.1885,-1.0847,1.9375,
2.514923,-0.8966,1.9931,0.1162,-6.0922,4.5869,2.1050,1.1885,-1.0847,1.9375,
2.517893,-1.1268,2.0879,-0.0620,-6.0922,4.5869,2.1050,1.1885,-1.0847,1.9375,
2.519944,-0.5926,1.5893,-0.3890,-6.0922,4.5869,2.1050,1.1885,-1.0847,1.9375,
2.522389,-0.5926,1.5893,-0.3890,-6.0922,4.5869,2.1050,1.3685,-2.3007,2.8917,
2.525305,-0.5926,1.5893,-0.3890,-14.0351,11.3633,2.9741,1.3685,-2.3007,2.8917,
2.571037,0.5936,1.2008,-0.6956,-14.0351,11.3633,2.9741,1.3685,-2.3007,2.8917,
2.573123,1.5004,1.1183,-0.7794,-14.0351,11.3633,2.9741,1.3685,-2.3007,2.8917,
2.574879,1.0856,1.0301,-0.7596,-14.0351,11.3633,2.9741,1.3685,-2.3007,2.8917,
2.577195,1.0856,1.0301,-0.7596,-14.0351,11.3633,2.9741,1.5015,-3.2180,3.6711,
2.579237,1.0856,1.0301,-0.7596,4.3596,5.3233,-1.5557,1.5015,-3.2180,3.6711,
2.629936,0.6224,0.5706,-0.9027,4.3596,5.3233,-1.5557,1.5015,-3.2180,3.6711,
2.632140,0.6592,0.4231,-0.8895,4.3596,5.3233,-1.5557,1.5015,-3.2180,3.6711,
2.633356,0.4805,0.2581,-0.4695,4.3596,5.3233,-1.5557,1.5015,-3.2180,3.6711,
2.634559,0.4805,0.2581,-0.4695,4.3596,5.3233,-1.5557,-0.5001,-0.5481,1.2444,
2.637145,0.4805,0.2581,-0.4695,-0.4641,-1.2315,-1.5700,-0.5001,-0.5481,1.2444,
2.688167,0.1814,0.0603,-0.1350,-0.4641,-1.2315,-1.5700,-0.5001,-0.5481,1.2444,
2.689975,-0.1494,-0.0132,-0.1653,-0.4641,-1.2315,-1.5700,-0.5001,-0.5481,1.2444,
2.691232,-0.2290,0.1094,-0.3474,-0.4641,-1.2315,-1.5700,-0.5001,-0.5481,1.2444,
2.692534,-0.2290,0.1094,-0.3474,-0.4641,-1.2315,-1.5700,-2.4531,0.3914,-1.4642,
2.693849,-0.2290,0.1094,-0.3474,-6.3297,-5.9612,2.6588,-2.4531,0.3914,-1.4642,
2.750620,-0.1094,0.3201,-0.4349,-6.3297,-5.9612,2.6588,-2.4531,0.3914,-1.4642,
2.753849,-0.0149,0.4788,-0.5022,-6.3297,-5.9612,2.6588,-2.4531,0.3914,-1.4642,
2.759718,0.0261,0.5350,-0.4510,-6.3297,-5.9612,2.6588,-2.4531,0.3914,-1.4642,
2.762634,0.0261,0.5350,-0.4510,-6.3297,-5.9612,2.6588,-3.5005,-1.0686,-3.0087,
2.766157,0.0261,0.5350,-0.4510,-4.3628,-3.7575,-0.9409,-3.5005,-1.0686,-3.0087,
2.804702,-0.0134,0.6046,-0.4651,-4.3628,-3.7575,-0.9409,-3.5005,-1.0686,-3.0087,
2.806907,0.0571,0.8121,-0.6102,-4.3628,-3.7575,-0.9409,-3.5005,-1.0686,-3.0087,
2.808325,0.3516,0.9960,-0.7249,-4.3628,-3.7575,-0.9409,-3.5005,-1.0686,-3.0087,
2.809854,0.3516,0.9960,-0.7249,-4.3628,-3.7575,-0.9409,-4.1163,-2.1616,-3.8682,
2.811969,0.3516,0.9960,-0.7249,-0.4051,-1.5136,-3.9708,-4.1163,-2.1616,-3.8682,
2.869675,0.3516,0.9960,-0.7249,6.3335,2.1142,-7.9466,-4.1163,-2.1616,-3.8682,
2.873096,0.7249,1.1320,-0.7528,6.3335,2.1142,-7.9466,-4.1163,-2.1616,-3.8682,
2.876100,0.5643,1.2177,-0.8145,6.3335,2.1142,-7.9466,-4.1163,-2.1616,-3.8682,
2.877795,0.4334,1.2775,-0.7894,6.3335,2.1142,-7.9466,-4.1163,-2.1616,-3.8682,
2.879768,0.4334,1.2775,-0.7894,6.3335,2.1142,-7.9466,-4.1902,-0.7807,-4.4088,
2.922373,0.5396,1.3231,-0.7926,6.3335,2.1142,-7.9466,-4.1902,-0.7807,-4.4088,
2.926179,0.7171,1.1205,-0.6361,6.3335,2.1142,-7.9466,-4.1902,-0.7807,-4.4088,
2.929692,0.8834,0.9410,-0.4236,6.3335,2.1142,-7.9466,-4.1902,-0.7807,-4.4088,
2.932631,0.8834,0.9410,-0.4236,9.3905,1.7879,-7.7337,-4.1902,-0.7807,-4.4088,
2.935107,0.8834,0.9410,-0.4236,9.3905,1.7879,-7.7337,-2.9790,0.5600,-3.2977,
2.982326,0.8834,0.9410,-0.4236,8.1690,-0.3762,-4.2649,-2.9790,0.5600,-3.2977,
2.986795,0.8045,0.9752,-0.2581,8.1690,-0.3762,-4.2649,-2.9790,0.5600,-3.2977,
2.989046,0.5433,0.9002,-0.2193,8.1690,-0.3762,-4.2649,-2.9790,0.5600,-3.2977,
2.991429,0.3948,0.8272,-0.3528,8.1690,-0.3762,-4.2649,-2.9790,0.5600,-3.2977,
2.993287,0.3948,0.8272,-0.3528,8.1690,-0.3762,-4.2649,-0.4099,1.7147,-0.1071,
3.038851,0.2600,1.1466,-0.8714,8.1690,-0.3762,-4.2649,-0.4099,1.7147,-0.1071,
3.042003,-1.2123,1.9736,0.5525,8.1690,-0.3762,-4.2649,-0.4099,1.7147,-0.1071,
3.045064,-1.3561,1.8693,0.9317,8.1690,-0.3762,-4.2649,-0.4099,1.7147,-0.1071,
3.048765,-1.3561,1.8693,0.9317,-5.4133,6.7788,0.9781,-0.4099,1.7147,-0.1071,
3.051039,-1.3561,1.8693,0.9317,-5.4133,6.7788,0.9781,0.4207,2.3800,1.1698,
3.096701,0.4578,1.0511,-0.5213,-5.4133,6.7788,0.9781,0.4207,2.3800,1.1698,
3.100234,0.3372,0.9420,-1.1124,-5.4133,6.7788,0.9781,0.4207,2.3800,1.1698,
3.101842,0.3089,0.8446,0.0303,-5.4133,6.7788,0.9781,0.4207,2.3800,1.1698,
3.103032,0.3089,0.8446,0.0303,-5.4133,6.7788,0.9781,1.2533,0.6298,2.3580,
3.104333,0.3089,0.8446,0.0303,4.3529,-0.4914,-5.3857,1.2533,0.6298,2.3580,
3.155633,0.4180,0.8636,0.5826,4.3529,-0.4914,-5.3857,1.2533,0.6298,2.3580,
3.158366,0.1731,1.0226,0.0530,4.3529,-0.4914,-5.3857,1.2533,0.6298,2.3580,
3.160478,0.1455,0.9999,-0.2659,4.3529,-0.4914,-5.3857,1.2533,0.6298,2.3580,
3.162649,0.1455,0.9999,-0.2659,4.3529,-0.4914,-5.3857,0.5284,-0.1295,1.2877,
3.166406,0.1455,0.9999,-0.2659,2.3758,-0.3553,1.3368,0.5284,-0.1295,1.2877,
3.213782,0.1775,1.0865,-0.3152,2.3758,-0.3553,1.3368,0.5284,-0.1295,1.2877,
3.216821,-0.0127,1.1332,-0.2376,2.3758,-0.3553,1.3368,0.5284,-0.1295,1.2877,
3.218649,-0.1008,1.0067,-0.1018,2.3758,-0.3553,1.3368,0.5284,-0.1295,1.2877,
3.220112,-0.1008,1.0067,-0.1018,2.3758,-0.3553,1.3368,0.3596,0.1615,0.7563,
3.222146,-0.1008,1.0067,-0.1018,-0.2508,0.7585,-1.7751,0.3596,0.1615,0.7563,
3.271651,-0.0276,0.9557,0.0857,-0.2508,0.7585,-1.7751,0.3596,0.1615,0.7563,
3.275861,-0.0164,1.0116,0.0784,-0.2508,0.7585,-1.7751,0.3596,0.1615,0.7563,
3.277836,0.0234,0.9759,0.1079,-0.2508,0.7585,-1.7751,0.3596,0.1615,0.7563,
3.280254,0.0234,0.9759,0.1079,-0.2508,0.7585,-1.7751,0.4349,0.1360,0.8143,
3.282302,0.0234,0.9759,0.1079,-0.9767,-0.1193,1.4678,0.4349,0.1360,0.8143,
3.331822,0.0891,0.9244,0.0190,-0.9767,-0.1193,1.4678,0.4349,0.1360,0.8143,
3.334021,0.1182,0.9615,-0.0386,-0.9767,-0.1193,1.4678,0.4349,0.1360,0.8143,
3.336317,0.1199,0.9967,-0.0198,-0.9767,-0.1193,1.4678,0.4349,0.1360,0.8143,
3.339102,0.1199,0.9967,-0.0198,-0.9767,-0.1193,1.4678,0.6137,-0.3602,0.9909,
3.342563,0.1199,0.9967,-0.0198,-0.3775,-0.2176,0.8094,0.6137,-0.3602,0.9909,
3.388621,0.1685,0.9635,-0.0386,-0.3775,-0.2176,0.8094,0.6137,-0.3602,0.9909,
3.392134,0.1831,0.9269,-0.0632,-0.3775,-0.2176,0.8094,0.6137,-0.3602,0.9909,
3.393926,0.1629,0.9479,-0.1047,-0.3775,-0.2176,0.8094,0.6137,-0.3602,0.9909,
3.398301,0.1629,0.9479,-0.1047,-0.3775,-0.2176,0.8094,0.7911,-0.3435,1.0532,
3.400334,0.1629,0.9479,-0.1047,-0.3239,-0.1989,0.7260,0.7911,-0.3435,1.0532,
3.447617,0.1878,0.9686,-0.1494,-0.3239,-0.1989,0.7260,0.7911,-0.3435,1.0532,
3.450832,0.1917,1.0033,-0.2088,-0.3239,-0.1989,0.7260,0.7911,-0.3435,1.0532,
3.452768,0.1858,1.0228,-0.2481,-0.3239,-0.1989,0.7260,0.7911,-0.3435,1.0532,
3.454601,0.1858,1.0228,-0.2481,-0.3239,-0.1989,0.7260,0.8558,-0.4541,1.1161,
3.455883,0.1858,1.0228,-0.2481,-0.7112,0.5356,-0.0506,0.8558,-0.4541,1.1161,
3.507022,0.2503,0.9872,-0.2705,-0.7112,0.5356,-0.0506,0.8558,-0.4541,1.1161,
3.509859,0.3116,0.9625,-0.2581,-0.7112,0.5356,-0.0506,0.8558,-0.4541,1.1161,
3.511891,0.2669,1.0050,-0.1951,-0.7112,0.5356,-0.0506,0.8558,-0.4541,1.1161,
3.513476,0.2669,1.0050,-0.1951,-0.7112,0.5356,-0.0506,0.8811,-0.4581,1.1350,
3.515091,0.2669,1.0050,-0.1951,-0.3877,0.6936,0.1073,0.8811,-0.4581,1.1350,
3.565195,0.2215,1.0651,-0.1489,-0.3877,0.6936,0.1073,0.8811,-0.4581,1.1350,
3.568544,0.1633,1.1302,-0.1179,-0.3877,0.6936,0.1073,0.8811,-0.4581,1.1350,
3.570276,0.0896,1.1486,-0.1087,-0.3877,0.6936,0.1073,0.8811,-0.4581,1.1350,
3.572035,0.0896,1.1486,-0.1087,-0.3877,0.6936,0.1073,1.2358,-0.3427,1.1537,
3.574351,0.0896,1.1486,-0.1087,-2.0438,2.3550,1.9095,1.2358,-0.3427,1.1537,
3.622558,-0.0159,1.2548,-0.1060,-2.0438,2.3550,1.9095,1.2358,-0.3427,1.1537,
3.627181,-0.1692,1.5104,-0.0742,-2.0438,2.3550,1.9095,1.2358,-0.3427,1.1537,
3.628905,-0.4388,1.8530,-0.0347,-2.0438,2.3550,1.9095,1.2358,-0.3427,1.1537,
3.630724,-0.4388,1.8530,-0.0347,-2.0438,2.3550,1.9095,1.9085,-0.8330,1.4842,
3.632724,-0.4388,1.8530,-0.0347,-6.0594,7.1425,3.4777,1.9085,-0.8330,1.4842,
3.681562,-0.8809,1.9753,-0.0220,-6.0594,7.1425,3.4777,1.9085,-0.8330,1.4842,
3.686267,-1.0419,1.8674,0.0469,-6.0594,7.1425,3.4777,1.9085,-0.8330,1.4842,
3.688131,-0.1692,1.3380,-0.0911,-6.0594,7.1425,3.4777,1.9085,-0.8330,1.4842,
3.689927,-0.1692,1.3380,-0.0911,-6.0594,7.1425,3.4777,2.2335,-1.2396,2.1008,
3.691890,-0.1692,1.3380,-0.0911,-11.2191,9.9685,5.1512,2.2335,-1.2396,2.1008,
3.738265,1.0900,1.2199,-0.5071,-11.2191,9.9685,5.1512,2.2335,-1.2396,2.1008,
3.741109,1.6928,1.1886,-0.5430,-11.2191,9.9685,5.1512,2.2335,-1.2396,2.1008,
3.742608,0.9273,0.9232,-0.7371,-11.2191,9.9685,5.1512,2.2335,-1.2396,2.1008,
3.744340,0.9273,0.9232,-0.7371,-11.2191,9.9685,5.1512,2.2580,-1.2626,2.5504,
3.746968,0.9273,0.9232,-0.7371,7.1267,5.3154,0.6820,2.2580,-1.2626,2.5504,
3.796800,0.5181,0.5528,-0.6759,7.1267,5.3154,0.6820,2.2580,-1.2626,2.5504,
3.800857,0.5311,0.4085,-0.4510,7.1267,5.3154,0.6820,2.2580,-1.2626,2.5504,
3.802560,0.4034,0.3015,-0.2178,7.1267,5.3154,0.6820,2.2580,-1.2626,2.5504,
3.804153,0.4034,0.3015,-0.2178,7.1267,5.3154,0.6820,0.0896,0.8459,0.2332,
3.806199,0.4034,0.3015,-0.2178,-0.6309,-1.3178,1.8658,0.0896,0.8459,0.2332,
3.854927,0.2715,0.1585,0.0894,-0.6309,-1.3178,1.8658,0.0896,0.8459,0.2332,
3.858448,0.1155,0.0559,0.0430,-0.6309,-1.3178,1.8658,0.0896,0.8459,0.2332,
3.860401,0.0559,0.1353,-0.1033,-0.6309,-1.3178,1.8658,0.0896,0.8459,0.2332,
3.861812,0.0559,0.1353,-0.1033,-0.6309,-1.3178,1.8658,-1.8147,0.9025,-1.9572,
3.864739,0.0559,0.1353,-0.1033,-3.4864,-5.4179,5.3448,-1.8147,0.9025,-1.9572,
3.913054,0.2007,0.3116,-0.2224,-3.4864,-5.4179,5.3448,-1.8147,0.9025,-1.9572,
3.915939,0.3291,0.4683,-0.3008,-3.4864,-5.4179,5.3448,-1.8147,0.9025,-1.9572,
3.917036,0.4039,0.5430,-0.3013,-3.4864,-5.4179,5.3448,-1.8147,0.9025,-1.9572,
3.918503,0.4039,0.5430,-0.3013,-3.4864,-5.4179,5.3448,-2.8864,-0.2315,-3.3074,
3.919672,0.4039,0.5430,-0.3013,-0.3918,-3.7758,1.3380,-2.8864,-0.2315,-3.3074,
3.971863,0.3575,0.5965,-0.2591,-0.3918,-3.7758,1.3380,-2.8864,-0.2315,-3.3074,
3.975496,0.3269,0.7767,-0.2642,-0.3918,-3.7758,1.3380,-2.8864,-0.2315,-3.3074,
3.976704,0.3760,1.0567,-0.3963,-0.3918,-3.7758,1.3380,-2.8864,-0.2315,-3.3074,
3.977722,0.3760,1.0567,-0.3963,2.2438,-1.4395,-1.0188,-2.8864,-0.2315,-3.3074,
3.978748,0.3760,1.0567,-0.3963,2.2438,-1.4395,-1.0188,-4.1572,-0.6131,-4.1789,
4.030153,0.5127,1.3458,-0.5350,2.2438,-1.4395,-1.0188,-4.1572,-0.6131,-4.1789,
4.035004,0.5357,1.5863,-0.5779,2.2438,-1.4395,-1.0188,-4.1572,-0.6131,-4.1789,
4.036835,0.4056,1.7114,-0.4839,2.2438,-1.4395,-1.0188,-4.1572,-0.6131,-4.1789,
4.038118,0.4056,1.7114,-0.4839,2.2438,-1.4395,-1.0188,-4.9719,-0.1914,-4.2343,
4.039312,0.4056,1.7114,-0.4839,5.8112,5.5156,-5.9062,-4.9719,-0.1914,-4.2343,
4.086624,0.4412,1.4435,-0.3846,5.8112,5.5156,-5.9062,-4.9719,-0.1914,-4.2343,
4.088294,0.5135,1.1141,-0.1746,5.8112,5.5156,-5.9062,-4.9719,-0.1914,-4.2343,
4.089074,0.5154,0.9962,-0.2764,5.8112,5.5156,-5.9062,-4.9719,-0.1914,-4.2343,
4.089831,0.5154,0.9962,-0.2764,5.8112,5.5156,-5.9062,-4.0633,0.4466,-2.7411,
4.090591,0.5154,0.9962,-0.2764,7.2924,2.6299,-5.4873,-4.0633,0.4466,-2.7411,
4.146380,0.4388,0.9161,-0.3987,7.2924,2.6299,-5.4873,-4.0633,0.4466,-2.7411,
4.148392,0.3555,0.7310,-0.3296,7.2924,2.6299,-5.4873,-4.0633,0.4466,-2.7411,
4.149687,0.3726,0.6815,-0.2859,7.2924,2.6299,-5.4873,-4.0633,0.4466,-2.7411,
4.150772,0.3726,0.6815,-0.2859,7.2924,2.6299,-5.4873,-1.2254,0.8369,-0.3404,
4.151949,0.3726,0.6815,-0.2859,6.5226,-1.0861,-6.4577,-1.2254,0.8369,-0.3404,
4.203289,0.4195,0.7721,-0.3926,6.5226,-1.0861,-6.4577,-1.2254,0.8369,-0.3404,
4.205159,0.3555,0.9444,-0.6707,6.5226,-1.0861,-6.4577,-1.2254,0.8369,-0.3404,
4.206036,-0.3772,1.4613,-0.2959,6.5226,-1.0861,-6.4577,-1.2254,0.8369,-0.3404,
4.206756,-0.3772,1.4613,-0.2959,6.5226,-1.0861,-6.4577,1.2413,2.4229,1.7825,
4.207500,-0.3772,1.4613,-0.2959,3.4090,1.2220,-6.4749,1.2413,2.4229,1.7825,
4.262587,-2.3010,1.8483,0.9437,3.4090,1.2220,-6.4749,1.2413,2.4229,1.7825,
4.265795,-0.7428,1.7829,0.0557,3.4090,1.2220,-6.4749,1.2413,2.4229,1.7825,
4.267562,0.7432,1.4547,-0.8455,3.4090,1.2220,-6.4749,1.2413,2.4229,1.7825,
4.269523,0.7432,1.4547,-0.8455,3.4090,1.2220,-6.4749,0.9444,2.8723,1.1285,
4.271251,0.7432,1.4547,-0.8455,-5.6525,7.1177,-0.6890,0.9444,2.8723,1.1285,
4.321808,0.1890,1.0106,-0.3514,-5.6525,7.1177,-0.6890,0.9444,2.8723,1.1285,
4.325985,-0.1416,0.6392,0.4410,-5.6525,7.1177,-0.6890,0.9444,2.8723,1.1285,
4.328089,0.2102,0.8875,-0.0095,-5.6525,7.1177,-0.6890,0.9444,2.8723,1.1285,
4.329865,0.2102,0.8875,-0.0095,-5.6525,7.1177,-0.6890,1.1427,0.5427,2.0625,
4.331875,0.2102,0.8875,-0.0095,1.5542,-1.3974,-0.2291,1.1427,0.5427,2.0625,
4.379956,0.5022,1.1215,-0.2310,1.5542,-1.3974,-0.2291,1.1427,0.5427,2.0625,
4.383577,0.3850,1.0152,-0.2046,1.5542,-1.3974,-0.2291,1.1427,0.5427,2.0625,
4.386449,0.0552,0.9889,-0.1358,1.5542,-1.3974,-0.2291,1.1427,0.5427,2.0625,
4.388261,0.0552,0.9889,-0.1358,1.5542,-1.3974,-0.2291,0.5768,-0.0910,1.1674,
4.390247,0.0552,0.9889,-0.1358,3.0777,0.4789,-1.9965,0.5768,-0.0910,1.1674,
4.439121,-0.0732,1.0799,-0.1138,3.0777,0.4789,-1.9965,0.5768,-0.0910,1.1674,
4.443047,-0.0442,1.0499,0.0029,3.0777,0.4789,-1.9965,0.5768,-0.0910,1.1674,
4.445376,0.0242,0.9964,0.1025,3.0777,0.4789,-1.9965,0.5768,-0.0910,1.1674,
4.447210,0.0242,0.9964,0.1025,3.0777,0.4789,-1.9965,0.2698,0.3213,0.7253,
4.449122,0.0242,0.9964,0.1025,-0.7049,0.4810,-0.0090,0.2698,0.3213,0.7253,
4.498393,0.0947,1.0043,0.0149,-0.7049,0.4810,-0.0090,0.2698,0.3213,0.7253,
4.502544,0.1726,0.9713,-0.0129,-0.7049,0.4810,-0.0090,0.2698,0.3213,0.7253,
4.506262,0.1975,0.8829,0.0151,-0.7049,0.4810,-0.0090,0.2698,0.3213,0.7253,
4.508017,0.1975,0.8829,0.0151,-0.7049,0.4810,-0.0090,0.2193,-0.2152,0.7406,
4.509837,0.1975,0.8829,0.0151,0.6883,-0.3605,0.2035,0.2193,-0.2152,0.7406,
4.556495,0.1477,0.9664,-0.0286,0.6883,-0.3605,0.2035,0.2193,-0.2152,0.7406,
4.560463,0.1087,1.0377,-0.0779,0.6883,-0.3605,0.2035,0.2193,-0.2152,0.7406,
4.561915,0.1140,1.0001,-0.0317,0.6883,-0.3605,0.2035,0.2193,-0.2152,0.7406,
4.563300,0.1140,1.0001,-0.0317,0.6883,-0.3605,0.2035,0.1853,-0.1287,0.5368,
4.565501,0.1140,1.0001,-0.0317,0.0768,0.1462,-0.1887,0.1853,-0.1287,0.5368,
4.612223,0.1272,0.9559,-0.0078,0.0768,0.1462,-0.1887,0.1853,-0.1287,0.5368,
4.613762,0.1316,0.9415,0.0405,0.0768,0.1462,-0.1887,0.1853,-0.1287,0.5368,
4.614648,0.0774,0.9752,0.0308,0.0768,0.1462,-0.1887,0.1853,-0.1287,0.5368,
4.615336,0.0774,0.9752,0.0308,-0.3130,-0.2379,0.5896,0.1853,-0.1287,0.5368,
4.616148,0.0774,0.9752,0.0308,-0.3130,-0.2379,0.5896,0.2095,-0.1541,0.5087,
4.671419,0.0596,0.9974,0.0278,-0.3130,-0.2379,0.5896,0.2095,-0.1541,0.5087,
4.673444,0.0982,0.9796,0.0032,-0.3130,-0.2379,0.5896,0.2095,-0.1541,0.5087,
4.674038,0.1714,0.9491,-0.0554,-0.3130,-0.2379,0.5896,0.2095,-0.1541,0.5087,
4.674848,0.1714,0.9491,-0.0554,-0.3130,-0.2379,0.5896,0.3325,-0.4581,0.6626,
4.675624,0.1714,0.9491,-0.0554,-0.6817,0.0078,0.5224,0.3325,-0.4581,0.6626,
4.728190,0.2315,0.9591,-0.0386,-0.6817,0.0078,0.5224,0.3325,-0.4581,0.6626,
4.729306,0.1592,1.0006,-0.0100,-0.6817,0.0078,0.5224,0.3325,-0.4581,0.6626,
4.729756,0.0061,1.0170,0.0222,-0.6817,0.0078,0.5224,0.3325,-0.4581,0.6626,
4.730317,0.0061,1.0170,0.0222,-0.6817,0.0078,0.5224,0.4231,-0.7318,0.7292,
4.730860,0.0061,1.0170,0.0222,-0.8184,0.2697,0.8199,0.4231,-0.7318,0.7292,
4.786923,-0.0300,1.0050,-0.0330,-0.8184,0.2697,0.8199,0.4231,-0.7318,0.7292,
4.788439,0.1228,0.9825,-0.0759,-0.8184,0.2697,0.8199,0.4231,-0.7318,0.7292,
4.789348,0.0974,0.9630,-0.0178,-0.8184,0.2697,0.8199,0.4231,-0.7318,0.7292,
4.790049,0.0974,0.9630,-0.0178,-0.8184,0.2697,0.8199,0.5565,-1.5233,1.1346,
4.790880,0.0974,0.9630,-0.0178,-1.9753,0.3730,0.9911,0.5565,-1.5233,1.1346,
4.845074,0.0413,1.0607,0.0708,-1.9753,0.3730,0.9911,0.5565,-1.5233,1.1346,
4.846915,-0.0923,1.4774,0.1174,-1.9753,0.3730,0.9911,0.5565,-1.5233,1.1346,
4.847738,-0.3199,1.8830,0.0711,-1.9753,0.3730,0.9911,0.5565,-1.5233,1.1346,
4.848420,-0.3199,1.8830,0.0711,-1.9753,0.3730,0.9911,0.7410,-2.3948,1.8642,
4.849164,-0.3199,1.8830,0.0711,-4.4668,5.4852,3.0088,0.7410,-2.3948,1.8642,
4.903565,-0.1782,1.7746,-0.4385,-4.4668,5.4852,3.0088,0.7410,-2.3948,1.8642,
4.906078,0.1353,1.3065,-0.8521,-4.4668,5.4852,3.0088,0.7410,-2.3948,1.8642,
4.906719,0.4275,0.8683,-0.8558,-4.4668,5.4852,3.0088,0.7410,-2.3948,1.8642,
4.907245,0.4275,0.8683,-0.8558,-4.4668,5.4852,3.0088,-0.0772,-4.4365,3.1947,
4.908220,0.4275,0.8683,-0.8558,-2.8730,4.5507,-3.8495,-0.0772,-4.4365,3.1947,
4.961609,0.8678,0.6358,-0.6834,-2.8730,4.5507,-3.8495,-0.0772,-4.4365,3.1947,
4.963320,1.0638,0.4617,-0.6761,-2.8730,4.5507,-3.8495,-0.0772,-4.4365,3.1947,
4.964321,0.6436,0.4671,-0.6517,-2.8730,4.5507,-3.8495,-0.0772,-4.4365,3.1947,
4.965403,0.6436,0.4671,-0.6517,3.5800,-2.7121,-3.0414,-0.0772,-4.4365,3.1947,
4.966459,0.6436,0.4671,-0.6517,3.5800,-2.7121,-3.0414,-1.6487,-4.1850,3.1034,
5.019681,0.2456,0.3697,-0.5889,3.5800,-2.7121,-3.0414,-1.6487,-4.1850,3.1034,
5.021646,-0.0383,0.2952,-0.6143,3.5800,-2.7121,-3.0414,-1.6487,-4.1850,3.1034,
5.022517,-0.1707,0.2896,-0.7174,3.5800,-2.7121,-3.0414,-1.6487,-4.1850,3.1034,
5.023422,-0.1707,0.2896,-0.7174,3.5800,-2.7121,-3.0414,-2.8933,-3.9309,2.1592,
5.024555,-0.1707,0.2896,-0.7174,-4.8090,-4.5928,-2.8726,-2.8933,-3.9309,2.1592,
5.078976,-0.3523,0.3492,-0.7496,-4.8090,-4.5928,-2.8726,-2.8933,-3.9309,2.1592,
5.080824,-0.3748,0.4170,-0.7349,-4.8090,-4.5928,-2.8726,-2.8933,-3.9309,2.1592,
5.081922,-0.2073,0.4776,-0.9259,-4.8090,-4.5928,-2.8726,-2.8933,-3.9309,2.1592,
5.082874,-0.2073,0.4776,-0.9259,-4.8090,-4.5928,-2.8726,-3.1161,-5.4241,1.3897,
5.083962,-0.2073,0.4776,-0.9259,-7.4008,-3.8194,-4.3166,-3.1161,-5.4241,1.3897,
5.137645,-0.1868,0.5545,-0.8829,-7.4008,-3.8194,-4.3166,-3.1161,-5.4241,1.3897,
5.138828,-0.1775,0.5938,-0.8109,-7.4008,-3.8194,-4.3166,-3.1161,-5.4241,1.3897,
5.139320,-0.1751,0.6678,-0.7962,-7.4008,-3.8194,-4.3166,-3.1161,-5.4241,1.3897,
5.139756,-0.1751,0.6678,-0.7962,-7.4008,-3.8194,-4.3166,-2.9813,-5.3088,0.1601,
5.140195,-0.1751,0.6678,-0.7962,-5.0192,-2.4713,-4.7091,-2.9813,-5.3088,0.1601,
5.197275,-0.1004,0.8133,-0.7791,-5.0192,-2.4713,-4.7091,-2.9813,-5.3088,0.1601,
5.199297,-0.0483,0.9757,-0.6971,-5.0192,-2.4713,-4.7091,-2.9813,-5.3088,0.1601,
5.200177,-0.0427,1.0509,-0.6634,-5.0192,-2.4713,-4.7091,-2.9813,-5.3088,0.1601,
5.201070,-0.0427,1.0509,-0.6634,-2.3543,0.1855,-4.2277,-2.9813,-5.3088,0.1601,
5.202000,-0.0427,1.0509,-0.6634,-2.3543,0.1855,-4.2277,-2.8947,-4.9739,-1.1417,
5.253245,-0.0232,1.0836,-0.6219,-2.3543,0.1855,-4.2277,-2.8947,-4.9739,-1.1417,
5.255815,0.0286,1.1598,-0.6094,-2.3543,0.1855,-4.2277,-2.8947,-4.9739,-1.1417,
5.258072,0.0984,1.1842,-0.5943,-2.3543,0.1855,-4.2277,-2.8947,-4.9739,-1.1417,
5.260190,0.0984,1.1842,-0.5943,-2.3543,0.1855,-4.2277,-2.5170,-4.8389,-1.5471,
5.262423,0.0984,1.1842,-0.5943,0.0838,1.6604,-4.2195,-2.5170,-4.8389,-1.5471,
5.313496,0.2322,1.1239,-0.5870,0.0838,1.6604,-4.2195,-2.5170,-4.8389,-1.5471,
5.317834,0.3142,1.1000,-0.4581,0.0838,1.6604,-4.2195,-2.5170,-4.8389,-1.5471,
5.320036,0.2666,0.9928,-0.3184,0.0838,1.6604,-4.2195,-2.5170,-4.8389,-1.5471,
5.322311,0.2666,0.9928,-0.3184,0.0838,1.6604,-4.2195,-1.7660,-3.2093,-1.2516,
5.325124,0.2666,0.9928,-0.3184,3.2809,0.8457,-3.6765,-1.7660,-3.2093,-1.2516,
5.371824,0.2144,0.9635,-0.2112,3.2809,0.8457,-3.6765,-1.7660,-3.2093,-1.2516,
5.376300,0.2080,0.9278,-0.1475,3.2809,0.8457,-3.6765,-1.7660,-3.2093,-1.2516,
5.378403,0.1856,0.8590,-0.0584,3.2809,0.8457,-3.6765,-1.7660,-3.2093,-1.2516,
5.380888,0.1856,0.8590,-0.0584,3.0326,-0.6521,-1.0780,-1.7660,-3.2093,-1.2516,
5.383245,0.1856,0.8590,-0.0584,3.0326,-0.6521,-1.0780,-0.7422,-1.8491,-0.7434,
5.430566,0.2407,0.8092,0.0029,3.0326,-0.6521,-1.0780,-0.7422,-1.8491,-0.7434,
5.434129,0.3821,0.8099,-0.0315,3.0326,-0.6521,-1.0780,-0.7422,-1.8491,-0.7434,
5.435782,0.5272,0.9139,-0.1265,3.0326,-0.6521,-1.0780,-0.7422,-1.8491,-0.7434,
5.436815,0.5272,0.9139,-0.1265,3.0326,-0.6521,-1.0780,-0.0737,-2.3353,0.1998,
5.438884,0.5272,0.9139,-0.1265,4.6340,-1.3521,-0.3993,-0.0737,-2.3353,0.1998,
5.488753,0.5987,0.9088,-0.1541,4.6340,-1.3521,-0.3993,-0.0737,-2.3353,0.1998,
5.495465,0.3103,0.9051,-0.0015,4.6340,-1.3521,-0.3993,-0.0737,-2.3353,0.1998,
5.498419,-0.3245,1.3969,0.5975,4.6340,-1.3521,-0.3993,-0.0737,-2.3353,0.1998,
5.501239,-0.3245,1.3969,0.5975,2.2958,0.8179,1.2903,-0.0737,-2.3353,0.1998,
5.505283,-0.3245,1.3969,0.5975,2.2958,0.8179,1.2903,-0.3449,-1.0531,0.8058,
5.545330,-0.1467,1.8359,0.5989,2.2958,0.8179,1.2903,-0.3449,-1.0531,0.8058,
5.547434,-0.0628,1.2426,-0.2959,2.2958,0.8179,1.2903,-0.3449,-1.0531,0.8058,
5.548666,-0.4405,0.8358,-0.3096,2.2958,0.8179,1.2903,-0.3449,-1.0531,0.8058,
5.549667,-0.4405,0.8358,-0.3096,2.2958,0.8179,1.2903,0.2618,0.4895,0.8357,
5.550730,-0.4405,0.8358,-0.3096,-2.1698,3.0555,-0.0258,0.2618,0.4895,0.8357,
5.604309,-0.0518,0.8851,0.0696,-2.1698,3.0555,-0.0258,0.2618,0.4895,0.8357,
5.610816,0.3980,1.0287,0.2146,-2.1698,3.0555,-0.0258,0.2618,0.4895,0.8357,
5.612831,0.3914,0.9864,0.1799,-2.1698,3.0555,-0.0258,0.2618,0.4895,0.8357,
5.615075,0.3914,0.9864,0.1799,-2.1698,3.0555,-0.0258,0.0501,-0.1786,1.2629,
5.616796,0.3914,0.9864,0.1799,1.6199,-0.2234,1.5209,0.0501,-0.1786,1.2629,
5.662520,0.1047,0.9610,0.0779,1.6199,-0.2234,1.5209,0.0501,-0.1786,1.2629,
5.666388,0.0308,1.0567,-0.0752,1.6199,-0.2234,1.5209,0.0501,-0.1786,1.2629,
5.667885,0.2005,1.0426,-0.0383,1.6199,-0.2234,1.5209,0.0501,-0.1786,1.2629,
5.669936,0.2005,1.0426,-0.0383,1.6199,-0.2234,1.5209,0.1474,-0.3410,0.8141,
5.671857,0.2005,1.0426,-0.0383,-0.1479,0.3429,-0.0075,0.1474,-0.3410,0.8141,
5.721316,0.1738,1.0265,0.0447,-0.1479,0.3429,-0.0075,0.1474,-0.3410,0.8141,
5.725047,0.0786,0.9820,0.0796,-0.1479,0.3429,-0.0075,0.1474,-0.3410,0.8141,
5.726543,0.0361,1.0069,0.0942,-0.1479,0.3429,-0.0075,0.1474,-0.3410,0.8141,
5.728454,0.0361,1.0069,0.0942,-0.1479,0.3429,-0.0075,0.1946,-0.1893,0.6484,
5.730506,0.0361,1.0069,0.0942,-0.6540,0.2479,0.9319,0.1946,-0.1893,0.6484,
5.780751,0.0837,1.0072,0.0803,-0.6540,0.2479,0.9319,0.1946,-0.1893,0.6484,
5.785412,0.1143,0.9615,0.0991,-0.6540,0.2479,0.9319,0.1946,-0.1893,0.6484,
5.787091,0.1658,0.9708,0.0354,-0.6540,0.2479,0.9319,0.1946,-0.1893,0.6484,
5.788452,0.1658,0.9708,0.0354,-0.6540,0.2479,0.9319,0.4019,-0.3710,0.7634,
5.790476,0.1658,0.9708,0.0354,-0.8127,0.0870,1.1636,0.4019,-0.3710,0.7634,
5.838301,0.2371,1.0001,0.0010,-0.8127,0.0870,1.1636,0.4019,-0.3710,0.7634,
5.840723,0.1643,0.9979,-0.0125,-0.8127,0.0870,1.1636,0.4019,-0.3710,0.7634,
5.842751,0.1526,0.9796,-0.0181,-0.8127,0.0870,1.1636,0.4019,-0.3710,0.7634,
5.844579,0.1526,0.9796,-0.0181,-0.8127,0.0870,1.1636,0.5363,-0.3274,0.8112,
5.846847,0.1526,0.9796,-0.0181,-0.6164,0.3306,0.6915,0.5363,-0.3274,0.8112,
5.897136,0.2388,0.9610,-0.0686,-0.6164,0.3306,0.6915,0.5363,-0.3274,0.8112,
5.901144,0.2322,0.9603,-0.0610,-0.6164,0.3306,0.6915,0.5363,-0.3274,0.8112,
5.903205,0.2102,0.9798,-0.0439,-0.6164,0.3306,0.6915,0.5363,-0.3274,0.8112,
5.905243,0.2102,0.9798,-0.0439,-0.6357,0.2443,0.5973,0.5363,-0.3274,0.8112,
5.907296,0.2102,0.9798,-0.0439,-0.6357,0.2443,0.5973,0.5807,-0.4581,0.8689,
5.954967,0.2830,0.9750,-0.0842,-0.6357,0.2443,0.5973,0.5807,-0.4581,0.8689,
5.958312,0.3572,0.9635,-0.1546,-0.6357,0.2443,0.5973,0.5807,-0.4581,0.8689,
5.959911,0.2671,0.9825,-0.1528,-0.6357,0.2443,0.5973,0.5807,-0.4581,0.8689,
5.961686,0.2671,0.9825,-0.1528,-0.6357,0.2443,0.5973,0.5982,-0.3488,0.9355,
5.963696,0.2671,0.9825,-0.1528,-0.3619,0.5166,0.2619,0.5982,-0.3488,0.9355,
6.012821,0.2041,1.0138,-0.1179,-0.3619,0.5166,0.2619,0.5982,-0.3488,0.9355,
6.016457,0.2534,1.0155,-0.1253,-0.3619,0.5166,0.2619,0.5982,-0.3488,0.9355,
6.018439,0.2378,1.0062,-0.1289,-0.3619,0.5166,0.2619,0.5982,-0.3488,0.9355,
6.020321,0.2378,1.0062,-0.1289,-0.3619,0.5166,0.2619,0.5781,-0.5893,1.0025,
6.022295,0.2378,1.0062,-0.1289,-1.4886,1.1386,0.7362,0.5781,-0.5893,1.0025,
6.070568,0.1480,1.0360,-0.1069,-1.4886,1.1386,0.7362,0.5781,-0.5893,1.0025,
6.072817,0.1470,1.1251,-0.0806,-1.4886,1.1386,0.7362,0.5781,-0.5893,1.0025,
6.074343,0.1707,1.1793,-0.1011,-1.4886,1.1386,0.7362,0.5781,-0.5893,1.0025,
6.076220,0.1707,1.1793,-0.1011,-1.4886,1.1386,0.7362,0.8817,-0.5671,1.2973,
6.078173,0.1707,1.1793,-0.1011,-2.7673,2.5139,1.5568,0.8817,-0.5671,1.2973,
6.128119,0.1614,1.1649,-0.1458,-2.7673,2.5139,1.5568,0.8817,-0.5671,1.2973,
6.129643,0.0479,1.2023,-0.1575,-2.7673,2.5139,1.5568,0.8817,-0.5671,1.2973,
6.130464,-0.1746,1.3869,-0.1111,-2.7673,2.5139,1.5568,0.8817,-0.5671,1.2973,
6.131262,-0.1746,1.3869,-0.1111,-2.7673,2.5139,1.5568,1.2641,-0.8444,1.6693,
6.132055,-0.1746,1.3869,-0.1111,-4.7377,4.4540,1.9361,1.2641,-0.8444,1.6693,
6.186949,-0.1746,1.3869,-0.1111,-14.0086,10.8715,4.5526,1.2641,-0.8444,1.6693,
6.189311,-0.5660,1.7536,0.0225,-14.0086,10.8715,4.5526,1.2641,-0.8444,1.6693,
6.190114,-1.0734,1.9409,0.0144,-14.0086,10.8715,4.5526,1.2641,-0.8444,1.6693,
6.190752,-1.0707,1.7768,0.0190,-14.0086,10.8715,4.5526,1.2641,-0.8444,1.6693,
6.191460,-1.0707,1.7768,0.0190,-14.0086,10.8715,4.5526,1.6642,-1.4842,2.0554,
6.244998,-0.0684,1.2916,-0.2127,-14.0086,10.8715,4.5526,1.6642,-1.4842,2.0554,
6.247813,1.2311,1.4650,-0.5770,-14.0086,10.8715,4.5526,1.6642,-1.4842,2.0554,
6.249070,1.5588,1.3480,-0.4390,-14.0086,10.8715,4.5526,1.6642,-1.4842,2.0554,
6.250101,1.5588,1.3480,-0.4390,-14.0086,10.8715,4.5526,1.8391,-2.4298,3.3144,
6.251088,1.5588,1.3480,-0.4390,3.2042,7.8696,1.7671,1.8391,-2.4298,3.3144,
6.305157,1.5588,1.3480,-0.4390,1.3066,1.6930,-0.8463,1.8391,-2.4298,3.3144,
6.308698,0.9728,0.8653,-0.6827,1.3066,1.6930,-0.8463,1.8391,-2.4298,3.3144,
6.310331,0.7406,0.6863,-0.9513,1.3066,1.6930,-0.8463,1.8391,-2.4298,3.3144,
6.312087,0.5132,0.5105,-0.4646,1.3066,1.6930,-0.8463,1.8391,-2.4298,3.3144,
6.314026,0.5132,0.5105,-0.4646,1.3066,1.6930,-0.8463,0.5990,-0.0973,0.9410,
6.364968,0.3301,0.1414,0.1065,1.3066,1.6930,-0.8463,0.5990,-0.0973,0.9410,
6.367927,0.1187,-0.0400,0.0598,1.3066,1.6930,-0.8463,0.5990,-0.0973,0.9410,
6.369569,-0.0225,-0.0144,-0.0935,1.3066,1.6930,-0.8463,0.5990,-0.0973,0.9410,
6.371194,-0.0225,-0.0144,-0.0935,1.3066,1.6930,-0.8463,-1.6327,0.7210,-1.4648,
6.373674,-0.0225,-0.0144,-0.0935,-4.2621,-5.6996,5.3793,-1.6327,0.7210,-1.4648,
6.423348,0.0491,0.2217,-0.2156,-4.2621,-5.6996,5.3793,-1.6327,0.7210,-1.4648,
6.428078,0.2471,0.4400,-0.3514,-4.2621,-5.6996,5.3793,-1.6327,0.7210,-1.4648,
6.430729,0.3296,0.4981,-0.3912,-4.2621,-5.6996,5.3793,-1.6327,0.7210,-1.4648,
6.433426,0.3296,0.4981,-0.3912,-4.2621,-5.6996,5.3793,-2.4402,-0.7180,-2.9910,
6.435914,0.3296,0.4981,-0.3912,-2.1929,-3.6830,1.2294,-2.4402,-0.7180,-2.9910,
6.479867,0.2681,0.5064,-0.3025,-2.1929,-3.6830,1.2294,-2.4402,-0.7180,-2.9910,
6.484309,0.2644,0.6395,-0.2469,-2.1929,-3.6830,1.2294,-2.4402,-0.7180,-2.9910,
6.488069,0.2642,0.8387,-0.3228,-2.1929,-3.6830,1.2294,-2.4402,-0.7180,-2.9910,
6.490288,0.2642,0.8387,-0.3228,-2.1929,-3.6830,1.2294,-3.9766,-1.4422,-4.0020,
6.492521,0.2642,0.8387,-0.3228,0.5952,-2.5063,-0.1598,-3.9766,-1.4422,-4.0020,
6.537865,0.2906,1.0694,-0.4957,0.5952,-2.5063,-0.1598,-3.9766,-1.4422,-4.0020,
6.543713,0.4732,1.3742,-0.7323,0.5952,-2.5063,-0.1598,-3.9766,-1.4422,-4.0020,
6.546761,0.6590,1.5995,-0.7838,0.5952,-2.5063,-0.1598,-3.9766,-1.4422,-4.0020,
6.549058,0.6590,1.5995,-0.7838,0.5952,-2.5063,-0.1598,-4.7324,-0.9096,-4.2763,
6.551336,0.6590,1.5995,-0.7838,4.9830,3.5624,-6.3196,-4.7324,-0.9096,-4.2763,
6.596482,0.6685,1.5253,-0.7857,4.9830,3.5624,-6.3196,-4.7324,-0.9096,-4.2763,
6.600526,0.8475,1.1774,-0.6798,4.9830,3.5624,-6.3196,-4.7324,-0.9096,-4.2763,
6.603105,0.7559,1.0753,-0.3374,4.9830,3.5624,-6.3196,-4.7324,-0.9096,-4.2763,
6.606960,0.7559,1.0753,-0.3374,4.9830,3.5624,-6.3196,-4.0212,1.4168,-3.7837,
6.609479,0.7559,1.0753,-0.3374,9.7773,3.1499,-7.5885,-4.0212,1.4168,-3.7837,
6.655291,0.5154,1.0377,-0.3435,9.7773,3.1499,-7.5885,-4.0212,1.4168,-3.7837,
6.659194,0.4646,0.8204,-0.3655,9.7773,3.1499,-7.5885,-4.0212,1.4168,-3.7837,
6.661791,0.6063,0.7166,-0.3665,9.7773,3.1499,-7.5885,-4.0212,1.4168,-3.7837,
6.664963,0.6063,0.7166,-0.3665,9.7773,3.1499,-7.5885,-1.0849,2.2527,-0.7204,
6.667759,0.6063,0.7166,-0.3665,8.0405,-0.5429,-5.3252,-1.0849,2.2527,-0.7204,
6.713325,0.6527,0.9576,-0.5408,8.0405,-0.5429,-5.3252,-1.0849,2.2527,-0.7204,
6.717967,0.1184,1.4606,-0.3511,8.0405,-0.5429,-5.3252,-1.0849,2.2527,-0.7204,
6.720400,-1.9389,1.9074,1.0089,8.0405,-0.5429,-5.3252,-1.0849,2.2527,-0.7204,
6.722490,-1.9389,1.9074,1.0089,8.0405,-0.5429,-5.3252,0.6184,3.0560,1.4472,
6.724346,-1.9389,1.9074,1.0089,-1.4376,4.8247,-0.6096,0.6184,3.0560,1.4472,
6.773165,-1.9389,1.9074,1.0089,-0.4217,2.3051,-4.4489,0.6184,3.0560,1.4472,
6.777487,-1.3031,1.5451,0.2569,-0.4217,2.3051,-4.4489,0.6184,3.0560,1.4472,
6.778951,0.3719,1.1173,-0.9171,-0.4217,2.3051,-4.4489,0.6184,3.0560,1.4472,
6.780203,0.4139,0.9857,-0.7115,-0.4217,2.3051,-4.4489,0.6184,3.0560,1.4472,
6.781633,0.4139,0.9857,-0.7115,-0.4217,2.3051,-4.4489,1.5109,0.9485,2.0949,
6.831111,0.2495,0.8116,0.0354,-0.4217,2.3051,-4.4489,1.5109,0.9485,2.0949,
6.835269,0.2747,0.8729,0.2688,-0.4217,2.3051,-4.4489,1.5109,0.9485,2.0949,
6.836300,0.1702,1.0267,-0.1069,-0.4217,2.3051,-4.4489,1.5109,0.9485,2.0949,
6.837036,0.1702,1.0267,-0.1069,-0.4217,2.3051,-4.4489,0.7905,0.4382,1.7968,
6.837901,0.1702,1.0267,-0.1069,2.4765,-0.8089,1.1240,0.7905,0.4382,1.7968,
6.890178,0.1702,1.0267,-0.1069,0.6001,0.4864,-0.6656,0.7905,0.4382,1.7968,
6.894057,0.1670,1.0477,-0.1604,0.6001,0.4864,-0.6656,0.7905,0.4382,1.7968,
6.895613,0.1265,1.0174,-0.1414,0.6001,0.4864,-0.6656,0.7905,0.4382,1.7968,
6.896433,0.0273,1.0370,-0.1416,0.6001,0.4864,-0.6656,0.7905,0.4382,1.7968,
6.897022,0.0273,1.0370,-0.1416,0.6001,0.4864,-0.6656,0.5158,0.0094,1.1460,
6.947385,0.0273,1.0370,-0.1416,-0.2455,0.2772,0.1066,0.5158,0.0094,1.1460,
6.951792,0.0574,1.0067,-0.1397,-0.2455,0.2772,0.1066,0.5158,0.0094,1.1460,
6.953558,0.1111,0.9999,-0.0798,-0.2455,0.2772,0.1066,0.5158,0.0094,1.1460,
6.955159,0.0493,1.0162,-0.0442,-0.2455,0.2772,0.1066,0.5158,0.0094,1.1460,
6.956836,0.0493,1.0162,-0.0442,-0.2455,0.2772,0.1066,0.3364,0.0399,0.9108,
7.005924,0.0513,0.9999,-0.0649,-0.2455,0.2772,0.1066,0.3364,0.0399,0.9108,
7.008894,0.1328,0.9769,-0.0584,-0.2455,0.2772,0.1066,0.3364,0.0399,0.9108,
7.010699,0.1926,0.9674,-0.0557,-0.2455,0.2772,0.1066,0.3364,0.0399,0.9108,
7.012325,0.1926,0.9674,-0.0557,-0.2455,0.2772,0.1066,0.3115,-0.3584,0.8791,
7.014241,0.1926,0.9674,-0.0557,-0.1904,0.0992,0.5732,0.3115,-0.3584,0.8791,
7.062798,0.1685,0.9881,-0.0532,-0.1904,0.0992,0.5732,0.3115,-0.3584,0.8791,
7.065619,0.1328,0.9806,-0.0339,-0.1904,0.0992,0.5732,0.3115,-0.3584,0.8791,
7.067491,0.1318,0.9676,-0.0313,-0.1904,0.0992,0.5732,0.3115,-0.3584,0.8791,
7.069074,0.1318,0.9676,-0.0313,-0.1904,0.0992,0.5732,0.4514,-0.2443,0.8076,
7.070847,0.1318,0.9676,-0.0313,-0.4266,0.1817,1.0259,0.4514,-0.2443,0.8076,
7.121471,0.1331,0.9703,-0.0635,-0.4266,0.1817,1.0259,0.4514,-0.2443,0.8076,
7.125275,0.1035,0.9647,-0.0918,-0.4266,0.1817,1.0259,0.4514,-0.2443,0.8076,
7.127243,0.1724,0.9522,-0.1465,-0.4266,0.1817,1.0259,0.4514,-0.2443,0.8076,
7.129209,0.1724,0.9522,-0.1465,-0.4266,0.1817,1.0259,0.5970,-0.3730,0.9025,
7.130806,0.1724,0.9522,-0.1465,-0.9458,0.1829,0.7837,0.5970,-0.3730,0.9025,
7.180355,0.2337,0.9659,-0.2107,-0.9458,0.1829,0.7837,0.5970,-0.3730,0.9025,
7.185104,0.2337,0.9833,-0.2124,-0.9458,0.1829,0.7837,0.5970,-0.3730,0.9025,
7.187102,0.2368,0.9652,-0.1802,-0.9458,0.1829,0.7837,0.5970,-0.3730,0.9025,
7.188542,0.2368,0.9652,-0.1802,-0.9458,0.1829,0.7837,0.6149,-0.4243,1.0114,
7.190924,0.2368,0.9652,-0.1802,-0.4645,0.4830,0.1862,0.6149,-0.4243,1.0114,
7.237877,0.2576,0.9498,-0.1419,-0.4645,0.4830,0.1862,0.6149,-0.4243,1.0114,
7.240962,0.2217,0.9811,-0.1040,-0.4645,0.4830,0.1862,0.6149,-0.4243,1.0114,
7.242902,0.1778,1.0511,-0.0813,-0.4645,0.4830,0.1862,0.6149,-0.4243,1.0114,
7.244313,0.1778,1.0511,-0.0813,-0.4645,0.4830,0.1862,0.7703,-0.3820,1.0385,
7.246497,0.1778,1.0511,-0.0813,-1.0859,0.9771,1.5288,0.7703,-0.3820,1.0385,
7.296401,0.1318,1.1092,-0.0911,-1.0859,0.9771,1.5288,0.7703,-0.3820,1.0385,
7.299431,0.1004,1.1288,-0.1306,-1.0859,0.9771,1.5288,0.7703,-0.3820,1.0385,
7.303706,0.0732,1.1703,-0.1792,-1.0859,0.9771,1.5288,0.7703,-0.3820,1.0385,
7.306077,0.0732,1.1703,-0.1792,-1.0859,0.9771,1.5288,1.2260,-0.4017,1.3238,
7.307753,0.0732,1.1703,-0.1792,-2.7775,2.8055,1.9471,1.2260,-0.4017,1.3238,
7.352734,0.0232,1.3610,-0.1055,-2.7775,2.8055,1.9471,1.2260,-0.4017,1.3238,
7.354123,-0.2083,1.7040,0.0630,-2.7775,2.8055,1.9471,1.2260,-0.4017,1.3238,
7.355366,-0.6929,1.8781,0.0625,-2.7775,2.8055,1.9471,1.2260,-0.4017,1.3238,
7.356794,-0.6929,1.8781,0.0625,-2.7775,2.8055,1.9471,1.8485,-0.8291,1.6133,
7.358263,-0.6929,1.8781,0.0625,-7.0878,8.4671,4.3031,1.8485,-0.8291,1.6133,
7.413734,-1.0719,1.8964,-0.0132,-7.0878,8.4671,4.3031,1.8485,-0.8291,1.6133,
7.416993,-0.6050,1.5673,-0.0742,-7.0878,8.4671,4.3031,1.8485,-0.8291,1.6133,
7.418784,0.5071,1.1918,-0.4307,-7.0878,8.4671,4.3031,1.8485,-0.8291,1.6133,
7.420536,0.5071,1.1918,-0.4307,-7.0878,8.4671,4.3031,2.0474,-1.7817,2.4119,
7.422564,0.5071,1.1918,-0.4307,-8.3820,8.5976,3.7970,2.0474,-1.7817,2.4119,
7.470967,1.4567,1.1908,-0.5491,-8.3820,8.5976,3.7970,2.0474,-1.7817,2.4119,
7.474046,1.3038,1.0231,-0.5994,-8.3820,8.5976,3.7970,2.0474,-1.7817,2.4119,
7.476400,0.7252,0.6981,-0.7415,-8.3820,8.5976,3.7970,2.0474,-1.7817,2.4119,
7.478175,0.7252,0.6981,-0.7415,-8.3820,8.5976,3.7970,2.0248,-0.9432,2.2097,
7.480138,0.7252,0.6981,-0.7415,6.2767,4.1567,0.2758,2.0248,-0.9432,2.2097,
7.529516,0.6290,0.4197,-0.6834,6.2767,4.1567,0.2758,2.0248,-0.9432,2.2097,
7.532263,0.4959,0.3294,-0.2027,6.2767,4.1567,0.2758,2.0248,-0.9432,2.2097,
7.534220,0.2415,0.1419,0.0681,6.2767,4.1567,0.2758,2.0248,-0.9432,2.2097,
7.536330,0.2415,0.1419,0.0681,6.2767,4.1567,0.2758,-0.3083,1.3004,-0.0949,
7.538917,0.2415,0.1419,0.0681,-1.0713,-2.5443,3.2179,-0.3083,1.3004,-0.0949,
7.589860,0.0222,0.0042,0.0405,-1.0713,-2.5443,3.2179,-0.3083,1.3004,-0.0949,
7.592371,-0.0723,0.0994,-0.1328,-1.0713,-2.5443,3.2179,-0.3083,1.3004,-0.0949,
7.594015,-0.0127,0.3474,-0.1848,-1.0713,-2.5443,3.2179,-0.3083,1.3004,-0.0949,
7.596082,-0.0127,0.3474,-0.1848,-1.0713,-2.5443,3.2179,-1.4708,0.5588,-2.2738,
7.598776,-0.0127,0.3474,-0.1848,-5.0346,-5.0685,4.2190,-1.4708,0.5588,-2.2738,
7.646330,0.1301,0.4903,-0.2234,-5.0346,-5.0685,4.2190,-1.4708,0.5588,-2.2738,
7.650048,0.2556,0.5516,-0.2622,-5.0346,-5.0685,4.2190,-1.4708,0.5588,-2.2738,
7.651978,0.3572,0.6177,-0.3333,-5.0346,-5.0685,4.2190,-1.4708,0.5588,-2.2738,
7.654060,0.3572,0.6177,-0.3333,-0.6989,-2.6019,1.4769,-1.4708,0.5588,-2.2738,
7.655860,0.3572,0.6177,-0.3333,-0.6989,-2.6019,1.4769,-2.7925,-1.1124,-3.2614,
7.705659,0.4800,0.7076,-0.3623,-0.6989,-2.6019,1.4769,-2.7925,-1.1124,-3.2614,
7.709664,0.5057,0.8216,-0.3494,-0.6989,-2.6019,1.4769,-2.7925,-1.1124,-3.2614,
7.711618,0.4236,1.0509,-0.4046,-0.6989,-2.6019,1.4769,-2.7925,-1.1124,-3.2614,
7.713712,0.4236,1.0509,-0.4046,-0.6989,-2.6019,1.4769,-4.2258,-0.7933,-3.9059,
7.715594,0.4236,1.0509,-0.4046,3.5559,-0.8313,-1.5219,-4.2258,-0.7933,-3.9059,
7.762129,0.4690,1.4291,-0.5775,3.5559,-0.8313,-1.5219,-4.2258,-0.7933,-3.9059,
7.765416,0.4261,1.6806,-0.6280,3.5559,-0.8313,-1.5219,-4.2258,-0.7933,-3.9059,
7.767318,0.4046,1.5412,-0.4939,3.5559,-0.8313,-1.5219,-4.2258,-0.7933,-3.9059,
7.769384,0.4046,1.5412,-0.4939,3.5559,-0.8313,-1.5219,-4.7224,0.3836,-4.1765,
7.772692,0.4046,1.5412,-0.4939,5.4088,5.6340,-5.9197,-4.7224,0.3836,-4.1765,
7.821114,0.7847,1.2282,-0.4212,5.4088,5.6340,-5.9197,-4.7224,0.3836,-4.1765,
7.825498,0.7728,1.0968,-0.4219,5.4088,5.6340,-5.9197,-4.7224,0.3836,-4.1765,
7.828140,0.5428,1.0401,-0.4874,5.4088,5.6340,-5.9197,-4.7224,0.3836,-4.1765,
7.830436,0.5428,1.0401,-0.4874,5.4088,5.6340,-5.9197,-3.2934,0.4828,-2.4343,
7.832696,0.5428,1.0401,-0.4874,9.2339,1.9040,-6.3470,-3.2934,0.4828,-2.4343,
7.879268,0.5594,0.7860,-0.5274,9.2339,1.9040,-6.3470,-3.2934,0.4828,-2.4343,
7.882764,0.5315,0.6871,-0.4959,9.2339,1.9040,-6.3470,-3.2934,0.4828,-2.4343,
7.885169,0.4449,0.9588,-0.8507,9.2339,1.9040,-6.3470,-3.2934,0.4828,-2.4343,
7.887525,0.4449,0.9588,-0.8507,9.2339,1.9040,-6.3470,-0.2448,1.3081,0.4280,
7.889608,0.4449,0.9588,-0.8507,7.2028,-1.1543,-7.9293,-0.2448,1.3081,0.4280,
7.938568,-0.3987,1.7055,-0.1380,7.2028,-1.1543,-7.9293,-0.2448,1.3081,0.4280,
7.942922,-2.2974,1.7888,1.0448,7.2028,-1.1543,-7.9293,-0.2448,1.3081,0.4280,
7.945529,-0.6153,1.2911,0.0779,7.2028,-1.1543,-7.9293,-0.2448,1.3081,0.4280,
7.947736,-0.6153,1.2911,0.0779,7.2028,-1.1543,-7.9293,0.8336,2.7841,0.9029,
7.949436,-0.6153,1.2911,0.0779,-8.7330,6.2511,2.1561,0.8336,2.7841,0.9029,
7.996248,0.6988,1.1258,-1.0431,-8.7330,6.2511,2.1561,0.8336,2.7841,0.9029,
7.999547,0.4173,0.9520,-0.0029,-8.7330,6.2511,2.1561,0.8336,2.7841,0.9029,
8.001747,0.0181,0.8131,0.0701,-8.7330,6.2511,2.1561,0.8336,2.7841,0.9029,
8.003475,0.0181,0.8131,0.0701,-8.7330,6.2511,2.1561,1.4256,0.8915,2.1387,
8.006012,0.0181,0.8131,0.0701,4.5650,-0.1744,-3.3086,1.4256,0.8915,2.1387,
8.054564,0.0493,0.9442,-0.0085,4.5650,-0.1744,-3.3086,1.4256,0.8915,2.1387,
8.057211,0.1692,1.0917,-0.2764,4.5650,-0.1744,-3.3086,1.4256,0.8915,2.1387,
8.059291,0.2671,1.0404,-0.0940,4.5650,-0.1744,-3.3086,1.4256,0.8915,2.1387,
8.061052,0.2671,1.0404,-0.0940,4.5650,-0.1744,-3.3086,0.6436,-0.0625,1.2688,
8.062831,0.2671,1.0404,-0.0940,1.7059,0.3894,-0.9783,0.6436,-0.0625,1.2688,
8.112953,0.0046,0.9720,-0.0381,1.7059,0.3894,-0.9783,0.6436,-0.0625,1.2688,
8.116923,-0.0747,1.0221,-0.0486,1.7059,0.3894,-0.9783,0.6436,-0.0625,1.2688,
8.118927,-0.0117,1.0311,0.0066,1.7059,0.3894,-0.9783,0.6436,-0.0625,1.2688,
8.120549,-0.0117,1.0311,0.0066,1.7059,0.3894,-0.9783,0.3879,0.1615,0.8685,
8.122270,-0.0117,1.0311,0.0066,-0.6298,0.2335,0.2109,0.3879,0.1615,0.8685,
8.171356,0.0925,0.9911,0.0002,-0.6298,0.2335,0.2109,0.3879,0.1615,0.8685,
8.173882,0.1172,0.9945,-0.0154,-0.6298,0.2335,0.2109,0.3879,0.1615,0.8685,
8.176190,0.1328,0.9874,-0.0383,-0.6298,0.2335,0.2109,0.3879,0.1615,0.8685,
8.177788,0.1328,0.9874,-0.0383,-0.6298,0.2335,0.2109,0.3557,-0.2679,0.8312,
8.179731,0.1328,0.9874,-0.0383,0.2940,0.1018,0.4995,0.3557,-0.2679,0.8312,
8.231260,0.1253,0.9942,-0.0305,0.2940,0.1018,0.4995,0.3557,-0.2679,0.8312,
8.235421,0.0908,1.0148,-0.0271,0.2940,0.1018,0.4995,0.3557,-0.2679,0.8312,
8.237336,0.0955,0.9808,-0.0276,0.2940,0.1018,0.4995,0.3557,-0.2679,0.8312,
8.238963,0.0955,0.9808,-0.0276,0.2940,0.1018,0.4995,0.4089,-0.2885,0.6868,
8.240929,0.0955,0.9808,-0.0276,-0.1748,0.2127,0.6307,0.4089,-0.2885,0.6868,
8.288321,0.1326,0.9569,-0.0288,-0.1748,0.2127,0.6307,0.4089,-0.2885,0.6868,
8.291909,0.1411,0.9696,-0.0364,-0.1748,0.2127,0.6307,0.4089,-0.2885,0.6868,
8.293406,0.1450,0.9457,-0.0640,-0.1748,0.2127,0.6307,0.4089,-0.2885,0.6868,
8.295034,0.1450,0.9457,-0.0640,-0.1748,0.2127,0.6307,0.4993,-0.3551,0.6192,
8.296627,0.1450,0.9457,-0.0640,-0.1440,-0.0904,0.7793,0.4993,-0.3551,0.6192,
8.347437,0.2024,0.9171,-0.0452,-0.1440,-0.0904,0.7793,0.4993,-0.3551,0.6192,
8.351492,0.2132,0.9210,-0.0481,-0.1440,-0.0904,0.7793,0.4993,-0.3551,0.6192,
8.353395,0.1831,0.9444,-0.0796,-0.1440,-0.0904,0.7793,0.4993,-0.3551,0.6192,
8.355371,0.1831,0.9444,-0.0796,-0.1440,-0.0904,0.7793,0.5699,-0.3038,0.6304,
8.356139,0.1831,0.9444,-0.0796,0.1196,-0.2713,0.9629,0.5699,-0.3038,0.6304,
8.405571,0.1602,0.9674,-0.1362,0.1196,-0.2713,0.9629,0.5699,-0.3038,0.6304,
8.409736,0.1778,0.9684,-0.1685,0.1196,-0.2713,0.9629,0.5699,-0.3038,0.6304,
8.411748,0.1568,0.9542,-0.1680,0.1196,-0.2713,0.9629,0.5699,-0.3038,0.6304,
8.413579,0.1568,0.9542,-0.1680,0.1196,-0.2713,0.9629,0.6243,-0.3634,0.6453,
8.415621,0.1568,0.9542,-0.1680,-0.5246,0.2136,0.3581,0.6243,-0.3634,0.6453,
8.463145,0.1904,0.9261,-0.1660,-0.5246,0.2136,0.3581,0.6243,-0.3634,0.6453,
8.467854,0.2227,0.9444,-0.1550,-0.5246,0.2136,0.3581,0.6243,-0.3634,0.6453,
8.469866,0.2298,0.9269,-0.1331,-0.5246,0.2136,0.3581,0.6243,-0.3634,0.6453,
8.471602,0.2298,0.9269,-0.1331,-0.5246,0.2136,0.3581,0.6229,-0.6666,0.7398,
8.473563,0.2298,0.9269,-0.1331,-0.3463,0.0857,0.8266,0.6229,-0.6666,0.7398,
8.522358,0.2156,0.8683,-0.1094,-0.3463,0.0857,0.8266,0.6229,-0.6666,0.7398,
8.526312,0.2256,0.8680,-0.1338,-0.3463,0.0857,0.8266,0.6229,-0.6666,0.7398,
8.528354,0.1621,0.9637,-0.1953,-0.3463,0.0857,0.8266,0.6229,-0.6666,0.7398,
8.529955,0.1621,0.9637,-0.1953,-0.3463,0.0857,0.8266,0.7589,-1.0908,0.8905,
8.531708,0.1621,0.9637,-0.1953,-0.7613,0.0169,1.4148,0.7589,-1.0908,0.8905,
8.579053,0.0886,1.1100,-0.1797,-0.7613,0.0169,1.4148,0.7589,-1.0908,0.8905,
8.582387,0.0928,1.2794,-0.0855,-0.7613,0.0169,1.4148,0.7589,-1.0908,0.8905,
8.584555,0.1843,1.4958,-0.0103,-0.7613,0.0169,1.4148,0.7589,-1.0908,0.8905,
8.586287,0.1843,1.4958,-0.0103,-0.7613,0.0169,1.4148,1.0175,-1.5504,1.2413,
8.588148,0.1843,1.4958,-0.0103,-1.8369,4.2194,2.6762,1.0175,-1.5504,1.2413,
8.637043,0.2058,1.6283,-0.0796,-1.8369,4.2194,2.6762,1.0175,-1.5504,1.2413,
8.639650,0.0281,1.5536,-0.2669,-1.8369,4.2194,2.6762,1.0175,-1.5504,1.2413,
8.641509,0.0227,1.3392,-0.4759,-1.8369,4.2194,2.6762,1.0175,-1.5504,1.2413,
8.643278,0.0227,1.3392,-0.4759,-1.8369,4.2194,2.6762,0.7263,-2.5164,2.1759,
8.645316,0.0227,1.3392,-0.4759,-2.5987,6.7650,1.6887,0.7263,-2.5164,2.1759,
8.694950,0.4036,1.0975,-0.4847,-2.5987,6.7650,1.6887,0.7263,-2.5164,2.1759,
8.697066,0.7452,0.8817,-0.4812,-2.5987,6.7650,1.6887,0.7263,-2.5164,2.1759,
8.698069,0.7403,0.7645,-0.4651,-2.5987,6.7650,1.6887,0.7263,-2.5164,2.1759,
8.699115,0.7403,0.7645,-0.4651,-2.5987,6.7650,1.6887,-0.7249,-4.1466,3.2578,
8.700466,0.7403,0.7645,-0.4651,2.3579,1.4227,0.2500,-0.7249,-4.1466,3.2578,
8.755300,0.7403,0.7645,-0.4651,-4.5974,-2.3797,-0.9530,-0.7249,-4.1466,3.2578,
8.760765,0.3619,0.6444,-0.4847,-4.5974,-2.3797,-0.9530,-0.7249,-4.1466,3.2578,
8.762427,-0.1170,0.4927,-0.5452,-4.5974,-2.3797,-0.9530,-0.7249,-4.1466,3.2578,
8.764351,-0.4778,0.4517,-0.7159,-4.5974,-2.3797,-0.9530,-0.7249,-4.1466,3.2578,
8.766573,-0.4778,0.4517,-0.7159,-4.5974,-2.3797,-0.9530,-2.5734,-4.1618,2.9371,
8.812808,-0.5074,0.5259,-0.8954,-4.5974,-2.3797,-0.9530,-2.5734,-4.1618,2.9371,
8.817466,-0.4700,0.5608,-0.8519,-4.5974,-2.3797,-0.9530,-2.5734,-4.1618,2.9371,
8.820129,-0.4637,0.5416,-0.7989,-4.5974,-2.3797,-0.9530,-2.5734,-4.1618,2.9371,
8.822519,-0.4637,0.5416,-0.7989,-4.5974,-2.3797,-0.9530,-3.2307,-3.9784,2.3081,
8.825471,-0.4637,0.5416,-0.7989,-8.3947,-2.5370,-4.0633,-3.2307,-3.9784,2.3081,
8.871792,-0.5396,0.5931,-0.8099,-8.3947,-2.5370,-4.0633,-3.2307,-3.9784,2.3081,
8.875718,-0.6275,0.6783,-0.7813,-8.3947,-2.5370,-4.0633,-3.2307,-3.9784,2.3081,
8.878338,-0.6219,0.7469,-0.8592,-8.3947,-2.5370,-4.0633,-3.2307,-3.9784,2.3081,
8.880426,-0.6219,0.7469,-0.8592,-8.3947,-2.5370,-4.0633,-3.5565,-4.4286,0.5897,
8.882747,-0.6219,0.7469,-0.8592,-8.6606,-1.9111,-4.4994,-3.5565,-4.4286,0.5897,
8.927900,-0.5032,0.8548,-0.9078,-8.6606,-1.9111,-4.4994,-3.5565,-4.4286,0.5897,
8.929964,-0.2371,0.9557,-0.8839,-8.6606,-1.9111,-4.4994,-3.5565,-4.4286,0.5897,
8.931037,-0.0217,1.0333,-0.8729,-8.6606,-1.9111,-4.4994,-3.5565,-4.4286,0.5897,
8.932013,-0.0217,1.0333,-0.8729,-8.6606,-1.9111,-4.4994,-3.2391,-4.9843,-0.6856,
8.933791,-0.0217,1.0333,-0.8729,-4.0062,0.1302,-6.1168,-3.2391,-4.9843,-0.6856,
8.987278,0.0415,1.0460,-0.7635,-4.0062,0.1302,-6.1168,-3.2391,-4.9843,-0.6856,
8.990450,-0.0388,0.9979,-0.6763,-4.0062,0.1302,-6.1168,-3.2391,-4.9843,-0.6856,
8.992851,-0.0845,1.0272,-0.6319,-4.0062,0.1302,-6.1168,-3.2391,-4.9843,-0.6856,
8.995141,-0.0845,1.0272,-0.6319,-4.0062,0.1302,-6.1168,-2.6646,-3.6768,-1.5294,
8.996368,-0.0845,1.0272,-0.6319,-0.5078,0.4815,-5.3472,-2.6646,-3.6768,-1.5294,
9.044649,-0.0098,1.0787,-0.5054,-0.5078,0.4815,-5.3472,-2.6646,-3.6768,-1.5294,
9.046665,0.1209,1.0455,-0.4060,-0.5078,0.4815,-5.3472,-2.6646,-3.6768,-1.5294,
9.047954,0.0747,1.0636,-0.2952,-0.5078,0.4815,-5.3472,-2.6646,-3.6768,-1.5294,
9.049052,0.0747,1.0636,-0.2952,-0.5078,0.4815,-5.3472,-1.7546,-2.5489,-1.7259,
9.050350,0.0747,1.0636,-0.2952,1.4448,0.7881,-3.4860,-1.7546,-2.5489,-1.7259,
9.104809,-0.0356,1.0262,-0.1980,1.4448,0.7881,-3.4860,-1.7546,-2.5489,-1.7259,
9.109013,-0.0601,0.9671,-0.2447,1.4448,0.7881,-3.4860,-1.7546,-2.5489,-1.7259,
9.111268,0.0093,0.9532,-0.2508,1.4448,0.7881,-3.4860,-1.7546,-2.5489,-1.7259,
9.113073,0.0093,0.9532,-0.2508,1.4448,0.7881,-3.4860,-0.8298,-2.3698,-1.2321,
9.115748,0.0093,0.9532,-0.2508,1.2386,0.0770,-2.4013,-0.8298,-2.3698,-1.2321,
9.162807,0.1206,0.9151,-0.2092,1.2386,0.0770,-2.4013,-0.8298,-2.3698,-1.2321,
9.167788,0.1582,0.9159,-0.1299,1.2386,0.0770,-2.4013,-0.8298,-2.3698,-1.2321,
9.170240,0.1729,0.9073,-0.0632,1.2386,0.0770,-2.4013,-0.8298,-2.3698,-1.2321,
9.172179,0.1729,0.9073,-0.0632,1.2386,0.0770,-2.4013,0.0201,-1.9256,-0.4465,
9.174042,0.1729,0.9073,-0.0632,3.1618,-0.5525,-1.5994,0.0201,-1.9256,-0.4465,
9.221823,0.1621,0.8726,-0.0310,3.1618,-0.5525,-1.5994,0.0201,-1.9256,-0.4465,
9.225252,0.1433,0.8595,0.0332,3.1618,-0.5525,-1.5994,0.0201,-1.9256,-0.4465,
9.227495,0.1956,0.8768,0.1152,3.1618,-0.5525,-1.5994,0.0201,-1.9256,-0.4465,
9.229673,0.1956,0.8768,0.1152,3.1618,-0.5525,-1.5994,0.3349,-1.3353,0.1540,
9.231735,0.1956,0.8768,0.1152,3.1622,-0.9785,0.1523,0.3349,-1.3353,0.1540,
9.279183,0.3069,0.9088,0.1536,3.1622,-0.9785,0.1523,0.3349,-1.3353,0.1540,
9.282343,0.3084,0.8956,0.1817,3.1622,-0.9785,0.1523,0.3349,-1.3353,0.1540,
9.284184,0.3008,0.8934,0.2569,3.1622,-0.9785,0.1523,0.3349,-1.3353,0.1540,
9.286227,0.3008,0.8934,0.2569,3.1622,-0.9785,0.1523,0.3144,-1.3689,0.4836,
9.288307,0.3008,0.8934,0.2569,4.1630,-0.7187,1.7363,0.3144,-1.3689,0.4836,
9.338193,0.3008,0.8934,0.2569,0.2635,2.8989,2.5494,0.3144,-1.3689,0.4836,
9.341906,0.3003,0.8897,0.1375,0.2635,2.8989,2.5494,0.3144,-1.3689,0.4836,
9.343758,-0.0889,1.1815,0.2012,0.2635,2.8989,2.5494,0.3144,-1.3689,0.4836,
9.345994,-0.3702,1.7590,0.5806,0.2635,2.8989,2.5494,0.3144,-1.3689,0.4836,
9.347756,-0.3702,1.7590,0.5806,0.2635,2.8989,2.5494,-0.2533,-1.2354,0.6532,
9.394545,-0.0437,1.7331,-0.0427,0.2635,2.8989,2.5494,-0.2533,-1.2354,0.6532,
9.397951,-0.1475,0.9745,-0.5670,0.2635,2.8989,2.5494,-0.2533,-1.2354,0.6532,
9.400196,-0.3450,0.7366,-0.2151,0.2635,2.8989,2.5494,-0.2533,-1.2354,0.6532,
9.402347,-0.3450,0.7366,-0.2151,-1.4077,1.5752,-2.7923,-0.2533,-1.2354,0.6532,
9.405174,-0.3450,0.7366,-0.2151,-1.4077,1.5752,-2.7923,0.5135,0.7422,0.8432,
9.453013,-0.0913,0.9535,0.0772,-1.4077,1.5752,-2.7923,0.5135,0.7422,0.8432,
9.455102,0.3094,1.0548,0.1878,-1.4077,1.5752,-2.7923,0.5135,0.7422,0.8432,
9.456701,0.1626,0.9823,0.2112,-1.4077,1.5752,-2.7923,0.5135,0.7422,0.8432,
9.458091,0.1626,0.9823,0.2112,-1.4077,1.5752,-2.7923,-0.0303,0.3397,1.0829,
9.459630,0.1626,0.9823,0.2112,0.9609,0.0895,1.4184,-0.0303,0.3397,1.0829,
9.512595,0.0100,0.9369,0.2080,0.9609,0.0895,1.4184,-0.0303,0.3397,1.0829,
9.517370,0.0669,1.0511,-0.0144,0.9609,0.0895,1.4184,-0.0303,0.3397,1.0829,
9.519140,0.2373,1.0653,-0.1006,0.9609,0.0895,1.4184,-0.0303,0.3397,1.0829,
9.521661,0.2373,1.0653,-0.1006,0.9609,0.0895,1.4184,0.0594,-0.6768,0.8546,
9.523845,0.2373,1.0653,-0.1006,0.2534,0.3149,0.2203,0.0594,-0.6768,0.8546,
9.570911,0.2481,0.9989,-0.0239,0.2534,0.3149,0.2203,0.0594,-0.6768,0.8546,
9.575636,0.1377,0.9835,0.0110,0.2534,0.3149,0.2203,0.0594,-0.6768,0.8546,
9.577733,0.0879,1.0226,0.0359,0.2534,0.3149,0.2203,0.0594,-0.6768,0.8546,
9.580474,0.0879,1.0226,0.0359,0.4813,0.1809,-0.0015,0.0594,-0.6768,0.8546,
9.582143,0.0879,1.0226,0.0359,0.4813,0.1809,-0.0015,0.0065,-0.0790,0.5054,
9.628171,0.0581,1.0201,0.0847,0.4813,0.1809,-0.0015,0.0065,-0.0790,0.5054,
9.629751,0.0181,1.0043,0.0820,0.4813,0.1809,-0.0015,0.0065,-0.0790,0.5054,
9.630381,0.0649,1.0116,0.0315,0.4813,0.1809,-0.0015,0.0065,-0.0790,0.5054,
9.631312,0.0649,1.0116,0.0315,0.4813,0.1809,-0.0015,0.0717,-0.2356,0.4631,
9.632188,0.0649,1.0116,0.0315,-0.8510,0.3090,0.6176,0.0717,-0.2356,0.4631,
9.688128,0.1423,1.0052,0.0508,-0.8510,0.3090,0.6176,0.0717,-0.2356,0.4631,
9.691438,0.1233,0.9879,0.0747,-0.8510,0.3090,0.6176,0.0717,-0.2356,0.4631,
9.693302,0.1321,0.9732,0.0603,-0.8510,0.3090,0.6176,0.0717,-0.2356,0.4631,
9.695349,0.1321,0.9732,0.0603,-0.8510,0.3090,0.6176,0.2185,-0.3514,0.5653,
9.697263,0.1321,0.9732,0.0603,-0.3224,0.1286,0.7170,0.2185,-0.3514,0.5653,
9.746055,0.1392,0.9649,0.0794,-0.3224,0.1286,0.7170,0.2185,-0.3514,0.5653,
9.749303,0.0991,0.9681,0.0869,-0.3224,0.1286,0.7170,0.2185,-0.3514,0.5653,
9.750874,0.1397,0.9908,0.0291,-0.3224,0.1286,0.7170,0.2185,-0.3514,0.5653,
9.752767,0.1397,0.9908,0.0291,-0.3224,0.1286,0.7170,0.3463,-0.4262,0.6600,
9.754951,0.1397,0.9908,0.0291,-0.7358,0.0628,0.9691,0.3463,-0.4262,0.6600,
9.805475,0.2388,0.9923,-0.0488,-0.7358,0.0628,0.9691,0.3463,-0.4262,0.6600,
9.808729,0.2061,0.9884,-0.0530,-0.7358,0.0628,0.9691,0.3463,-0.4262,0.6600,
9.810731,0.1170,0.9723,-0.0598,-0.7358,0.0628,0.9691,0.3463,-0.4262,0.6600,
9.812516,0.1170,0.9723,-0.0598,-0.7358,0.0628,0.9691,0.4532,-0.3076,0.7740,
9.814366,0.1170,0.9723,-0.0598,-0.5436,0.2642,0.0896,0.4532,-0.3076,0.7740,
9.862497,0.1294,0.9620,-0.0491,-0.5436,0.2642,0.0896,0.4532,-0.3076,0.7740,
9.865854,0.1563,0.9540,0.0361,-0.5436,0.2642,0.0896,0.4532,-0.3076,0.7740,
9.867672,0.1348,0.9725,0.1172,-0.5436,0.2642,0.0896,0.4532,-0.3076,0.7740,
9.869448,0.1348,0.9725,0.1172,-0.5436,0.2642,0.0896,0.5500,-0.5970,0.9911,
9.871258,0.1348,0.9725,0.1172,-1.4892,0.2282,1.3263,0.5500,-0.5970,0.9911,
9.921129,0.1575,1.0130,0.0298,-1.4892,0.2282,1.3263,0.5500,-0.5970,0.9911,
9.923790,0.2569,1.0443,-0.1096,-1.4892,0.2282,1.3263,0.5500,-0.5970,0.9911,
9.925758,0.2769,1.0560,-0.1819,-1.4892,0.2282,1.3263,0.5500,-0.5970,0.9911,
9.927630,0.2769,1.0560,-0.1819,-1.2543,1.2556,0.6714,0.5500,-0.5970,0.9911,
9.929431,0.2769,1.0560,-0.1819,-1.2543,1.2556,0.6714,0.8407,-0.5821,1.3503,
9.979860,0.2520,1.0841,-0.1909,-1.2543,1.2556,0.6714,0.8407,-0.5821,1.3503,
9.983410,0.2173,1.1053,-0.1741,-1.2543,1.2556,0.6714,0.8407,-0.5821,1.3503,
9.988189,0.1646,1.1578,-0.1318,-1.2543,1.2556,0.6714,0.8407,-0.5821,1.3503,
9.990675,0.1646,1.1578,-0.1318,-2.1013,2.4324,0.5695,0.8407,-0.5821,1.3503,
9.992969,0.1646,1.1578,-0.1318,-2.1013,2.4324,0.5695,1.0006,-0.7460,1.5309,
10.037469,0.1231,1.2094,-0.1284,-2.1013,2.4324,0.5695,1.0006,-0.7460,1.5309,
10.039909,0.0913,1.2365,-0.2071,-2.1013,2.4324,0.5695,1.0006,-0.7460,1.5309,
10.041539,-0.0376,1.4816,-0.1599,-2.1013,2.4324,0.5695,1.0006,-0.7460,1.5309,
10.043094,-0.0376,1.4816,-0.1599,-2.1013,2.4324,0.5695,1.2317,-1.1847,1.8671,
10.045423,-0.0376,1.4816,-0.1599,-4.2296,4.9282,1.4515,1.2317,-1.1847,1.8671,
10.095036,-0.4285,1.8493,-0.0178,-4.2296,4.9282,1.4515,1.2317,-1.1847,1.8671,
10.097788,-1.0358,1.8955,0.0747,-4.2296,4.9282,1.4515,1.2317,-1.1847,1.8671,
10.099095,-0.8512,1.5583,-0.0420,-4.2296,4.9282,1.4515,1.2317,-1.1847,1.8671,
10.100276,-0.8512,1.5583,-0.0420,-4.2296,4.9282,1.4515,1.4534,-1.7676,2.1692,
10.101533,-0.8512,1.5583,-0.0420,-12.7188,10.2048,4.2058,1.4534,-1.7676,2.1692,
10.155583,0.2495,1.0655,-0.4588,-12.7188,10.2048,4.2058,1.4534,-1.7676,2.1692,
10.157479,1.3549,1.2264,-0.6673,-12.7188,10.2048,4.2058,1.4534,-1.7676,2.1692,
10.158323,1.2868,1.2396,-0.6028,-12.7188,10.2048,4.2058,1.4534,-1.7676,2.1692,
10.159233,1.2868,1.2396,-0.6028,-12.7188,10.2048,4.2058,1.6945,-2.4263,3.2991,
10.160145,1.2868,1.2396,-0.6028,3.6915,5.8494,-0.0856,1.6945,-2.4263,3.2991,
10.212415,0.6832,0.8546,-0.6566,3.6915,5.8494,-0.0856,1.6945,-2.4263,3.2991,
10.214876,0.5442,0.5782,-0.7186,3.6915,5.8494,-0.0856,1.6945,-2.4263,3.2991,
10.216965,0.4268,0.4483,-0.3094,3.6915,5.8494,-0.0856,1.6945,-2.4263,3.2991,
10.218757,0.4268,0.4483,-0.3094,3.6915,5.8494,-0.0856,0.1714,-0.4461,1.2305,
10.220296,0.4268,0.4483,-0.3094,-0.5801,0.9174,0.2627,0.1714,-0.4461,1.2305,
10.271417,0.2046,0.1843,-0.0662,-0.5801,0.9174,0.2627,0.1714,-0.4461,1.2305,
10.275557,-0.0125,0.0593,-0.0952,-0.5801,0.9174,0.2627,0.1714,-0.4461,1.2305,
10.277011,-0.1470,0.1695,-0.2698,-0.5801,0.9174,0.2627,0.1714,-0.4461,1.2305,
10.278852,-0.1470,0.1695,-0.2698,-0.5801,0.9174,0.2627,-1.7962,-0.0112,-0.9953,
10.281287,-0.1470,0.1695,-0.2698,-5.4064,-4.7103,3.7058,-1.7962,-0.0112,-0.9953,
10.329308,-0.0649,0.3890,-0.3540,-5.4064,-4.7103,3.7058,-1.7962,-0.0112,-0.9953,
10.331956,0.0767,0.5206,-0.4551,-5.4064,-4.7103,3.7058,-1.7962,-0.0112,-0.9953,
10.333114,0.1170,0.5467,-0.4537,-5.4064,-4.7103,3.7058,-1.7962,-0.0112,-0.9953,
10.334198,0.1170,0.5467,-0.4537,-5.4064,-4.7103,3.7058,-2.8184,-1.2142,-2.5829,
10.336527,0.1170,0.5467,-0.4537,-3.7040,-2.7725,0.2062,-2.8184,-1.2142,-2.5829,
10.387426,0.1685,0.5955,-0.4129,-3.7040,-2.7725,0.2062,-2.8184,-1.2142,-2.5829,
10.391143,0.1326,0.7330,-0.4200,-3.7040,-2.7725,0.2062,-2.8184,-1.2142,-2.5829,
10.393699,0.0740,0.8763,-0.4896,-3.7040,-2.7725,0.2062,-2.8184,-1.2142,-2.5829,
10.396077,0.0740,0.8763,-0.4896,-3.7040,-2.7725,0.2062,-4.0943,-2.1181,-3.6670,
10.398509,0.0740,0.8763,-0.4896,-0.6636,-1.7958,-1.5847,-4.0943,-2.1181,-3.6670,
10.446070,0.1738,1.0358,-0.7122,-0.6636,-1.7958,-1.5847,-4.0943,-2.1181,-3.6670,
10.450041,0.5110,1.2526,-0.8661,-0.6636,-1.7958,-1.5847,-4.0943,-2.1181,-3.6670,
10.452851,0.6639,1.4411,-0.8722,-0.6636,-1.7958,-1.5847,-4.0943,-2.1181,-3.6670,
10.455760,0.6639,1.4411,-0.8722,-0.6636,-1.7958,-1.5847,-4.4868,-1.0541,-3.9739,
10.457204,0.6639,1.4411,-0.8722,4.7216,2.5610,-7.5394,-4.4868,-1.0541,-3.9739,
10.503811,0.6006,1.3458,-0.8673,4.7216,2.5610,-7.5394,-4.4868,-1.0541,-3.9739,
10.507105,0.8104,1.1613,-0.7830,4.7216,2.5610,-7.5394,-4.4868,-1.0541,-3.9739,
10.509531,0.8861,1.0604,-0.4759,4.7216,2.5610,-7.5394,-4.4868,-1.0541,-3.9739,
10.511262,0.8861,1.0604,-0.4759,4.7216,2.5610,-7.5394,-3.7440,1.3838,-3.6554,
10.513812,0.8861,1.0604,-0.4759,9.7470,2.3979,-8.2781,-3.7440,1.3838,-3.6554,
10.562904,0.6309,1.0047,-0.3174,9.7470,2.3979,-8.2781,-3.7440,1.3838,-3.6554,
10.567180,0.4424,0.9105,-0.2864,9.7470,2.3979,-8.2781,-3.7440,1.3838,-3.6554,
10.569548,0.5494,0.7540,-0.3687,9.7470,2.3979,-8.2781,-3.7440,1.3838,-3.6554,
10.571772,0.5494,0.7540,-0.3687,9.7470,2.3979,-8.2781,-1.3242,2.0124,-1.0547,
10.574118,0.5494,0.7540,-0.3687,8.1617,-0.2512,-4.8090,-1.3242,2.0124,-1.0547,
10.621250,0.6158,0.8333,-0.4717,8.1617,-0.2512,-4.8090,-1.3242,2.0124,-1.0547,
10.626059,0.3089,1.2645,-0.6575,8.1617,-0.2512,-4.8090,-1.3242,2.0124,-1.0547,
10.628397,-1.4582,1.8154,0.5943,8.1617,-0.2512,-4.8090,-1.3242,2.0124,-1.0547,
10.630724,-1.4582,1.8154,0.5943,8.1617,-0.2512,-4.8090,0.4329,2.4903,1.1843,
10.632758,-1.4582,1.8154,0.5943,0.6808,3.5372,-2.7047,0.4329,2.4903,1.1843,
10.680953,-2.0251,1.6327,0.5828,0.6808,3.5372,-2.7047,0.4329,2.4903,1.1843,
10.684341,-0.0498,1.1693,-0.5181,0.6808,3.5372,-2.7047,0.4329,2.4903,1.1843,
10.686797,0.5313,1.1442,-0.7432,0.6808,3.5372,-2.7047,0.4329,2.4903,1.1843,
10.688765,0.5313,1.1442,-0.7432,0.6808,3.5372,-2.7047,1.0181,1.3914,1.4354,
10.690755,0.5313,1.1442,-0.7432,-3.2934,3.3806,-2.4043,1.0181,1.3914,1.4354,
10.737956,0.3548,0.9439,-0.1409,-3.2934,3.3806,-2.4043,1.0181,1.3914,1.4354,
10.740899,0.3235,0.7528,0.3626,-3.2934,3.3806,-2.4043,1.0181,1.3914,1.4354,
10.742659,0.2100,0.9032,0.4185,-3.2934,3.3806,-2.4043,1.0181,1.3914,1.4354,
10.744997,0.2100,0.9032,0.4185,-3.2934,3.3806,-2.4043,0.4247,0.5180,1.7846,
10.747017,0.2100,0.9032,0.4185,3.5938,-1.1298,2.1468,0.4247,0.5180,1.7846,
10.800243,-0.0403,1.0582,0.0542,3.5938,-1.1298,2.1468,0.4247,0.5180,1.7846,
10.804147,-0.0559,1.0792,-0.2346,3.5938,-1.1298,2.1468,0.4247,0.5180,1.7846,
10.806615,0.0781,1.0694,-0.1460,3.5938,-1.1298,2.1468,0.4247,0.5180,1.7846,
10.808430,0.0781,1.0694,-0.1460,3.5938,-1.1298,2.1468,0.5986,-0.3085,1.0578,
10.810350,0.0781,1.0694,-0.1460,0.0431,0.8224,-0.6673,0.5986,-0.3085,1.0578,
10.854241,0.0881,0.9649,-0.0784,0.0431,0.8224,-0.6673,0.5986,-0.3085,1.0578,
10.857691,0.0786,0.9491,-0.0642,0.0431,0.8224,-0.6673,0.5986,-0.3085,1.0578,
10.859647,-0.0376,1.0448,0.0264,0.0431,0.8224,-0.6673,0.5986,-0.3085,1.0578,
10.861058,-0.0376,1.0448,0.0264,0.0431,0.8224,-0.6673,0.4716,0.4624,0.8383,
10.863080,-0.0376,1.0448,0.0264,0.0361,0.0329,0.2743,0.4716,0.4624,0.8383,
10.912532,-0.1702,1.0206,0.0444,0.0361,0.0329,0.2743,0.4716,0.4624,0.8383,
10.916959,-0.0393,0.9405,0.0190,0.0361,0.0329,0.2743,0.4716,0.4624,0.8383,
10.918444,0.0977,0.9620,-0.0725,0.0361,0.0329,0.2743,0.4716,0.4624,0.8383,
10.920286,0.0977,0.9620,-0.0725,0.0361,0.0329,0.2743,0.6068,-0.0303,0.9770,
10.922087,0.0977,0.9620,-0.0725,-1.2747,-0.0165,0.9508,0.6068,-0.0303,0.9770,
10.972428,0.1753,0.9945,-0.0732,-1.2747,-0.0165,0.9508,0.6068,-0.0303,0.9770,
10.976581,0.2281,0.9676,-0.0784,-1.2747,-0.0165,0.9508,0.6068,-0.0303,0.9770,
10.978508,0.2251,0.9569,-0.1284,-1.2747,-0.0165,0.9508,0.6068,-0.0303,0.9770,
10.980171,0.2251,0.9569,-0.1284,-1.2747,-0.0165,0.9508,0.7224,-0.1836,1.0185,
10.982203,0.2251,0.9569,-0.1284,0.5819,0.0890,0.4712,0.7224,-0.1836,1.0185,
11.029582,0.1714,0.9657,-0.1670,0.5819,0.0890,0.4712,0.7224,-0.1836,1.0185,
11.032924,0.1648,0.9776,-0.1980,0.5819,0.0890,0.4712,0.7224,-0.1836,1.0185,
11.034849,0.1389,1.0055,-0.1768,0.5819,0.0890,0.4712,0.7224,-0.1836,1.0185,
11.036606,0.1389,1.0055,-0.1768,0.5819,0.0890,0.4712,0.7009,-0.1486,0.8677,
11.038578,0.1389,1.0055,-0.1768,-0.3734,0.3316,0.0137,0.7009,-0.1486,0.8677,
11.088936,0.1155,1.0028,-0.1602,-0.3734,0.3316,0.0137,0.7009,-0.1486,0.8677,
11.093297,0.1807,1.0086,-0.1504,-0.3734,0.3316,0.0137,0.7009,-0.1486,0.8677,
11.095507,0.1775,1.0340,-0.1485,-0.3734,0.3316,0.0137,0.7009,-0.1486,0.8677,
11.097679,0.1775,1.0340,-0.1485,-0.3734,0.3316,0.0137,0.7369,-0.3541,0.9253,
11.099760,0.1775,1.0340,-0.1485,-0.8192,0.8357,0.7125,0.7369,-0.3541,0.9253,
11.145710,0.0606,1.0294,-0.1228,-0.8192,0.8357,0.7125,0.7369,-0.3541,0.9253,
11.148820,0.0584,1.0463,-0.0781,-0.8192,0.8357,0.7125,0.7369,-0.3541,0.9253,
11.150456,0.1069,1.0990,-0.0718,-0.8192,0.8357,0.7125,0.7369,-0.3541,0.9253,
11.152209,0.1069,1.0990,-0.0718,-0.8192,0.8357,0.7125,1.1103,-0.3793,1.1556,
11.154248,0.1069,1.0990,-0.0718,-2.1402,1.5733,1.9264,1.1103,-0.3793,1.1556,
11.202351,0.1067,1.1527,-0.0662,-2.1402,1.5733,1.9264,1.1103,-0.3793,1.1556,
11.203717,0.0505,1.1881,-0.0928,-2.1402,1.5733,1.9264,1.1103,-0.3793,1.1556,
11.204540,0.0515,1.2975,-0.1792,-2.1402,1.5733,1.9264,1.1103,-0.3793,1.1556,
11.205245,0.0515,1.2975,-0.1792,-2.8173,3.6617,2.6480,1.1103,-0.3793,1.1556,
11.205924,0.0515,1.2975,-0.1792,-2.8173,3.6617,2.6480,1.7526,-0.5978,1.5832,
11.260831,-0.1382,1.6906,-0.0146,-2.8173,3.6617,2.6480,1.7526,-0.5978,1.5832,
11.262254,-0.6541,2.0205,0.0713,-2.8173,3.6617,2.6480,1.7526,-0.5978,1.5832,
11.263038,-0.9073,2.0395,0.0750,-2.8173,3.6617,2.6480,1.7526,-0.5978,1.5832,
11.263816,-0.9073,2.0395,0.0750,-2.8173,3.6617,2.6480,2.3598,-1.1447,1.8237,
11.264768,-0.9073,2.0395,0.0750,-9.4189,11.3795,5.4092,2.3598,-1.1447,1.8237,
11.320453,-0.4082,1.5317,-0.0942,-9.4189,11.3795,5.4092,2.3598,-1.1447,1.8237,
11.323372,0.5618,1.0211,-0.4495,-9.4189,11.3795,5.4092,2.3598,-1.1447,1.8237,
11.325362,1.3595,1.0651,-0.5828,-9.4189,11.3795,5.4092,2.3598,-1.1447,1.8237,
11.327198,1.3595,1.0651,-0.5828,-9.4189,11.3795,5.4092,2.1920,-2.2848,2.6353,
11.329119,1.3595,1.0651,-0.5828,0.7927,5.6628,2.6593,2.1920,-2.2848,2.6353,
11.379246,1.1849,0.8656,-0.7525,0.7927,5.6628,2.6593,2.1920,-2.2848,2.6353,
11.382807,0.6651,0.5738,-1.0126,0.7927,5.6628,2.6593,2.1920,-2.2848,2.6353,
11.384880,0.4402,0.4065,-0.7218,0.7927,5.6628,2.6593,2.1920,-2.2848,2.6353,
11.386902,0.4402,0.4065,-0.7218,0.7927,5.6628,2.6593,1.1902,0.1216,1.0395,
11.388659,0.4402,0.4065,-0.7218,2.8782,0.5805,-1.3942,1.1902,0.1216,1.0395,
11.438265,0.3450,0.2957,-0.2232,2.8782,0.5805,-1.3942,1.1902,0.1216,1.0395,
11.442705,0.1458,0.1785,-0.0122,2.8782,0.5805,-1.3942,1.1902,0.1216,1.0395,
11.445345,-0.0444,0.0972,-0.0247,2.8782,0.5805,-1.3942,1.1902,0.1216,1.0395,
11.446813,-0.0444,0.0972,-0.0247,2.8782,0.5805,-1.3942,-1.5054,1.4468,-0.6620,
11.449524,-0.0444,0.0972,-0.0247,-3.3947,-4.2469,4.8819,-1.5054,1.4468,-0.6620,
11.495133,-0.0552,0.1709,-0.1621,-3.3947,-4.2469,4.8819,-1.5054,1.4468,-0.6620,
11.497257,0.0891,0.3125,-0.2720,-3.3947,-4.2469,4.8819,-1.5054,1.4468,-0.6620,
11.498238,0.1533,0.4639,-0.3760,-3.3947,-4.2469,4.8819,-1.5054,1.4468,-0.6620,
11.499377,0.1533,0.4639,-0.3760,-3.3947,-4.2469,4.8819,-2.6212,0.2488,-2.1348,
11.500348,0.1533,0.4639,-0.3760,-3.4149,-4.2977,1.9418,-2.6212,0.2488,-2.1348,
11.553927,0.0803,0.5792,-0.3365,-3.4149,-4.2977,1.9418,-2.6212,0.2488,-2.1348,
11.558289,0.0449,0.5906,-0.2376,-3.4149,-4.2977,1.9418,-2.6212,0.2488,-2.1348,
11.560552,0.0945,0.7042,-0.2884,-3.4149,-4.2977,1.9418,-2.6212,0.2488,-2.1348,
11.562663,0.0945,0.7042,-0.2884,-3.4149,-4.2977,1.9418,-3.9546,-0.7833,-3.3388,
11.565109,0.0945,0.7042,-0.2884,-1.5229,-2.7052,0.0200,-3.9546,-0.7833,-3.3388,
11.613665,0.0999,0.9356,-0.4163,-1.5229,-2.7052,0.0200,-3.9546,-0.7833,-3.3388,
11.618225,0.1670,1.1984,-0.5709,-1.5229,-2.7052,0.0200,-3.9546,-0.7833,-3.3388,
11.620574,0.3941,1.4774,-0.7054,-1.5229,-2.7052,0.0200,-3.9546,-0.7833,-3.3388,
11.622775,0.3941,1.4774,-0.7054,2.0701,2.2296,-5.0477,-3.9546,-0.7833,-3.3388,
11.626329,0.3941,1.4774,-0.7054,2.0701,2.2296,-5.0477,-4.6579,-1.2060,-3.8354,
11.669392,0.3641,1.6684,-0.6009,2.0701,2.2296,-5.0477,-4.6579,-1.2060,-3.8354,
11.671041,0.3037,1.6525,-0.4778,2.0701,2.2296,-5.0477,-4.6579,-1.2060,-3.8354,
11.671714,0.2823,1.3087,-0.3853,2.0701,2.2296,-5.0477,-4.6579,-1.2060,-3.8354,
11.672458,0.2823,1.3087,-0.3853,2.0701,2.2296,-5.0477,-4.6308,0.6076,-3.7701,
11.673157,0.2823,1.3087,-0.3853,5.0566,5.8829,-6.6865,-4.6308,0.6076,-3.7701,
11.727880,0.2659,1.0475,-0.1675,5.0566,5.8829,-6.6865,-4.6308,0.6076,-3.7701,
11.730097,0.3240,1.0082,-0.1094,5.0566,5.8829,-6.6865,-4.6308,0.6076,-3.7701,
11.730981,0.2517,0.9015,-0.2610,5.0566,5.8829,-6.6865,-4.6308,0.6076,-3.7701,
11.731968,0.2517,0.9015,-0.2610,5.0566,5.8829,-6.6865,-2.4844,0.8943,-2.1482,
11.732935,0.2517,0.9015,-0.2610,5.8582,1.0868,-4.7350,-2.4844,0.8943,-2.1482,
11.797687,0.3140,0.7435,-0.2945,5.8582,1.0868,-4.7350,-2.4844,0.8943,-2.1482,
11.801465,0.5035,0.7808,-0.2854,5.8582,1.0868,-4.7350,-2.4844,0.8943,-2.1482,
11.803590,0.4727,0.9618,-0.3108,5.8582,1.0868,-4.7350,-2.4844,0.8943,-2.1482,
11.805879,0.4727,0.9618,-0.3108,5.8582,1.0868,-4.7350,0.3356,0.7058,0.6374,
11.807963,0.4727,0.9618,-0.3108,7.0049,-0.6088,-5.4951,0.3356,0.7058,0.6374,
11.846145,0.2302,1.2511,-0.3702,7.0049,-0.6088,-5.4951,0.3356,0.7058,0.6374,
11.848086,-1.4816,1.6987,0.9708,7.0049,-0.6088,-5.4951,0.3356,0.7058,0.6374,
11.849186,-1.8571,1.4418,0.7930,7.0049,-0.6088,-5.4951,0.3356,0.7058,0.6374,
11.850272,-1.8571,1.4418,0.7930,7.0049,-0.6088,-5.4951,0.6897,2.4673,1.0122,
11.851283,-1.8571,1.4418,0.7930,-7.4431,5.2783,2.6645,0.6897,2.4673,1.0122,
11.905157,0.2154,1.2865,-0.5127,-7.4431,5.2783,2.6645,0.6897,2.4673,1.0122,
11.908329,0.5816,1.2806,-0.9291,-7.4431,5.2783,2.6645,0.6897,2.4673,1.0122,
11.910349,0.0911,1.0018,-0.1511,-7.4431,5.2783,2.6645,0.6897,2.4673,1.0122,
11.912312,0.0911,1.0018,-0.1511,-7.4431,5.2783,2.6645,1.3740,0.7347,2.1511,
11.914229,0.0911,1.0018,-0.1511,4.4429,2.1648,-6.1392,1.3740,0.7347,2.1511,
11.964869,0.1279,0.8336,0.3391,4.4429,2.1648,-6.1392,1.3740,0.7347,2.1511,
11.967929,0.1499,0.9234,0.1206,4.4429,2.1648,-6.1392,1.3740,0.7347,2.1511,
11.969607,-0.0527,1.0702,-0.0044,4.4429,2.1648,-6.1392,1.3740,0.7347,2.1511,
11.971388,-0.0527,1.0702,-0.0044,4.4429,2.1648,-6.1392,0.7273,0.5368,1.4616,
11.973140,-0.0527,1.0702,-0.0044,1.4591,-0.3800,0.9766,0.7273,0.5368,1.4616,
12.021236,-0.0171,1.0626,-0.1201,1.4591,-0.3800,0.9766,0.7273,0.5368,1.4616,
12.024098,0.0833,1.0011,-0.0095,1.4591,-0.3800,0.9766,0.7273,0.5368,1.4616,
12.026293,0.0413,1.0043,-0.0303,1.4591,-0.3800,0.9766,0.7273,0.5368,1.4616,
12.027702,0.0413,1.0043,-0.0303,1.4591,-0.3800,0.9766,0.3759,-0.3512,1.0456,
12.029647,0.0413,1.0043,-0.0303,0.4715,0.3652,-0.8140,0.3759,-0.3512,1.0456,
12.079965,0.0374,0.9913,0.0842,0.4715,0.3652,-0.8140,0.3759,-0.3512,1.0456,
12.083356,-0.0230,0.9955,0.1433,0.4715,0.3652,-0.8140,0.3759,-0.3512,1.0456,
12.085208,-0.0100,0.9942,0.0906,0.4715,0.3652,-0.8140,0.3759,-0.3512,1.0456,
12.086837,-0.0100,0.9942,0.0906,0.4715,0.3652,-0.8140,0.3706,-0.0289,0.8430,
12.088614,-0.0100,0.9942,0.0906,-0.3349,0.0816,0.9400,0.3706,-0.0289,0.8430,
12.139224,0.0784,0.9906,0.0369,-0.3349,0.0816,0.9400,0.3706,-0.0289,0.8430,
12.142385,0.1240,0.9781,0.0498,-0.3349,0.0816,0.9400,0.3706,-0.0289,0.8430,
12.144936,0.1382,0.9618,0.0447,-0.3349,0.0816,0.9400,0.3706,-0.0289,0.8430,
12.146605,0.1382,0.9618,0.0447,-0.3349,0.0816,0.9400,0.3993,-0.4773,0.8418,
12.148682,0.1382,0.9618,0.0447,0.2862,-0.0534,0.5622,0.3993,-0.4773,0.8418,
12.196448,0.1282,0.9793,0.0591,0.2862,-0.0534,0.5622,0.3993,-0.4773,0.8418,
12.199805,0.0769,0.9928,0.0481,0.2862,-0.0534,0.5622,0.3993,-0.4773,0.8418,
12.201262,0.0869,0.9925,-0.0115,0.2862,-0.0534,0.5622,0.3993,-0.4773,0.8418,
12.203292,0.0869,0.9925,-0.0115,0.2862,-0.0534,0.5622,0.5239,-0.2655,0.7744,
12.205745,0.0869,0.9925,-0.0115,-0.2971,0.1123,0.7422,0.5239,-0.2655,0.7744,
12.256314,0.0869,0.9925,-0.0115,-0.2454,-0.0063,0.3139,0.5239,-0.2655,0.7744,
12.260461,0.1148,0.9903,-0.0454,-0.2454,-0.0063,0.3139,0.5239,-0.2655,0.7744,
12.262167,0.1345,0.9584,-0.0410,-0.2454,-0.0063,0.3139,0.5239,-0.2655,0.7744,
12.264155,0.1907,0.9520,-0.0579,-0.2454,-0.0063,0.3139,0.5239,-0.2655,0.7744,
12.267190,0.1907,0.9520,-0.0579,-0.2454,-0.0063,0.3139,0.5807,-0.4429,0.8129,
12.313472,0.1902,0.9754,-0.0921,-0.2454,-0.0063,0.3139,0.5807,-0.4429,0.8129,
12.317210,0.2088,0.9645,-0.1458,-0.2454,-0.0063,0.3139,0.5807,-0.4429,0.8129,
12.319059,0.2320,0.9833,-0.1309,-0.2454,-0.0063,0.3139,0.5807,-0.4429,0.8129,
12.320816,0.2320,0.9833,-0.1309,-0.0364,0.1824,-0.0725,0.5807,-0.4429,0.8129,
12.322175,0.2320,0.9833,-0.1309,-0.0364,0.1824,-0.0725,0.5504,-0.3881,0.7946,
12.370709,0.1944,1.0126,-0.1069,-0.0364,0.1824,-0.0725,0.5504,-0.3881,0.7946,
12.373652,0.1590,0.9735,-0.0967,-0.0364,0.1824,-0.0725,0.5504,-0.3881,0.7946,
12.375235,0.2039,0.9486,-0.1245,-0.0364,0.1824,-0.0725,0.5504,-0.3881,0.7946,
12.377114,0.2039,0.9486,-0.1245,-0.0364,0.1824,-0.0725,0.5339,-0.4559,0.7899,
12.379218,0.2039,0.9486,-0.1245,-0.6594,0.3602,0.4037,0.5339,-0.4559,0.7899,
12.429185,0.2500,0.9608,-0.1485,-0.6594,0.3602,0.4037,0.5339,-0.4559,0.7899,
12.432077,0.2320,0.9679,-0.1233,-0.6594,0.3602,0.4037,0.5339,-0.4559,0.7899,
12.433910,0.2439,0.9471,-0.1094,-0.6594,0.3602,0.4037,0.5339,-0.4559,0.7899,
12.435749,0.2439,0.9471,-0.1094,-0.6594,0.3602,0.4037,0.5239,-0.8159,0.9019,
12.437407,0.2439,0.9471,-0.1094,-0.4998,0.3543,0.6273,0.5239,-0.8159,0.9019,
12.487823,0.2434,0.9488,-0.1072,-0.4998,0.3543,0.6273,0.5239,-0.8159,0.9019,
12.490937,0.1983,0.9676,-0.1311,-0.4998,0.3543,0.6273,0.5239,-0.8159,0.9019,
12.492524,0.1792,1.0445,-0.1162,-0.4998,0.3543,0.6273,0.5239,-0.8159,0.9019,
12.494735,0.1792,1.0445,-0.1162,-0.4998,0.3543,0.6273,0.5915,-1.3245,1.0894,
12.495753,0.1792,1.0445,-0.1162,-1.2219,0.8870,1.2390,0.5915,-1.3245,1.0894,
12.545465,0.1077,1.1986,-0.0127,-1.2219,0.8870,1.2390,0.5915,-1.3245,1.0894,
12.548375,-0.0823,1.5297,0.1235,-1.2219,0.8870,1.2390,0.5915,-1.3245,1.0894,
12.550309,-0.1389,1.8193,0.0117,-1.2219,0.8870,1.2390,0.5915,-1.3245,1.0894,
12.552235,-0.1389,1.8193,0.0117,-1.2219,0.8870,1.2390,1.0150,-1.8314,1.6203,
12.554354,-0.1389,1.8193,0.0117,-4.0576,6.4604,3.6168,1.0150,-1.8314,1.6203,
12.603488,-0.0632,1.7140,-0.2268,-4.0576,6.4604,3.6168,1.0150,-1.8314,1.6203,
12.606322,0.0339,1.2916,-0.4126,-4.0576,6.4604,3.6168,1.0150,-1.8314,1.6203,
12.608127,0.4266,0.8934,-0.5635,-4.0576,6.4604,3.6168,1.0150,-1.8314,1.6203,
12.609750,0.4266,0.8934,-0.5635,-4.0576,6.4604,3.6168,1.0995,-2.7817,2.4486,
12.611647,0.4266,0.8934,-0.5635,-2.8654,5.0665,0.4385,1.0995,-2.7817,2.4486,
12.662327,1.0108,0.7662,-0.6006,-2.8654,5.0665,0.4385,1.0995,-2.7817,2.4486,
12.666009,1.0992,0.6299,-0.6380,-2.8654,5.0665,0.4385,1.0995,-2.7817,2.4486,
12.668066,0.7616,0.4947,-0.6697,-2.8654,5.0665,0.4385,1.0995,-2.7817,2.4486,
12.670038,0.7616,0.4947,-0.6697,-2.8654,5.0665,0.4385,0.0900,-3.3258,2.5742,
12.671992,0.7616,0.4947,-0.6697,4.9730,-0.8172,-0.9781,0.0900,-3.3258,2.5742,
12.721022,0.4627,0.3877,-0.5887,4.9730,-0.8172,-0.9781,0.0900,-3.3258,2.5742,
12.725076,0.1550,0.2627,-0.5594,4.9730,-0.8172,-0.9781,0.0900,-3.3258,2.5742,
12.727575,-0.1909,0.1856,-0.5281,4.9730,-0.8172,-0.9781,0.0900,-3.3258,2.5742,
12.729292,-0.1909,0.1856,-0.5281,4.9730,-0.8172,-0.9781,-1.6848,-2.9594,2.3063,
12.731945,-0.1909,0.1856,-0.5281,-2.9667,-4.1275,-0.1343,-1.6848,-2.9594,2.3063,
12.779130,-0.4302,0.1863,-0.7025,-2.9667,-4.1275,-0.1343,-1.6848,-2.9594,2.3063,
12.784339,-0.3448,0.2473,-0.7865,-2.9667,-4.1275,-0.1343,-1.6848,-2.9594,2.3063,
12.787543,-0.0325,0.3213,-0.9186,-2.9667,-4.1275,-0.1343,-1.6848,-2.9594,2.3063,
12.789673,-0.0325,0.3213,-0.9186,-2.9667,-4.1275,-0.1343,-2.7548,-3.5381,2.3517,
12.791970,-0.0325,0.3213,-0.9186,-6.7551,-4.5678,-2.7093,-2.7548,-3.5381,2.3517,
12.841845,-0.0325,0.3213,-0.9186,-6.0086,-2.4559,-3.4483,-2.7548,-3.5381,2.3517,
12.846421,-0.0366,0.4815,-0.9010,-6.0086,-2.4559,-3.4483,-2.7548,-3.5381,2.3517,
12.848953,-0.2327,0.5577,-0.8070,-6.0086,-2.4559,-3.4483,-2.7548,-3.5381,2.3517,
12.851164,-0.4490,0.5555,-0.7154,-6.0086,-2.4559,-3.4483,-2.7548,-3.5381,2.3517,
12.853439,-0.4490,0.5555,-0.7154,-6.0086,-2.4559,-3.4483,-3.6076,-3.4811,1.4724,
12.896621,-0.5350,0.6002,-0.7406,-6.0086,-2.4559,-3.4483,-3.6076,-3.4811,1.4724,
12.900429,-0.4212,0.7108,-0.8707,-6.0086,-2.4559,-3.4483,-3.6076,-3.4811,1.4724,
12.902798,-0.2508,0.7950,-0.9151,-6.0086,-2.4559,-3.4483,-3.6076,-3.4811,1.4724,
12.905340,-0.2508,0.7950,-0.9151,-6.0086,-2.4559,-3.4483,-3.5023,-5.3469,0.3329,
12.907944,-0.2508,0.7950,-0.9151,-6.3622,-1.5389,-4.3802,-3.5023,-5.3469,0.3329,
12.952062,-0.1489,0.8802,-0.8473,-6.3622,-1.5389,-4.3802,-3.5023,-5.3469,0.3329,
12.953828,-0.0310,0.9806,-0.8150,-6.3622,-1.5389,-4.3802,-3.5023,-5.3469,0.3329,
12.954822,0.1094,1.0677,-0.7535,-6.3622,-1.5389,-4.3802,-3.5023,-5.3469,0.3329,
12.956542,0.1094,1.0677,-0.7535,-6.3622,-1.5389,-4.3802,-3.1945,-4.5188,-0.6772,
12.964367,0.1094,1.0677,-0.7535,-1.3947,0.4534,-5.0852,-3.1945,-4.5188,-0.6772,
13.011634,0.0879,1.0860,-0.6182,-1.3947,0.4534,-5.0852,-3.1945,-4.5188,-0.6772,
13.014651,-0.0298,1.0980,-0.4727,-1.3947,0.4534,-5.0852,-3.1945,-4.5188,-0.6772,
13.017124,-0.1035,1.1476,-0.3543,-1.3947,0.4534,-5.0852,-3.1945,-4.5188,-0.6772,
13.019463,-0.1035,1.1476,-0.3543,-1.3947,0.4534,-5.0852,-2.9851,-2.5092,-1.8051,
13.021804,-0.1035,1.1476,-0.3543,-0.0100,1.3397,-3.3946,-2.9851,-2.5092,-1.8051,
13.071032,-0.0754,1.1583,-0.2959,-0.0100,1.3397,-3.3946,-2.9851,-2.5092,-1.8051,
13.075435,0.0054,1.1114,-0.2398,-0.0100,1.3397,-3.3946,-2.9851,-2.5092,-1.8051,
13.078123,-0.0005,1.0631,-0.1331,-0.0100,1.3397,-3.3946,-2.9851,-2.5092,-1.8051,
13.080315,-0.0005,1.0631,-0.1331,-0.0100,1.3397,-3.3946,-1.9819,-2.1700,-2.0841,
13.082601,-0.0005,1.0631,-0.1331,1.1409,1.3301,-2.0246,-1.9819,-2.1700,-2.0841,
13.130430,-0.0454,1.0279,-0.0403,1.1409,1.3301,-2.0246,-1.9819,-2.1700,-2.0841,
13.135531,-0.0894,0.9974,-0.0847,1.1409,1.3301,-2.0246,-1.9819,-2.1700,-2.0841,
13.137848,-0.0059,0.9105,-0.1526,1.1409,1.3301,-2.0246,-1.9819,-2.1700,-2.0841,
13.139872,-0.0059,0.9105,-0.1526,1.1409,1.3301,-2.0246,-0.9255,-2.6306,-1.3427,
13.142110,-0.0059,0.9105,-0.1526,1.5853,0.1766,-1.5067,-0.9255,-2.6306,-1.3427,
13.189865,0.1079,0.8897,-0.0879,1.5853,0.1766,-1.5067,-0.9255,-2.6306,-1.3427,
13.194848,0.2845,0.8770,-0.0383,1.5853,0.1766,-1.5067,-0.9255,-2.6306,-1.3427,
13.197816,0.3157,0.8399,-0.0725,1.5853,0.1766,-1.5067,-0.9255,-2.6306,-1.3427,
13.200141,0.3157,0.8399,-0.0725,1.5853,0.1766,-1.5067,0.1942,-2.7373,0.0002,
13.202088,0.3157,0.8399,-0.0725,4.1652,-0.8925,-1.4451,0.1942,-2.7373,0.0002,
13.245425,0.2090,0.8407,-0.0049,4.1652,-0.8925,-1.4451,0.1942,-2.7373,0.0002,
13.247490,0.1839,0.8465,0.0095,4.1652,-0.8925,-1.4451,0.1942,-2.7373,0.0002,
13.249114,0.2476,0.9310,0.0457,4.1652,-0.8925,-1.4451,0.1942,-2.7373,0.0002,
13.250243,0.2476,0.9310,0.0457,4.1652,-0.8925,-1.4451,1.0228,-2.2812,0.8962,
13.251380,0.2476,0.9310,0.0457,3.3034,-0.9582,-0.2756,1.0228,-2.2812,0.8962,
13.304152,-0.0935,1.0189,0.5118,3.3034,-0.9582,-0.2756,1.0228,-2.2812,0.8962,
13.307592,-0.7086,1.1412,0.7386,3.3034,-0.9582,-0.2756,1.0228,-2.2812,0.8962,
13.309637,0.1157,1.5124,0.3614,3.3034,-0.9582,-0.2756,1.0228,-2.2812,0.8962,
13.311492,0.1157,1.5124,0.3614,3.3034,-0.9582,-0.2756,-0.0884,-0.6037,0.6457,
13.314117,0.1157,1.5124,0.3614,-1.3812,2.4093,4.6582,-0.0884,-0.6037,0.6457,
13.360801,0.4461,1.7038,-0.9640,-1.3812,2.4093,4.6582,-0.0884,-0.6037,0.6457,
13.362875,-0.4126,1.1847,-0.1870,-1.3812,2.4093,4.6582,-0.0884,-0.6037,0.6457,
13.364110,-0.3272,0.7188,0.0378,-1.3812,2.4093,4.6582,-0.0884,-0.6037,0.6457,
13.365129,-0.3272,0.7188,0.0378,-1.3812,2.4093,4.6582,0.6734,0.3056,1.0741,
13.365990,-0.3272,0.7188,0.0378,-0.6831,2.1091,-3.7933,0.6734,0.3056,1.0741,
13.419907,0.1028,0.9041,-0.2273,-0.6831,2.1091,-3.7933,0.6734,0.3056,1.0741,
13.422376,0.3308,1.0580,0.0374,-0.6831,2.1091,-3.7933,0.6734,0.3056,1.0741,
13.423653,0.0864,1.0336,0.2364,-0.6831,2.1091,-3.7933,0.6734,0.3056,1.0741,
13.425172,0.0864,1.0336,0.2364,-0.6831,2.1091,-3.7933,0.2525,-0.1262,1.1024,
13.426478,0.0864,1.0336,0.2364,1.3304,0.1102,0.1363,0.2525,-0.1262,1.1024,
13.478745,-0.0415,0.9581,0.1485,1.3304,0.1102,0.1363,0.2525,-0.1262,1.1024,
13.481617,0.1973,0.9735,-0.0322,1.3304,0.1102,0.1363,0.2525,-0.1262,1.1024,
13.483462,0.2522,1.0336,-0.0566,1.3304,0.1102,0.1363,0.2525,-0.1262,1.1024,
13.485001,0.2522,1.0336,-0.0566,1.3304,0.1102,0.1363,0.1154,-0.7507,0.7962,
13.486793,0.2522,1.0336,-0.0566,0.5085,0.0376,0.2679,0.1154,-0.7507,0.7962,
13.537090,0.1846,1.0209,0.0210,0.5085,0.0376,0.2679,0.1154,-0.7507,0.7962,
13.540144,0.1228,0.9767,0.0740,0.5085,0.0376,0.2679,0.1154,-0.7507,0.7962,
13.541801,0.0725,0.9962,0.0620,0.5085,0.0376,0.2679,0.1154,-0.7507,0.7962,
13.543383,0.0725,0.9962,0.0620,0.5085,0.0376,0.2679,0.0450,-0.2561,0.4830,
13.546360,0.0725,0.9962,0.0620,0.1443,0.1555,0.6149,0.0450,-0.2561,0.4830,
13.596322,0.0039,1.0267,0.0923,0.1443,0.1555,0.6149,0.0450,-0.2561,0.4830,
13.599260,0.0000,1.0206,0.0820,0.1443,0.1555,0.6149,0.0450,-0.2561,0.4830,
13.600625,0.0596,1.0145,0.0469,0.1443,0.1555,0.6149,0.0450,-0.2561,0.4830,
13.602189,0.0596,1.0145,0.0469,0.1443,0.1555,0.6149,0.1979,-0.3262,0.5097,
13.604015,0.0596,1.0145,0.0469,-1.1523,0.4099,0.9431,0.1979,-0.3262,0.5097,
13.653810,0.1367,0.9923,0.0574,-1.1523,0.4099,0.9431,0.1979,-0.3262,0.5097,
13.656800,0.1885,0.9618,0.0415,-1.1523,0.4099,0.9431,0.1979,-0.3262,0.5097,
13.658654,0.1648,0.9552,0.0354,-1.1523,0.4099,0.9431,0.1979,-0.3262,0.5097,
13.660037,0.1648,0.9552,0.0354,-1.1523,0.4099,0.9431,0.3810,-0.3353,0.6335,
13.661999,0.1648,0.9552,0.0354,-0.1039,-0.0239,0.8865,0.3810,-0.3353,0.6335,
13.713304,0.1028,0.9586,0.0444,-0.1039,-0.0239,0.8865,0.3810,-0.3353,0.6335,
13.716850,0.1072,0.9732,0.0132,-0.1039,-0.0239,0.8865,0.3810,-0.3353,0.6335,
13.718272,0.1934,0.9933,-0.0398,-0.1039,-0.0239,0.8865,0.3810,-0.3353,0.6335,
13.720268,0.1934,0.9933,-0.0398,-0.1039,-0.0239,0.8865,0.4754,-0.2631,0.7005,
13.722202,0.1934,0.9933,-0.0398,-0.7527,0.1198,0.7845,0.4754,-0.2631,0.7005,
13.770260,0.1980,0.9952,-0.0723,-0.7527,0.1198,0.7845,0.4754,-0.2631,0.7005,
13.773127,0.1121,0.9886,-0.0845,-0.7527,0.1198,0.7845,0.4754,-0.2631,0.7005,
13.774872,0.1299,0.9828,-0.0825,-0.7527,0.1198,0.7845,0.4754,-0.2631,0.7005,
13.776661,0.1299,0.9828,-0.0825,-0.7527,0.1198,0.7845,0.5390,-0.2859,0.8223,
13.778429,0.1299,0.9828,-0.0825,-1.0501,0.3867,0.2730,0.5390,-0.2859,0.8223,
13.828605,0.1846,0.9979,-0.0564,-1.0501,0.3867,0.2730,0.5390,-0.2859,0.8223,
13.831248,0.1765,0.9977,-0.0442,-1.0501,0.3867,0.2730,0.5390,-0.2859,0.8223,
13.833103,0.1995,0.9776,-0.0564,-1.0501,0.3867,0.2730,0.5390,-0.2859,0.8223,
13.834791,0.1995,0.9776,-0.0564,-1.0501,0.3867,0.2730,0.6453,-0.5701,1.0249,
13.836740,0.1995,0.9776,-0.0564,-1.1441,0.6098,0.9634,0.6453,-0.5701,1.0249,
13.887432,0.2676,0.9972,-0.0884,-1.1441,0.6098,0.9634,0.6453,-0.5701,1.0249,
13.890357,0.1948,1.0638,-0.0918,-1.1441,0.6098,0.9634,0.6453,-0.5701,1.0249,
13.891742,0.1543,1.1031,-0.0867,-1.1441,0.6098,0.9634,0.6453,-0.5701,1.0249,
13.893575,0.1543,1.1031,-0.0867,-1.1441,0.6098,0.9634,0.8788,-0.6312,1.2332,
13.898022,0.1543,1.1031,-0.0867,-1.5136,1.5331,1.1633,0.8788,-0.6312,1.2332,
13.945511,0.2569,1.0860,-0.1638,-1.5136,1.5331,1.1633,0.8788,-0.6312,1.2332,
13.948450,0.3133,1.0992,-0.2066,-1.5136,1.5331,1.1633,0.8788,-0.6312,1.2332,
13.950374,0.2329,1.1197,-0.2002,-1.5136,1.5331,1.1633,0.8788,-0.6312,1.2332,
13.952176,0.2329,1.1197,-0.2002,-1.5136,1.5331,1.1633,1.1162,-0.9808,1.5046,
13.954100,0.2329,1.1197,-0.2002,-1.4923,2.4468,0.9331,1.1162,-0.9808,1.5046,
14.002176,0.1509,1.2006,-0.2254,-1.4923,2.4468,0.9331,1.1162,-0.9808,1.5046,
14.003630,0.0471,1.4484,-0.0523,-1.4923,2.4468,0.9331,1.1162,-0.9808,1.5046,
14.004451,-0.2317,1.6386,0.0857,-1.4923,2.4468,0.9331,1.1162,-0.9808,1.5046,
14.005185,-0.2317,1.6386,0.0857,-1.4923,2.4468,0.9331,1.5155,-1.1134,1.5217,
14.006018,-0.2317,1.6386,0.0857,-4.6458,6.2308,3.1102,1.5155,-1.1134,1.5217,
14.061018,-0.6675,1.8200,0.1199,-4.6458,6.2308,3.1102,1.5155,-1.1134,1.5217,
14.063220,-1.1068,1.8811,0.0979,-4.6458,6.2308,3.1102,1.5155,-1.1134,1.5217,
14.064206,-0.5691,1.2941,-0.0820,-4.6458,6.2308,3.1102,1.5155,-1.1134,1.5217,
14.065180,-0.5691,1.2941,-0.0820,-4.6458,6.2308,3.1102,1.8218,-1.6049,2.1128,
14.066058,-0.5691,1.2941,-0.0820,-12.4663,9.4364,5.3129,1.8218,-1.6049,2.1128,
14.121971,0.5960,1.1019,-0.6080,-12.4663,9.4364,5.3129,1.8218,-1.6049,2.1128,
14.126128,1.4071,1.2953,-0.5618,-12.4663,9.4364,5.3129,1.8218,-1.6049,2.1128,
14.128819,0.9945,1.0343,-0.4744,-12.4663,9.4364,5.3129,1.8218,-1.6049,2.1128,
14.131527,0.9945,1.0343,-0.4744,-12.4663,9.4364,5.3129,1.8489,-2.5542,3.0898,
14.134127,0.9945,1.0343,-0.4744,4.6324,5.7302,0.8921,1.8489,-2.5542,3.0898,
14.179332,0.6492,0.6968,-0.6697,4.6324,5.7302,0.8921,1.8489,-2.5542,3.0898,
14.183053,0.5660,0.4913,-0.8868,4.6324,5.7302,0.8921,1.8489,-2.5542,3.0898,
14.185609,0.5096,0.4336,-0.4983,4.6324,5.7302,0.8921,1.8489,-2.5542,3.0898,
14.188078,0.5096,0.4336,-0.4983,4.6324,5.7302,0.8921,0.2346,-0.3123,1.0306,
14.195221,0.5096,0.4336,-0.4983,0.2702,0.2148,-0.2774,0.2346,-0.3123,1.0306,
14.238081,0.2805,0.2647,-0.1204,0.2702,0.2148,-0.2774,0.2346,-0.3123,1.0306,
14.241405,-0.0225,0.1196,-0.0239,0.2702,0.2148,-0.2774,0.2346,-0.3123,1.0306,
14.242810,-0.1494,0.1165,-0.1936,0.2702,0.2148,-0.2774,0.2346,-0.3123,1.0306,
14.244618,-0.1494,0.1165,-0.1936,0.2702,0.2148,-0.2774,-1.9998,1.0167,-1.1828,
14.247394,-0.1494,0.1165,-0.1936,-4.8879,-4.4380,4.2866,-1.9998,1.0167,-1.1828,
14.294838,0.0042,0.2781,-0.4021,-4.8879,-4.4380,4.2866,-1.9998,1.0167,-1.1828,
14.299079,0.1885,0.4036,-0.4522,-4.8879,-4.4380,4.2866,-1.9998,1.0167,-1.1828,
14.301653,0.1900,0.4856,-0.4065,-4.8879,-4.4380,4.2866,-1.9998,1.0167,-1.1828,
14.305455,0.1900,0.4856,-0.4065,-4.8879,-4.4380,4.2866,-2.8469,-0.0081,-2.6746,
14.308160,0.1900,0.4856,-0.4065,-2.8722,-3.7387,0.1272,-2.8469,-0.0081,-2.6746,
14.353425,0.1355,0.5477,-0.3584,-2.8722,-3.7387,0.1272,-2.8469,-0.0081,-2.6746,
14.357032,0.1719,0.6732,-0.3101,-2.8722,-3.7387,0.1272,-2.8469,-0.0081,-2.6746,
14.359532,0.2092,0.8521,-0.3545,-2.8722,-3.7387,0.1272,-2.8469,-0.0081,-2.6746,
14.361805,0.2092,0.8521,-0.3545,-2.8722,-3.7387,0.1272,-3.8176,-0.9153,-4.0627,
14.364081,0.2092,0.8521,-0.3545,-0.2682,-2.2321,-0.7873,-3.8176,-0.9153,-4.0627,
14.411408,0.2989,1.0707,-0.5281,-0.2682,-2.2321,-0.7873,-3.8176,-0.9153,-4.0627,
14.414153,0.5179,1.3344,-0.7276,-0.2682,-2.2321,-0.7873,-3.8176,-0.9153,-4.0627,
14.415652,0.6475,1.6283,-0.7877,-0.2682,-2.2321,-0.7873,-3.8176,-0.9153,-4.0627,
14.416670,0.6475,1.6283,-0.7877,-0.2682,-2.2321,-0.7873,-4.3085,-0.3710,-4.5117,
14.417665,0.6475,1.6283,-0.7877,5.2424,3.5722,-6.3465,-4.3085,-0.3710,-4.5117,
14.468544,0.7730,1.5011,-0.8143,5.2424,3.5722,-6.3465,-4.3085,-0.3710,-4.5117,
14.470117,0.9955,1.1815,-0.6780,5.2424,3.5722,-6.3465,-4.3085,-0.3710,-4.5117,
14.470757,0.9703,1.0672,-0.4886,5.2424,3.5722,-6.3465,-4.3085,-0.3710,-4.5117,
14.471436,0.9703,1.0672,-0.4886,5.2424,3.5722,-6.3465,-3.5046,2.2690,-3.7841,
14.472141,0.9703,1.0672,-0.4886,11.3993,3.0505,-7.7069,-3.5046,2.2690,-3.7841,
14.528160,0.6475,1.0240,-0.4151,11.3993,3.0505,-7.7069,-3.5046,2.2690,-3.7841,
14.529110,0.5372,0.8775,-0.4017,11.3993,3.0505,-7.7069,-3.5046,2.2690,-3.7841,
14.529606,0.6453,0.8929,-0.5611,11.3993,3.0505,-7.7069,-3.5046,2.2690,-3.7841,
14.530063,0.6453,0.8929,-0.5611,11.3993,3.0505,-7.7069,-0.7247,3.1083,-0.4752,
14.530537,0.6453,0.8929,-0.5611,8.7729,0.0566,-5.5115,-0.7247,3.1083,-0.4752,
14.588342,0.3089,1.4254,-0.6592,8.7729,0.0566,-5.5115,-0.7247,3.1083,-0.4752,
14.590320,-1.6017,1.8474,0.8529,8.7729,0.0566,-5.5115,-0.7247,3.1083,-0.4752,
14.591248,-1.6254,1.3224,0.6141,8.7729,0.0566,-5.5115,-0.7247,3.1083,-0.4752,
14.592181,-1.6254,1.3224,0.6141,8.7729,0.0566,-5.5115,0.5738,2.7585,1.1696,
14.592942,-1.6254,1.3224,0.6141,-7.1306,5.6497,2.3193,0.5738,2.7585,1.1696,
14.645276,0.3746,0.7891,-0.6378,-7.1306,5.6497,2.3193,0.5738,2.7585,1.1696,
14.648433,0.5460,0.9635,-1.0973,-7.1306,5.6497,2.3193,0.5738,2.7585,1.1696,
14.650479,0.3147,1.0716,-0.2483,-7.1306,5.6497,2.3193,0.5738,2.7585,1.1696,
14.652104,0.3147,1.0716,-0.2483,-7.1306,5.6497,2.3193,1.2242,0.2633,2.4091,
14.653781,0.3147,1.0716,-0.2483,5.0255,-0.3693,-5.9747,1.2242,0.2633,2.4091,
14.705394,0.1948,0.8817,0.2976,5.0255,-0.3693,-5.9747,1.2242,0.2633,2.4091,
14.709065,0.0811,0.9796,0.1914,5.0255,-0.3693,-5.9747,1.2242,0.2633,2.4091,
14.711204,0.0530,1.0406,-0.1382,5.0255,-0.3693,-5.9747,1.2242,0.2633,2.4091,
14.713312,0.0530,1.0406,-0.1382,5.0255,-0.3693,-5.9747,0.4720,0.2997,1.2914,
14.715248,0.0530,1.0406,-0.1382,1.3067,-0.1426,1.8928,0.4720,0.2997,1.2914,
14.763278,0.0933,1.0655,-0.1685,1.3067,-0.1426,1.8928,0.4720,0.2997,1.2914,
14.767760,0.0439,1.0240,-0.1157,1.3067,-0.1426,1.8928,0.4720,0.2997,1.2914,
14.769847,0.0784,0.9586,-0.1411,1.3067,-0.1426,1.8928,0.4720,0.2997,1.2914,
14.771530,0.0784,0.9586,-0.1411,1.3067,-0.1426,1.8928,0.4414,0.1489,0.9387,
14.773534,0.0784,0.9586,-0.1411,0.3959,0.3535,-0.3887,0.4414,0.1489,0.9387,
14.820676,0.0850,0.9872,-0.1052,0.3959,0.3535,-0.3887,0.4414,0.1489,0.9387,
14.823567,0.0408,1.0306,-0.0911,0.3959,0.3535,-0.3887,0.4414,0.1489,0.9387,
14.825227,0.0056,1.0289,-0.0850,0.3959,0.3535,-0.3887,0.4414,0.1489,0.9387,
14.827218,0.0056,1.0289,-0.0850,0.3959,0.3535,-0.3887,0.3421,0.3358,0.7459,
14.829128,0.0056,1.0289,-0.0850,-0.3125,0.3869,0.2578,0.3421,0.3358,0.7459,
14.878748,-0.0168,0.9867,-0.1150,-0.3125,0.3869,0.2578,0.3421,0.3358,0.7459,
14.881750,0.0728,0.9933,-0.1199,-0.3125,0.3869,0.2578,0.3421,0.3358,0.7459,
14.883643,0.1563,0.9989,-0.0752,-0.3125,0.3869,0.2578,0.3421,0.3358,0.7459,
14.885201,0.1563,0.9989,-0.0752,-0.3125,0.3869,0.2578,0.3478,-0.0902,0.7797,
14.887196,0.1563,0.9989,-0.0752,-0.4671,0.2307,0.3570,0.3478,-0.0902,0.7797,
14.938000,0.1101,0.9588,-0.0337,-0.4671,0.2307,0.3570,0.3478,-0.0902,0.7797,
14.941747,0.0989,0.9413,-0.0479,-0.4671,0.2307,0.3570,0.3478,-0.0902,0.7797,
14.943446,0.1443,0.9598,-0.0969,-0.4671,0.2307,0.3570,0.3478,-0.0902,0.7797,
14.945748,0.1443,0.9598,-0.0969,-0.4263,-0.0490,1.0548,0.3478,-0.0902,0.7797,
14.948303,0.1443,0.9598,-0.0969,-0.4263,-0.0490,1.0548,0.5115,-0.0509,0.7836,
14.995154,0.1292,0.9952,-0.1384,-0.4263,-0.0490,1.0548,0.5115,-0.0509,0.7836,
14.997671,0.1201,1.0016,-0.1775,-0.4263,-0.0490,1.0548,0.5115,-0.0509,0.7836,
14.999268,0.1216,0.9891,-0.1970,-0.4263,-0.0490,1.0548,0.5115,-0.0509,0.7836,
15.000611,0.1216,0.9891,-0.1970,-0.4263,-0.0490,1.0548,0.6212,-0.1415,0.8479,
15.002553,0.1216,0.9891,-0.1970,-0.8010,0.5089,0.3094,0.6212,-0.1415,0.8479,
15.053074,0.1145,0.9877,-0.1887,-0.8010,0.5089,0.3094,0.6212,-0.1415,0.8479,
15.054948,0.1663,1.0021,-0.1817,-0.8010,0.5089,0.3094,0.6212,-0.1415,0.8479,
15.056263,0.1956,0.9962,-0.1480,-0.8010,0.5089,0.3094,0.6212,-0.1415,0.8479,
15.057173,0.1956,0.9962,-0.1480,-0.8010,0.5089,0.3094,0.7155,-0.2374,0.9970,
15.058248,0.1956,0.9962,-0.1480,-0.9412,0.7198,0.6929,0.7155,-0.2374,0.9970,
15.113530,0.1221,0.9938,-0.1094,-0.9412,0.7198,0.6929,0.7155,-0.2374,0.9970,
15.117085,0.1087,1.0458,-0.0772,-0.9412,0.7198,0.6929,0.7155,-0.2374,0.9970,
15.119197,0.1594,1.1022,-0.1419,-0.9412,0.7198,0.6929,0.7155,-0.2374,0.9970,
15.120796,0.1594,1.1022,-0.1419,-0.9412,0.7198,0.6929,1.1012,-0.0924,1.2136,
15.122539,0.1594,1.1022,-0.1419,-1.8052,1.5727,1.8650,1.1012,-0.0924,1.2136,
15.181883,0.1692,1.1171,-0.1785,-1.8052,1.5727,1.8650,1.1012,-0.0924,1.2136,
15.197003,0.1113,1.1898,-0.1917,-1.8052,1.5727,1.8650,1.1012,-0.0924,1.2136,
15.197860,0.0569,1.4293,-0.1121,-1.8052,1.5727,1.8650,1.1012,-0.0924,1.2136,
15.198639,0.0569,1.4293,-0.1121,-2.5617,4.0491,2.1935,1.1012,-0.0924,1.2136,
15.199492,0.0569,1.4293,-0.1121,-2.5617,4.0491,2.1935,1.5487,-0.5447,1.5011,
15.227735,-0.1831,1.7536,0.0586,-2.5617,4.0491,2.1935,1.5487,-0.5447,1.5011,
15.229593,-0.6448,1.9917,0.0645,-2.5617,4.0491,2.1935,1.5487,-0.5447,1.5011,
15.230984,-1.1100,2.0942,-0.0178,-2.5617,4.0491,2.1935,1.5487,-0.5447,1.5011,
15.232545,-1.1100,2.0942,-0.0178,-2.5617,4.0491,2.1935,2.1871,-0.9169,1.7512,
15.234620,-1.1100,2.0942,-0.0178,-10.3708,11.6835,5.2170,2.1871,-0.9169,1.7512,
15.286702,-0.6600,1.4699,-0.1260,-10.3708,11.6835,5.2170,2.1871,-0.9169,1.7512,
15.289760,0.4141,1.0074,-0.6077,-10.3708,11.6835,5.2170,2.1871,-0.9169,1.7512,
15.290831,1.4296,1.0567,-0.5535,-10.3708,11.6835,5.2170,2.1871,-0.9169,1.7512,
15.291781,1.4296,1.0567,-0.5535,-10.3708,11.6835,5.2170,2.0621,-2.1232,2.8119,
15.293009,1.4296,1.0567,-0.5535,-0.5698,5.4281,1.9783,2.0621,-2.1232,2.8119,
15.345531,1.0777,0.9063,-0.4402,-0.5698,5.4281,1.9783,2.0621,-2.1232,2.8119,
15.349131,0.6104,0.6190,-0.7379,-0.5698,5.4281,1.9783,2.0621,-2.1232,2.8119,
15.350852,0.4722,0.3724,-0.8482,-0.5698,5.4281,1.9783,2.0621,-2.1232,2.8119,
15.352491,0.4722,0.3724,-0.8482,-0.5698,5.4281,1.9783,1.3180,-0.2307,1.2788,
15.354352,0.4722,0.3724,-0.8482,2.2382,0.9053,0.0587,1.3180,-0.2307,1.2788,
15.404610,0.4566,0.3968,-0.4683,2.2382,0.9053,0.0587,1.3180,-0.2307,1.2788,
15.408758,0.2249,0.2644,-0.0625,2.2382,0.9053,0.0587,1.3180,-0.2307,1.2788,
15.410142,-0.0422,0.0908,0.0366,2.2382,0.9053,0.0587,1.3180,-0.2307,1.2788,
15.411749,-0.0422,0.0908,0.0366,-2.9552,-3.4996,4.1220,1.3180,-0.2307,1.2788,
15.413736,-0.0422,0.0908,0.0366,-2.9552,-3.4996,4.1220,-1.4881,1.3114,-0.6174,
15.461139,-0.2478,0.1318,-0.1699,-2.9552,-3.4996,4.1220,-1.4881,1.3114,-0.6174,
15.463679,-0.1665,0.2845,-0.3118,-2.9552,-3.4996,4.1220,-1.4881,1.3114,-0.6174,
15.465135,-0.0168,0.4263,-0.3509,-2.9552,-3.4996,4.1220,-1.4881,1.3114,-0.6174,
15.466807,-0.0168,0.4263,-0.3509,-2.9552,-3.4996,4.1220,-2.2435,0.1770,-2.4107,
15.468749,-0.0168,0.4263,-0.3509,-5.4802,-4.4713,2.0607,-2.2435,0.1770,-2.4107,
15.521143,0.0479,0.5494,-0.3523,-5.4802,-4.4713,2.0607,-2.2435,0.1770,-2.4107,
15.524642,0.0532,0.6295,-0.3379,-5.4802,-4.4713,2.0607,-2.2435,0.1770,-2.4107,
15.527256,0.0933,0.7240,-0.3057,-5.4802,-4.4713,2.0607,-2.2435,0.1770,-2.4107,
15.529418,0.0933,0.7240,-0.3057,-5.4802,-4.4713,2.0607,-3.5923,-1.2128,-3.6853,
15.531686,0.0933,0.7240,-0.3057,-1.4034,-2.4852,0.0506,-3.5923,-1.2128,-3.6853,
15.580320,0.1199,0.9154,-0.3477,-1.4034,-2.4852,0.0506,-3.5923,-1.2128,-3.6853,
15.584738,0.1306,1.2423,-0.5926,-1.4034,-2.4852,0.0506,-3.5923,-1.2128,-3.6853,
15.587391,0.3982,1.6782,-0.8170,-1.4034,-2.4852,0.0506,-3.5923,-1.2128,-3.6853,
15.589844,0.3982,1.6782,-0.8170,2.5092,3.0067,-4.7358,-3.5923,-1.2128,-3.6853,
15.592654,0.3982,1.6782,-0.8170,2.5092,3.0067,-4.7358,-4.5775,-1.6347,-4.2313,
15.636821,0.6878,1.7575,-0.9259,2.5092,3.0067,-4.7358,-4.5775,-1.6347,-4.2313,
15.639885,0.8001,1.3947,-0.7845,2.5092,3.0067,-4.7358,-4.5775,-1.6347,-4.2313,
15.641985,0.9408,1.0682,-0.5162,2.5092,3.0067,-4.7358,-4.5775,-1.6347,-4.2313,
15.644028,0.9408,1.0682,-0.5162,2.5092,3.0067,-4.7358,-4.6003,0.5512,-3.6086,
15.646849,0.9408,1.0682,-0.5162,10.1711,4.5483,-8.5855,-4.6003,0.5512,-3.6086,
15.694285,0.6834,1.0807,-0.4498,10.1711,4.5483,-8.5855,-4.6003,0.5512,-3.6086,
15.698908,0.4705,0.9654,-0.4332,10.1711,4.5483,-8.5855,-4.6003,0.5512,-3.6086,
15.701218,0.5482,0.7125,-0.4300,10.1711,4.5483,-8.5855,-4.6003,0.5512,-3.6086,
15.703314,0.5482,0.7125,-0.4300,10.1711,4.5483,-8.5855,-1.6219,1.9222,-1.2848,
15.705878,0.5482,0.7125,-0.4300,8.5316,0.1253,-6.0408,-1.6219,1.9222,-1.2848,
15.754272,0.6126,0.8761,-0.7274,8.5316,0.1253,-6.0408,-1.6219,1.9222,-1.2848,
15.759568,-0.1152,1.5688,-0.2669,8.5316,0.1253,-6.0408,-1.6219,1.9222,-1.2848,
15.761643,-2.3025,1.8264,1.1376,8.5316,0.1253,-6.0408,-1.6219,1.9222,-1.2848,
15.763986,-2.3025,1.8264,1.1376,8.5316,0.1253,-6.0408,0.4111,2.1368,1.0650,
15.767169,-2.3025,1.8264,1.1376,-3.2360,4.7780,-0.6943,0.4111,2.1368,1.0650,
15.811244,-0.8307,1.3681,0.2012,-3.2360,4.7780,-0.6943,0.4111,2.1368,1.0650,
15.813302,0.7782,1.1315,-0.7374,-3.2360,4.7780,-0.6943,0.4111,2.1368,1.0650,
15.814860,0.4708,1.0128,-0.6111,-3.2360,4.7780,-0.6943,0.4111,2.1368,1.0650,
15.817309,0.4708,1.0128,-0.6111,2.9241,1.9550,-3.8953,0.4111,2.1368,1.0650,
15.819525,0.4708,1.0128,-0.6111,2.9241,1.9550,-3.8953,1.4946,1.0035,2.0196,
15.870562,0.1802,0.8028,0.2532,2.9241,1.9550,-3.8953,1.4946,1.0035,2.0196,
15.873906,0.0103,0.8736,0.0664,2.9241,1.9550,-3.8953,1.4946,1.0035,2.0196,
15.875610,0.0769,1.0868,-0.0090,2.9241,1.9550,-3.8953,1.4946,1.0035,2.0196,
15.876288,0.0769,1.0868,-0.0090,2.9241,1.9550,-3.8953,0.6921,0.5296,1.4236,
15.877312,0.0769,1.0868,-0.0090,1.6070,-0.5761,1.2687,0.6921,0.5296,1.4236,
15.928330,0.1126,1.0724,-0.2346,1.6070,-0.5761,1.2687,0.6921,0.5296,1.4236,
15.931484,0.1433,1.0292,-0.1748,1.6070,-0.5761,1.2687,0.6921,0.5296,1.4236,
15.933163,-0.0105,1.0345,-0.1536,1.6070,-0.5761,1.2687,0.6921,0.5296,1.4236,
15.935183,-0.0105,1.0345,-0.1536,1.6070,-0.5761,1.2687,0.3777,-0.0287,0.9363,
15.936078,-0.0105,1.0345,-0.1536,0.9946,0.6137,-1.3498,0.3777,-0.0287,0.9363,
15.987494,-0.0581,1.0284,-0.0642,0.9946,0.6137,-1.3498,0.3777,-0.0287,0.9363,
15.991000,-0.0376,1.0143,0.0264,0.9946,0.6137,-1.3498,0.3777,-0.0287,0.9363,
15.992623,-0.0711,1.0072,0.0732,0.9946,0.6137,-1.3498,0.3777,-0.0287,0.9363,
15.993998,-0.0711,1.0072,0.0732,0.9946,0.6137,-1.3498,0.2407,0.2067,0.7027,
15.995659,-0.0711,1.0072,0.0732,-0.7407,0.3346,0.7272,0.2407,0.2067,0.7027,
16.046643,-0.0005,0.9710,0.0396,-0.7407,0.3346,0.7272,0.2407,0.2067,0.7027,
16.050888,0.1109,0.9476,0.0042,-0.7407,0.3346,0.7272,0.2407,0.2067,0.7027,
16.052597,0.1284,0.9813,-0.0244,-0.7407,0.3346,0.7272,0.2407,0.2067,0.7027,
16.054911,0.1284,0.9813,-0.0244,-0.7407,0.3346,0.7272,0.3378,-0.2189,0.7750,
16.055912,0.1284,0.9813,-0.0244,0.1561,-0.1206,0.8556,0.3378,-0.2189,0.7750,
16.104640,0.0833,0.9852,-0.0232,0.1561,-0.1206,0.8556,0.3378,-0.2189,0.7750,
16.108779,0.0720,0.9540,0.0237,0.1561,-0.1206,0.8556,0.3378,-0.2189,0.7750,
16.110257,0.1375,0.9361,0.0129,0.1561,-0.1206,0.8556,0.3378,-0.2189,0.7750,
16.112632,0.1375,0.9361,0.0129,0.1561,-0.1206,0.8556,0.4726,-0.0356,0.6891,
16.114644,0.1375,0.9361,0.0129,-0.0496,-0.1405,1.0831,0.4726,-0.0356,0.6891,
16.162650,0.2508,0.9291,-0.0613,-0.0496,-0.1405,1.0831,0.4726,-0.0356,0.6891,
16.167841,0.2517,0.9266,-0.1348,-0.0496,-0.1405,1.0831,0.4726,-0.0356,0.6891,
16.169312,0.1426,0.9679,-0.1633,-0.0496,-0.1405,1.0831,0.4726,-0.0356,0.6891,
16.171163,0.1426,0.9679,-0.1633,-0.0496,-0.1405,1.0831,0.4923,0.1230,0.5916,
16.173169,0.1426,0.9679,-0.1633,0.7523,-0.2315,0.1270,0.4923,0.1230,0.5916,
16.221195,0.0259,1.0206,-0.1472,0.7523,-0.2315,0.1270,0.4923,0.1230,0.5916,
16.225227,-0.0142,1.0055,-0.1109,0.7523,-0.2315,0.1270,0.4923,0.1230,0.5916,
16.227125,0.0464,0.9862,-0.0877,0.7523,-0.2315,0.1270,0.4923,0.1230,0.5916,
16.229166,0.0464,0.9862,-0.0877,-1.4643,0.4699,0.4306,0.4923,0.1230,0.5916,
16.231222,0.0464,0.9862,-0.0877,-1.4643,0.4699,0.4306,0.4999,0.0927,0.5763,
16.278366,0.1206,0.9823,-0.0725,-1.4643,0.4699,0.4306,0.4999,0.0927,0.5763,
16.280923,0.1450,0.9762,-0.1087,-1.4643,0.4699,0.4306,0.4999,0.0927,0.5763,
16.282793,0.1768,0.9886,-0.1321,-1.4643,0.4699,0.4306,0.4999,0.0927,0.5763,
16.285629,0.1768,0.9886,-0.1321,-1.4643,0.4699,0.4306,0.6532,-0.4661,0.8306,
16.287629,0.1768,0.9886,-0.1321,-0.6002,0.4071,0.9264,0.6532,-0.4661,0.8306,
16.337241,0.1983,0.9579,-0.1370,-0.6002,0.4071,0.9264,0.6532,-0.4661,0.8306,
16.340144,0.2290,0.9564,-0.1524,-0.6002,0.4071,0.9264,0.6532,-0.4661,0.8306,
16.342084,0.2571,1.0148,-0.1494,-0.6002,0.4071,0.9264,0.6532,-0.4661,0.8306,
16.343587,0.2571,1.0148,-0.1494,-0.6002,0.4071,0.9264,0.8432,-0.7292,0.9131,
16.345655,0.2571,1.0148,-0.1494,-0.1972,0.5674,1.0428,0.8432,-0.7292,0.9131,
16.395912,0.1348,0.9947,-0.0982,-0.1972,0.5674,1.0428,0.8432,-0.7292,0.9131,
16.399196,0.0762,1.1393,-0.1345,-0.1972,0.5674,1.0428,0.8432,-0.7292,0.9131,
16.401361,0.1270,1.4665,-0.1248,-0.1972,0.5674,1.0428,0.8432,-0.7292,0.9131,
16.403286,0.1270,1.4665,-0.1248,-0.1972,0.5674,1.0428,1.1555,-1.0515,1.0198,
16.410862,0.1270,1.4665,-0.1248,-1.6513,3.0569,2.0299,1.1555,-1.0515,1.0198,
16.452068,0.1892,1.5951,-0.0491,-1.6513,3.0569,2.0299,1.1555,-1.0515,1.0198,
16.453521,0.0388,1.4416,-0.1602,-1.6513,3.0569,2.0299,1.1555,-1.0515,1.0198,
16.454304,0.0215,1.2919,-0.3675,-1.6513,3.0569,2.0299,1.1555,-1.0515,1.0198,
16.455899,0.0215,1.2919,-0.3675,-1.6513,3.0569,2.0299,1.0429,-1.8434,1.6504,
16.457598,0.0215,1.2919,-0.3675,-2.3230,5.8421,2.1135,1.0429,-1.8434,1.6504,
16.511895,0.3050,1.0006,-0.4432,-2.3230,5.8421,2.1135,1.0429,-1.8434,1.6504,
16.515179,0.5880,0.8140,-0.4119,-2.3230,5.8421,2.1135,1.0429,-1.8434,1.6504,
16.516427,0.7022,0.7559,-0.3836,-2.3230,5.8421,2.1135,1.0429,-1.8434,1.6504,
16.517298,0.7022,0.7559,-0.3836,-2.3230,5.8421,2.1135,-0.0774,-3.4443,2.5478,
16.518777,0.7022,0.7559,-0.3836,1.7225,0.5606,0.5758,-0.0774,-3.4443,2.5478,
16.571786,0.4063,0.6702,-0.3474,1.7225,0.5606,0.5758,-0.0774,-3.4443,2.5478,
16.577279,0.0769,0.5638,-0.3772,1.7225,0.5606,0.5758,-0.0774,-3.4443,2.5478,
16.579959,-0.0479,0.5345,-0.4585,1.7225,0.5606,0.5758,-0.0774,-3.4443,2.5478,
16.581961,-0.0479,0.5345,-0.4585,1.7225,0.5606,0.5758,-1.9161,-4.0767,2.4736,
16.584583,-0.0479,0.5345,-0.4585,-2.0484,-2.0388,0.7082,-1.9161,-4.0767,2.4736,
16.628897,-0.0183,0.5547,-0.5413,-2.0484,-2.0388,0.7082,-1.9161,-4.0767,2.4736,
16.633363,0.0405,0.5694,-0.6182,-2.0484,-2.0388,0.7082,-1.9161,-4.0767,2.4736,
16.635994,-0.0103,0.6004,-0.6805,-2.0484,-2.0388,0.7082,-1.9161,-4.0767,2.4736,
16.638319,-0.0103,0.6004,-0.6805,-2.0484,-2.0388,0.7082,-3.2152,-4.7802,2.5983,
16.640618,-0.0103,0.6004,-0.6805,-3.3664,-2.4297,-1.9313,-3.2152,-4.7802,2.5983,
16.687377,-0.1216,0.6658,-0.7493,-3.3664,-2.4297,-1.9313,-3.2152,-4.7802,2.5983,
16.691606,-0.2659,0.7366,-0.8143,-3.3664,-2.4297,-1.9313,-3.2152,-4.7802,2.5983,
16.693362,-0.3626,0.7459,-0.7574,-3.3664,-2.4297,-1.9313,-3.2152,-4.7802,2.5983,
16.695471,-0.3626,0.7459,-0.7574,-3.3664,-2.4297,-1.9313,-3.3991,-4.5886,1.6174,
16.696754,-0.3626,0.7459,-0.7574,-5.5419,-1.4449,-4.1845,-3.3991,-4.5886,1.6174,
16.747138,-0.3352,0.7618,-0.7398,-5.5419,-1.4449,-4.1845,-3.3991,-4.5886,1.6174,
16.751541,-0.2891,0.8221,-0.7813,-5.5419,-1.4449,-4.1845,-3.3991,-4.5886,1.6174,
16.754272,-0.3194,0.8443,-0.7130,-5.5419,-1.4449,-4.1845,-3.3991,-4.5886,1.6174,
16.755957,-0.3194,0.8443,-0.7130,-5.5419,-1.4449,-4.1845,-2.5720,-4.4658,0.2955,
16.756947,-0.3194,0.8443,-0.7130,-5.4213,-0.9299,-4.3952,-2.5720,-4.4658,0.2955,
16.803027,-0.3448,0.8809,-0.7178,-5.4213,-0.9299,-4.3952,-2.5720,-4.4658,0.2955,
16.808052,-0.2818,0.9474,-0.7095,-5.4213,-0.9299,-4.3952,-2.5720,-4.4658,0.2955,
16.810708,-0.1611,1.0094,-0.6219,-5.4213,-0.9299,-4.3952,-2.5720,-4.4658,0.2955,
16.813005,-0.1611,1.0094,-0.6219,-5.4213,-0.9299,-4.3952,-2.0153,-4.3304,-0.8766,
16.816090,-0.1611,1.0094,-0.6219,-3.7247,0.0133,-4.3234,-2.0153,-4.3304,-0.8766,
16.861990,-0.0837,1.0685,-0.5943,-3.7247,0.0133,-4.3234,-2.0153,-4.3304,-0.8766,
16.865910,0.0010,1.0941,-0.5357,-3.7247,0.0133,-4.3234,-2.0153,-4.3304,-0.8766,
16.868073,-0.0093,1.0731,-0.4122,-3.7247,0.0133,-4.3234,-2.0153,-4.3304,-0.8766,
16.870249,-0.0093,1.0731,-0.4122,-3.7247,0.0133,-4.3234,-1.6667,-3.1596,-1.5302,
16.872833,-0.0093,1.0731,-0.4122,-0.2403,1.0563,-3.4123,-1.6667,-3.1596,-1.5302,
16.919958,-0.0642,1.0433,-0.3238,-0.2403,1.0563,-3.4123,-1.6667,-3.1596,-1.5302,
16.922255,-0.0339,1.0448,-0.2979,-0.2403,1.0563,-3.4123,-1.6667,-3.1596,-1.5302,
16.923215,-0.0020,1.0594,-0.2271,-0.2403,1.0563,-3.4123,-1.6667,-3.1596,-1.5302,
16.924065,-0.0020,1.0594,-0.2271,-0.2403,1.0563,-3.4123,-1.1055,-2.1842,-1.5009,
16.925611,-0.0020,1.0594,-0.2271,0.7215,0.7228,-1.8007,-1.1055,-2.1842,-1.5009,
16.979453,-0.0034,0.9972,-0.1482,0.7215,0.7228,-1.8007,-1.1055,-2.1842,-1.5009,
16.983567,-0.0200,0.9430,-0.1250,0.7215,0.7228,-1.8007,-1.1055,-2.1842,-1.5009,
16.986615,-0.0125,0.9207,-0.1211,0.7215,0.7228,-1.8007,-1.1055,-2.1842,-1.5009,
16.988630,-0.0125,0.9207,-0.1211,0.7215,0.7228,-1.8007,-0.4046,-2.1091,-0.8574,
16.990646,-0.0125,0.9207,-0.1211,1.4755,-0.1632,-0.6977,-0.4046,-2.1091,-0.8574,
17.039862,0.0549,0.9281,-0.1206,1.4755,-0.1632,-0.6977,-0.4046,-2.1091,-0.8574,
17.044828,0.1309,0.9625,-0.0857,1.4755,-0.1632,-0.6977,-0.4046,-2.1091,-0.8574,
17.047422,0.1602,0.9215,-0.0283,1.4755,-0.1632,-0.6977,-0.4046,-2.1091,-0.8574,
17.049171,0.1602,0.9215,-0.0283,1.4755,-0.1632,-0.6977,0.0592,-2.4577,-0.0845,
17.051053,0.1602,0.9215,-0.0283,2.7893,-0.3085,-0.3789,0.0592,-2.4577,-0.0845,
17.096723,0.1602,0.9215,-0.0283,3.7630,-1.1300,-0.0379,0.0592,-2.4577,-0.0845,
17.100333,0.1843,0.8897,-0.0061,3.7630,-1.1300,-0.0379,0.0592,-2.4577,-0.0845,
17.101712,0.2520,0.8775,-0.0606,3.7630,-1.1300,-0.0379,0.0592,-2.4577,-0.0845,
17.103384,0.3072,0.8016,-0.0247,3.7630,-1.1300,-0.0379,0.0592,-2.4577,-0.0845,
17.105689,0.3072,0.8016,-0.0247,3.7630,-1.1300,-0.0379,0.1983,-2.6174,0.5567,
17.153251,0.3150,0.7833,0.0867,3.7630,-1.1300,-0.0379,0.1983,-2.6174,0.5567,
17.156932,0.3186,0.8299,-0.0146,3.7630,-1.1300,-0.0379,0.1983,-2.6174,0.5567,
17.158755,-0.0498,0.9261,0.1196,3.7630,-1.1300,-0.0379,0.1983,-2.6174,0.5567,
17.160176,-0.0498,0.9261,0.1196,3.7630,-1.1300,-0.0379,0.0246,-1.6294,0.7082,
17.161944,-0.0498,0.9261,0.1196,2.8196,-1.2524,0.7754,0.0246,-1.6294,0.7082,
17.212362,-0.4625,1.1742,0.3587,2.8196,-1.2524,0.7754,0.0246,-1.6294,0.7082,
17.216695,-0.1426,1.5700,0.2332,2.8196,-1.2524,0.7754,0.0246,-1.6294,0.7082,
17.218722,0.0808,1.6386,0.0181,2.8196,-1.2524,0.7754,0.0246,-1.6294,0.7082,
17.220262,0.0808,1.6386,0.0181,-1.0375,4.6683,1.9602,0.0246,-1.6294,0.7082,
17.226014,0.0808,1.6386,0.0181,-1.0375,4.6683,1.9602,-0.2841,0.2788,0.4578,
17.268937,-0.3824,1.1068,-0.1445,-1.0375,4.6683,1.9602,-0.2841,0.2788,0.4578,
17.270780,-0.4092,0.8350,-0.1485,-1.0375,4.6683,1.9602,-0.2841,0.2788,0.4578,
17.272015,0.0461,0.9266,-0.0505,-1.0375,4.6683,1.9602,-0.2841,0.2788,0.4578,
17.272878,0.0461,0.9266,-0.0505,-1.0375,4.6683,1.9602,0.1594,0.7595,1.0273,
17.273828,0.0461,0.9266,-0.0505,-2.3004,-0.2963,-1.0302,0.1594,0.7595,1.0273,
17.327585,0.2239,1.0416,0.1536,-2.3004,-0.2963,-1.0302,0.1594,0.7595,1.0273,
17.329265,0.1199,1.0726,0.2403,-2.3004,-0.2963,-1.0302,0.1594,0.7595,1.0273,
17.330134,0.0549,0.9549,0.1367,-2.3004,-0.2963,-1.0302,0.1594,0.7595,1.0273,
17.330812,0.0549,0.9549,0.1367,-2.3004,-0.2963,-1.0302,-0.0247,-0.2492,1.1106,
17.331936,0.0549,0.9549,0.1367,0.7990,0.3645,1.7867,-0.0247,-0.2492,1.1106,
17.387967,0.0647,0.9791,-0.0564,0.7990,0.3645,1.7867,-0.0247,-0.2492,1.1106,
17.390946,0.1431,1.0714,-0.1094,0.7990,0.3645,1.7867,-0.0247,-0.2492,1.1106,
17.393376,0.2688,1.0284,-0.0474,0.7990,0.3645,1.7867,-0.0247,-0.2492,1.1106,
17.395521,0.2688,1.0284,-0.0474,0.7990,0.3645,1.7867,0.1258,-0.7188,0.9025,
17.397289,0.2688,1.0284,-0.0474,0.5409,0.4297,-0.5299,0.1258,-0.7188,0.9025,
17.444037,0.2425,0.9679,0.0266,0.5409,0.4297,-0.5299,0.1258,-0.7188,0.9025,
17.446131,0.1572,0.9877,-0.0491,0.5409,0.4297,-0.5299,0.1258,-0.7188,0.9025,
17.447145,0.0933,1.0162,-0.0579,0.5409,0.4297,-0.5299,0.1258,-0.7188,0.9025,
17.447793,0.0933,1.0162,-0.0579,0.5409,0.4297,-0.5299,0.1399,-0.0658,0.5028,
17.448714,0.0933,1.0162,-0.0579,0.3077,0.1133,-0.0137,0.1399,-0.0658,0.5028,
17.504558,0.0503,1.0170,-0.0283,0.3077,0.1133,-0.0137,0.1399,-0.0658,0.5028,
17.507424,0.0999,1.0089,-0.0491,0.3077,0.1133,-0.0137,0.1399,-0.0658,0.5028,
17.508834,0.1565,0.9952,0.0054,0.3077,0.1133,-0.0137,0.1399,-0.0658,0.5028,
17.510720,0.1565,0.9952,0.0054,0.3077,0.1133,-0.0137,0.0794,-0.3270,0.4612,
17.512990,0.1565,0.9952,0.0054,-0.5436,0.3089,0.0839,0.0794,-0.3270,0.4612,
17.562323,0.1187,0.9864,0.0859,-0.5436,0.3089,0.0839,0.0794,-0.3270,0.4612,
17.565329,0.0725,0.9774,0.0869,-0.5436,0.3089,0.0839,0.0794,-0.3270,0.4612,
17.567321,0.1272,0.9625,0.0537,-0.5436,0.3089,0.0839,0.0794,-0.3270,0.4612,
17.568970,0.1272,0.9625,0.0537,-0.5436,0.3089,0.0839,0.1720,-0.4019,0.5172,
17.570760,0.1272,0.9625,0.0537,-0.7709,0.0533,1.1747,0.1720,-0.4019,0.5172,
17.620349,0.0962,0.9913,0.0479,-0.7709,0.0533,1.1747,0.1720,-0.4019,0.5172,
17.623080,0.1123,1.0089,-0.0042,-0.7709,0.0533,1.1747,0.1720,-0.4019,0.5172,
17.624533,0.2156,0.9903,-0.0227,-0.7709,0.0533,1.1747,0.1720,-0.4019,0.5172,
17.625989,0.2156,0.9903,-0.0227,-0.7709,0.0533,1.1747,0.3319,-0.5510,0.7231,
17.628058,0.2156,0.9903,-0.0227,-0.7932,0.3523,0.7380,0.3319,-0.5510,0.7231,
17.678397,0.1775,0.9855,-0.0479,-0.7932,0.3523,0.7380,0.3319,-0.5510,0.7231,
17.681046,0.1565,1.0013,-0.0667,-0.7932,0.3523,0.7380,0.3319,-0.5510,0.7231,
17.682920,0.2036,1.0099,-0.0828,-0.7932,0.3523,0.7380,0.3319,-0.5510,0.7231,
17.684854,0.2036,1.0099,-0.0828,-0.7932,0.3523,0.7380,0.4543,-0.5316,0.8408,
17.686859,0.2036,1.0099,-0.0828,-0.8410,0.5032,0.3409,0.4543,-0.5316,0.8408,
17.737512,0.2036,1.0099,-0.0828,-1.4376,0.6505,0.7300,0.4543,-0.5316,0.8408,
17.740714,0.2063,0.9938,-0.0679,-1.4376,0.6505,0.7300,0.4543,-0.5316,0.8408,
17.742320,0.1394,0.9898,-0.0586,-1.4376,0.6505,0.7300,0.4543,-0.5316,0.8408,
17.744267,0.1531,0.9989,-0.0701,-1.4376,0.6505,0.7300,0.4543,-0.5316,0.8408,
17.746327,0.1531,0.9989,-0.0701,-1.4376,0.6505,0.7300,0.5290,-0.6931,1.0108,
17.795538,0.2368,1.0379,-0.0784,-1.4376,0.6505,0.7300,0.5290,-0.6931,1.0108,
17.798625,0.2388,1.0726,-0.0989,-1.4376,0.6505,0.7300,0.5290,-0.6931,1.0108,
17.800400,0.1863,1.0528,-0.1152,-1.4376,0.6505,0.7300,0.5290,-0.6931,1.0108,
17.802029,0.1863,1.0528,-0.1152,-1.4376,0.6505,0.7300,0.7316,-0.8014,1.3014,
17.804725,0.1863,1.0528,-0.1152,-1.4814,1.5413,0.9391,0.7316,-0.8014,1.3014,
17.852888,0.1580,1.0729,-0.1660,-1.4814,1.5413,0.9391,0.7316,-0.8014,1.3014,
17.855920,0.1624,1.1053,-0.1272,-1.4814,1.5413,0.9391,0.7316,-0.8014,1.3014,
17.857996,0.1506,1.2391,-0.1072,-1.4814,1.5413,0.9391,0.7316,-0.8014,1.3014,
17.859607,0.1506,1.2391,-0.1072,-1.4814,1.5413,0.9391,1.0273,-1.0260,1.5761,
17.861383,0.1506,1.2391,-0.1072,-2.7096,2.8245,1.3145,1.0273,-1.0260,1.5761,
17.910108,0.0244,1.5426,-0.0254,-2.7096,2.8245,1.3145,1.0273,-1.0260,1.5761,
17.911622,-0.4519,1.7260,0.0879,-2.7096,2.8245,1.3145,1.0273,-1.0260,1.5761,
17.912544,-0.8812,1.7953,0.0732,-2.7096,2.8245,1.3145,1.0273,-1.0260,1.5761,
17.913445,-0.8812,1.7953,0.0732,-2.7096,2.8245,1.3145,1.5233,-1.1262,1.8536,
17.914500,-0.8812,1.7953,0.0732,-9.0272,8.8284,4.0062,1.5233,-1.1262,1.8536,
17.968785,-0.9146,1.6955,-0.0435,-9.0272,8.8284,4.0062,1.5233,-1.1262,1.8536,
17.970528,-0.1043,1.1578,-0.3306,-9.0272,8.8284,4.0062,1.5233,-1.1262,1.8536,
17.971360,0.9784,1.2470,-0.6768,-9.0272,8.8284,4.0062,1.5233,-1.1262,1.8536,
17.972143,0.9784,1.2470,-0.6768,-9.0272,8.8284,4.0062,1.6003,-2.6025,3.0951,
17.972964,0.9784,1.2470,-0.6768,-5.4130,6.8826,1.5432,1.6003,-2.6025,3.0951,
18.028542,1.3280,1.2572,-0.4595,-5.4130,6.8826,1.5432,1.6003,-2.6025,3.0951,
18.031813,0.8145,0.9520,-0.5066,-5.4130,6.8826,1.5432,1.6003,-2.6025,3.0951,
18.033707,0.5789,0.5980,-0.6881,-5.4130,6.8826,1.5432,1.6003,-2.6025,3.0951,
18.036057,0.5789,0.5980,-0.6881,-5.4130,6.8826,1.5432,1.6043,-1.1987,2.2152,
18.036973,0.5789,0.5980,-0.6881,3.1668,3.8144,0.4960,1.6043,-1.1987,2.2152,
18.087009,0.5604,0.5159,-0.6715,3.1668,3.8144,0.4960,1.6043,-1.1987,2.2152,
18.091449,0.3199,0.3233,-0.2952,3.1668,3.8144,0.4960,1.6043,-1.1987,2.2152,
18.093325,0.0701,0.1387,-0.0327,3.1668,3.8144,0.4960,1.6043,-1.1987,2.2152,
18.095256,0.0701,0.1387,-0.0327,3.1668,3.8144,0.4960,-0.9841,0.1299,0.1075,
18.097818,0.0701,0.1387,-0.0327,-2.6467,-2.4150,2.2408,-0.9841,0.1299,0.1075,
18.146016,-0.2403,0.1192,-0.0732,-2.6467,-2.4150,2.2408,-0.9841,0.1299,0.1075,
18.147453,-0.1489,0.2669,-0.2783,-2.6467,-2.4150,2.2408,-0.9841,0.1299,0.1075,
18.147946,0.0967,0.4546,-0.4322,-2.6467,-2.4150,2.2408,-0.9841,0.1299,0.1075,
