
time,gFx,gFy,gFz,ax,ay,az,wx,wy,wz,
0.054608,0.0000,0.0000,0.0000,0.0000,0.0000,-0.0000,0.0000,0.0000,0.0000,
0.059074,0.0000,0.0000,0.0000,0.0000,0.0000,-0.0000,-0.0110,-0.1044,-0.0059,
0.075931,-0.3264,0.8600,0.4634,0.0000,0.0000,-0.0000,-0.0110,-0.1044,-0.0059,
0.076837,-0.3264,0.8600,0.4634,0.0000,0.0000,-0.0000,-0.0110,-0.1044,-0.0059,
0.077348,-0.3264,0.8600,0.4634,0.0000,0.0000,-0.0000,-0.0110,-0.1044,-0.0059,
0.077840,-0.3264,0.8600,0.4634,0.0000,0.0000,-0.0000,-0.0110,-0.1044,-0.0059,
0.114154,-0.3264,0.8600,0.4634,-0.0258,-0.0062,0.0477,-0.0110,-0.1044,-0.0059,
0.115318,-0.3264,0.8600,0.4634,-0.0258,-0.0062,0.0477,0.0320,-0.0525,0.0008,
0.135158,-0.3262,0.8387,0.4546,-0.0258,-0.0062,0.0477,0.0320,-0.0525,0.0008,
0.135804,-0.3211,0.8331,0.4524,-0.0258,-0.0062,0.0477,0.0320,-0.0525,0.0008,
0.136222,-0.3155,0.8468,0.4397,-0.0258,-0.0062,0.0477,0.0320,-0.0525,0.0008,
0.171155,-0.3155,0.8468,0.4397,0.0071,-0.1506,-0.0468,0.0320,-0.0525,0.0008,
0.172116,-0.3155,0.8468,0.4397,0.0071,-0.1506,-0.0468,0.0647,-0.0421,0.0137,
0.192601,-0.3133,0.8639,0.4468,0.0071,-0.1506,-0.0468,0.0647,-0.0421,0.0137,
0.193502,-0.3130,0.8656,0.4532,0.0071,-0.1506,-0.0468,0.0647,-0.0421,0.0137,
0.194032,-0.3186,0.8541,0.4537,0.0071,-0.1506,-0.0468,0.0647,-0.0421,0.0137,
0.229619,-0.3186,0.8541,0.4537,0.0071,-0.1506,-0.0468,0.0385,-0.0503,0.0352,
0.230067,-0.3186,0.8541,0.4537,0.0263,0.0339,-0.0111,0.0385,-0.0503,0.0352,
0.249079,-0.3059,0.8543,0.4480,0.0263,0.0339,-0.0111,0.0385,-0.0503,0.0352,
0.249938,-0.3030,0.8702,0.4519,0.0263,0.0339,-0.0111,0.0385,-0.0503,0.0352,
0.250537,-0.3169,0.8714,0.4476,0.0263,0.0339,-0.0111,0.0385,-0.0503,0.0352,
0.288066,-0.3169,0.8714,0.4476,0.0395,0.0465,-0.0218,0.0385,-0.0503,0.0352,
0.289008,-0.3169,0.8714,0.4476,0.0395,0.0465,-0.0218,0.0267,-0.0515,0.0528,
0.309244,-0.3330,0.8431,0.4493,0.0395,0.0465,-0.0218,0.0267,-0.0515,0.0528,
0.310235,-0.3294,0.8136,0.4429,0.0395,0.0465,-0.0218,0.0267,-0.0515,0.0528,
0.310897,-0.3352,0.7930,0.4246,0.0395,0.0465,-0.0218,0.0267,-0.0515,0.0528,
0.346121,-0.3352,0.7930,0.4246,0.0395,0.0465,-0.0218,0.1869,-0.1358,0.0104,
0.346955,-0.3352,0.7930,0.4246,-0.1958,-0.4008,-0.0452,0.1869,-0.1358,0.0104,
0.365668,-0.3374,0.7537,0.4002,-0.1958,-0.4008,-0.0452,0.1869,-0.1358,0.0104,
0.366340,-0.3479,0.6981,0.3716,-0.1958,-0.4008,-0.0452,0.1869,-0.1358,0.0104,
0.367129,-0.3628,0.6175,0.3479,-0.1958,-0.4008,-0.0452,0.1869,-0.1358,0.0104,
0.404998,-0.3628,0.6175,0.3479,-0.3603,-1.5155,-0.4138,0.1869,-0.1358,0.0104,
0.406001,-0.3628,0.6175,0.3479,-0.3603,-1.5155,-0.4138,0.5296,-0.3136,-0.0368,
0.425576,-0.3374,0.5689,0.3328,-0.3603,-1.5155,-0.4138,0.5296,-0.3136,-0.0368,
0.426403,-0.3028,0.5606,0.2886,-0.3603,-1.5155,-0.4138,0.5296,-0.3136,-0.0368,
0.427063,-0.2801,0.5640,0.2615,-0.3603,-1.5155,-0.4138,0.5296,-0.3136,-0.0368,
0.464992,-0.2801,0.5640,0.2615,-0.3603,-1.5155,-0.4138,0.9438,-0.4241,-0.0285,
0.466105,-0.2801,0.5640,0.2615,-0.0216,-2.5828,-0.7005,0.9438,-0.4241,-0.0285,
0.485382,-0.2595,0.5767,0.2451,-0.0216,-2.5828,-0.7005,0.9438,-0.4241,-0.0285,
0.488166,-0.2373,0.6163,0.2432,-0.0216,-2.5828,-0.7005,0.9438,-0.4241,-0.0285,
0.490357,-0.2100,0.6658,0.2356,-0.0216,-2.5828,-0.7005,0.9438,-0.4241,-0.0285,
0.524020,-0.2100,0.6658,0.2356,-0.0216,-2.5828,-0.7005,1.2523,-0.4638,0.1442,
0.527096,-0.2100,0.6658,0.2356,0.4585,-2.0534,-0.6186,1.2523,-0.4638,0.1442,
0.541846,-0.1922,0.7135,0.2254,0.4585,-2.0534,-0.6186,1.2523,-0.4638,0.1442,
0.543522,-0.1636,0.7628,0.2114,0.4585,-2.0534,-0.6186,1.2523,-0.4638,0.1442,
0.544877,-0.1531,0.8258,0.2036,0.4585,-2.0534,-0.6186,1.2523,-0.4638,0.1442,
0.579657,-0.1531,0.8258,0.2036,0.4585,-2.0534,-0.6186,1.4355,-0.4306,0.3604,
0.581469,-0.1531,0.8258,0.2036,0.7775,-0.7966,-0.2393,1.4355,-0.4306,0.3604,
0.599459,-0.1509,0.8839,0.2049,0.7775,-0.7966,-0.2393,1.4355,-0.4306,0.3604,
0.601294,-0.1538,0.9154,0.1997,0.7775,-0.7966,-0.2393,1.4355,-0.4306,0.3604,
0.602782,-0.1587,0.9408,0.1904,0.7775,-0.7966,-0.2393,1.4355,-0.4306,0.3604,
0.638751,-0.1587,0.9408,0.1904,0.7775,-0.7966,-0.2393,1.4872,-0.3555,0.5555,
0.641313,-0.1587,0.9408,0.1904,0.5550,0.3524,0.2701,1.4872,-0.3555,0.5555,
0.658195,-0.1475,0.9835,0.1812,0.5550,0.3524,0.2701,1.4872,-0.3555,0.5555,
0.661012,-0.1189,1.0282,0.1680,0.5550,0.3524,0.2701,1.4872,-0.3555,0.5555,
0.663046,-0.0999,1.0506,0.1463,0.5550,0.3524,0.2701,1.4872,-0.3555,0.5555,
0.696981,-0.0999,1.0506,0.1463,0.5550,0.3524,0.2701,1.3317,-0.1975,0.6402,
0.697865,-0.0999,1.0506,0.1463,0.4876,1.1271,0.5476,1.3317,-0.1975,0.6402,
0.717693,-0.1016,1.0594,0.1331,0.4876,1.1271,0.5476,1.3317,-0.1975,0.6402,
0.719195,-0.1157,1.0882,0.1316,0.4876,1.1271,0.5476,1.3317,-0.1975,0.6402,
0.720179,-0.1216,1.1381,0.1328,0.4876,1.1271,0.5476,1.3317,-0.1975,0.6402,
0.755852,-0.1216,1.1381,0.1328,0.4876,1.1271,0.5476,1.0554,-0.1069,0.6889,
0.756629,-0.1216,1.1381,0.1328,0.1962,1.6128,0.7093,1.0554,-0.1069,0.6889,
0.774394,-0.1106,1.1622,0.1194,0.1962,1.6128,0.7093,1.0554,-0.1069,0.6889,
0.775239,-0.0913,1.1715,0.1038,0.1962,1.6128,0.7093,1.0554,-0.1069,0.6889,
0.775697,-0.0757,1.1903,0.0989,0.1962,1.6128,0.7093,1.0554,-0.1069,0.6889,
0.813351,-0.0757,1.1903,0.0989,0.1962,1.6128,0.7093,0.7931,-0.0826,0.7406,
0.814087,-0.0757,1.1903,0.0989,-0.0009,2.1598,0.8179,0.7931,-0.0826,0.7406,
0.832571,-0.0779,1.2020,0.0894,-0.0009,2.1598,0.8179,0.7931,-0.0826,0.7406,
0.833272,-0.1218,1.1666,0.0977,-0.0009,2.1598,0.8179,0.7931,-0.0826,0.7406,
0.833593,-0.1250,1.0983,0.1055,-0.0009,2.1598,0.8179,0.7931,-0.0826,0.7406,
0.872552,-0.1250,1.0983,0.1055,-0.0009,2.1598,0.8179,0.5923,-0.2950,0.7744,
0.873397,-0.1250,1.0983,0.1055,-0.5403,1.8098,0.9647,0.5923,-0.2950,0.7744,
0.891047,-0.1052,1.0514,0.0798,-0.5403,1.8098,0.9647,0.5923,-0.2950,0.7744,
0.892349,-0.0918,0.9952,0.0525,-0.5403,1.8098,0.9647,0.5923,-0.2950,0.7744,
0.893066,-0.0725,0.9217,0.0439,-0.5403,1.8098,0.9647,0.5923,-0.2950,0.7744,
0.930428,-0.0725,0.9217,0.0439,-0.5403,1.8098,0.9647,0.4787,-0.4076,0.8245,
0.933239,-0.0725,0.9217,0.0439,-0.7635,0.1602,0.7913,0.4787,-0.4076,0.8245,
0.949536,-0.0515,1.0807,0.0483,-0.7635,0.1602,0.7913,0.4787,-0.4076,0.8245,
0.951059,-0.3308,2.0800,0.1065,-0.7635,0.1602,0.7913,0.4787,-0.4076,0.8245,
0.952257,-0.0405,2.2861,-0.2102,-0.7635,0.1602,0.7913,0.4787,-0.4076,0.8245,
0.988362,-0.0405,2.2861,-0.2102,-0.7635,0.1602,0.7913,0.6434,0.0420,0.6162,
0.990386,-0.0405,2.2861,-0.2102,-1.5140,7.7868,0.3681,0.6434,0.0420,0.6162,
1.008216,-0.1946,1.1002,-0.2132,-1.5140,7.7868,0.3681,0.6434,0.0420,0.6162,
1.010880,-0.1206,0.5587,-0.0803,-1.5140,7.7868,0.3681,0.6434,0.0420,0.6162,
1.012663,0.1851,0.4222,-0.0173,-1.5140,7.7868,0.3681,0.6434,0.0420,0.6162,
1.047339,0.1851,0.4222,-0.0173,-1.5140,7.7868,0.3681,0.6404,0.4005,0.8717,
1.050321,0.1851,0.4222,-0.0173,-1.0232,-2.9852,-0.0971,0.6404,0.4005,0.8717,
1.069667,0.2617,0.7100,-0.0896,-1.0232,-2.9852,-0.0971,0.6404,0.4005,0.8717,
1.073512,-0.0002,1.1754,-0.1362,-1.0232,-2.9852,-0.0971,0.6404,0.4005,0.8717,
1.076266,-0.1311,1.3578,-0.2261,-1.0232,-2.9852,-0.0971,0.6404,0.4005,0.8717,
1.106415,-0.1311,1.3578,-0.2261,-1.0232,-2.9852,-0.0971,0.5206,-0.0658,0.8088,
1.108856,-0.1311,1.3578,-0.2261,-0.5942,0.8364,-0.2443,0.5206,-0.0658,0.8088,
1.124343,0.0991,1.1354,-0.3255,-0.5942,0.8364,-0.2443,0.5206,-0.0658,0.8088,
1.125745,0.2805,1.0121,-0.2652,-0.5942,0.8364,-0.2443,0.5206,-0.0658,0.8088,
1.126524,0.3604,0.9256,-0.2532,-0.5942,0.8364,-0.2443,0.5206,-0.0658,0.8088,
1.163479,0.3604,0.9256,-0.2532,-0.5942,0.8364,-0.2443,0.2671,-0.0619,0.5164,
1.166367,0.3604,0.9256,-0.2532,1.0536,0.3192,-1.3001,0.2671,-0.0619,0.5164,
1.189709,0.3040,0.9312,-0.2940,1.0536,0.3192,-1.3001,0.2671,-0.0619,0.5164,
1.191778,0.2527,0.9769,-0.2827,1.0536,0.3192,-1.3001,0.2671,-0.0619,0.5164,
1.196555,0.2605,0.9947,-0.2447,1.0536,0.3192,-1.3001,0.2671,-0.0619,0.5164,
1.221941,0.2605,0.9947,-0.2447,1.0536,0.3192,-1.3001,0.0399,0.0224,0.1356,
1.223412,0.2605,0.9947,-0.2447,1.1684,-0.2117,-1.1486,0.0399,0.0224,0.1356,
1.240398,0.2317,1.0121,-0.1939,1.1684,-0.2117,-1.1486,0.0399,0.0224,0.1356,
1.241599,0.1260,1.0594,-0.1414,1.1684,-0.2117,-1.1486,0.0399,0.0224,0.1356,
1.242310,-0.0017,1.0900,-0.1321,1.1684,-0.2117,-1.1486,0.0399,0.0224,0.1356,
1.279742,-0.0017,1.0900,-0.1321,1.1684,-0.2117,-1.1486,0.2763,-0.0824,0.0234,
1.282021,-0.0017,1.0900,-0.1321,-0.3281,0.6311,0.1634,0.2763,-0.0824,0.0234,
1.302908,-0.0547,1.1085,-0.0842,-0.3281,0.6311,0.1634,0.2763,-0.0824,0.0234,
1.305644,-0.1028,1.2472,-0.0630,-0.3281,0.6311,0.1634,0.2763,-0.0824,0.0234,
1.307686,-0.1106,1.5077,-0.3235,-0.3281,0.6311,0.1634,0.2763,-0.0824,0.0234,
1.339157,-0.1106,1.5077,-0.3235,-0.3281,0.6311,0.1634,0.4834,-0.2514,0.4590,
1.341769,-0.1106,1.5077,-0.3235,-2.4852,2.8878,0.4285,0.4834,-0.2514,0.4590,
1.359080,-0.0591,1.7067,-0.4466,-2.4852,2.8878,0.4285,0.4834,-0.2514,0.4590,
1.361848,-0.1616,1.8771,-0.4668,-2.4852,2.8878,0.4285,0.4834,-0.2514,0.4590,
1.363616,-0.4546,1.5119,-0.2432,-2.4852,2.8878,0.4285,0.4834,-0.2514,0.4590,
1.397466,-0.4546,1.5119,-0.2432,-2.4852,2.8878,0.4285,0.2706,0.0898,0.8410,
1.400480,-0.4546,1.5119,-0.2432,-4.1216,6.7430,-1.6000,0.2706,0.0898,0.8410,
1.419803,-0.2603,0.9110,-0.2542,-4.1216,6.7430,-1.6000,0.2706,0.0898,0.8410,
1.424242,0.0806,0.8170,-0.2932,-4.1216,6.7430,-1.6000,0.2706,0.0898,0.8410,
1.426778,0.0359,0.9081,-0.1756,-4.1216,6.7430,-1.6000,0.2706,0.0898,0.8410,
1.455181,0.0359,0.9081,-0.1756,-4.1216,6.7430,-1.6000,-0.1145,-0.1700,0.9371,
1.457625,0.0359,0.9081,-0.1756,-2.7859,-1.1400,-0.2177,-0.1145,-0.1700,0.9371,
1.478959,-0.1807,0.8331,-0.1868,-2.7859,-1.1400,-0.2177,-0.1145,-0.1700,0.9371,
1.482374,-0.3907,0.7166,-0.1077,-2.7859,-1.1400,-0.2177,-0.1145,-0.1700,0.9371,
1.485326,-0.6299,0.5906,0.1013,-2.7859,-1.1400,-0.2177,-0.1145,-0.1700,0.9371,
1.512463,-0.6299,0.5906,0.1013,-2.7859,-1.1400,-0.2177,-0.8102,-2.4897,-0.0478,
1.514609,-0.6299,0.5906,0.1013,-5.6842,-2.7517,1.3163,-0.8102,-2.4897,-0.0478,
1.533844,-0.6199,0.5762,0.0134,-5.6842,-2.7517,1.3163,-0.8102,-2.4897,-0.0478,
1.541491,-0.4541,0.5875,-0.1521,-5.6842,-2.7517,1.3163,-0.8102,-2.4897,-0.0478,
1.543189,-0.4068,0.5875,-0.1738,-5.6842,-2.7517,1.3163,-0.8102,-2.4897,-0.0478,
1.571757,-0.4068,0.5875,-0.1738,-5.6842,-2.7517,1.3163,-1.3170,-3.8116,-1.1250,
1.575194,-0.4068,0.5875,-0.1738,-5.3589,-4.0790,0.4348,-1.3170,-3.8116,-1.1250,
1.591485,-0.4183,0.6006,-0.2742,-5.3589,-4.0790,0.4348,-1.3170,-3.8116,-1.1250,
1.595875,-0.3616,0.6932,-0.3711,-5.3589,-4.0790,0.4348,-1.3170,-3.8116,-1.1250,
1.600465,-0.2412,0.8155,-0.4151,-5.3589,-4.0790,0.4348,-1.3170,-3.8116,-1.1250,
1.631377,-0.2412,0.8155,-0.4151,-5.3589,-4.0790,0.4348,-1.6828,-3.4891,-2.0073,
1.641593,-0.2412,0.8155,-0.4151,-2.4079,-2.8772,-2.8942,-1.6828,-3.4891,-2.0073,
1.648824,-0.1658,0.9139,-0.3853,-2.4079,-2.8772,-2.8942,-1.6828,-3.4891,-2.0073,
1.651729,-0.1511,0.9806,-0.3799,-2.4079,-2.8772,-2.8942,-1.6828,-3.4891,-2.0073,
1.652708,-0.0859,0.9999,-0.4676,-2.4079,-2.8772,-2.8942,-1.6828,-3.4891,-2.0073,
1.687479,-0.0859,0.9999,-0.4676,-2.4079,-2.8772,-2.8942,-1.4238,-3.1612,-2.3156,
1.689045,-0.0859,0.9999,-0.4676,0.8940,-0.0964,-4.3958,-1.4238,-3.1612,-2.3156,
1.706851,-0.0825,1.0038,-0.4251,0.8940,-0.0964,-4.3958,-1.4238,-3.1612,-2.3156,
1.707802,-0.0452,1.0382,-0.4534,0.8940,-0.0964,-4.3958,-1.4238,-3.1612,-2.3156,
1.708586,0.1299,0.9620,-0.6063,0.8940,-0.0964,-4.3958,-1.4238,-3.1612,-2.3156,
1.746856,0.1299,0.9620,-0.6063,0.8940,-0.0964,-4.3958,-0.9035,-2.8055,-0.9985,
1.748073,0.1299,0.9620,-0.6063,2.5442,0.4314,-5.9197,-0.9035,-2.8055,-0.9985,
1.765154,0.4273,0.9400,-0.5906,2.5442,0.4314,-5.9197,-0.9035,-2.8055,-0.9985,
1.766596,0.7325,0.9776,-0.5911,2.5442,0.4314,-5.9197,-0.9035,-2.8055,-0.9985,
1.768415,0.9647,0.8324,-0.6187,2.5442,0.4314,-5.9197,-0.9035,-2.8055,-0.9985,
1.809409,0.9647,0.8324,-0.6187,8.5589,-0.5178,-6.8229,-0.9035,-2.8055,-0.9985,
1.812004,0.9647,0.8324,-0.6187,8.5589,-0.5178,-6.8229,0.0246,-0.7984,1.0497,
1.834724,1.0672,0.6815,-0.8275,8.5589,-0.5178,-6.8229,0.0246,-0.7984,1.0497,
1.836156,1.0555,1.6164,-1.1073,8.5589,-0.5178,-6.8229,0.0246,-0.7984,1.0497,
1.837035,-0.5232,2.9720,1.5893,8.5589,-0.5178,-6.8229,0.0246,-0.7984,1.0497,
1.862276,-0.5232,2.9720,1.5893,8.5589,-0.5178,-6.8229,0.8118,2.2525,1.3224,
1.863671,-0.5232,2.9720,1.5893,5.9932,7.3471,-1.4098,0.8118,2.2525,1.3224,
1.882482,-1.7426,1.6303,0.7818,5.9932,7.3471,-1.4098,0.8118,2.2525,1.3224,
1.885156,-0.8372,0.0061,-1.1547,5.9932,7.3471,-1.4098,0.8118,2.2525,1.3224,
1.887238,0.2754,0.7415,-0.3587,5.9932,7.3471,-1.4098,0.8118,2.2525,1.3224,
1.923861,0.2754,0.7415,-0.3587,-7.8776,-2.0512,-2.2346,0.8118,2.2525,1.3224,
1.929393,0.2754,0.7415,-0.3587,-7.8776,-2.0512,-2.2346,0.6113,-1.2659,2.3598,
1.942017,0.8136,1.2115,-0.0667,-7.8776,-2.0512,-2.2346,0.6113,-1.2659,2.3598,
1.945279,0.8140,1.1031,-0.0759,-7.8776,-2.0512,-2.2346,0.6113,-1.2659,2.3598,
1.948035,0.4776,0.9303,-0.0857,-7.8776,-2.0512,-2.2346,0.6113,-1.2659,2.3598,
1.979418,0.4776,0.9303,-0.0857,-7.8776,-2.0512,-2.2346,0.6318,0.1819,0.9391,
1.981105,0.4776,0.9303,-0.0857,5.8084,0.8030,-0.2338,0.6318,0.1819,0.9391,
1.999345,0.0579,1.0040,-0.1179,5.8084,0.8030,-0.2338,0.6318,0.1819,0.9391,
2.001221,0.0835,1.0868,-0.1377,5.8084,0.8030,-0.2338,0.6318,0.1819,0.9391,
2.002524,0.1279,1.0367,-0.1116,5.8084,0.8030,-0.2338,0.6318,0.1819,0.9391,
2.039435,0.1279,1.0367,-0.1116,-0.6127,0.4805,-0.4175,0.6318,0.1819,0.9391,
2.042379,0.1279,1.0367,-0.1116,-0.6127,0.4805,-0.4175,0.4541,0.0133,0.7756,
2.067596,0.1519,0.9449,-0.1065,-0.6127,0.4805,-0.4175,0.4541,0.0133,0.7756,
2.070164,0.1453,0.9942,-0.0960,-0.6127,0.4805,-0.4175,0.4541,0.0133,0.7756,
2.072270,0.1741,1.0118,-0.1260,-0.6127,0.4805,-0.4175,0.4541,0.0133,0.7756,
2.096524,0.1741,1.0118,-0.1260,-0.3185,-0.0034,-0.0011,0.4541,0.0133,0.7756,
2.098330,0.1741,1.0118,-0.1260,-0.3185,-0.0034,-0.0011,0.4630,-0.2783,0.6899,
2.116118,0.1948,1.0113,-0.1060,-0.3185,-0.0034,-0.0011,0.4630,-0.2783,0.6899,
2.118360,0.1917,0.9703,-0.0837,-0.3185,-0.0034,-0.0011,0.4630,-0.2783,0.6899,
2.119686,0.1760,1.0089,-0.0952,-0.3185,-0.0034,-0.0011,0.4630,-0.2783,0.6899,
2.155859,0.1760,1.0089,-0.0952,-0.3185,-0.0034,-0.0011,0.5080,-0.1281,0.6539,
2.158873,0.1760,1.0089,-0.0952,-0.3667,0.2332,0.4280,0.5080,-0.1281,0.6539,
2.175820,0.0762,1.0509,-0.0964,-0.3667,0.2332,0.4280,0.5080,-0.1281,0.6539,
2.177327,0.0767,1.0367,-0.1189,-0.3667,0.2332,0.4280,0.5080,-0.1281,0.6539,
2.178152,0.2019,0.9911,-0.1340,-0.3667,0.2332,0.4280,0.5080,-0.1281,0.6539,
2.212835,0.2019,0.9911,-0.1340,-0.3667,0.2332,0.4280,0.6009,-0.3091,0.8206,
2.214815,0.2019,0.9911,-0.1340,-1.4314,0.6729,0.5772,0.6009,-0.3091,0.8206,
2.232387,0.2945,0.9630,-0.1414,-1.4314,0.6729,0.5772,0.6009,-0.3091,0.8206,
2.233641,0.3313,0.9251,-0.1963,-1.4314,0.6729,0.5772,0.6009,-0.3091,0.8206,
2.235460,0.2913,0.9354,-0.2034,-1.4314,0.6729,0.5772,0.6009,-0.3091,0.8206,
2.271684,0.2913,0.9354,-0.2034,-1.4314,0.6729,0.5772,0.5050,-0.4551,0.7157,
2.275832,0.2913,0.9354,-0.2034,0.0661,0.0101,0.2910,0.5050,-0.4551,0.7157,
2.292206,0.2024,0.9828,-0.2471,0.0661,0.0101,0.2910,0.5050,-0.4551,0.7157,
2.294436,0.1812,1.0167,-0.2625,0.0661,0.0101,0.2910,0.5050,-0.4551,0.7157,
2.296709,0.1506,1.0096,-0.2339,0.0661,0.0101,0.2910,0.5050,-0.4551,0.7157,
2.330847,0.1506,1.0096,-0.2339,0.0661,0.0101,0.2910,0.7251,-0.1959,0.8359,
2.333947,0.1506,1.0096,-0.2339,-1.5625,0.8437,0.0482,0.7251,-0.1959,0.8359,
2.350918,0.0667,1.0436,-0.1770,-1.5625,0.8437,0.0482,0.7251,-0.1959,0.8359,
2.353793,-0.0056,1.1217,-0.1592,-1.5625,0.8437,0.0482,0.7251,-0.1959,0.8359,
2.359193,-0.0166,1.1862,-0.1211,-1.5625,0.8437,0.0482,0.7251,-0.1959,0.8359,
2.389513,-0.0166,1.1862,-0.1211,-1.5625,0.8437,0.0482,1.2700,-0.2561,1.3201,
2.392990,-0.0166,1.1862,-0.1211,-3.7015,2.3911,1.6439,1.2700,-0.2561,1.3201,
2.410093,-0.0569,1.2164,-0.0510,-3.7015,2.3911,1.6439,1.2700,-0.2561,1.3201,
2.413486,-0.1731,1.2770,-0.0186,-3.7015,2.3911,1.6439,1.2700,-0.2561,1.3201,
2.416452,-0.3514,1.4967,0.1262,-3.7015,2.3911,1.6439,1.2700,-0.2561,1.3201,
2.447419,-0.3514,1.4967,0.1262,-3.7015,2.3911,1.6439,1.8841,-1.1592,1.8552,
2.450802,-0.3514,1.4967,0.1262,-6.2206,5.2121,4.3948,1.8841,-1.1592,1.8552,
2.467698,-0.8275,2.0095,0.2705,-6.2206,5.2121,4.3948,1.8841,-1.1592,1.8552,
2.470650,-1.2868,2.0632,0.2591,-6.2206,5.2121,4.3948,1.8841,-1.1592,1.8552,
2.472784,-0.7186,1.5627,0.0606,-6.2206,5.2121,4.3948,1.8841,-1.1592,1.8552,
2.505665,-0.7186,1.5627,0.0606,-13.9535,11.8748,7.5100,1.8841,-1.1592,1.8552,
2.508649,-0.7186,1.5627,0.0606,-13.9535,11.8748,7.5100,2.1863,-2.3457,3.3985,
2.530672,0.3511,1.5002,-0.4566,-13.9535,11.8748,7.5100,2.1863,-2.3457,3.3985,
2.532589,1.1752,1.6230,-0.4568,-13.9535,11.8748,7.5100,2.1863,-2.3457,3.3985,
2.533933,0.8932,1.2789,-0.4600,-13.9535,11.8748,7.5100,2.1863,-2.3457,3.3985,
2.562518,0.8932,1.2789,-0.4600,-13.9535,11.8748,7.5100,1.2258,-1.2343,1.8815,
2.564630,0.8932,1.2789,-0.4600,2.9011,8.6032,1.8337,1.2258,-1.2343,1.8815,
2.587337,0.4686,0.7835,-0.5904,2.9011,8.6032,1.8337,1.2258,-1.2343,1.8815,
2.589292,0.5318,0.6903,-0.8607,2.9011,8.6032,1.8337,1.2258,-1.2343,1.8815,
2.590861,0.3592,0.4415,-0.6326,2.9011,8.6032,1.8337,1.2258,-1.2343,1.8815,
2.622121,0.3592,0.4415,-0.6326,-0.5268,-0.1644,-1.1014,1.2258,-1.2343,1.8815,
2.624634,0.3592,0.4415,-0.6326,-0.5268,-0.1644,-1.1014,-1.6127,0.2366,-0.2749,
2.647748,0.1550,0.1524,-0.1763,-0.5268,-0.1644,-1.1014,-1.6127,0.2366,-0.2749,
2.649551,0.1438,0.0208,-0.1077,-0.5268,-0.1644,-1.1014,-1.6127,0.2366,-0.2749,
2.651096,0.2515,0.1116,-0.1731,-0.5268,-0.1644,-1.1014,-1.6127,0.2366,-0.2749,
2.678823,0.2515,0.1116,-0.1731,-0.5268,-0.1644,-1.1014,-2.8756,0.2682,-2.5259,
2.681498,0.2515,0.1116,-0.1731,-2.1361,-6.8542,2.8724,-2.8756,0.2682,-2.5259,
2.698448,0.1384,0.3145,-0.3186,-2.1361,-6.8542,2.8724,-2.8756,0.2682,-2.5259,
2.699845,0.0310,0.4468,-0.3316,-2.1361,-6.8542,2.8724,-2.8756,0.2682,-2.5259,
2.700445,0.1333,0.4974,-0.3323,-2.1361,-6.8542,2.8724,-2.8756,0.2682,-2.5259,
2.743769,0.1333,0.4974,-0.3323,-0.8840,-4.9993,-0.6378,-2.8756,0.2682,-2.5259,
2.745702,0.1333,0.4974,-0.3323,-0.8840,-4.9993,-0.6378,-3.8359,-0.6768,-3.8193,
2.758411,0.2288,0.5670,-0.4214,-0.8840,-4.9993,-0.6378,-3.8359,-0.6768,-3.8193,
2.760057,0.1780,0.6705,-0.4458,-0.8840,-4.9993,-0.6378,-3.8359,-0.6768,-3.8193,
2.760812,0.2932,0.7694,-0.3934,-0.8840,-4.9993,-0.6378,-3.8359,-0.6768,-3.8193,
2.796361,0.2932,0.7694,-0.3934,-0.8840,-4.9993,-0.6378,-4.5518,-0.6540,-4.0405,
2.797853,0.2932,0.7694,-0.3934,2.6435,-3.0214,-3.9506,-4.5518,-0.6540,-4.0405,
2.815202,0.4187,0.9884,-0.3514,2.6435,-3.0214,-3.9506,-4.5518,-0.6540,-4.0405,
2.817072,0.4598,1.3043,-0.5113,2.6435,-3.0214,-3.9506,-4.5518,-0.6540,-4.0405,
2.818390,0.6453,1.4616,-0.8021,2.6435,-3.0214,-3.9506,-4.5518,-0.6540,-4.0405,
2.854514,0.6453,1.4616,-0.8021,2.6435,-3.0214,-3.9506,-4.4909,-0.0051,-3.9664,
2.858086,0.6453,1.4616,-0.8021,7.3545,3.2367,-7.5588,-4.4909,-0.0051,-3.9664,
2.873598,0.6512,1.4884,-0.7909,7.3545,3.2367,-7.5588,-4.4909,-0.0051,-3.9664,
2.876042,0.6551,1.3837,-0.7576,7.3545,3.2367,-7.5588,-4.4909,-0.0051,-3.9664,
2.877543,0.7567,1.2011,-0.6248,7.3545,3.2367,-7.5588,-4.4909,-0.0051,-3.9664,
2.912549,0.7567,1.2011,-0.6248,7.3545,3.2367,-7.5588,-2.1953,1.0132,-1.0997,
2.914551,0.7567,1.2011,-0.6248,9.6503,4.6924,-9.9669,-2.1953,1.0132,-1.0997,
2.932910,0.5960,0.9662,-0.4690,9.6503,4.6924,-9.9669,-2.1953,1.0132,-1.0997,
2.935826,0.7056,0.7276,-0.8077,9.6503,4.6924,-9.9669,-2.1953,1.0132,-1.0997,
2.938922,0.6180,0.7396,-0.7418,9.6503,4.6924,-9.9669,-2.1953,1.0132,-1.0997,
2.972047,0.6180,0.7396,-0.7418,8.6943,-0.9531,-8.5564,-2.1953,1.0132,-1.0997,
2.976104,0.6180,0.7396,-0.7418,8.6943,-0.9531,-8.5564,0.5320,2.7785,1.4404,
2.997546,0.2793,0.9857,-1.0370,8.6943,-0.9531,-8.5564,0.5320,2.7785,1.4404,
2.999025,-0.9793,1.5233,0.6658,8.6943,-0.9531,-8.5564,0.5320,2.7785,1.4404,
3.000564,-2.2471,2.4392,1.5243,8.6943,-0.9531,-8.5564,0.5320,2.7785,1.4404,
3.029952,-2.2471,2.4392,1.5243,8.6943,-0.9531,-8.5564,1.1651,1.6630,1.7667,
3.032090,-2.2471,2.4392,1.5243,-7.8287,6.8131,2.5759,1.1651,1.6630,1.7667,
3.048714,-0.2266,2.1667,-1.3417,-7.8287,6.8131,2.5759,1.1651,1.6630,1.7667,
3.050108,0.2451,0.8138,-0.4190,-7.8287,6.8131,2.5759,1.1651,1.6630,1.7667,
3.050803,-0.2300,0.3489,0.0039,-7.8287,6.8131,2.5759,1.1651,1.6630,1.7667,
3.088904,-0.2300,0.3489,0.0039,-0.1921,1.2891,-6.2637,1.1651,1.6630,1.7667,
3.090694,-0.2300,0.3489,0.0039,-0.1921,1.2891,-6.2637,1.0529,-0.7404,2.2993,
3.106960,0.3013,0.6517,0.1367,-0.1921,1.2891,-6.2637,1.0529,-0.7404,2.2993,
3.108367,0.7266,1.0873,-0.1287,-0.1921,1.2891,-6.2637,1.0529,-0.7404,2.2993,
3.109334,0.6910,1.1927,-0.3045,-0.1921,1.2891,-6.2637,1.0529,-0.7404,2.2993,
3.146523,0.6910,1.1927,-0.3045,5.5381,-0.0330,-1.2170,1.0529,-0.7404,2.2993,
3.148031,0.6910,1.1927,-0.3045,5.5381,-0.0330,-1.2170,0.4567,-0.0877,0.8367,
3.166011,0.1487,1.0226,-0.1089,5.5381,-0.0330,-1.2170,0.4567,-0.0877,0.8367,
3.167718,-0.1165,1.0089,-0.0559,5.5381,-0.0330,-1.2170,0.4567,-0.0877,0.8367,
3.168396,-0.0923,1.0687,0.0200,5.5381,-0.0330,-1.2170,0.4567,-0.0877,0.8367,
3.204812,-0.0923,1.0687,0.0200,-0.6012,0.5134,-0.5015,0.4567,-0.0877,0.8367,
3.207925,-0.0923,1.0687,0.0200,-0.6012,0.5134,-0.5015,0.3759,-0.0269,0.6046,
3.224871,0.0593,1.0553,0.1189,-0.6012,0.5134,-0.5015,0.3759,-0.0269,0.6046,
3.226490,0.0398,0.9930,0.1362,-0.6012,0.5134,-0.5015,0.3759,-0.0269,0.6046,
3.227354,-0.0427,0.9859,0.1570,-0.6012,0.5134,-0.5015,0.3759,-0.0269,0.6046,
3.262428,-0.0427,0.9859,0.1570,-0.6012,0.5134,-0.5015,0.6168,-0.3897,0.7779,
3.263822,-0.0427,0.9859,0.1570,-0.6408,0.3257,1.6479,0.6168,-0.3897,0.7779,
3.282186,-0.0706,0.9510,0.1316,-0.6408,0.3257,1.6479,0.6168,-0.3897,0.7779,
3.283357,0.0386,0.9549,0.0603,-0.6408,0.3257,1.6479,0.6168,-0.3897,0.7779,
3.284298,0.1377,0.9908,0.0032,-0.6408,0.3257,1.6479,0.6168,-0.3897,0.7779,
3.324668,0.1377,0.9908,0.0032,-0.9840,-0.0376,1.3753,0.6168,-0.3897,0.7779,
3.327800,0.1377,0.9908,0.0032,-0.9840,-0.0376,1.3753,0.7801,-0.4196,0.9599,
3.343670,0.0933,0.9989,-0.0513,-0.9840,-0.0376,1.3753,0.7801,-0.4196,0.9599,
3.346474,0.0757,0.9576,-0.0921,-0.9840,-0.0376,1.3753,0.7801,-0.4196,0.9599,
3.348569,0.0420,0.9659,-0.1160,-0.9840,-0.0376,1.3753,0.7801,-0.4196,0.9599,
3.378727,0.0420,0.9659,-0.1160,-0.9840,-0.0376,1.3753,0.8974,-0.3066,1.1061,
3.379958,0.0420,0.9659,-0.1160,-1.2099,0.2000,0.4061,0.8974,-0.3066,1.1061,
3.398166,0.0293,1.0006,-0.1243,-1.2099,0.2000,0.4061,0.8974,-0.3066,1.1061,
3.399306,0.0947,0.9984,-0.1165,-1.2099,0.2000,0.4061,0.8974,-0.3066,1.1061,
3.399704,0.1465,0.9728,-0.1004,-1.2099,0.2000,0.4061,0.8974,-0.3066,1.1061,
3.438381,0.1465,0.9728,-0.1004,-1.2099,0.2000,0.4061,0.9943,-0.5913,1.3181,
3.440260,0.1465,0.9728,-0.1004,-1.6416,0.6123,0.7385,0.9943,-0.5913,1.3181,
3.463766,0.2185,0.9793,-0.1575,-1.6416,0.6123,0.7385,0.9943,-0.5913,1.3181,
3.465700,0.2158,1.0863,-0.2078,-1.6416,0.6123,0.7385,0.9943,-0.5913,1.3181,
3.466500,0.1111,1.1285,-0.2315,-1.6416,0.6123,0.7385,0.9943,-0.5913,1.3181,
3.496720,0.1111,1.1285,-0.2315,-1.4036,1.6987,0.5761,0.9943,-0.5913,1.3181,
3.499670,0.1111,1.1285,-0.2315,-1.4036,1.6987,0.5761,1.2547,-0.1916,1.3604,
3.516962,0.0840,1.0882,-0.2202,-1.4036,1.6987,0.5761,1.2547,-0.1916,1.3604,
3.518792,0.1155,1.0904,-0.2058,-1.4036,1.6987,0.5761,1.2547,-0.1916,1.3604,
3.521551,0.0249,1.1925,-0.1404,-1.4036,1.6987,0.5761,1.2547,-0.1916,1.3604,
3.555021,0.0249,1.1925,-0.1404,-1.4036,1.6987,0.5761,1.5943,-0.4196,1.5960,
3.558107,0.0249,1.1925,-0.1404,-3.1128,2.8348,1.5217,1.5943,-0.4196,1.5960,
3.576461,-0.1895,1.3942,-0.0945,-3.1128,2.8348,1.5217,1.5943,-0.4196,1.5960,
3.580221,-0.5860,1.8315,0.0730,-3.1128,2.8348,1.5217,1.5943,-0.4196,1.5960,
3.582396,-1.2411,2.1133,0.1304,-3.1128,2.8348,1.5217,1.5943,-0.4196,1.5960,
3.612506,-1.2411,2.1133,0.1304,-3.1128,2.8348,1.5217,1.9865,-1.3791,2.2729,
3.615555,-1.2411,2.1133,0.1304,-10.9423,10.1128,4.8784,1.9865,-1.3791,2.2729,
3.640009,-1.2482,1.8124,0.0877,-10.9423,10.1128,4.8784,1.9865,-1.3791,2.2729,
3.642476,-0.2703,1.2982,-0.1560,-10.9423,10.1128,4.8784,1.9865,-1.3791,2.2729,
3.643975,0.8055,1.3297,-0.6104,-10.9423,10.1128,4.8784,1.9865,-1.3791,2.2729,
3.671940,0.8055,1.3297,-0.6104,-10.9423,10.1128,4.8784,2.1160,-1.3384,2.8762,
3.673841,0.8055,1.3297,-0.6104,-7.2728,8.4607,3.4354,2.1160,-1.3384,2.8762,
3.694994,1.4479,1.4953,-0.5420,-7.2728,8.4607,3.4354,2.1160,-1.3384,2.8762,
3.696492,0.8314,1.0968,-0.5066,-7.2728,8.4607,3.4354,2.1160,-1.3384,2.8762,
3.697688,0.4888,0.7039,-0.5460,-7.2728,8.4607,3.4354,2.1160,-1.3384,2.8762,
3.729480,0.4888,0.7039,-0.5460,-7.2728,8.4607,3.4354,-0.5239,-0.1162,0.1654,
3.732007,0.4888,0.7039,-0.5460,4.0141,4.5218,0.2885,-0.5239,-0.1162,0.1654,
3.756578,0.3479,0.5005,-0.2361,4.0141,4.5218,0.2885,-0.5239,-0.1162,0.1654,
3.758473,0.1196,0.2276,0.1436,4.0141,4.5218,0.2885,-0.5239,-0.1162,0.1654,
3.759774,0.0488,0.0088,0.1572,4.0141,4.5218,0.2885,-0.5239,-0.1162,0.1654,
3.787604,0.0488,0.0088,0.1572,4.0141,4.5218,0.2885,-2.0318,-0.4424,-2.1535,
3.790052,0.0488,0.0088,0.1572,-2.3062,-4.9361,4.9331,-2.0318,-0.4424,-2.1535,
3.810538,0.1450,0.0505,-0.1885,-2.3062,-4.9361,4.9331,-2.0318,-0.4424,-2.1535,
3.813568,0.0381,0.3020,-0.2473,-2.3062,-4.9361,4.9331,-2.0318,-0.4424,-2.1535,
3.816574,0.0527,0.4918,-0.2351,-2.3062,-4.9361,4.9331,-2.0318,-0.4424,-2.1535,
3.847339,0.0527,0.4918,-0.2351,-2.3062,-4.9361,4.9331,-3.5058,-1.1564,-3.5481,
3.851249,0.0527,0.4918,-0.2351,-1.2503,-5.9362,1.0526,-3.5058,-1.1564,-3.5481,
3.866541,0.1875,0.6077,-0.3186,-1.2503,-5.9362,1.0526,-3.5058,-1.1564,-3.5481,
3.869968,0.2322,0.7108,-0.2954,-1.2503,-5.9362,1.0526,-3.5058,-1.1564,-3.5481,
3.872553,0.2002,0.8519,-0.2100,-1.2503,-5.9362,1.0526,-3.5058,-1.1564,-3.5481,
3.905621,0.2002,0.8519,-0.2100,-1.2503,-5.9362,1.0526,-4.8208,-2.1321,-4.0702,
3.909823,0.2002,0.8519,-0.2100,2.3917,-2.3292,-1.9070,-4.8208,-2.1321,-4.0702,
3.925209,0.1702,1.1720,-0.4769,2.3917,-2.3292,-1.9070,-4.8208,-2.1321,-4.0702,
3.928860,0.4009,1.4760,-0.8573,2.3917,-2.3292,-1.9070,-4.8208,-2.1321,-4.0702,
3.931421,0.6390,1.5048,-1.0690,2.3917,-2.3292,-1.9070,-4.8208,-2.1321,-4.0702,
3.963795,0.6390,1.5048,-1.0690,2.3917,-2.3292,-1.9070,-4.3879,-0.9035,-3.0283,
3.968347,0.6390,1.5048,-1.0690,5.8590,4.3973,-9.3495,-4.3879,-0.9035,-3.0283,
3.981841,0.8504,1.4525,-1.2269,5.8590,4.3973,-9.3495,-4.3879,-0.9035,-3.0283,
3.984498,1.0423,1.3009,-1.1551,5.8590,4.3973,-9.3495,-4.3879,-0.9035,-3.0283,
3.985400,1.0709,0.9498,-0.9596,5.8590,4.3973,-9.3495,-4.3879,-0.9035,-3.0283,
4.021781,1.0709,0.9498,-0.9596,5.8590,4.3973,-9.3495,-1.8383,1.1375,-0.9354,
4.026078,1.0709,0.9498,-0.9596,12.0199,3.2024,-13.0024,-1.8383,1.1375,-0.9354,
4.055047,0.7733,0.7366,-0.9386,12.0199,3.2024,-13.0024,-1.8383,1.1375,-0.9354,
4.056777,0.5269,0.8143,-0.8963,12.0199,3.2024,-13.0024,-1.8383,1.1375,-0.9354,
4.058381,0.4754,0.9586,-1.1356,12.0199,3.2024,-13.0024,-1.8383,1.1375,-0.9354,
4.079250,0.4754,0.9586,-1.1356,12.0199,3.2024,-13.0024,0.1949,3.3836,0.3448,
4.081985,0.4754,0.9586,-1.1356,8.1907,-0.7512,-11.0104,0.1949,3.3836,0.3448,
4.102695,-0.4402,1.5463,0.5208,8.1907,-0.7512,-11.0104,0.1949,3.3836,0.3448,
4.105951,-2.1418,2.1430,0.9474,8.1907,-0.7512,-11.0104,0.1949,3.3836,0.3448,
4.109039,-0.7764,1.4755,-1.1251,8.1907,-0.7512,-11.0104,0.1949,3.3836,0.3448,
4.137947,-0.7764,1.4755,-1.1251,8.1907,-0.7512,-11.0104,1.3669,0.9513,1.7176,
4.141376,-0.7764,1.4755,-1.1251,-9.2746,7.5285,0.6519,1.3669,0.9513,1.7176,
4.173698,-0.0117,0.8834,-0.0994,-9.2746,7.5285,0.6519,1.3669,0.9513,1.7176,
4.176021,-0.0940,0.6109,-0.0015,-9.2746,7.5285,0.6519,1.3669,0.9513,1.7176,
4.177070,0.3098,0.9027,-0.0117,-9.2746,7.5285,0.6519,1.3669,0.9513,1.7176,
4.196242,0.3098,0.9027,-0.0117,-9.2746,7.5285,0.6519,0.5585,-0.5809,1.2822,
4.198263,0.3098,0.9027,-0.0117,1.6242,-1.5971,-0.5603,0.5585,-0.5809,1.2822,
4.217213,0.4632,1.1993,-0.3059,1.6242,-1.5971,-0.5603,0.5585,-0.5809,1.2822,
4.219869,0.2981,1.0817,-0.2698,1.6242,-1.5971,-0.5603,0.5585,-0.5809,1.2822,
4.221473,-0.0151,0.9835,-0.0818,1.6242,-1.5971,-0.5603,0.5585,-0.5809,1.2822,
4.256060,-0.0151,0.9835,-0.0818,1.6242,-1.5971,-0.5603,0.1488,0.2661,0.3187,
4.259832,-0.0151,0.9835,-0.0818,3.1675,1.1990,-2.2091,0.1488,0.2661,0.3187,
4.275911,-0.1568,1.0433,-0.0391,3.1675,1.1990,-2.2091,0.1488,0.2661,0.3187,
4.278788,-0.1609,1.0685,0.0288,3.1675,1.1990,-2.2091,0.1488,0.2661,0.3187,
4.280934,-0.0933,0.9728,0.1426,3.1675,1.1990,-2.2091,0.1488,0.2661,0.3187,
4.312228,-0.0933,0.9728,0.1426,3.1675,1.1990,-2.2091,0.2582,-0.1836,0.3553,
4.314001,-0.0933,0.9728,0.1426,-0.7949,0.5882,0.4990,0.2582,-0.1836,0.3553,
4.331898,-0.0339,0.9584,0.1382,-0.7949,0.5882,0.4990,0.2582,-0.1836,0.3553,
4.333838,0.0156,0.9774,0.0613,-0.7949,0.5882,0.4990,0.2582,-0.1836,0.3553,
4.335199,-0.0352,0.9564,0.0635,-0.7949,0.5882,0.4990,0.2582,-0.1836,0.3553,
4.372241,-0.0352,0.9564,0.0635,-0.7949,0.5882,0.4990,0.4653,-0.2527,0.3391,
4.375978,-0.0352,0.9564,0.0635,0.1848,-0.0433,1.1570,0.4653,-0.2527,0.3391,
4.392267,-0.1355,0.9855,0.0523,0.1848,-0.0433,1.1570,0.4653,-0.2527,0.3391,
4.396380,-0.0908,1.0074,0.0215,0.1848,-0.0433,1.1570,0.4653,-0.2527,0.3391,
4.398715,-0.0732,0.9654,0.0249,0.1848,-0.0433,1.1570,0.4653,-0.2527,0.3391,
4.429204,-0.0732,0.9654,0.0249,0.1848,-0.0433,1.1570,0.6567,-0.4620,0.4850,
4.431213,-0.0732,0.9654,0.0249,-0.8600,0.1814,0.9611,0.6567,-0.4620,0.4850,
4.450746,-0.0615,0.9503,0.0798,-0.8600,0.1814,0.9611,0.6567,-0.4620,0.4850,
4.453600,0.0042,0.9102,-0.0230,-0.8600,0.1814,0.9611,0.6567,-0.4620,0.4850,
4.455201,0.0715,0.9295,-0.1475,-0.8600,0.1814,0.9611,0.6567,-0.4620,0.4850,
4.488453,0.0715,0.9295,-0.1475,-0.8600,0.1814,0.9611,0.6463,-0.7059,0.4272,
4.491852,0.0715,0.9295,-0.1475,-0.0364,-0.3321,0.6881,0.6463,-0.7059,0.4272,
4.509324,0.1897,0.9984,-0.2163,-0.0364,-0.3321,0.6881,0.6463,-0.7059,0.4272,
4.512838,0.2776,1.0536,-0.1426,-0.0364,-0.3321,0.6881,0.6463,-0.7059,0.4272,
4.515066,0.1231,1.0177,-0.0442,-0.0364,-0.3321,0.6881,0.6463,-0.7059,0.4272,
4.546274,0.1231,1.0177,-0.0442,-0.0364,-0.3321,0.6881,0.6125,-0.6062,0.0322,
4.549249,0.1231,1.0177,-0.0442,1.8377,0.6123,0.0069,0.6125,-0.6062,0.0322,
4.567375,-0.1719,1.0104,0.0283,1.8377,0.6123,0.0069,0.6125,-0.6062,0.0322,
4.570753,-0.4944,1.1215,0.0354,1.8377,0.6123,0.0069,0.6125,-0.6062,0.0322,
4.572610,-0.6263,1.1854,-0.0652,1.8377,0.6123,0.0069,0.6125,-0.6062,0.0322,
4.605066,-0.6263,1.1854,-0.0652,1.8377,0.6123,0.0069,0.8210,-1.9676,0.9383,
4.607937,-0.6263,1.1854,-0.0652,-4.5679,1.4846,1.7666,0.8210,-1.9676,0.9383,
4.625694,-0.4964,1.2743,-0.1914,-4.5679,1.4846,1.7666,0.8210,-1.9676,0.9383,
4.628983,-0.2342,1.5119,-0.3389,-4.5679,1.4846,1.7666,0.8210,-1.9676,0.9383,
4.630994,0.1218,1.4626,-0.3955,-4.5679,1.4846,1.7666,0.8210,-1.9676,0.9383,
4.664038,0.1218,1.4626,-0.3955,-4.5679,1.4846,1.7666,-0.1619,-4.0203,1.5243,
4.668487,0.1218,1.4626,-0.3955,-2.6897,4.4831,-1.1906,-0.1619,-4.0203,1.5243,
4.693673,0.3345,0.9488,-0.3616,-2.6897,4.4831,-1.1906,-0.1619,-4.0203,1.5243,
4.697068,0.0525,0.8023,-0.1616,-2.6897,4.4831,-1.1906,-0.1619,-4.0203,1.5243,
4.698433,-0.4214,0.6983,-0.1192,-2.6897,4.4831,-1.1906,-0.1619,-4.0203,1.5243,
4.721056,-0.4214,0.6983,-0.1192,-2.6897,4.4831,-1.1906,-1.1098,-8.4797,1.1059,
4.723994,-0.4214,0.6983,-0.1192,-0.5670,-1.4381,-0.5608,-1.1098,-8.4797,1.1059,
4.742497,-0.7469,0.6610,-0.7186,-0.5670,-1.4381,-0.5608,-1.1098,-8.4797,1.1059,
4.745879,-0.6763,0.6509,-1.2128,-0.5670,-1.4381,-0.5608,-1.1098,-8.4797,1.1059,
4.748376,-0.4087,0.6014,-1.3649,-0.5670,-1.4381,-0.5608,-1.1098,-8.4797,1.1059,
4.782344,-0.4087,0.6014,-1.3649,-0.5670,-1.4381,-0.5608,-0.8159,-7.5401,0.8318,
4.785974,-0.4087,0.6014,-1.3649,-6.1812,-3.1833,-9.3569,-0.8159,-7.5401,0.8318,
4.799447,-0.0840,0.6561,-1.3275,-6.1812,-3.1833,-9.3569,-0.8159,-7.5401,0.8318,
4.802225,0.1851,0.7784,-1.0543,-6.1812,-3.1833,-9.3569,-0.8159,-7.5401,0.8318,
4.803967,0.0732,0.7794,-0.8065,-6.1812,-3.1833,-9.3569,-0.8159,-7.5401,0.8318,
4.838486,0.0732,0.7794,-0.8065,-6.1812,-3.1833,-9.3569,-0.6675,-3.6544,-0.8849,
4.842604,0.0732,0.7794,-0.8065,1.1110,-2.1990,-9.2304,-0.6675,-3.6544,-0.8849,
4.867705,-0.2105,0.7867,-0.5867,1.1110,-2.1990,-9.2304,-0.6675,-3.6544,-0.8849,
4.871865,-0.3958,0.8245,-0.4458,1.1110,-2.1990,-9.2304,-0.6675,-3.6544,-0.8849,
4.874430,-0.4068,0.8751,-0.4046,1.1110,-2.1990,-9.2304,-0.6675,-3.6544,-0.8849,
4.901532,-0.4068,0.8751,-0.4046,1.1110,-2.1990,-9.2304,-0.1698,-4.1865,-1.0798,
4.904241,-0.4068,0.8751,-0.4046,-1.8954,-1.2377,-3.7751,-0.1698,-4.1865,-1.0798,
4.915745,-0.2034,0.9510,-0.3267,-1.8954,-1.2377,-3.7751,-0.1698,-4.1865,-1.0798,
4.918092,0.0251,1.0592,-0.2603,-1.8954,-1.2377,-3.7751,-0.1698,-4.1865,-1.0798,
4.920218,0.0339,1.0460,-0.1836,-1.8954,-1.2377,-3.7751,-0.1698,-4.1865,-1.0798,
4.955102,0.0339,1.0460,-0.1836,1.4484,0.6725,-2.0542,-0.1698,-4.1865,-1.0798,
4.959145,0.0339,1.0460,-0.1836,1.4484,0.6725,-2.0542,-0.0098,-4.8578,-0.6212,
4.978530,-0.0740,0.9608,-0.1248,1.4484,0.6725,-2.0542,-0.0098,-4.8578,-0.6212,
4.982225,-0.0942,0.9635,-0.0984,1.4484,0.6725,-2.0542,-0.0098,-4.8578,-0.6212,
4.986254,-0.0471,0.9737,-0.0962,1.4484,0.6725,-2.0542,-0.0098,-4.8578,-0.6212,
5.012162,-0.0471,0.9737,-0.0962,1.4484,0.6725,-2.0542,0.0265,-4.9967,0.0442,
5.013804,-0.0471,0.9737,-0.0962,1.2243,0.1482,-1.1231,0.0265,-4.9967,0.0442,
5.041515,0.0625,1.0050,-0.0610,1.2243,0.1482,-1.1231,0.0265,-4.9967,0.0442,
5.043712,0.2210,1.0170,-0.0066,1.2243,0.1482,-1.1231,0.0265,-4.9967,0.0442,
5.045722,0.3069,0.9398,0.0332,1.2243,0.1482,-1.1231,0.0265,-4.9967,0.0442,
5.071580,0.3069,0.9398,0.0332,1.2243,0.1482,-1.1231,0.1755,-3.9877,0.1939,
5.075813,0.3069,0.9398,0.0332,3.6287,0.3270,-0.5208,0.1755,-3.9877,0.1939,
5.096219,0.2554,0.8866,0.0232,3.6287,0.3270,-0.5208,0.1755,-3.9877,0.1939,
5.100388,0.1975,0.8477,-0.0200,3.6287,0.3270,-0.5208,0.1755,-3.9877,0.1939,
5.103402,0.2613,0.8097,-0.0584,3.6287,0.3270,-0.5208,0.1755,-3.9877,0.1939,
5.129394,0.2613,0.8097,-0.0584,3.6287,0.3270,-0.5208,0.5386,-2.1236,0.2719,
5.131709,0.2613,0.8097,-0.0584,3.7710,-1.0573,-0.4860,0.5386,-2.1236,0.2719,
5.150724,0.4104,0.7335,-0.1834,3.7710,-1.0573,-0.4860,0.5386,-2.1236,0.2719,
5.153562,0.5606,0.7620,-0.3272,3.7710,-1.0573,-0.4860,0.5386,-2.1236,0.2719,
5.156494,0.5738,1.1361,0.0066,3.7710,-1.0573,-0.4860,0.5386,-2.1236,0.2719,
5.188393,0.5738,1.1361,0.0066,3.7710,-1.0573,-0.4860,-0.7410,1.2346,0.0184,
5.193328,0.5738,1.1361,0.0066,6.4012,-0.7398,-2.2157,-0.7410,1.2346,0.0184,
5.227999,0.0054,1.6918,1.0174,6.4012,-0.7398,-2.2157,-0.7410,1.2346,0.0184,
5.231309,-0.6307,1.9668,0.6375,6.4012,-0.7398,-2.2157,-0.7410,1.2346,0.0184,
5.234271,-1.1586,1.1857,-0.4500,6.4012,-0.7398,-2.2157,-0.7410,1.2346,0.0184,
5.247531,-1.1586,1.1857,-0.4500,6.4012,-0.7398,-2.2157,0.7192,-0.0975,1.1016,
5.249368,-1.1586,1.1857,-0.4500,-4.9907,6.2981,3.6955,0.7192,-0.0975,1.1016,
5.268892,-0.7432,0.7437,0.0002,-4.9907,6.2981,3.6955,0.7192,-0.0975,1.1016,
5.270591,-0.0757,0.8333,-0.0068,-4.9907,6.2981,3.6955,0.7192,-0.0975,1.1016,
5.272686,0.4375,1.0922,0.1445,-4.9907,6.2981,3.6955,0.7192,-0.0975,1.1016,
5.304653,0.4375,1.0922,0.1445,-4.9907,6.2981,3.6955,0.4987,-0.5803,1.2075,
5.307502,0.4375,1.0922,0.1445,-1.0665,-0.8313,0.4643,0.4987,-0.5803,1.2075,
5.325170,0.5689,0.9894,0.1077,-1.0665,-0.8313,0.4643,0.4987,-0.5803,1.2075,
5.327243,0.1238,0.8739,0.0869,-1.0665,-0.8313,0.4643,0.4987,-0.5803,1.2075,
5.329250,-0.1765,1.0660,0.0435,-1.0665,-0.8313,0.4643,0.4987,-0.5803,1.2075,
5.362708,-0.1765,1.0660,0.0435,-1.0665,-0.8313,0.4643,0.3561,-0.4976,0.7247,
5.365016,-0.1765,1.0660,0.0435,1.4406,0.0211,0.9744,0.3561,-0.4976,0.7247,
5.383128,-0.0757,1.0582,-0.0176,1.4406,0.0211,0.9744,0.3561,-0.4976,0.7247,
5.386736,0.1362,0.9579,0.0024,1.4406,0.0211,0.9744,0.3561,-0.4976,0.7247,
5.388386,0.2300,0.9957,0.0308,1.4406,0.0211,0.9744,0.3561,-0.4976,0.7247,
5.421218,0.2300,0.9957,0.0308,1.4406,0.0211,0.9744,0.3659,-0.0061,0.5085,
5.423816,0.2300,0.9957,0.0308,0.4133,0.3034,0.4433,0.3659,-0.0061,0.5085,
5.441393,0.1011,1.0338,0.0171,0.4133,0.3034,0.4433,0.3659,-0.0061,0.5085,
5.443685,-0.0554,1.0113,0.0386,0.4133,0.3034,0.4433,0.3659,-0.0061,0.5085,
5.445476,-0.0874,0.9940,0.0515,0.4133,0.3034,0.4433,0.3659,-0.0061,0.5085,
5.480235,-0.0874,0.9940,0.0515,-0.9509,0.4227,1.0101,0.3659,-0.0061,0.5085,
5.483874,-0.0874,0.9940,0.0515,-0.9509,0.4227,1.0101,0.4930,-0.2737,0.5470,
5.502577,0.0054,0.9977,0.0481,-0.9509,0.4227,1.0101,0.4930,-0.2737,0.5470,
5.505415,0.0396,1.0123,0.0418,-0.9509,0.4227,1.0101,0.4930,-0.2737,0.5470,
5.507368,0.0283,1.0043,0.0002,-0.9509,0.4227,1.0101,0.4930,-0.2737,0.5470,
5.538301,0.0283,1.0043,0.0002,-0.9509,0.4227,1.0101,0.6404,-0.1769,0.6750,
5.541514,0.0283,1.0043,0.0002,-0.9240,0.4052,1.2962,0.6404,-0.1769,0.6750,
5.558319,0.0713,0.9767,-0.0454,-0.9240,0.4052,1.2962,0.6404,-0.1769,0.6750,
5.560840,0.0649,0.9723,-0.0664,-0.9240,0.4052,1.2962,0.6404,-0.1769,0.6750,
5.562496,0.0645,0.9710,-0.0286,-0.9240,0.4052,1.2962,0.6404,-0.1769,0.6750,
5.597789,0.0645,0.9710,-0.0286,-0.9240,0.4052,1.2962,0.7078,-0.4262,0.7950,
5.601492,0.0645,0.9710,-0.0286,-0.8974,0.2073,0.9492,0.7078,-0.4262,0.7950,
5.616983,0.0364,0.9952,-0.0532,-0.8974,0.2073,0.9492,0.7078,-0.4262,0.7950,
5.618732,0.1445,1.0079,-0.0921,-0.8974,0.2073,0.9492,0.7078,-0.4262,0.7950,
5.619486,0.1797,1.0196,-0.1035,-0.8974,0.2073,0.9492,0.7078,-0.4262,0.7950,
5.654898,0.1797,1.0196,-0.1035,-0.8974,0.2073,0.9492,0.8395,-0.4952,0.8636,
5.658048,0.1797,1.0196,-0.1035,-0.7799,0.7014,1.0809,0.8395,-0.4952,0.8636,
5.674601,0.0606,1.0223,-0.0764,-0.7799,0.7014,1.0809,0.8395,-0.4952,0.8636,
5.677061,0.0332,1.0326,-0.1118,-0.7799,0.7014,1.0809,0.8395,-0.4952,0.8636,
5.678711,0.0938,1.0460,-0.1480,-0.7799,0.7014,1.0809,0.8395,-0.4952,0.8636,
5.712350,0.0938,1.0460,-0.1480,-0.7799,0.7014,1.0809,1.0568,-0.5274,1.1391,
5.714325,0.0938,1.0460,-0.1480,-1.8468,1.2199,1.3969,1.0568,-0.5274,1.1391,
5.733158,0.0776,1.0931,-0.1206,-1.8468,1.2199,1.3969,1.0568,-0.5274,1.1391,
5.736649,0.0579,1.1271,-0.1572,-1.8468,1.2199,1.3969,1.0568,-0.5274,1.1391,
5.738159,0.0430,1.1388,-0.2405,-1.8468,1.2199,1.3969,1.0568,-0.5274,1.1391,
5.770781,0.0430,1.1388,-0.2405,-1.8468,1.2199,1.3969,1.3653,-0.6516,1.4531,
5.773185,0.0430,1.1388,-0.2405,-2.4608,2.4867,1.5723,1.3653,-0.6516,1.4531,
5.791983,-0.0078,1.1329,-0.2246,-2.4608,2.4867,1.5723,1.3653,-0.6516,1.4531,
5.796499,-0.0610,1.1464,-0.1907,-2.4608,2.4867,1.5723,1.3653,-0.6516,1.4531,
5.799227,-0.1643,1.3773,-0.1023,-2.4608,2.4867,1.5723,1.3653,-0.6516,1.4531,
5.831411,-0.1643,1.3773,-0.1023,-2.4608,2.4867,1.5723,2.0095,-0.6080,1.7367,
5.834814,-0.1643,1.3773,-0.1023,-4.4185,4.1786,2.6001,2.0095,-0.6080,1.7367,
5.857207,-0.4554,1.8601,0.1868,-4.4185,4.1786,2.6001,2.0095,-0.6080,1.7367,
5.859312,-0.8375,1.9345,0.1980,-4.4185,4.1786,2.6001,2.0095,-0.6080,1.7367,
5.860829,-1.1136,1.8312,0.1687,-4.4185,4.1786,2.6001,2.0095,-0.6080,1.7367,
5.887460,-1.1136,1.8312,0.1687,-4.4185,4.1786,2.6001,2.2751,-1.4524,2.6237,
5.889523,-1.1136,1.8312,0.1687,-11.9858,11.6846,7.2695,2.2751,-1.4524,2.6237,
5.906985,-0.7132,1.4823,0.0947,-11.9858,11.6846,7.2695,2.2751,-1.4524,2.6237,
5.908877,0.4297,1.2973,-0.5630,-11.9858,11.6846,7.2695,2.2751,-1.4524,2.6237,
5.910096,1.3642,1.4394,-0.5965,-11.9858,11.6846,7.2695,2.2751,-1.4524,2.6237,
5.947150,1.3642,1.4394,-0.5965,-11.9858,11.6846,7.2695,2.1331,-0.7220,2.7880,
5.951782,1.3642,1.4394,-0.5965,-1.2954,8.4164,2.8652,2.1331,-0.7220,2.7880,
5.980653,1.3002,1.1315,-0.6610,-1.2954,8.4164,2.8652,2.1331,-0.7220,2.7880,
5.982223,0.5958,0.8436,-0.6253,-1.2954,8.4164,2.8652,2.1331,-0.7220,2.7880,
5.983085,0.1846,0.6185,-0.5530,-1.2954,8.4164,2.8652,2.1331,-0.7220,2.7880,
6.004385,0.1846,0.6185,-0.5530,-1.2954,8.4164,2.8652,-0.9086,-0.1354,0.1149,
6.007082,0.1846,0.6185,-0.5530,1.9562,2.7618,0.0838,-0.9086,-0.1354,0.1149,
6.023598,-0.0784,0.3218,-0.0913,1.9562,2.7618,0.0838,-0.9086,-0.1354,0.1149,
6.026523,-0.1218,0.1052,0.1956,1.9562,2.7618,0.0838,-0.9086,-0.1354,0.1149,
6.028385,-0.0220,0.1348,-0.1187,1.9562,2.7618,0.0838,-0.9086,-0.1354,0.1149,
6.063708,-0.0220,0.1348,-0.1187,1.9562,2.7618,0.0838,-2.1446,-0.1938,-1.4677,
6.068339,-0.0220,0.1348,-0.1187,-4.8786,-4.8986,5.2254,-2.1446,-0.1938,-1.4677,
6.083248,0.1453,0.2898,-0.4510,-4.8786,-4.8986,5.2254,-2.1446,-0.1938,-1.4677,
6.087436,0.1778,0.3694,-0.4400,-4.8786,-4.8986,5.2254,-2.1446,-0.1938,-1.4677,
6.090348,0.1209,0.3816,-0.4122,-4.8786,-4.8986,5.2254,-2.1446,-0.1938,-1.4677,
6.121021,0.1209,0.3816,-0.4122,-4.8786,-4.8986,5.2254,-3.8729,-0.2504,-3.2130,
6.123996,0.1209,0.3816,-0.4122,-1.1885,-4.9029,-0.6415,-3.8729,-0.2504,-3.2130,
6.140147,0.1380,0.4141,-0.3306,-1.1885,-4.9029,-0.6415,-3.8729,-0.2504,-3.2130,
6.142968,0.1128,0.4712,-0.2139,-1.1885,-4.9029,-0.6415,-3.8729,-0.2504,-3.2130,
6.145008,0.0530,0.6016,-0.1463,-1.1885,-4.9029,-0.6415,-3.8729,-0.2504,-3.2130,
6.180156,0.0530,0.6016,-0.1463,-1.1885,-4.9029,-0.6415,-4.4001,-1.3129,-4.4762,
6.185590,0.0530,0.6016,-0.1463,0.8556,-4.3913,-0.8161,-4.4001,-1.3129,-4.4762,
6.198665,-0.0098,0.8241,-0.3973,0.8556,-4.3913,-0.8161,-4.4001,-1.3129,-4.4762,
6.201157,0.0984,1.1761,-0.7423,0.8556,-4.3913,-0.8161,-4.4001,-1.3129,-4.4762,
6.202293,0.3557,1.6127,-0.9120,0.8556,-4.3913,-0.8161,-4.4001,-1.3129,-4.4762,
6.238112,0.3557,1.6127,-0.9120,0.8556,-4.3913,-0.8161,-4.4911,-0.0432,-4.6821,
6.241900,0.3557,1.6127,-0.9120,3.7871,2.7588,-7.5387,-4.4911,-0.0432,-4.6821,
6.257102,0.5540,1.7355,-0.9916,3.7871,2.7588,-7.5387,-4.4911,-0.0432,-4.6821,
6.259476,1.0260,1.6557,-1.1537,3.7871,2.7588,-7.5387,-4.4911,-0.0432,-4.6821,
6.260978,1.2911,1.4047,-0.9095,3.7871,2.7588,-7.5387,-4.4911,-0.0432,-4.6821,
6.296762,1.2911,1.4047,-0.9095,3.7871,2.7588,-7.5387,-2.2513,2.7950,-1.7302,
6.300759,1.2911,1.4047,-0.9095,12.6181,6.9585,-11.2789,-2.2513,2.7950,-1.7302,
6.321490,1.3278,0.9833,-0.7039,12.6181,6.9585,-11.2789,-2.2513,2.7950,-1.7302,
6.323609,1.0304,0.8668,-0.8245,12.6181,6.9585,-11.2789,-2.2513,2.7950,-1.7302,
6.325257,0.6622,1.1290,-1.1073,12.6181,6.9585,-11.2789,-2.2513,2.7950,-1.7302,
6.354194,0.6622,1.1290,-1.1073,12.6181,6.9585,-11.2789,0.0360,2.6217,0.8711,
6.357997,0.6622,1.1290,-1.1073,12.6197,0.8521,-9.2405,0.0360,2.6217,0.8711,
6.377294,-0.5108,1.6762,0.5110,12.6197,0.8521,-9.2405,0.0360,2.6217,0.8711,
6.378396,-2.3926,1.7109,1.3197,12.6197,0.8521,-9.2405,0.0360,2.6217,0.8711,
6.379451,-0.7498,1.3222,-0.2923,12.6197,0.8521,-9.2405,0.0360,2.6217,0.8711,
6.412325,-0.7498,1.3222,-0.2923,12.6197,0.8521,-9.2405,1.5027,0.4852,2.2590,
6.414428,-0.7498,1.3222,-0.2923,-10.1845,6.0996,5.1770,1.5027,0.4852,2.2590,
6.443068,0.3623,1.0167,-1.3978,-10.1845,6.0996,5.1770,1.5027,0.4852,2.2590,
6.446330,0.3496,0.8204,0.1384,-10.1845,6.0996,5.1770,1.5027,0.4852,2.2590,
6.449995,0.1008,0.7623,0.3948,-10.1845,6.0996,5.1770,1.5027,0.4852,2.2590,
6.470303,0.1008,0.7623,0.3948,-10.1845,6.0996,5.1770,0.8729,-0.1857,1.6394,
6.472406,0.1008,0.7623,0.3948,3.4581,-0.8826,-2.1714,0.8729,-0.1857,1.6394,
6.490516,-0.0869,1.0355,-0.0679,3.4581,-0.8826,-2.1714,0.8729,-0.1857,1.6394,
6.492408,0.2346,1.1022,-0.2124,3.4581,-0.8826,-2.1714,0.8729,-0.1857,1.6394,
6.494058,0.2571,1.0238,-0.2139,3.4581,-0.8826,-2.1714,0.8729,-0.1857,1.6394,
6.531958,0.2571,1.0238,-0.2139,3.4581,-0.8826,-2.1714,0.6337,0.1821,0.9440,
6.535072,0.2571,1.0238,-0.2139,1.5728,0.9383,-0.6002,0.6337,0.1821,0.9440,
6.554765,0.0376,1.0082,-0.1587,1.5728,0.9383,-0.6002,0.6337,0.1821,0.9440,
6.556643,-0.0122,1.0316,-0.1279,1.5728,0.9383,-0.6002,0.6337,0.1821,0.9440,
6.557290,0.0215,1.0187,-0.1272,1.5728,0.9383,-0.6002,0.6337,0.1821,0.9440,
6.587469,0.0215,1.0187,-0.1272,1.5728,0.9383,-0.6002,0.4453,0.0916,0.6414,
6.589834,0.0215,1.0187,-0.1272,0.0459,0.6181,-0.0922,0.4453,0.0916,0.6414,
6.608145,-0.0098,1.0187,-0.1116,0.0459,0.6181,-0.0922,0.4453,0.0916,0.6414,
6.610863,-0.0420,0.9894,-0.1455,0.0459,0.6181,-0.0922,0.4453,0.0916,0.6414,
6.612657,0.0098,0.9950,-0.1111,0.0459,0.6181,-0.0922,0.4453,0.0916,0.6414,
6.645922,0.0098,0.9950,-0.1111,0.0459,0.6181,-0.0922,0.3689,-0.2769,0.6420,
6.647999,0.0098,0.9950,-0.1111,-0.5627,0.4687,0.2588,0.3689,-0.2769,0.6420,
6.670553,0.0271,1.0162,-0.0872,-0.5627,0.4687,0.2588,0.3689,-0.2769,0.6420,
6.673438,0.0215,1.0123,-0.0691,-0.5627,0.4687,0.2588,0.3689,-0.2769,0.6420,
6.675062,0.0208,0.9806,-0.0498,-0.5627,0.4687,0.2588,0.3689,-0.2769,0.6420,
6.704589,0.0208,0.9806,-0.0498,-0.5627,0.4687,0.2588,0.4665,-0.4742,0.6982,
6.707244,0.0208,0.9806,-0.0498,-0.5249,0.5470,1.0407,0.4665,-0.4742,0.6982,
6.725091,0.0422,0.9630,-0.0593,-0.5249,0.5470,1.0407,0.4665,-0.4742,0.6982,
6.728068,0.0459,0.9554,-0.0859,-0.5249,0.5470,1.0407,0.4665,-0.4742,0.6982,
6.729997,0.0703,0.9608,-0.0923,-0.5249,0.5470,1.0407,0.4665,-0.4742,0.6982,
6.763102,0.0703,0.9608,-0.0923,-0.5249,0.5470,1.0407,0.6184,-0.4866,0.7860,
6.767770,0.0703,0.9608,-0.0923,-0.5935,0.2301,1.2758,0.6184,-0.4866,0.7860,
6.787319,0.0728,0.9869,-0.0862,-0.5935,0.2301,1.2758,0.6184,-0.4866,0.7860,
6.790283,0.0349,1.0165,-0.1101,-0.5935,0.2301,1.2758,0.6184,-0.4866,0.7860,
6.792338,-0.0278,1.0079,-0.1211,-0.5935,0.2301,1.2758,0.6184,-0.4866,0.7860,
6.821550,-0.0278,1.0079,-0.1211,-0.5935,0.2301,1.2758,0.9267,-0.3506,0.9913,
6.825055,-0.0278,1.0079,-0.1211,-1.3064,0.8502,1.5071,0.9267,-0.3506,0.9913,
6.840875,-0.0125,0.9920,-0.1167,-1.3064,0.8502,1.5071,0.9267,-0.3506,0.9913,
6.843423,0.0835,1.0655,-0.1043,-1.3064,0.8502,1.5071,0.9267,-0.3506,0.9913,
6.846108,0.1021,1.1329,-0.1069,-1.3064,0.8502,1.5071,0.9267,-0.3506,0.9913,
6.879572,0.1021,1.1329,-0.1069,-1.3064,0.8502,1.5071,1.4207,-0.0965,1.1798,
6.883082,0.1021,1.1329,-0.1069,-1.5663,1.7754,2.1754,1.4207,-0.0965,1.1798,
6.902805,0.0488,1.1205,-0.0996,-1.5663,1.7754,2.1754,1.4207,-0.0965,1.1798,
6.905254,0.0388,1.1034,-0.1065,-1.5663,1.7754,2.1754,1.4207,-0.0965,1.1798,
6.906367,-0.0193,1.2526,-0.0806,-1.5663,1.7754,2.1754,1.4207,-0.0965,1.1798,
6.939082,-0.0193,1.2526,-0.0806,-1.5663,1.7754,2.1754,2.0342,-0.4343,1.3724,
6.940738,-0.0193,1.2526,-0.0806,-2.4385,3.2958,3.3056,2.0342,-0.4343,1.3724,
6.955971,-0.2095,1.5807,0.1338,-2.4385,3.2958,3.3056,2.0342,-0.4343,1.3724,
6.957099,-0.5670,1.7853,0.1228,-2.4385,3.2958,3.3056,2.0342,-0.4343,1.3724,
6.957609,-0.9408,1.7973,0.0891,-2.4385,3.2958,3.3056,2.0342,-0.4343,1.3724,
6.995140,-0.9408,1.7973,0.0891,-2.4385,3.2958,3.3056,2.5780,-0.9413,2.0994,
6.996872,-0.9408,1.7973,0.0891,-8.7729,9.7460,6.5588,2.5780,-0.9413,2.0994,
7.015643,-1.1085,1.7949,0.1160,-8.7729,9.7460,6.5588,2.5780,-0.9413,2.0994,
7.017434,-0.3584,1.4198,-0.0569,-8.7729,9.7460,6.5588,2.5780,-0.9413,2.0994,
7.018501,0.7091,1.3527,-0.5643,-8.7729,9.7460,6.5588,2.5780,-0.9413,2.0994,
7.053603,0.7091,1.3527,-0.5643,-8.7729,9.7460,6.5588,2.5715,-0.7402,2.8440,
7.057451,0.7091,1.3527,-0.5643,-6.3323,9.1397,4.8131,2.5715,-0.7402,2.8440,
7.074437,1.3759,1.2589,-0.4964,-6.3323,9.1397,4.8131,2.5715,-0.7402,2.8440,
7.077640,0.9718,1.0003,-0.6468,-6.3323,9.1397,4.8131,2.5715,-0.7402,2.8440,
7.086281,0.4512,0.6155,-0.6993,-6.3323,9.1397,4.8131,2.5715,-0.7402,2.8440,
7.112991,0.4512,0.6155,-0.6993,-6.3323,9.1397,4.8131,0.2928,0.7577,0.3645,
7.117649,0.4512,0.6155,-0.6993,4.7972,3.7413,0.3524,0.2928,0.7577,0.3645,
7.133331,0.3304,0.4292,-0.5513,4.7972,3.7413,0.3524,0.2928,0.7577,0.3645,
7.140042,0.1289,0.2830,-0.1961,4.7972,3.7413,0.3524,0.2928,0.7577,0.3645,
7.142428,0.0662,0.0916,0.0388,4.7972,3.7413,0.3524,0.2928,0.7577,0.3645,
7.170113,0.0662,0.0916,0.0388,4.7972,3.7413,0.3524,-1.5818,0.9175,-1.7359,
7.172210,0.0662,0.0916,0.0388,-2.2906,-3.9359,3.2071,-1.5818,0.9175,-1.7359,
7.189637,0.1289,0.0488,-0.0398,-2.2906,-3.9359,3.2071,-1.5818,0.9175,-1.7359,
7.190756,0.2161,0.1870,-0.2368,-2.2906,-3.9359,3.2071,-1.5818,0.9175,-1.7359,
7.191830,0.1863,0.2859,-0.2454,-2.2906,-3.9359,3.2071,-1.5818,0.9175,-1.7359,
7.228704,0.1863,0.2859,-0.2454,-0.8413,-6.2354,2.5129,-1.5818,0.9175,-1.7359,
7.230422,0.1863,0.2859,-0.2454,-0.8413,-6.2354,2.5129,-2.8654,0.1446,-3.4125,
7.252001,0.1428,0.3426,-0.0957,-0.8413,-6.2354,2.5129,-2.8654,0.1446,-3.4125,
7.253527,0.2100,0.4483,-0.0498,-0.8413,-6.2354,2.5129,-2.8654,0.1446,-3.4125,
7.254491,0.2810,0.6075,-0.1470,-0.8413,-6.2354,2.5129,-2.8654,0.1446,-3.4125,
7.286605,0.2810,0.6075,-0.1470,-0.8413,-6.2354,2.5129,-4.0199,-0.8257,-4.3911,
7.288133,0.2810,0.6075,-0.1470,1.8129,-4.4291,1.2856,-4.0199,-0.8257,-4.3911,
7.306873,0.2803,0.7540,-0.1524,1.8129,-4.4291,1.2856,-4.0199,-0.8257,-4.3911,
7.309326,0.2078,0.9696,-0.1370,1.8129,-4.4291,1.2856,-4.0199,-0.8257,-4.3911,
7.310589,0.1961,1.3842,-0.2324,1.8129,-4.4291,1.2856,-4.0199,-0.8257,-4.3911,
7.347005,0.1961,1.3842,-0.2324,4.3054,1.1240,-2.1923,-4.0199,-0.8257,-4.3911,
7.350861,0.1961,1.3842,-0.2324,4.3054,1.1240,-2.1923,-5.1295,-0.6960,-4.4402,
7.366733,0.3689,1.9721,-0.4310,4.3054,1.1240,-2.1923,-5.1295,-0.6960,-4.4402,
7.370833,0.4434,2.1303,-0.4864,4.3054,1.1240,-2.1923,-5.1295,-0.6960,-4.4402,
7.373652,0.5232,1.7778,-0.4366,4.3054,1.1240,-2.1923,-5.1295,-0.6960,-4.4402,
7.403175,0.5232,1.7778,-0.4366,4.3054,1.1240,-2.1923,-4.2040,-0.1657,-2.4135,
7.405392,0.5232,1.7778,-0.4366,7.5235,10.7653,-6.9453,-4.2040,-0.1657,-2.4135,
7.422644,0.7125,1.1486,-0.3623,7.5235,10.7653,-6.9453,-4.2040,-0.1657,-2.4135,
7.424574,0.7249,0.9977,-0.6380,7.5235,10.7653,-6.9453,-4.2040,-0.1657,-2.4135,
7.425494,0.7689,0.8797,-0.8255,7.5235,10.7653,-6.9453,-4.2040,-0.1657,-2.4135,
7.461678,0.7689,0.8797,-0.8255,7.5235,10.7653,-6.9453,-0.5144,1.5555,0.5812,
7.463056,0.7689,0.8797,-0.8255,10.1543,1.3895,-8.3031,-0.5144,1.5555,0.5812,
7.484924,0.7056,0.6678,-0.6463,10.1543,1.3895,-8.3031,-0.5144,1.5555,0.5812,
7.487292,0.4087,0.7640,-0.9806,10.1543,1.3895,-8.3031,-0.5144,1.5555,0.5812,
7.489081,-0.5232,1.5221,-0.6021,10.1543,1.3895,-8.3031,-0.5144,1.5555,0.5812,
7.521432,-0.5232,1.5221,-0.6021,10.1543,1.3895,-8.3031,0.6025,4.1564,0.4810,
7.524866,-0.5232,1.5221,-0.6021,5.0023,0.9908,-8.4345,0.6025,4.1564,0.4810,
7.541693,-2.3777,1.7534,1.1127,5.0023,0.9908,-8.4345,0.6025,4.1564,0.4810,
7.543231,-1.7392,1.7216,0.0720,5.0023,0.9908,-8.4345,0.6025,4.1564,0.4810,
7.544397,0.1011,1.5465,-1.1488,5.0023,0.9908,-8.4345,0.6025,4.1564,0.4810,
7.580205,0.1011,1.5465,-1.1488,5.0023,0.9908,-8.4345,1.6094,1.0468,2.6728,
7.584486,0.1011,1.5465,-1.1488,-11.1902,7.1882,-0.0263,1.6094,1.0468,2.6728,
7.615196,0.6075,0.8346,0.1958,-11.1902,7.1882,-0.0263,1.6094,1.0468,2.6728,
7.617129,0.0034,0.4642,0.2385,-11.1902,7.1882,-0.0263,1.6094,1.0468,2.6728,
7.619706,0.0481,0.8084,0.0640,-11.1902,7.1882,-0.0263,1.6094,1.0468,2.6728,
7.636902,0.0481,0.8084,0.0640,-11.1902,7.1882,-0.0263,0.8314,-0.4137,1.5636,
7.638975,0.0481,0.8084,0.0640,3.1848,-2.4246,1.8740,0.8314,-0.4137,1.5636,
7.656524,0.2132,1.2032,-0.3411,3.1848,-2.4246,1.8740,0.8314,-0.4137,1.5636,
7.658270,0.3934,1.1700,-0.2095,3.1848,-2.4246,1.8740,0.8314,-0.4137,1.5636,
7.659359,-0.0498,0.9359,-0.0762,3.1848,-2.4246,1.8740,0.8314,-0.4137,1.5636,
7.696833,-0.0498,0.9359,-0.0762,3.1848,-2.4246,1.8740,0.4669,0.2898,0.8467,
7.700699,-0.0498,0.9359,-0.0762,2.3429,1.4482,-1.5105,0.4669,0.2898,0.8467,
7.716231,-0.3523,1.0231,-0.0051,2.3429,1.4482,-1.5105,0.4669,0.2898,0.8467,
7.718084,-0.0974,1.0817,0.0649,2.3429,1.4482,-1.5105,0.4669,0.2898,0.8467,
7.718893,0.1565,0.9754,0.0571,2.3429,1.4482,-1.5105,0.4669,0.2898,0.8467,
7.755460,0.1565,0.9754,0.0571,2.3429,1.4482,-1.5105,0.4769,-0.0108,0.8092,
7.758448,0.1565,0.9754,0.0571,-0.8603,0.6926,1.1603,0.4769,-0.0108,0.8092,
7.775203,0.2012,0.9398,0.0061,-0.8603,0.6926,1.1603,0.4769,-0.0108,0.8092,
7.778127,0.1438,0.9591,-0.0095,-0.8603,0.6926,1.1603,0.4769,-0.0108,0.8092,
7.780824,-0.0186,0.9422,-0.0010,-0.8603,0.6926,1.1603,0.4769,-0.0108,0.8092,
7.812916,-0.0186,0.9422,-0.0010,0.8246,-0.0622,0.9842,0.4769,-0.0108,0.8092,
7.820085,-0.0186,0.9422,-0.0010,0.8246,-0.0622,0.9842,0.4363,0.1800,0.5787,
7.838793,-0.0940,1.0006,-0.0628,0.8246,-0.0622,0.9842,0.4363,0.1800,0.5787,
7.841520,-0.0584,1.0401,-0.0718,0.8246,-0.0622,0.9842,0.4363,0.1800,0.5787,
7.842749,-0.0359,1.0003,-0.0493,0.8246,-0.0622,0.9842,0.4363,0.1800,0.5787,
7.870983,-0.0359,1.0003,-0.0493,0.8246,-0.0622,0.9842,0.5730,0.0357,0.7013,
7.873660,-0.0359,1.0003,-0.0493,-1.2194,0.6366,0.6969,0.5730,0.0357,0.7013,
7.890811,0.0100,0.9659,-0.0547,-1.2194,0.6366,0.6969,0.5730,0.0357,0.7013,
7.893315,0.0244,0.9693,-0.0813,-1.2194,0.6366,0.6969,0.5730,0.0357,0.7013,
7.895564,-0.0159,0.9642,-0.1250,-1.2194,0.6366,0.6969,0.5730,0.0357,0.7013,
7.929760,-0.0159,0.9642,-0.1250,-1.2194,0.6366,0.6969,0.6457,-0.2174,0.8556,
7.932427,-0.0159,0.9642,-0.1250,-0.9701,0.2664,0.7910,0.6457,-0.2174,0.8556,
7.949082,0.0164,0.9435,-0.1509,-0.9701,0.2664,0.7910,0.6457,-0.2174,0.8556,
7.951934,0.0559,0.9498,-0.1514,-0.9701,0.2664,0.7910,0.6457,-0.2174,0.8556,
7.953506,0.0908,0.9598,-0.0984,-0.9701,0.2664,0.7910,0.6457,-0.2174,0.8556,
7.988083,0.0908,0.9598,-0.0984,-0.9701,0.2664,0.7910,0.7298,-0.4693,1.0758,
7.991365,0.0908,0.9598,-0.0984,-1.0025,0.2704,0.7465,0.7298,-0.4693,1.0758,
8.007965,0.1211,0.9588,-0.0493,-1.0025,0.2704,0.7465,0.7298,-0.4693,1.0758,
8.011021,0.0271,0.9376,0.0525,-1.0025,0.2704,0.7465,0.7298,-0.4693,1.0758,
8.012440,-0.0471,1.0121,0.0886,-1.0025,0.2704,0.7465,0.7298,-0.4693,1.0758,
8.045757,-0.0471,1.0121,0.0886,-1.8306,0.8071,3.1324,0.7298,-0.4693,1.0758,
8.048286,-0.0471,1.0121,0.0886,-1.8306,0.8071,3.1324,1.3602,-1.1466,1.5879,
8.066571,-0.0681,1.2079,0.1209,-1.8306,0.8071,3.1324,1.3602,-1.1466,1.5879,
8.068420,-0.1087,1.5028,0.2698,-1.8306,0.8071,3.1324,1.3602,-1.1466,1.5879,
8.070158,-0.1311,1.9294,0.2605,-1.8306,0.8071,3.1324,1.3602,-1.1466,1.5879,
8.103788,-0.1311,1.9294,0.2605,-1.8306,0.8071,3.1324,1.7399,-2.5385,2.7082,
8.105960,-0.1311,1.9294,0.2605,-3.9026,7.1014,6.0882,1.7399,-2.5385,2.7082,
8.125597,-0.1577,1.9668,-0.1126,-3.9026,7.1014,6.0882,1.7399,-2.5385,2.7082,
8.127166,-0.0652,1.6034,-0.3557,-3.9026,7.1014,6.0882,1.7399,-2.5385,2.7082,
8.128077,0.0806,1.1512,-0.3738,-3.9026,7.1014,6.0882,1.7399,-2.5385,2.7082,
8.161740,0.0806,1.1512,-0.3738,-3.9026,7.1014,6.0882,0.6428,-4.1616,3.4559,
8.163286,0.0806,1.1512,-0.3738,-3.7374,8.0323,2.2336,0.6428,-4.1616,3.4559,
8.181497,0.2971,0.8463,-0.5328,-3.7374,8.0323,2.2336,0.6428,-4.1616,3.4559,
8.183141,0.6055,0.6292,-0.7069,-3.7374,8.0323,2.2336,0.6428,-4.1616,3.4559,
8.184598,0.5584,0.3882,-0.7857,-3.7374,8.0323,2.2336,0.6428,-4.1616,3.4559,
8.220734,0.5584,0.3882,-0.7857,-3.7374,8.0323,2.2336,-1.3083,-3.5866,2.8448,
8.223989,0.5584,0.3882,-0.7857,1.3473,-1.1215,-1.4584,-1.3083,-3.5866,2.8448,
8.255107,0.2224,0.2217,-0.7337,1.3473,-1.1215,-1.4584,-1.3083,-3.5866,2.8448,
8.257497,-0.0632,0.1272,-0.7164,1.3473,-1.1215,-1.4584,-1.3083,-3.5866,2.8448,
8.258700,-0.1924,0.1411,-0.9557,1.3473,-1.1215,-1.4584,-1.3083,-3.5866,2.8448,
8.278177,-0.1924,0.1411,-0.9557,1.3473,-1.1215,-1.4584,-2.6247,-2.7027,2.2228,
8.280115,-0.1924,0.1411,-0.9557,-3.6408,-5.8090,-3.2189,-2.6247,-2.7027,2.2228,
8.298032,-0.2361,0.3101,-0.8365,-3.6408,-5.8090,-3.2189,-2.6247,-2.7027,2.2228,
8.299966,-0.0220,0.3975,-0.7972,-3.6408,-5.8090,-3.2189,-2.6247,-2.7027,2.2228,
8.300909,-0.1282,0.4476,-0.7769,-3.6408,-5.8090,-3.2189,-2.6247,-2.7027,2.2228,
8.337770,-0.1282,0.4476,-0.7769,-3.6408,-5.8090,-3.2189,-2.9255,-4.0454,1.4769,
8.341240,-0.1282,0.4476,-0.7769,-4.3429,-4.0233,-3.6773,-2.9255,-4.0454,1.4769,
8.357664,-0.3670,0.4656,-0.8221,-4.3429,-4.0233,-3.6773,-2.9255,-4.0454,1.4769,
8.361161,-0.5071,0.5232,-0.9247,-4.3429,-4.0233,-3.6773,-2.9255,-4.0454,1.4769,
8.363276,-0.3946,0.5670,-0.9818,-4.3429,-4.0233,-3.6773,-2.9255,-4.0454,1.4769,
8.397841,-0.3946,0.5670,-0.9818,-4.3429,-4.0233,-3.6773,-2.7084,-5.2268,0.8803,
8.402930,-0.3946,0.5670,-0.9818,-6.3199,-3.1479,-5.0761,-2.7084,-5.2268,0.8803,
8.423418,-0.2168,0.6417,-0.9391,-6.3199,-3.1479,-5.0761,-2.7084,-5.2268,0.8803,
8.425733,-0.1470,0.7638,-0.8412,-6.3199,-3.1479,-5.0761,-2.7084,-5.2268,0.8803,
8.426701,-0.1699,0.8414,-0.7396,-6.3199,-3.1479,-5.0761,-2.7084,-5.2268,0.8803,
8.453100,-0.1699,0.8414,-0.7396,-6.3199,-3.1479,-5.0761,-2.6897,-4.7717,-0.0340,
8.455882,-0.1699,0.8414,-0.7396,-2.8917,-1.4055,-5.1661,-2.6897,-4.7717,-0.0340,
8.474666,-0.1990,0.8853,-0.6558,-2.8917,-1.4055,-5.1661,-2.6897,-4.7717,-0.0340,
8.476477,-0.2600,0.9454,-0.6050,-2.8917,-1.4055,-5.1661,-2.6897,-4.7717,-0.0340,
8.477375,-0.2410,0.9877,-0.6392,-2.8917,-1.4055,-5.1661,-2.6897,-4.7717,-0.0340,
8.511658,-0.2410,0.9877,-0.6392,-2.8917,-1.4055,-5.1661,-2.1977,-4.8285,-0.4243,
8.513465,-0.2410,0.9877,-0.6392,-2.4414,0.1105,-4.0312,-2.1977,-4.8285,-0.4243,
8.537563,-0.1441,1.0274,-0.6324,-2.4414,0.1105,-4.0312,-2.1977,-4.8285,-0.4243,
8.540318,-0.0552,1.0262,-0.6072,-2.4414,0.1105,-4.0312,-2.1977,-4.8285,-0.4243,
8.541885,0.0693,1.0128,-0.6019,-2.4414,0.1105,-4.0312,-2.1977,-4.8285,-0.4243,
8.570493,0.0693,1.0128,-0.6019,-2.4414,0.1105,-4.0312,-1.5064,-4.7073,-0.2633,
8.573145,0.0693,1.0128,-0.6019,0.0373,0.7553,-4.6174,-1.5064,-4.7073,-0.2633,
8.592604,0.1155,0.9913,-0.5713,0.0373,0.7553,-4.6174,-1.5064,-4.7073,-0.2633,
8.595569,0.1472,0.9173,-0.5359,0.0373,0.7553,-4.6174,-1.5064,-4.7073,-0.2633,
8.596795,0.2617,0.8836,-0.5828,0.0373,0.7553,-4.6174,-1.5064,-4.7073,-0.2633,
8.629387,0.2617,0.8836,-0.5828,0.0373,0.7553,-4.6174,-0.4130,-4.0908,0.2983,
8.633143,0.2617,0.8836,-0.5828,2.2555,-0.1775,-4.4042,-0.4130,-4.0908,0.2983,
8.652152,0.4195,0.8841,-0.6275,2.2555,-0.1775,-4.4042,-0.4130,-4.0908,0.2983,
8.656440,0.6756,0.8966,-0.6839,2.2555,-0.1775,-4.4042,-0.4130,-4.0908,0.2983,
8.659306,0.8914,0.8438,-0.5362,2.2555,-0.1775,-4.4042,-0.4130,-4.0908,0.2983,
8.686846,0.8914,0.8438,-0.5362,2.2555,-0.1775,-4.4042,-0.3924,-1.2846,0.8886,
8.689063,0.8914,0.8438,-0.5362,6.5150,-0.7538,-5.0800,-0.3924,-1.2846,0.8886,
8.707039,0.8565,0.8831,-0.1226,6.5150,-0.7538,-5.0800,-0.3924,-1.2846,0.8886,
8.708756,0.5279,1.1175,0.3968,6.5150,-0.7538,-5.0800,-0.3924,-1.2846,0.8886,
8.709511,0.1436,1.1766,0.2244,6.5150,-0.7538,-5.0800,-0.3924,-1.2846,0.8886,
8.745527,0.1436,1.1766,0.2244,6.5150,-0.7538,-5.0800,-0.4934,1.0198,0.1320,
8.747590,0.1436,1.1766,0.2244,4.8177,1.0113,2.2721,-0.4934,1.0198,0.1320,
8.767427,-0.4720,1.3585,-0.1397,4.8177,1.0113,2.2721,-0.4934,1.0198,0.1320,
8.770876,-0.2854,1.0965,0.1651,4.8177,1.0113,2.2721,-0.4934,1.0198,0.1320,
8.774820,-0.0642,0.9083,-0.0796,4.8177,1.0113,2.2721,-0.4934,1.0198,0.1320,
8.805440,-0.0642,0.9083,-0.0796,-3.1343,1.5954,0.3223,-0.4934,1.0198,0.1320,
8.809167,-0.0642,0.9083,-0.0796,-3.1343,1.5954,0.3223,-0.2651,-0.2337,0.6156,
8.826022,-0.0645,1.0643,-0.1543,-3.1343,1.5954,0.3223,-0.2651,-0.2337,0.6156,
8.829679,0.0403,1.0756,-0.0168,-3.1343,1.5954,0.3223,-0.2651,-0.2337,0.6156,
8.831957,0.1548,1.0033,0.0449,-3.1343,1.5954,0.3223,-0.2651,-0.2337,0.6156,
8.862642,0.1548,1.0033,0.0449,-3.1343,1.5954,0.3223,-0.1810,-0.1543,0.5382,
8.866291,0.1548,1.0033,0.0449,-0.3089,0.8751,-0.0067,-0.1810,-0.1543,0.5382,
8.885230,0.1345,0.9688,0.0618,-0.3089,0.8751,-0.0067,-0.1810,-0.1543,0.5382,
8.888567,0.0425,1.0182,0.0588,-0.3089,0.8751,-0.0067,-0.1810,-0.1543,0.5382,
8.891485,0.0671,1.0646,0.0093,-0.3089,0.8751,-0.0067,-0.1810,-0.1543,0.5382,
8.922541,0.0671,1.0646,0.0093,-0.3089,0.8751,-0.0067,0.0014,-0.4276,0.4435,
8.926418,0.0671,1.0646,0.0093,-0.1676,0.5881,0.8382,0.0014,-0.4276,0.4435,
8.955500,0.0884,1.0599,-0.0164,-0.1676,0.5881,0.8382,0.0014,-0.4276,0.4435,
8.956994,0.0999,1.0155,0.0254,-0.1676,0.5881,0.8382,0.0014,-0.4276,0.4435,
8.957885,0.1343,0.9898,0.0027,-0.1676,0.5881,0.8382,0.0014,-0.4276,0.4435,
8.978811,0.1343,0.9898,0.0027,-0.1676,0.5881,0.8382,0.1498,-0.2065,0.3291,
8.980724,0.1343,0.9898,0.0027,-0.0846,0.6461,0.5374,0.1498,-0.2065,0.3291,
9.001397,0.1353,0.9928,-0.0037,-0.0846,0.6461,0.5374,0.1498,-0.2065,0.3291,
9.005299,0.1167,1.0096,-0.0186,-0.0846,0.6461,0.5374,0.1498,-0.2065,0.3291,
9.007320,0.1243,1.0021,-0.0501,-0.0846,0.6461,0.5374,0.1498,-0.2065,0.3291,
9.038305,0.1243,1.0021,-0.0501,-0.0846,0.6461,0.5374,0.1841,-0.2276,0.2613,
9.041220,0.1243,1.0021,-0.0501,-0.0436,0.4640,0.3733,0.1841,-0.2276,0.2613,
9.057785,0.0603,0.9947,-0.0503,-0.0436,0.4640,0.3733,0.1841,-0.2276,0.2613,
9.060291,0.0159,1.0072,0.0015,-0.0436,0.4640,0.3733,0.1841,-0.2276,0.2613,
9.062165,0.0200,1.0096,0.0186,-0.0436,0.4640,0.3733,0.1841,-0.2276,0.2613,
9.097025,0.0200,1.0096,0.0186,-0.0436,0.4640,0.3733,0.3203,-0.3586,0.4504,
9.101203,0.0200,1.0096,0.0186,-1.1688,0.5279,0.7018,0.3203,-0.3586,0.4504,
9.117612,0.0405,0.9886,0.0203,-1.1688,0.5279,0.7018,0.3203,-0.3586,0.4504,
9.120268,0.1211,0.9576,0.0195,-1.1688,0.5279,0.7018,0.3203,-0.3586,0.4504,
9.121654,0.1021,0.9730,0.0127,-1.1688,0.5279,0.7018,0.3203,-0.3586,0.4504,
9.156497,0.1021,0.9730,0.0127,-0.9315,0.3116,1.2660,0.3203,-0.3586,0.4504,
9.159545,0.1021,0.9730,0.0127,-0.9315,0.3116,1.2660,0.5119,-0.4040,0.6441,
9.174019,0.0168,1.0101,-0.0269,-0.9315,0.3116,1.2660,0.5119,-0.4040,0.6441,
9.175540,0.0762,1.0338,-0.0386,-0.9315,0.3116,1.2660,0.5119,-0.4040,0.6441,
9.176121,0.1914,1.0082,-0.0891,-0.9315,0.3116,1.2660,0.5119,-0.4040,0.6441,
9.213083,0.1914,1.0082,-0.0891,-0.9315,0.3116,1.2660,0.5921,-0.5237,0.8357,
9.217131,0.1914,1.0082,-0.0891,-1.2495,0.8723,0.9507,0.5921,-0.5237,0.8357,
9.232260,0.1787,0.9994,-0.1260,-1.2495,0.8723,0.9507,0.5921,-0.5237,0.8357,
9.234645,0.0698,1.0382,-0.1333,-1.2495,0.8723,0.9507,0.5921,-0.5237,0.8357,
9.236471,0.0715,1.0936,-0.1165,-1.2495,0.8723,0.9507,0.5921,-0.5237,0.8357,
9.270175,0.0715,1.0936,-0.1165,-1.2495,0.8723,0.9507,0.7575,-0.5607,1.0778,
9.271912,0.0715,1.0936,-0.1165,-1.6157,1.3362,0.6931,0.7575,-0.5607,1.0778,
9.295702,0.1304,1.1153,-0.0654,-1.6157,1.3362,0.6931,0.7575,-0.5607,1.0778,
9.297324,0.0237,1.1224,-0.0042,-1.6157,1.3362,0.6931,0.7575,-0.5607,1.0778,
9.297951,-0.0100,1.1300,-0.0784,-1.6157,1.3362,0.6931,0.7575,-0.5607,1.0778,
9.328157,-0.0100,1.1300,-0.0784,-1.6157,1.3362,0.6931,1.1755,-0.9493,1.5290,
9.329737,-0.0100,1.1300,-0.0784,-2.7912,2.4916,2.1626,1.1755,-0.9493,1.5290,
9.348030,0.0921,1.1627,-0.1892,-2.7912,2.4916,2.1626,1.1755,-0.9493,1.5290,
9.349590,0.1101,1.2499,-0.2119,-2.7912,2.4916,2.1626,1.1755,-0.9493,1.5290,
9.350834,-0.0283,1.4953,-0.0725,-2.7912,2.4916,2.1626,1.1755,-0.9493,1.5290,
9.388484,-0.0283,1.4953,-0.0725,-2.7912,2.4916,2.1626,1.7088,-0.8110,1.6819,
9.398092,-0.0283,1.4953,-0.0725,-3.2949,4.8404,2.0488,1.7088,-0.8110,1.6819,
9.409897,-0.4229,1.6811,0.1099,-3.2949,4.8404,2.0488,1.7088,-0.8110,1.6819,
9.413435,-0.7730,1.6752,0.1443,-3.2949,4.8404,2.0488,1.7088,-0.8110,1.6819,
9.415269,-1.1056,1.6227,0.0745,-3.2949,4.8404,2.0488,1.7088,-0.8110,1.6819,
9.446415,-1.1056,1.6227,0.0745,-3.2949,4.8404,2.0488,1.8609,-2.4386,2.7502,
9.448781,-1.1056,1.6227,0.0745,-11.7463,9.3173,5.9690,1.8609,-2.4386,2.7502,
9.486166,-0.7703,1.2899,-0.0811,-11.7463,9.3173,5.9690,1.8609,-2.4386,2.7502,
9.489700,0.1968,1.0936,-0.5665,-11.7463,9.3173,5.9690,1.8609,-2.4386,2.7502,
9.492146,1.0238,1.2560,-0.6876,-11.7463,9.3173,5.9690,1.8609,-2.4386,2.7502,
9.505459,1.0238,1.2560,-0.6876,-3.0525,6.1517,1.7287,1.8609,-2.4386,2.7502,
9.507447,1.0238,1.2560,-0.6876,-3.0525,6.1517,1.7287,1.8265,-2.1421,2.8157,
9.538020,0.8375,1.1906,-0.4896,-3.0525,6.1517,1.7287,1.8265,-2.1421,2.8157,
9.539536,0.4698,0.8243,-0.4942,-3.0525,6.1517,1.7287,1.8265,-2.1421,2.8157,
9.540244,0.3731,0.5452,-0.7950,-3.0525,6.1517,1.7287,1.8265,-2.1421,2.8157,
9.561725,0.3731,0.5452,-0.7950,-3.0525,6.1517,1.7287,-0.5478,-0.7540,0.7974,
9.564830,0.3731,0.5452,-0.7950,0.9606,2.5942,0.2945,-0.5478,-0.7540,0.7974,
9.590081,0.2486,0.5394,-0.7186,0.9606,2.5942,0.2945,-0.5478,-0.7540,0.7974,
9.592027,0.0317,0.3724,-0.2884,0.9606,2.5942,0.2945,-0.5478,-0.7540,0.7974,
9.593063,-0.1426,0.2178,-0.0422,0.9606,2.5942,0.2945,-0.5478,-0.7540,0.7974,
9.621676,-0.1426,0.2178,-0.0422,-3.4890,-3.1371,1.8088,-0.5478,-0.7540,0.7974,
9.625871,-0.1426,0.2178,-0.0422,-3.4890,-3.1371,1.8088,-2.3983,-0.1743,-1.2582,
9.645304,-0.1568,0.2278,-0.1792,-3.4890,-3.1371,1.8088,-2.3983,-0.1743,-1.2582,
9.648357,-0.0977,0.3538,-0.4085,-3.4890,-3.1371,1.8088,-2.3983,-0.1743,-1.2582,
9.650262,-0.0046,0.4227,-0.4234,-3.4890,-3.1371,1.8088,-2.3983,-0.1743,-1.2582,
9.679422,-0.0046,0.4227,-0.4234,-3.4890,-3.1371,1.8088,-3.5746,-0.9698,-2.6542,
9.683051,-0.0046,0.4227,-0.4234,-3.2964,-4.9153,0.5239,-3.5746,-0.9698,-2.6542,
9.698899,0.0515,0.4725,-0.3641,-3.2964,-4.9153,0.5239,-3.5746,-0.9698,-2.6542,
9.702647,0.0711,0.5447,-0.3372,-3.2964,-4.9153,0.5239,-3.5746,-0.9698,-2.6542,
9.705464,0.0168,0.6302,-0.2920,-3.2964,-4.9153,0.5239,-3.5746,-0.9698,-2.6542,
9.738128,0.0168,0.6302,-0.2920,-3.2964,-4.9153,0.5239,-4.5905,-1.8729,-3.9161,
9.742342,0.0168,0.6302,-0.2920,0.3086,-3.7853,-1.6088,-4.5905,-1.8729,-3.9161,
9.756998,0.0166,0.7806,-0.2586,0.3086,-3.7853,-1.6088,-4.5905,-1.8729,-3.9161,
9.759823,-0.0146,1.0426,-0.3829,0.3086,-3.7853,-1.6088,-4.5905,-1.8729,-3.9161,
9.761318,0.0952,1.5461,-0.7015,0.3086,-3.7853,-1.6088,-4.5905,-1.8729,-3.9161,
9.794931,0.0952,1.5461,-0.7015,0.3086,-3.7853,-1.6088,-5.0558,-1.0146,-3.8741,
9.796935,0.0952,1.5461,-0.7015,2.2406,1.9393,-5.4193,-5.0558,-1.0146,-3.8741,
9.814570,0.4986,1.9477,-0.9518,2.2406,1.9393,-5.4193,-5.0558,-1.0146,-3.8741,
9.816688,0.8292,1.7741,-1.0060,2.2406,1.9393,-5.4193,-5.0558,-1.0146,-3.8741,
9.817997,1.0318,1.3422,-0.8939,2.2406,1.9393,-5.4193,-5.0558,-1.0146,-3.8741,
9.853148,1.0318,1.3422,-0.8939,2.2406,1.9393,-5.4193,-3.1582,1.6978,-2.0541,
9.855483,1.0318,1.3422,-0.8939,10.7034,7.9672,-11.4962,-3.1582,1.6978,-2.0541,
9.873305,1.0846,1.0104,-0.7379,10.7034,7.9672,-11.4962,-3.1582,1.6978,-2.0541,
9.875025,0.9549,0.8954,-0.9095,10.7034,7.9672,-11.4962,-3.1582,1.6978,-2.0541,
9.875850,0.7689,0.7528,-1.0692,10.7034,7.9672,-11.4962,-3.1582,1.6978,-2.0541,
9.911372,0.7689,0.7528,-1.0692,10.7034,7.9672,-11.4962,-0.0238,3.5429,0.9255,
9.913292,0.7689,0.7528,-1.0692,11.9149,-0.0437,-10.2530,-0.0238,3.5429,0.9255,
9.931433,0.4217,1.2306,-1.1217,11.9149,-0.0437,-10.2530,-0.0238,3.5429,0.9255,
9.934661,-1.4508,1.7211,0.9437,11.9149,-0.0437,-10.2530,-0.0238,3.5429,0.9255,
9.936777,-2.8934,1.4584,0.9232,11.9149,-0.0437,-10.2530,-0.0238,3.5429,0.9255,
9.971373,-2.8934,1.4584,0.9232,11.9149,-0.0437,-10.2530,1.1584,1.1749,1.2507,
9.975387,-2.8934,1.4584,0.9232,-10.4631,5.3433,1.8013,1.1584,1.1749,1.2507,
9.993714,-0.6661,1.4674,-0.3567,-10.4631,5.3433,1.8013,1.1584,1.1749,1.2507,
9.996142,0.5503,1.1097,-1.0140,-10.4631,5.3433,1.8013,1.1584,1.1749,1.2507,
9.997355,0.7601,0.7376,0.1392,-10.4631,5.3433,1.8013,1.1584,1.1749,1.2507,
10.028051,0.7601,0.7376,0.1392,-10.4631,5.3433,1.8013,0.6208,-0.4785,1.8051,
10.029954,0.7601,0.7376,0.1392,3.4199,1.5256,-4.2965,0.6208,-0.4785,1.8051,
10.047538,0.3228,0.6641,0.4122,3.4199,1.5256,-4.2965,0.6208,-0.4785,1.8051,
10.048590,-0.0938,1.0751,-0.1184,3.4199,1.5256,-4.2965,0.6208,-0.4785,1.8051,
10.049104,-0.0537,1.1764,-0.1438,3.4199,1.5256,-4.2965,0.6208,-0.4785,1.8051,
10.086522,-0.0537,1.1764,-0.1438,3.4199,1.5256,-4.2965,0.4679,0.0460,0.8738,
10.088279,-0.0537,1.1764,-0.1438,1.3883,0.1599,0.4649,0.4679,0.0460,0.8738,
10.107215,0.1270,1.0035,-0.0732,1.3883,0.1599,0.4649,0.4679,0.0460,0.8738,
10.109016,-0.1257,1.0187,-0.0186,1.3883,0.1599,0.4649,0.4679,0.0460,0.8738,
10.109647,-0.1675,1.0289,0.0520,1.3883,0.1599,0.4649,0.4679,0.0460,0.8738,
10.146615,-0.1675,1.0289,0.0520,1.3883,0.1599,0.4649,0.4681,0.2277,0.6991,
10.150292,-0.1675,1.0289,0.0520,-0.1097,0.5703,0.1072,0.4681,0.2277,0.6991,
10.165866,-0.1172,1.0074,0.1265,-0.1097,0.5703,0.1072,0.4681,0.2277,0.6991,
10.169614,-0.1546,0.9779,0.1331,-0.1097,0.5703,0.1072,0.4681,0.2277,0.6991,
10.171890,-0.0781,0.9552,0.1206,-0.1097,0.5703,0.1072,0.4681,0.2277,0.6991,
10.205443,-0.0781,0.9552,0.1206,-0.1097,0.5703,0.1072,0.7112,-0.1841,0.9074,
10.209356,-0.0781,0.9552,0.1206,-1.1817,0.2135,1.8368,0.7112,-0.1841,0.9074,
10.224269,-0.0093,0.9708,0.0708,-1.1817,0.2135,1.8368,0.7112,-0.1841,0.9074,
10.226217,-0.0256,1.0069,0.0127,-1.1817,0.2135,1.8368,0.7112,-0.1841,0.9074,
10.227017,-0.0259,1.0077,-0.0249,-1.1817,0.2135,1.8368,0.7112,-0.1841,0.9074,
10.263159,-0.0259,1.0077,-0.0249,-1.1817,0.2135,1.8368,0.8900,-0.1317,0.9784,
10.267104,-0.0259,1.0077,-0.0249,-0.7528,0.4141,1.2534,0.8900,-0.1317,0.9784,
10.282387,-0.0061,0.9781,0.0239,-0.7528,0.4141,1.2534,0.8900,-0.1317,0.9784,
10.285590,0.0054,0.9681,0.0364,-0.7528,0.4141,1.2534,0.8900,-0.1317,0.9784,
10.287109,0.0823,0.9840,-0.0818,-0.7528,0.4141,1.2534,0.8900,-0.1317,0.9784,
10.321314,0.0823,0.9840,-0.0818,-0.7528,0.4141,1.2534,1.0063,-0.2806,1.0446,
10.325236,0.0823,0.9840,-0.0818,-0.8170,0.3569,1.5244,1.0063,-0.2806,1.0446,
10.345167,0.1384,1.0047,-0.1790,-0.8170,0.3569,1.5244,1.0063,-0.2806,1.0446,
10.347677,0.0835,1.0172,-0.2188,-0.8170,0.3569,1.5244,1.0063,-0.2806,1.0446,
10.349758,0.0303,1.0077,-0.2298,-0.8170,0.3569,1.5244,1.0063,-0.2806,1.0446,
10.379443,0.0303,1.0077,-0.2298,-0.8170,0.3569,1.5244,0.9870,-0.2747,1.0320,
10.382810,0.0303,1.0077,-0.2298,-0.7658,0.8554,0.0900,0.9870,-0.2747,1.0320,
10.398927,0.0654,1.0416,-0.2351,-0.7658,0.8554,0.0900,0.9870,-0.2747,1.0320,
10.401816,0.0679,1.0548,-0.2041,-0.7658,0.8554,0.0900,0.9870,-0.2747,1.0320,
10.403989,-0.0298,1.0284,-0.1782,-0.7658,0.8554,0.0900,0.9870,-0.2747,1.0320,
10.437765,-0.0298,1.0284,-0.1782,-0.7658,0.8554,0.0900,1.2928,-0.1401,1.1861,
10.441097,-0.0298,1.0284,-0.1782,-1.8161,1.4598,0.7944,1.2928,-0.1401,1.1861,
10.461408,-0.0576,1.0743,-0.1397,-1.8161,1.4598,0.7944,1.2928,-0.1401,1.1861,
10.463963,0.0171,1.1600,-0.0977,-1.8161,1.4598,0.7944,1.2928,-0.1401,1.1861,
10.465960,-0.0110,1.1691,-0.0708,-1.8161,1.4598,0.7944,1.2928,-0.1401,1.1861,
10.497525,-0.0110,1.1691,-0.0708,-1.8161,1.4598,0.7944,1.8489,-0.4691,1.4482,
10.499637,-0.0110,1.1691,-0.0708,-2.8988,2.8867,2.7415,1.8489,-0.4691,1.4482,
10.514019,-0.0859,1.2382,-0.0459,-2.8988,2.8867,2.7415,1.8489,-0.4691,1.4482,
10.515014,-0.3072,1.5656,0.1836,-2.8988,2.8867,2.7415,1.8489,-0.4691,1.4482,
10.516212,-0.8543,1.8017,0.2151,-2.8988,2.8867,2.7415,1.8489,-0.4691,1.4482,
10.553002,-0.8543,1.8017,0.2151,-2.8988,2.8867,2.7415,2.5436,-1.1865,1.9039,
10.554242,-0.8543,1.8017,0.2151,-7.2350,7.6774,6.1577,2.5436,-1.1865,1.9039,
10.572240,-1.1451,1.7663,0.1878,-7.2350,7.6774,6.1577,2.5436,-1.1865,1.9039,
10.573350,-0.7362,1.5839,0.0691,-7.2350,7.6774,6.1577,2.5436,-1.1865,1.9039,
10.573907,0.1655,1.3886,-0.3765,-7.2350,7.6774,6.1577,2.5436,-1.1865,1.9039,
10.611351,0.1655,1.3886,-0.3765,-7.2350,7.6774,6.1577,2.6015,-1.5844,2.9408,
10.612841,0.1655,1.3886,-0.3765,-9.2198,9.4141,5.8506,2.6015,-1.5844,2.9408,
10.634361,1.0565,1.4779,-0.6102,-9.2198,9.4141,5.8506,2.6015,-1.5844,2.9408,
10.636008,1.1923,1.2435,-0.3267,-9.2198,9.4141,5.8506,2.6015,-1.5844,2.9408,
10.636695,0.5709,0.8641,-0.5648,-9.2198,9.4141,5.8506,2.6015,-1.5844,2.9408,
10.670200,0.5709,0.8641,-0.5648,-9.2198,9.4141,5.8506,0.8420,0.3034,0.5486,
10.672531,0.5709,0.8641,-0.5648,5.2026,5.9772,1.5269,0.8420,0.3034,0.5486,
10.691030,0.3970,0.5608,-0.6934,5.2026,5.9772,1.5269,0.8420,0.3034,0.5486,
10.694582,0.3372,0.5210,-0.4585,5.2026,5.9772,1.5269,0.8420,0.3034,0.5486,
10.696997,0.2097,0.3413,-0.1904,5.2026,5.9772,1.5269,0.8420,0.3034,0.5486,
10.728524,0.2097,0.3413,-0.1904,5.2026,5.9772,1.5269,-1.6524,0.5408,-1.0747,
10.731011,0.2097,0.3413,-0.1904,-0.7198,-1.8862,1.3063,-1.6524,0.5408,-1.0747,
10.754265,0.1043,0.1726,0.0454,-0.7198,-1.8862,1.3063,-1.6524,0.5408,-1.0747,
10.756602,0.0957,0.1502,-0.0420,-0.7198,-1.8862,1.3063,-1.6524,0.5408,-1.0747,
10.758011,0.1123,0.2666,-0.2520,-0.7198,-1.8862,1.3063,-1.6524,0.5408,-1.0747,
10.789109,0.1123,0.2666,-0.2520,-0.7198,-1.8862,1.3063,-3.0668,-0.6391,-2.4980,
10.793774,0.1123,0.2666,-0.2520,-1.5127,-5.8932,3.6345,-3.0668,-0.6391,-2.4980,
10.807500,0.1182,0.3797,-0.2864,-1.5127,-5.8932,3.6345,-3.0668,-0.6391,-2.4980,
10.811064,0.1384,0.4668,-0.2808,-1.5127,-5.8932,3.6345,-3.0668,-0.6391,-2.4980,
10.826652,0.1377,0.5779,-0.3401,-1.5127,-5.8932,3.6345,-3.0668,-0.6391,-2.4980,
10.844916,0.1377,0.5779,-0.3401,-1.5127,-5.8932,3.6345,-4.4889,-1.1403,-3.5290,
10.847010,0.1377,0.5779,-0.3401,0.7193,-4.3079,-0.6318,-4.4889,-1.1403,-3.5290,
10.864460,0.0967,0.6575,-0.3208,0.7193,-4.3079,-0.6318,-4.4889,-1.1403,-3.5290,
10.866635,0.1255,0.7882,-0.3533,0.7193,-4.3079,-0.6318,-4.4889,-1.1403,-3.5290,
10.867918,0.1636,1.0756,-0.5565,0.7193,-4.3079,-0.6318,-4.4889,-1.1403,-3.5290,
10.903671,0.1636,1.0756,-0.5565,0.7193,-4.3079,-0.6318,-5.3138,-0.3903,-3.9613,
10.907179,0.1636,1.0756,-0.5565,2.7915,-0.8765,-4.4535,-5.3138,-0.3903,-3.9613,
10.925005,0.2595,1.5246,-0.6263,2.7915,-0.8765,-4.4535,-5.3138,-0.3903,-3.9613,
10.928576,0.2588,1.8183,-0.7786,2.7915,-0.8765,-4.4535,-5.3138,-0.3903,-3.9613,
10.931109,0.2405,1.6374,-0.7691,2.7915,-0.8765,-4.4535,-5.3138,-0.3903,-3.9613,
10.962623,0.2405,1.6374,-0.7691,2.7915,-0.8765,-4.4535,-4.5392,0.9642,-3.3339,
10.968627,0.2405,1.6374,-0.7691,5.7179,7.9075,-9.5391,-4.5392,0.9642,-3.3339,
10.983401,0.4986,1.3766,-0.4954,5.7179,7.9075,-9.5391,-4.5392,0.9642,-3.3339,
10.987371,0.5699,1.1398,-0.3924,5.7179,7.9075,-9.5391,-4.5392,0.9642,-3.3339,
10.989929,0.4695,1.0143,-0.5670,5.7179,7.9075,-9.5391,-4.5392,0.9642,-3.3339,
11.019967,0.4695,1.0143,-0.5670,5.7179,7.9075,-9.5391,-1.2831,1.3056,-0.5422,
11.022223,0.4695,1.0143,-0.5670,8.5882,3.4211,-7.4032,-1.2831,1.3056,-0.5422,
11.040877,0.4019,0.8824,-0.5433,8.5882,3.4211,-7.4032,-1.2831,1.3056,-0.5422,
11.043408,0.3855,0.7664,-0.4273,8.5882,3.4211,-7.4032,-1.2831,1.3056,-0.5422,
11.045120,0.3853,0.9579,-0.5482,8.5882,3.4211,-7.4032,-1.2831,1.3056,-0.5422,
11.083194,0.3853,0.9579,-0.5482,8.5882,3.4211,-7.4032,0.4832,2.5872,1.1967,
11.086259,0.3853,0.9579,-0.5482,7.0505,0.0976,-6.7339,0.4832,2.5872,1.1967,
11.098801,-0.2429,1.5280,-0.0371,7.0505,0.0976,-6.7339,0.4832,2.5872,1.1967,
11.101171,-2.4690,1.6401,1.6215,7.0505,0.0976,-6.7339,0.4832,2.5872,1.1967,
11.103776,-1.3537,1.3500,-0.0674,7.0505,0.0976,-6.7339,0.4832,2.5872,1.1967,
11.137813,-1.3537,1.3500,-0.0674,-10.8592,5.7883,4.0885,0.4832,2.5872,1.1967,
11.142543,-1.3537,1.3500,-0.0674,-10.8592,5.7883,4.0885,1.6159,0.9226,2.0992,
11.168021,0.3037,1.3764,-0.7298,-10.8592,5.7883,4.0885,1.6159,0.9226,2.0992,
11.170722,0.4278,1.0470,-0.4053,-10.8592,5.7883,4.0885,1.6159,0.9226,2.0992,
11.172678,0.1829,0.7379,0.2576,-10.8592,5.7883,4.0885,1.6159,0.9226,2.0992,
11.195221,0.1829,0.7379,0.2576,-10.8592,5.7883,4.0885,1.1301,0.2291,1.8878,
11.197985,0.1829,0.7379,0.2576,4.3416,1.0890,-3.0530,1.1301,0.2291,1.8878,
11.216668,0.0142,0.8165,0.2390,4.3416,1.0890,-3.0530,1.1301,0.2291,1.8878,
11.217952,-0.0364,1.0248,-0.0635,4.3416,1.0890,-3.0530,1.1301,0.2291,1.8878,
11.218898,0.1485,1.0973,-0.2161,4.3416,1.0890,-3.0530,1.1301,0.2291,1.8878,
11.253549,0.1485,1.0973,-0.2161,4.3416,1.0890,-3.0530,0.8104,-0.1224,1.2664,
11.265249,0.1485,1.0973,-0.2161,1.0645,0.2835,0.1120,0.8104,-0.1224,1.2664,
11.272878,0.1719,1.0133,-0.1670,1.0645,0.2835,0.1120,0.8104,-0.1224,1.2664,
11.274910,-0.0603,1.0253,-0.1204,1.0645,0.2835,0.1120,0.8104,-0.1224,1.2664,
11.275966,-0.0129,1.0265,-0.0657,1.0645,0.2835,0.1120,0.8104,-0.1224,1.2664,
11.311816,-0.0129,1.0265,-0.0657,1.0645,0.2835,0.1120,0.5970,0.3873,0.8404,
11.313459,-0.0129,1.0265,-0.0657,0.4988,0.6788,-0.5668,0.5970,0.3873,0.8404,
11.330795,0.0645,1.0255,-0.0264,0.4988,0.6788,-0.5668,0.5970,0.3873,0.8404,
11.331710,0.0002,1.0377,-0.0889,0.4988,0.6788,-0.5668,0.5970,0.3873,0.8404,
11.332364,-0.0374,0.9969,-0.0877,0.4988,0.6788,-0.5668,0.5970,0.3873,0.8404,
11.370318,-0.0374,0.9969,-0.0877,0.4988,0.6788,-0.5668,0.5013,0.0462,0.7194,
11.372397,-0.0374,0.9969,-0.0877,-0.1250,0.6735,0.1937,0.5013,0.0462,0.7194,
11.389675,0.0144,0.9869,-0.0466,-0.1250,0.6735,0.1937,0.5013,0.0462,0.7194,
11.391928,0.0386,1.0101,-0.0339,-0.1250,0.6735,0.1937,0.5013,0.0462,0.7194,
11.393405,-0.0024,1.0226,-0.0505,-0.1250,0.6735,0.1937,0.5013,0.0462,0.7194,
11.428043,-0.0024,1.0226,-0.0505,-0.1250,0.6735,0.1937,0.5683,-0.0040,0.7357,
11.429521,-0.0024,1.0226,-0.0505,-0.4404,0.5825,0.7244,0.5683,-0.0040,0.7357,
11.447358,-0.0215,0.9989,-0.0173,-0.4404,0.5825,0.7244,0.5683,-0.0040,0.7357,
11.448345,0.0432,0.9278,0.0063,-0.4404,0.5825,0.7244,0.5683,-0.0040,0.7357,
11.449173,0.1140,0.9415,-0.0266,-0.4404,0.5825,0.7244,0.5683,-0.0040,0.7357,
11.486060,0.1140,0.9415,-0.0266,-0.4404,0.5825,0.7244,0.7155,-0.0211,0.8221,
11.487267,0.1140,0.9415,-0.0266,-0.5934,0.1807,1.3929,0.7155,-0.0211,0.8221,
11.506889,0.0593,0.9725,-0.0588,-0.5934,0.1807,1.3929,0.7155,-0.0211,0.8221,
11.509248,0.0027,0.9693,-0.1008,-0.5934,0.1807,1.3929,0.7155,-0.0211,0.8221,
11.511052,0.0090,1.0016,-0.1397,-0.5934,0.1807,1.3929,0.7155,-0.0211,0.8221,
11.546713,0.0090,1.0016,-0.1397,-0.5934,0.1807,1.3929,0.8361,-0.3129,1.0344,
11.550034,0.0090,1.0016,-0.1397,-1.2999,0.5802,0.9897,0.8361,-0.3129,1.0344,
11.565135,0.0142,1.0160,-0.1497,-1.2999,0.5802,0.9897,0.8361,-0.3129,1.0344,
11.566821,0.1511,0.9364,-0.2168,-1.2999,0.5802,0.9897,0.8361,-0.3129,1.0344,
11.567522,0.2578,0.8973,-0.2544,-1.2999,0.5802,0.9897,0.8361,-0.3129,1.0344,
11.604643,0.2578,0.8973,-0.2544,-1.2999,0.5802,0.9897,0.7550,-0.9104,1.0896,
11.607919,0.2578,0.8973,-0.2544,-0.5887,0.4751,0.4205,0.7550,-0.9104,1.0896,
11.625369,0.3074,0.8829,-0.1746,-0.5887,0.4751,0.4205,0.7550,-0.9104,1.0896,
11.628684,0.2505,0.9437,-0.1404,-0.5887,0.4751,0.4205,0.7550,-0.9104,1.0896,
11.630609,0.3084,0.9107,-0.1109,-0.5887,0.4751,0.4205,0.7550,-0.9104,1.0896,
11.662680,0.3084,0.9107,-0.1109,-0.5887,0.4751,0.4205,0.8509,-1.3848,0.9717,
11.665681,0.3084,0.9107,-0.1109,0.5781,0.3588,1.6346,0.8509,-1.3848,0.9717,
11.682367,0.3628,0.9100,-0.0537,0.5781,0.3588,1.6346,0.8509,-1.3848,0.9717,
11.685484,0.2805,1.0094,-0.0154,0.5781,0.3588,1.6346,0.8509,-1.3848,0.9717,
11.688736,0.1726,1.1261,0.0061,0.5781,0.3588,1.6346,0.8509,-1.3848,0.9717,
11.720995,0.1726,1.1261,0.0061,0.5781,0.3588,1.6346,1.4569,-1.6982,1.0636,
11.724784,0.1726,1.1261,0.0061,0.2354,1.7788,3.7009,1.4569,-1.6982,1.0636,
11.742065,-0.0698,1.3563,-0.0269,0.2354,1.7788,3.7009,1.4569,-1.6982,1.0636,
11.746173,-0.3494,1.7687,-0.1360,0.2354,1.7788,3.7009,1.4569,-1.6982,1.0636,
11.750002,-0.2385,1.9196,-0.2522,0.2354,1.7788,3.7009,1.4569,-1.6982,1.0636,
11.778650,-0.2385,1.9196,-0.2522,0.2354,1.7788,3.7009,1.6611,-2.1561,1.9969,
11.781220,-0.2385,1.9196,-0.2522,-4.8450,8.8939,3.5754,1.6611,-2.1561,1.9969,
11.799879,0.1123,1.5946,-0.2302,-4.8450,8.8939,3.5754,1.6611,-2.1561,1.9969,
11.802896,0.2229,1.1039,-0.1555,-4.8450,8.8939,3.5754,1.6611,-2.1561,1.9969,
11.806985,0.4786,0.9378,-0.4302,-4.8450,8.8939,3.5754,1.6611,-2.1561,1.9969,
11.838444,0.4786,0.9378,-0.4302,-4.8450,8.8939,3.5754,0.2113,-3.8085,2.8984,
11.841922,0.4786,0.9378,-0.4302,-0.0821,4.7387,2.9211,0.2113,-3.8085,2.8984,
11.866500,0.6382,0.8768,-0.5963,-0.0821,4.7387,2.9211,0.2113,-3.8085,2.8984,
11.870291,0.5059,0.6898,-0.6089,-0.0821,4.7387,2.9211,0.2113,-3.8085,2.8984,
11.872787,0.1287,0.4275,-0.4778,-0.0821,4.7387,2.9211,0.2113,-3.8085,2.8984,
11.895252,0.1287,0.4275,-0.4778,-0.0821,4.7387,2.9211,-1.7335,-3.9515,2.6652,
11.898236,0.1287,0.4275,-0.4778,1.5690,-0.7647,-0.0232,-1.7335,-3.9515,2.6652,
11.917957,-0.2730,0.2803,-0.5777,1.5690,-0.7647,-0.0232,-1.7335,-3.9515,2.6652,
11.920038,-0.5679,0.3746,-1.0057,1.5690,-0.7647,-0.0232,-1.7335,-3.9515,2.6652,
11.922011,-0.4446,0.4751,-0.9095,1.5690,-0.7647,-0.0232,-1.7335,-3.9515,2.6652,
11.953406,-0.4446,0.4751,-0.9095,1.5690,-0.7647,-0.0232,-2.9894,-3.1533,2.6716,
11.958973,-0.4446,0.4751,-0.9095,-6.8947,-3.9934,-3.4328,-2.9894,-3.1533,2.6716,
11.975156,-0.1565,0.3692,-0.8106,-6.8947,-3.9934,-3.4328,-2.9894,-3.1533,2.6716,
11.979033,-0.3789,0.4031,-0.7384,-6.8947,-3.9934,-3.4328,-2.9894,-3.1533,2.6716,
11.981743,-0.6675,0.5040,-0.7513,-6.8947,-3.9934,-3.4328,-2.9894,-3.1533,2.6716,
12.011541,-0.6675,0.5040,-0.7513,-6.8947,-3.9934,-3.4328,-3.2511,-4.5363,1.5140,
12.013607,-0.6675,0.5040,-0.7513,-6.0903,-4.0355,-3.5880,-3.2511,-4.5363,1.5140,
12.033003,-0.8272,0.5584,-0.8304,-6.0903,-4.0355,-3.5880,-3.2511,-4.5363,1.5140,
12.037048,-0.7440,0.5848,-0.8924,-6.0903,-4.0355,-3.5880,-3.2511,-4.5363,1.5140,
12.039846,-0.4849,0.6160,-0.8446,-6.0903,-4.0355,-3.5880,-3.2511,-4.5363,1.5140,
12.070103,-0.4849,0.6160,-0.8446,-6.0903,-4.0355,-3.5880,-3.0896,-5.6676,0.6687,
12.078419,-0.4849,0.6160,-0.8446,-7.9304,-2.9603,-5.3153,-3.0896,-5.6676,0.6687,
12.090940,-0.3653,0.6778,-0.7232,-7.9304,-2.9603,-5.3153,-3.0896,-5.6676,0.6687,
12.093987,-0.3267,0.8119,-0.6949,-7.9304,-2.9603,-5.3153,-3.0896,-5.6676,0.6687,
12.095805,-0.2156,0.9654,-0.6920,-7.9304,-2.9603,-5.3153,-3.0896,-5.6676,0.6687,
12.127689,-0.2156,0.9654,-0.6920,-7.9304,-2.9603,-5.3153,-2.9597,-4.9344,-0.3392,
12.129177,-0.2156,0.9654,-0.6920,-3.2384,-1.1009,-5.0525,-2.9597,-4.9344,-0.3392,
12.148224,-0.1531,0.9920,-0.6490,-3.2384,-1.1009,-5.0525,-2.9597,-4.9344,-0.3392,
12.150818,-0.1387,1.0218,-0.5088,-3.2384,-1.1009,-5.0525,-2.9597,-4.9344,-0.3392,
12.152851,-0.1519,1.0756,-0.3311,-3.2384,-1.1009,-5.0525,-2.9597,-4.9344,-0.3392,
12.186281,-0.1519,1.0756,-0.3311,-3.2384,-1.1009,-5.0525,-2.3250,-4.3608,-1.0863,
12.188106,-0.1519,1.0756,-0.3311,-0.8186,0.8065,-4.2421,-2.3250,-4.3608,-1.0863,
12.209078,-0.2339,1.0736,-0.2867,-0.8186,0.8065,-4.2421,-2.3250,-4.3608,-1.0863,
12.210501,-0.2105,1.1070,-0.3343,-0.8186,0.8065,-4.2421,-2.3250,-4.3608,-1.0863,
12.211298,-0.0674,1.1229,-0.3995,-0.8186,0.8065,-4.2421,-2.3250,-4.3608,-1.0863,
12.244277,-0.0674,1.1229,-0.3995,-0.8186,0.8065,-4.2421,-1.1179,-4.2030,-0.7664,
12.245687,-0.0674,1.1229,-0.3995,-0.5755,1.5041,-3.4759,-1.1179,-4.2030,-0.7664,
12.263755,0.1267,1.0790,-0.3746,-0.5755,1.5041,-3.4759,-1.1179,-4.2030,-0.7664,
12.265290,0.3277,1.0589,-0.3501,-0.5755,1.5041,-3.4759,-1.1179,-4.2030,-0.7664,
12.266229,0.4947,0.9952,-0.3025,-0.5755,1.5041,-3.4759,-1.1179,-4.2030,-0.7664,
12.303967,0.4947,0.9952,-0.3025,4.0086,0.9229,-3.6181,-1.1179,-4.2030,-0.7664,
12.307917,0.4947,0.9952,-0.3025,4.0086,0.9229,-3.6181,-0.0485,-2.4494,0.1474,
12.325105,0.5860,0.9203,-0.2312,4.0086,0.9229,-3.6181,-0.0485,-2.4494,0.1474,
12.328312,0.7291,1.0148,-0.2385,4.0086,0.9229,-3.6181,-0.0485,-2.4494,0.1474,
12.330942,0.6282,1.2233,0.1057,4.0086,0.9229,-3.6181,-0.0485,-2.4494,0.1474,
12.362264,0.6282,1.2233,0.1057,7.0195,0.9766,-1.3855,-0.0485,-2.4494,0.1474,
12.365969,0.6282,1.2233,0.1057,7.0195,0.9766,-1.3855,0.0159,0.7272,0.2358,
12.388857,-0.0039,0.8626,0.5972,7.0195,0.9766,-1.3855,0.0159,0.7272,0.2358,
12.390327,-0.6575,0.8927,-0.0256,7.0195,0.9766,-1.3855,0.0159,0.7272,0.2358,
12.391112,-0.5984,1.3295,-0.1765,7.0195,0.9766,-1.3855,0.0159,0.7272,0.2358,
12.420675,-0.5984,1.3295,-0.1765,7.0195,0.9766,-1.3855,0.1698,0.6390,0.5046,
12.423723,-0.5984,1.3295,-0.1765,-3.6521,0.7074,1.1874,0.1698,0.6390,0.5046,
12.452021,-0.2776,1.0978,0.0483,-3.6521,0.7074,1.1874,0.1698,0.6390,0.5046,
12.455762,-0.2617,0.9920,-0.0168,-3.6521,0.7074,1.1874,0.1698,0.6390,0.5046,
12.456745,-0.1463,1.0423,0.0120,-3.6521,0.7074,1.1874,0.1698,0.6390,0.5046,
12.480684,-0.1463,1.0423,0.0120,-3.6521,0.7074,1.1874,0.1105,-0.1413,0.9436,
12.482959,-0.1463,1.0423,0.0120,-2.2546,0.8362,0.0977,0.1105,-0.1413,0.9436,
12.499531,0.1235,1.0077,0.1072,-2.2546,0.8362,0.0977,0.1105,-0.1413,0.9436,
12.502354,0.2317,0.9686,0.0923,-2.2546,0.8362,0.0977,0.1105,-0.1413,0.9436,
12.503811,0.1170,1.0050,0.1074,-2.2546,0.8362,0.0977,0.1105,-0.1413,0.9436,
12.537661,0.1170,1.0050,0.1074,-2.2546,0.8362,0.0977,0.1574,-0.2828,0.6864,
12.541168,0.1170,1.0050,0.1074,1.1325,0.3455,1.0309,0.1574,-0.2828,0.6864,
12.560282,-0.0200,1.0531,0.0977,1.1325,0.3455,1.0309,0.1574,-0.2828,0.6864,
12.563428,-0.0413,1.0795,-0.0801,1.1325,0.3455,1.0309,0.1574,-0.2828,0.6864,
12.566067,0.0293,1.0704,-0.1592,1.1325,0.3455,1.0309,0.1574,-0.2828,0.6864,
12.595031,0.0293,1.0704,-0.1592,1.1325,0.3455,1.0309,0.2032,-0.3410,0.5702,
12.598361,0.0293,1.0704,-0.1592,-0.8111,1.0715,-0.3065,0.2032,-0.3410,0.5702,
12.617949,0.0806,1.0463,-0.0481,-0.8111,1.0715,-0.3065,0.2032,-0.3410,0.5702,
12.621512,0.0569,1.0148,0.0742,-0.8111,1.0715,-0.3065,0.2032,-0.3410,0.5702,
12.623153,0.0359,0.9691,0.1277,-0.8111,1.0715,-0.3065,0.2032,-0.3410,0.5702,
12.657232,0.0359,0.9691,0.1277,-0.8111,1.0715,-0.3065,0.3559,-0.1926,0.4950,
12.661292,0.0359,0.9691,0.1277,-0.4016,0.5275,0.8482,0.3559,-0.1926,0.4950,
12.676792,0.0652,0.9762,0.1392,-0.4016,0.5275,0.8482,0.3559,-0.1926,0.4950,
12.678501,0.0855,0.9920,0.0161,-0.4016,0.5275,0.8482,0.3559,-0.1926,0.4950,
12.679236,0.1018,1.0069,0.0237,-0.4016,0.5275,0.8482,0.3559,-0.1926,0.4950,
12.711201,0.1018,1.0069,0.0237,-0.4016,0.5275,0.8482,0.5162,-0.2358,0.5618,
12.712907,0.1018,1.0069,0.0237,-0.4352,0.3929,1.2066,0.5162,-0.2358,0.5618,
12.731928,-0.0063,0.9991,0.0654,-0.4352,0.3929,1.2066,0.5162,-0.2358,0.5618,
12.734339,-0.0205,1.0052,-0.0171,-0.4352,0.3929,1.2066,0.5162,-0.2358,0.5618,
12.736179,0.1004,1.0250,-0.0217,-0.4352,0.3929,1.2066,0.5162,-0.2358,0.5618,
12.770622,0.1004,1.0250,-0.0217,-0.4352,0.3929,1.2066,0.6622,-0.2793,0.7815,
12.774420,0.1004,1.0250,-0.0217,-1.4060,0.6570,1.0731,0.6622,-0.2793,0.7815,
12.792763,0.0486,1.0150,-0.0054,-1.4060,0.6570,1.0731,0.6622,-0.2793,0.7815,
12.795439,-0.0232,1.0021,0.0110,-1.4060,0.6570,1.0731,0.6622,-0.2793,0.7815,
12.796818,0.0740,1.0013,-0.0647,-1.4060,0.6570,1.0731,0.6622,-0.2793,0.7815,
12.829835,0.0740,1.0013,-0.0647,-1.4060,0.6570,1.0731,0.8155,-0.6402,1.0234,
12.833013,0.0740,1.0013,-0.0647,-1.7909,0.7801,1.2784,0.8155,-0.6402,1.0234,
12.848861,0.2398,1.0384,-0.0994,-1.7909,0.7801,1.2784,0.8155,-0.6402,1.0234,
12.852594,0.2019,1.0670,-0.1399,-1.7909,0.7801,1.2784,0.8155,-0.6402,1.0234,
12.855700,0.2290,1.0743,-0.1165,-1.7909,0.7801,1.2784,0.8155,-0.6402,1.0234,
12.888010,0.2290,1.0743,-0.1165,-1.7909,0.7801,1.2784,0.7681,-0.7815,1.0397,
12.891066,0.2290,1.0743,-0.1165,-0.3831,1.5017,0.8052,0.7681,-0.7815,1.0397,
12.910741,0.2163,1.0570,-0.0750,-0.3831,1.5017,0.8052,0.7681,-0.7815,1.0397,
12.914776,0.0728,1.0384,-0.0879,-0.3831,1.5017,0.8052,0.7681,-0.7815,1.0397,
12.916978,-0.0181,1.0296,-0.1804,-0.3831,1.5017,0.8052,0.7681,-0.7815,1.0397,
12.945207,-0.0181,1.0296,-0.1804,-0.3831,1.5017,0.8052,1.0959,-0.7906,1.3533,
12.947222,-0.0181,1.0296,-0.1804,-2.2322,1.6690,1.5084,1.0959,-0.7906,1.3533,
12.966258,0.0005,1.0841,-0.2071,-2.2322,1.6690,1.5084,1.0959,-0.7906,1.3533,
12.969266,0.1057,1.1029,-0.2588,-2.2322,1.6690,1.5084,1.0959,-0.7906,1.3533,
12.970845,0.1194,1.1312,-0.2466,-2.2322,1.6690,1.5084,1.0959,-0.7906,1.3533,
13.004033,0.1194,1.1312,-0.2466,-2.2322,1.6690,1.5084,1.5117,-0.5972,1.4928,
13.007349,0.1194,1.1312,-0.2466,-2.9457,2.8208,1.1306,1.5117,-0.5972,1.4928,
13.026631,0.0784,1.3041,-0.1336,-2.9457,2.8208,1.1306,1.5117,-0.5972,1.4928,
13.029405,-0.1196,1.7617,0.2195,-2.9457,2.8208,1.1306,1.5117,-0.5972,1.4928,
13.032774,-0.8702,1.9196,0.3665,-2.9457,2.8208,1.1306,1.5117,-0.5972,1.4928,
13.063111,-0.8702,1.9196,0.3665,-2.9457,2.8208,1.1306,1.8674,-1.6269,1.9821,
13.067125,-0.8702,1.9196,0.3665,-7.0293,9.0131,6.0376,1.8674,-1.6269,1.9821,
13.082414,-1.1044,1.6125,0.2605,-7.0293,9.0131,6.0376,1.8674,-1.6269,1.9821,
13.085884,-0.6759,1.3163,-0.0825,-7.0293,9.0131,6.0376,1.8674,-1.6269,1.9821,
13.087528,0.1780,1.1949,-0.5538,-7.0293,9.0131,6.0376,1.8674,-1.6269,1.9821,
13.120956,0.1780,1.1949,-0.5538,-9.3997,7.4139,4.7100,1.8674,-1.6269,1.9821,
13.125116,0.1780,1.1949,-0.5538,-9.3997,7.4139,4.7100,1.8933,-2.9315,3.0733,
13.140385,0.9549,1.3344,-0.6224,-9.3997,7.4139,4.7100,1.8933,-2.9315,3.0733,
13.142784,0.7117,1.1696,-0.4329,-9.3997,7.4139,4.7100,1.8933,-2.9315,3.0733,
13.144770,0.4832,0.7281,-0.5533,-9.3997,7.4139,4.7100,1.8933,-2.9315,3.0733,
13.180807,0.4832,0.7281,-0.5533,-9.3997,7.4139,4.7100,0.4392,-1.1158,1.2036,
13.184795,0.4832,0.7281,-0.5533,2.8033,4.8679,1.0864,0.4392,-1.1158,1.2036,
13.199456,0.4056,0.5440,-0.8001,2.8033,4.8679,1.0864,0.4392,-1.1158,1.2036,
13.201775,0.3545,0.4888,-0.6448,2.8033,4.8679,1.0864,0.4392,-1.1158,1.2036,
13.202601,0.2417,0.3550,-0.3467,2.8033,4.8679,1.0864,0.4392,-1.1158,1.2036,
13.237425,0.2417,0.3550,-0.3467,2.8033,4.8679,1.0864,-2.3390,0.8703,-0.7654,
13.241408,0.2417,0.3550,-0.3467,-0.9422,-2.1071,-0.5596,-2.3390,0.8703,-0.7654,
13.258021,0.2029,0.2285,-0.0930,-0.9422,-2.1071,-0.5596,-2.3390,0.8703,-0.7654,
13.261516,0.0142,0.2014,-0.1453,-0.9422,-2.1071,-0.5596,-2.3390,0.8703,-0.7654,
13.263557,-0.1643,0.2876,-0.2859,-0.9422,-2.1071,-0.5596,-2.3390,0.8703,-0.7654,
13.296457,-0.1643,0.2876,-0.2859,-2.8064,-5.6200,2.2209,-2.3390,0.8703,-0.7654,
13.298446,-0.1643,0.2876,-0.2859,-2.8064,-5.6200,2.2209,-3.1944,-0.2598,-2.6009,
13.315533,-0.1756,0.3736,-0.3125,-2.8064,-5.6200,2.2209,-3.1944,-0.2598,-2.6009,
13.317539,-0.1555,0.4725,-0.3277,-2.8064,-5.6200,2.2209,-3.1944,-0.2598,-2.6009,
13.318451,-0.1201,0.5618,-0.3648,-2.8064,-5.6200,2.2209,-3.1944,-0.2598,-2.6009,
13.353564,-0.1201,0.5618,-0.3648,-2.8064,-5.6200,2.2209,-3.8866,-1.8927,-3.8108,
13.357623,-0.1201,0.5618,-0.3648,-2.1725,-4.4078,-1.0837,-3.8866,-1.8927,-3.8108,
13.374522,-0.0117,0.6795,-0.3543,-2.1725,-4.4078,-1.0837,-3.8866,-1.8927,-3.8108,
13.378410,0.0720,0.8907,-0.3914,-2.1725,-4.4078,-1.0837,-3.8866,-1.8927,-3.8108,
13.381042,0.1609,1.2042,-0.5066,-2.1725,-4.4078,-1.0837,-3.8866,-1.8927,-3.8108,
13.411562,0.1609,1.2042,-0.5066,-2.1725,-4.4078,-1.0837,-4.8114,-0.9827,-4.2243,
13.413372,0.1609,1.2042,-0.5066,2.3131,-0.0805,-4.4096,-4.8114,-0.9827,-4.2243,
13.430502,0.3924,1.6996,-0.6085,2.3131,-0.0805,-4.4096,-4.8114,-0.9827,-4.2243,
13.432049,0.5538,1.9328,-0.7638,2.3131,-0.0805,-4.4096,-4.8114,-0.9827,-4.2243,
13.433157,0.5753,1.6828,-0.7049,2.3131,-0.0805,-4.4096,-4.8114,-0.9827,-4.2243,
13.470223,0.5753,1.6828,-0.7049,2.3131,-0.0805,-4.4096,-4.1413,1.2739,-3.0948,
13.473448,0.5753,1.6828,-0.7049,8.1392,8.8315,-8.8805,-4.1413,1.2739,-3.0948,
13.490383,0.7276,1.3080,-0.3130,8.1392,8.8315,-8.8805,-4.1413,1.2739,-3.0948,
13.492766,0.6378,1.1083,-0.2549,8.1392,8.8315,-8.8805,-4.1413,1.2739,-3.0948,
13.494721,0.6463,0.9623,-0.5992,8.1392,8.8315,-8.8805,-4.1413,1.2739,-3.0948,
13.528312,0.6463,0.9623,-0.5992,8.1392,8.8315,-8.8805,-0.4376,1.0377,0.5070,
13.530648,0.6463,0.9623,-0.5992,9.4659,2.4264,-5.8265,-0.4376,1.0377,0.5070,
13.554780,0.6915,0.7821,-0.6971,9.4659,2.4264,-5.8265,-0.4376,1.0377,0.5070,
13.557868,0.6780,0.8287,-0.8963,9.4659,2.4264,-5.8265,-0.4376,1.0377,0.5070,
13.559697,0.0198,1.3690,-0.8846,9.4659,2.4264,-5.8265,-0.4376,1.0377,0.5070,
13.586519,0.0198,1.3690,-0.8846,9.4659,2.4264,-5.8265,0.5929,3.4512,0.6683,
13.588588,0.0198,1.3690,-0.8846,7.2924,0.9427,-9.0726,0.5929,3.4512,0.6683,
13.617036,-2.1142,1.7482,0.9630,7.2924,0.9427,-9.0726,0.5929,3.4512,0.6683,
13.620127,-1.6149,1.7094,0.2085,7.2924,0.9427,-9.0726,0.5929,3.4512,0.6683,
13.621403,0.3162,1.1984,-0.9308,7.2924,0.9427,-9.0726,0.5929,3.4512,0.6683,
13.646545,0.3162,1.1984,-0.9308,7.2924,0.9427,-9.0726,1.3284,1.1533,2.5174,
13.648212,0.3162,1.1984,-0.9308,-9.5078,5.9639,0.6572,1.3284,1.1533,2.5174,
13.666517,0.3330,0.9012,0.1084,-9.5078,5.9639,0.6572,1.3284,1.1533,2.5174,
13.668060,-0.1277,0.6602,0.5638,-9.5078,5.9639,0.6572,1.3284,1.1533,2.5174,
13.668974,-0.2222,0.8851,-0.0574,-9.5078,5.9639,0.6572,1.3284,1.1533,2.5174,
13.702347,-0.2222,0.8851,-0.0574,-9.5078,5.9639,0.6572,0.8707,-0.7870,1.7109,
13.703260,-0.2222,0.8851,-0.0574,0.6551,-1.3437,2.2698,0.8707,-0.7870,1.7109,
13.722795,0.3123,1.1434,-0.3435,0.6551,-1.3437,2.2698,0.8707,-0.7870,1.7109,
13.723798,0.6641,1.0565,-0.3194,0.6551,-1.3437,2.2698,0.8707,-0.7870,1.7109,
13.724288,0.2022,0.9227,-0.0840,0.6551,-1.3437,2.2698,0.8707,-0.7870,1.7109,
13.762116,0.2022,0.9227,-0.0840,0.6551,-1.3437,2.2698,0.4066,0.8829,0.6893,
13.763473,0.2022,0.9227,-0.0840,4.0923,0.8388,-1.9036,0.4066,0.8829,0.6893,
13.782571,-0.2456,1.0187,0.0015,4.0923,0.8388,-1.9036,0.4066,0.8829,0.6893,
13.785218,-0.3208,1.0821,0.0972,4.0923,0.8388,-1.9036,0.4066,0.8829,0.6893,
13.787157,-0.2166,0.9928,0.1189,4.0923,0.8388,-1.9036,0.4066,0.8829,0.6893,
13.819934,-0.2166,0.9928,0.1189,4.0923,0.8388,-1.9036,0.6424,-0.0637,1.0853,
13.821286,-0.2166,0.9928,0.1189,-2.8549,0.7612,1.5735,0.6424,-0.0637,1.0853,
13.839410,-0.0779,0.9544,-0.0093,-2.8549,0.7612,1.5735,0.6424,-0.0637,1.0853,
13.840817,0.0735,0.9815,-0.0549,-2.8549,0.7612,1.5735,0.6424,-0.0637,1.0853,
13.841818,0.2227,0.9576,-0.0725,-2.8549,0.7612,1.5735,0.6424,-0.0637,1.0853,
13.879405,0.2227,0.9576,-0.0725,-2.8549,0.7612,1.5735,0.7033,-0.0947,1.0167,
13.882539,0.2227,0.9576,-0.0725,-0.1280,0.1820,0.7879,0.7033,-0.0947,1.0167,
13.902508,0.1433,1.0086,-0.1050,-0.1280,0.1820,0.7879,0.7033,-0.0947,1.0167,
13.906043,-0.0046,1.0633,-0.0935,-0.1280,0.1820,0.7879,0.7033,-0.0947,1.0167,
13.907873,0.0144,1.0345,-0.1087,-0.1280,0.1820,0.7879,0.7033,-0.0947,1.0167,
13.937579,0.0144,1.0345,-0.1087,-0.1280,0.1820,0.7879,0.7039,-0.2166,0.9758,
13.940458,0.0144,1.0345,-0.1087,-0.8331,0.9820,0.6134,0.7039,-0.2166,0.9758,
13.957652,0.1196,1.0043,-0.1680,-0.8331,0.9820,0.6134,0.7039,-0.2166,0.9758,
13.960710,0.1431,1.0323,-0.1724,-0.8331,0.9820,0.6134,0.7039,-0.2166,0.9758,
13.963214,0.0945,1.0616,-0.1465,-0.8331,0.9820,0.6134,0.7039,-0.2166,0.9758,
13.995784,0.0945,1.0616,-0.1465,-0.8331,0.9820,0.6134,0.6903,-0.4080,1.0173,
13.998189,0.0945,1.0616,-0.1465,-0.6507,1.1033,0.4230,0.6903,-0.4080,1.0173,
14.015468,0.0701,1.0165,-0.1192,-0.6507,1.1033,0.4230,0.6903,-0.4080,1.0173,
14.017149,0.0464,0.9659,-0.1353,-0.6507,1.1033,0.4230,0.6903,-0.4080,1.0173,
14.018660,0.0254,0.9945,-0.1785,-0.6507,1.1033,0.4230,0.6903,-0.4080,1.0173,
14.053317,0.0254,0.9945,-0.1785,-0.6507,1.1033,0.4230,0.9672,-0.3233,1.2745,
14.057035,0.0254,0.9945,-0.1785,-1.9388,0.9774,1.1208,0.9672,-0.3233,1.2745,
14.074651,0.0459,1.0802,-0.1607,-1.9388,0.9774,1.1208,0.9672,-0.3233,1.2745,
14.077428,0.0574,1.0985,-0.1343,-1.9388,0.9774,1.1208,0.9672,-0.3233,1.2745,
14.078600,0.0557,1.0680,-0.1187,-1.9388,0.9774,1.1208,0.9672,-0.3233,1.2745,
14.113627,0.0557,1.0680,-0.1187,-1.9388,0.9774,1.1208,1.4524,-0.3451,1.5423,
14.117262,0.0557,1.0680,-0.1187,-2.5470,2.3156,1.9271,1.4524,-0.3451,1.5423,
14.136864,0.0610,1.0968,-0.1043,-2.5470,2.3156,1.9271,1.4524,-0.3451,1.5423,
14.138502,-0.0176,1.2064,-0.0732,-2.5470,2.3156,1.9271,1.4524,-0.3451,1.5423,
14.139399,-0.2771,1.4892,0.0745,-2.5470,2.3156,1.9271,1.4524,-0.3451,1.5423,
14.169228,-0.2771,1.4892,0.0745,-2.5470,2.3156,1.9271,2.0370,-1.0932,1.8129,
14.170516,-0.2771,1.4892,0.0745,-4.3434,4.8320,4.0287,2.0370,-1.0932,1.8129,
14.192865,-0.7530,1.8483,0.1514,-4.3434,4.8320,4.0287,2.0370,-1.0932,1.8129,
14.195659,-1.1871,1.9299,0.1233,-4.3434,4.8320,4.0287,2.0370,-1.0932,1.8129,
14.197442,-0.9039,1.5827,-0.0286,-4.3434,4.8320,4.0287,2.0370,-1.0932,1.8129,
14.229471,-0.9039,1.5827,-0.0286,-4.3434,4.8320,4.0287,2.3133,-2.5986,3.0236,
14.232835,-0.9039,1.5827,-0.0286,-13.0788,11.1355,6.5749,2.3133,-2.5986,3.0236,
14.252272,0.0391,1.2206,-0.4317,-13.0788,11.1355,6.5749,2.3133,-2.5986,3.0236,
14.254061,0.9466,1.3432,-0.6475,-13.0788,11.1355,6.5749,2.3133,-2.5986,3.0236,
14.255493,1.2743,1.2162,-0.4246,-13.0788,11.1355,6.5749,2.3133,-2.5986,3.0236,
14.286131,1.2743,1.2162,-0.4246,-13.0788,11.1355,6.5749,1.4801,-0.6762,1.7090,
14.288198,1.2743,1.2162,-0.4246,3.1861,6.7780,1.4965,1.4801,-0.6762,1.7090,
14.306518,0.8011,0.8526,-0.6695,3.1861,6.7780,1.4965,1.4801,-0.6762,1.7090,
14.308033,0.5750,0.6011,-0.8187,3.1861,6.7780,1.4965,1.4801,-0.6762,1.7090,
14.308980,0.3909,0.5313,-0.4456,3.1861,6.7780,1.4965,1.4801,-0.6762,1.7090,
14.345424,0.3909,0.5313,-0.4456,3.1861,6.7780,1.4965,-1.4048,0.7691,-0.5502,
14.348799,0.3909,0.5313,-0.4456,1.4697,0.2748,-0.5710,-1.4048,0.7691,-0.5502,
14.384477,0.1404,0.2920,-0.1057,1.4697,0.2748,-0.5710,-1.4048,0.7691,-0.5502,
14.386727,-0.0535,0.0864,0.0540,1.4697,0.2748,-0.5710,-1.4048,0.7691,-0.5502,
14.387657,-0.1182,0.1065,-0.1270,1.4697,0.2748,-0.5710,-1.4048,0.7691,-0.5502,
14.402623,-0.1182,0.1065,-0.1270,1.4697,0.2748,-0.5710,-2.4950,-0.1600,-2.2582,
14.404653,-0.1182,0.1065,-0.1270,-3.3948,-5.8016,4.1270,-2.4950,-0.1600,-2.2582,
14.424922,0.0142,0.3040,-0.2666,-3.3948,-5.8016,4.1270,-2.4950,-0.1600,-2.2582,
14.426806,0.1074,0.4214,-0.3267,-3.3948,-5.8016,4.1270,-2.4950,-0.1600,-2.2582,
14.427839,0.1209,0.4908,-0.2693,-3.3948,-5.8016,4.1270,-2.4950,-0.1600,-2.2582,
14.462236,0.1209,0.4908,-0.2693,-3.3948,-5.8016,4.1270,-3.8383,-1.0515,-3.4536,
14.467015,0.1209,0.4908,-0.2693,-0.6189,-4.6861,0.2119,-3.8383,-1.0515,-3.4536,
14.486836,0.0713,0.5569,-0.2293,-0.6189,-4.6861,0.2119,-3.8383,-1.0515,-3.4536,
14.491213,0.0996,0.6392,-0.2991,-0.6189,-4.6861,0.2119,-3.8383,-1.0515,-3.4536,
14.494088,0.1025,0.8162,-0.3833,-0.6189,-4.6861,0.2119,-3.8383,-1.0515,-3.4536,
14.522193,0.1025,0.8162,-0.3833,-0.6189,-4.6861,0.2119,-4.8118,-1.2097,-4.2600,
14.526621,0.1025,0.8162,-0.3833,1.8285,-2.5992,-2.4320,-4.8118,-1.2097,-4.2600,
14.544717,0.0894,1.1134,-0.4864,1.8285,-2.5992,-2.4320,-4.8118,-1.2097,-4.2600,
14.546477,0.2434,1.6210,-0.6893,1.8285,-2.5992,-2.4320,-4.8118,-1.2097,-4.2600,
14.547644,0.3328,1.9240,-0.8275,1.8285,-2.5992,-2.4320,-4.8118,-1.2097,-4.2600,
14.577941,0.3328,1.9240,-0.8275,1.8285,-2.5992,-2.4320,-4.7715,0.7080,-3.9395,
14.580242,0.3328,1.9240,-0.8275,5.1286,6.5806,-8.2436,-4.7715,0.7080,-3.9395,
14.598120,0.4878,1.6965,-0.8187,5.1286,6.5806,-8.2436,-4.7715,0.7080,-3.9395,
14.601275,0.8590,1.3583,-0.5799,5.1286,6.5806,-8.2436,-4.7715,0.7080,-3.9395,
14.605969,0.8070,1.1647,-0.4344,5.1286,6.5806,-8.2436,-4.7715,0.7080,-3.9395,
14.637535,0.8070,1.1647,-0.4344,5.1286,6.5806,-8.2436,-2.0951,1.8982,-1.4659,
14.640778,0.8070,1.1647,-0.4344,10.7669,5.5965,-8.1762,-2.0951,1.8982,-1.4659,
14.657367,0.4695,1.0428,-0.4874,10.7669,5.5965,-8.1762,-2.0951,1.8982,-1.4659,
14.661171,0.4866,0.8099,-0.5677,10.7669,5.5965,-8.1762,-2.0951,1.8982,-1.4659,
14.663579,0.5215,0.8817,-0.4200,10.7669,5.5965,-8.1762,-2.0951,1.8982,-1.4659,
14.695544,0.5215,0.8817,-0.4200,10.7669,5.5965,-8.1762,0.4032,2.0998,1.2712,
14.698890,0.5215,0.8817,-0.4200,8.0448,0.4334,-6.2548,0.4032,2.0998,1.2712,
14.723028,0.2635,1.2301,-0.5608,8.0448,0.4334,-6.2548,0.4032,2.0998,1.2712,
14.724698,-1.4433,1.4826,0.8260,8.0448,0.4334,-6.2548,0.4032,2.0998,1.2712,
14.725827,-2.1545,1.3493,0.6385,8.0448,0.4334,-6.2548,0.4032,2.0998,1.2712,
14.753162,-2.1545,1.3493,0.6385,8.0448,0.4334,-6.2548,1.2639,1.4178,1.4936,
14.756663,-2.1545,1.3493,0.6385,-8.2033,4.3721,2.3579,1.2639,1.4178,1.4936,
14.774486,-0.1211,1.4618,-0.4800,-8.2033,4.3721,2.3579,1.2639,1.4178,1.4936,
14.777687,0.5147,1.3483,-1.0567,-8.2033,4.3721,2.3579,1.2639,1.4178,1.4936,
14.779705,0.1778,0.9437,0.0439,-8.2033,4.3721,2.3579,1.2639,1.4178,1.4936,
14.811415,0.1778,0.9437,0.0439,-8.2033,4.3721,2.3579,0.7707,0.5070,1.5936,
14.813417,0.1778,0.9437,0.0439,3.6661,3.0856,-4.9111,0.7707,0.5070,1.5936,
14.832905,-0.1392,0.7276,0.1445,3.6661,3.0856,-4.9111,0.7707,0.5070,1.5936,
14.834766,-0.0125,0.9244,0.1944,3.6661,3.0856,-4.9111,0.7707,0.5070,1.5936,
14.836287,0.0930,1.0831,-0.0554,3.6661,3.0856,-4.9111,0.7707,0.5070,1.5936,
14.874537,0.0930,1.0831,-0.0554,3.6661,3.0856,-4.9111,0.5306,0.0240,1.0540,
14.878180,0.0930,1.0831,-0.0554,1.0243,-0.3263,1.1607,0.5306,0.0240,1.0540,
14.890597,0.0847,1.0326,-0.0366,1.0243,-0.3263,1.1607,0.5306,0.0240,1.0540,
14.892345,-0.1033,0.9569,-0.0635,1.0243,-0.3263,1.1607,0.5306,0.0240,1.0540,
14.894571,-0.1707,1.0221,-0.0794,1.0243,-0.3263,1.1607,0.5306,0.0240,1.0540,
14.928684,-0.1707,1.0221,-0.0794,1.0243,-0.3263,1.1607,0.3561,0.1611,0.7713,
14.931208,-0.1707,1.0221,-0.0794,0.1738,0.5294,-0.1472,0.3561,0.1611,0.7713,
14.948361,-0.1074,1.0433,0.0015,0.1738,0.5294,-0.1472,0.3561,0.1611,0.7713,
14.951205,-0.0864,1.0128,0.0132,0.1738,0.5294,-0.1472,0.3561,0.1611,0.7713,
14.953276,-0.0637,0.9940,-0.0137,0.1738,0.5294,-0.1472,0.3561,0.1611,0.7713,
14.987708,-0.0637,0.9940,-0.0137,0.1738,0.5294,-0.1472,0.3767,-0.0651,0.7530,
14.991140,-0.0637,0.9940,-0.0137,-0.4489,0.6308,0.6343,0.3767,-0.0651,0.7530,
15.006006,-0.0313,0.9935,-0.0303,-0.4489,0.6308,0.6343,0.3767,-0.0651,0.7530,
15.007712,-0.0308,0.9884,0.0354,-0.4489,0.6308,0.6343,0.3767,-0.0651,0.7530,
15.008477,-0.0366,0.9862,0.0344,-0.4489,0.6308,0.6343,0.3767,-0.0651,0.7530,
15.046100,-0.0366,0.9862,0.0344,-0.4489,0.6308,0.6343,0.4928,-0.1973,0.7257,
15.049611,-0.0366,0.9862,0.0344,-0.3105,0.3700,1.0094,0.4928,-0.1973,0.7257,
15.066077,-0.0117,0.9906,-0.0020,-0.3105,0.3700,1.0094,0.4928,-0.1973,0.7257,
15.071785,0.0161,0.9676,-0.0046,-0.3105,0.3700,1.0094,0.4928,-0.1973,0.7257,
15.073652,0.1006,0.9457,-0.0364,-0.3105,0.3700,1.0094,0.4928,-0.1973,0.7257,
15.103516,0.1006,0.9457,-0.0364,-0.3105,0.3700,1.0094,0.5632,-0.1904,0.6366,
15.106484,0.1006,0.9457,-0.0364,0.0203,0.1967,1.0298,0.5632,-0.1904,0.6366,
15.124629,0.1487,0.9608,-0.1033,0.0203,0.1967,1.0298,0.5632,-0.1904,0.6366,
15.127130,0.0725,0.9801,-0.0960,0.0203,0.1967,1.0298,0.5632,-0.1904,0.6366,
15.128997,-0.0569,0.9928,-0.0552,0.0203,0.1967,1.0298,0.5632,-0.1904,0.6366,
15.162394,-0.0569,0.9928,-0.0552,0.0203,0.1967,1.0298,0.6337,-0.1865,0.6150,
15.165805,-0.0569,0.9928,-0.0552,-0.1017,0.3549,0.6750,0.6337,-0.1865,0.6150,
15.182355,-0.0630,0.9928,-0.1013,-0.1017,0.3549,0.6750,0.6337,-0.1865,0.6150,
15.185213,-0.0188,1.0033,-0.1506,-0.1017,0.3549,0.6750,0.6337,-0.1865,0.6150,
15.188734,0.0513,0.9852,-0.1275,-0.1017,0.3549,0.6750,0.6337,-0.1865,0.6150,
15.220642,0.0513,0.9852,-0.1275,-0.1017,0.3549,0.6750,0.7461,-0.5683,0.7974,
15.223392,0.0513,0.9852,-0.1275,-1.0888,0.6132,0.6821,0.7461,-0.5683,0.7974,
15.239962,0.0833,0.9618,-0.0686,-1.0888,0.6132,0.6821,0.7461,-0.5683,0.7974,
15.242644,0.0686,0.9562,-0.0435,-1.0888,0.6132,0.6821,0.7461,-0.5683,0.7974,
15.244449,0.0239,0.9996,-0.0676,-1.0888,0.6132,0.6821,0.7461,-0.5683,0.7974,
15.279900,0.0239,0.9996,-0.0676,-1.0888,0.6132,0.6821,1.0002,-0.7186,0.9662,
15.283216,0.0239,0.9996,-0.0676,-0.8176,0.5917,1.8802,1.0002,-0.7186,0.9662,
15.298647,0.0730,1.0255,-0.1611,-0.8176,0.5917,1.8802,1.0002,-0.7186,0.9662,
15.301645,0.1013,1.0780,-0.1499,-0.8176,0.5917,1.8802,1.0002,-0.7186,0.9662,
15.303936,-0.0017,1.2262,0.0154,-0.8176,0.5917,1.8802,1.0002,-0.7186,0.9662,
15.338513,-0.0017,1.2262,0.0154,-0.8176,0.5917,1.8802,1.3531,-1.0437,1.3706,
15.339972,-0.0017,1.2262,0.0154,-1.3320,2.2588,2.2566,1.3531,-1.0437,1.3706,
15.355526,-0.1663,1.5260,0.2608,-1.3320,2.2588,2.2566,1.3531,-1.0437,1.3706,
15.356935,-0.2212,1.7880,0.2603,-1.3320,2.2588,2.2566,1.3531,-1.0437,1.3706,
15.357722,-0.2647,1.7084,-0.1358,-1.3320,2.2588,2.2566,1.3531,-1.0437,1.3706,
15.395422,-0.2647,1.7084,-0.1358,-1.3320,2.2588,2.2566,1.2816,-2.6202,2.5535,
15.398315,-0.2647,1.7084,-0.1358,-4.6153,8.2598,5.3596,1.2816,-2.6202,2.5535,
15.415697,-0.1294,1.3759,-0.4197,-4.6153,8.2598,5.3596,1.2816,-2.6202,2.5535,
15.417805,0.1726,1.0741,-0.4073,-4.6153,8.2598,5.3596,1.2816,-2.6202,2.5535,
15.419012,0.4173,0.8172,-0.4439,-4.6153,8.2598,5.3596,1.2816,-2.6202,2.5535,
15.452894,0.4173,0.8172,-0.4439,-4.6153,8.2598,5.3596,-0.2499,-4.0327,2.9367,
15.456235,0.4173,0.8172,-0.4439,-1.2789,2.8683,0.4606,-0.2499,-4.0327,2.9367,
15.479239,0.6715,0.6707,-0.5396,-1.2789,2.8683,0.4606,-0.2499,-4.0327,2.9367,
15.481350,0.5240,0.5638,-0.5411,-1.2789,2.8683,0.4606,-0.2499,-4.0327,2.9367,
15.483131,0.2188,0.4712,-0.5147,-1.2789,2.8683,0.4606,-0.2499,-4.0327,2.9367,
15.511067,0.2188,0.4712,-0.5147,-1.2789,2.8683,0.4606,-2.1548,-4.6803,2.4966,
15.513392,0.2188,0.4712,-0.5147,1.9073,-2.3621,-0.8208,-2.1548,-4.6803,2.4966,
15.535349,-0.0562,0.3929,-0.6048,1.9073,-2.3621,-0.8208,-2.1548,-4.6803,2.4966,
15.537043,-0.4119,0.3511,-0.8516,1.9073,-2.3621,-0.8208,-2.1548,-4.6803,2.4966,
15.537982,-0.6021,0.4749,-0.9830,1.9073,-2.3621,-0.8208,-2.1548,-4.6803,2.4966,
15.570001,-0.6021,0.4749,-0.9830,1.9073,-2.3621,-0.8208,-2.8275,-4.4793,2.5325,
15.572473,-0.6021,0.4749,-0.9830,-6.2188,-4.1525,-4.1215,-2.8275,-4.4793,2.5325,
15.588925,-0.4165,0.5088,-0.9327,-6.2188,-4.1525,-4.1215,-2.8275,-4.4793,2.5325,
15.590563,-0.3721,0.4800,-0.9015,-6.2188,-4.1525,-4.1215,-2.8275,-4.4793,2.5325,
15.591525,-0.5396,0.5667,-0.8204,-6.2188,-4.1525,-4.1215,-2.8275,-4.4793,2.5325,
15.628509,-0.5396,0.5667,-0.8204,-6.2188,-4.1525,-4.1215,-2.6286,-5.5263,1.3680,
15.648091,-0.5396,0.5667,-0.8204,-6.4504,-3.3462,-5.1982,-2.6286,-5.5263,1.3680,
15.654498,-0.7310,0.6429,-0.8607,-6.4504,-3.3462,-5.1982,-2.6286,-5.5263,1.3680,
15.656402,-0.7581,0.6549,-0.9537,-6.4504,-3.3462,-5.1982,-2.6286,-5.5263,1.3680,
15.657416,-0.4874,0.6570,-0.9762,-6.4504,-3.3462,-5.1982,-2.6286,-5.5263,1.3680,
15.689043,-0.4874,0.6570,-0.9762,-6.4504,-3.3462,-5.1982,-2.0436,-5.7749,0.3859,
15.691621,-0.4874,0.6570,-0.9762,-7.5390,-2.3482,-5.9965,-2.0436,-5.7749,0.3859,
15.708677,-0.2639,0.7308,-0.8998,-7.5390,-2.3482,-5.9965,-2.0436,-5.7749,0.3859,
15.711982,-0.1284,0.8287,-0.8216,-7.5390,-2.3482,-5.9965,-2.0436,-5.7749,0.3859,
15.715151,-0.0669,0.9044,-0.7413,-7.5390,-2.3482,-5.9965,-2.0436,-5.7749,0.3859,
15.745142,-0.0669,0.9044,-0.7413,-7.5390,-2.3482,-5.9965,-2.0819,-3.8990,-0.8407,
15.747909,-0.0669,0.9044,-0.7413,-1.5004,-1.0143,-5.7719,-2.0819,-3.8990,-0.8407,
15.764790,-0.0425,0.9383,-0.6309,-1.5004,-1.0143,-5.7719,-2.0819,-3.8990,-0.8407,
15.767014,-0.0698,0.9535,-0.4966,-1.5004,-1.0143,-5.7719,-2.0819,-3.8990,-0.8407,
15.769007,-0.1438,0.9994,-0.3919,-1.5004,-1.0143,-5.7719,-2.0819,-3.8990,-0.8407,
15.804010,-0.1438,0.9994,-0.3919,-1.5004,-1.0143,-5.7719,-1.8835,-3.1366,-1.2958,
15.808425,-0.1438,0.9994,-0.3919,0.1734,0.2270,-3.7226,-1.8835,-3.1366,-1.2958,
15.823565,-0.1104,1.1217,-0.3064,0.1734,0.2270,-3.7226,-1.8835,-3.1366,-1.2958,
15.827669,0.0024,1.1500,-0.2757,0.1734,0.2270,-3.7226,-1.8835,-3.1366,-1.2958,
15.830137,0.0896,1.1117,-0.2166,0.1734,0.2270,-3.7226,-1.8835,-3.1366,-1.2958,
15.861347,0.0896,1.1117,-0.2166,0.1734,0.2270,-3.7226,-1.3407,-3.6774,-0.7882,
15.863860,0.0896,1.1117,-0.2166,1.5018,1.8051,-2.3380,-1.3407,-3.6774,-0.7882,
15.885887,0.1135,1.0538,-0.1731,1.5018,1.8051,-2.3380,-1.3407,-3.6774,-0.7882,
15.889846,0.1685,0.9815,-0.1697,1.5018,1.8051,-2.3380,-1.3407,-3.6774,-0.7882,
15.892349,0.1858,0.9439,-0.1411,1.5018,1.8051,-2.3380,-1.3407,-3.6774,-0.7882,
15.920948,0.1858,0.9439,-0.1411,1.5018,1.8051,-2.3380,-0.4264,-3.9032,-0.3811,
15.925719,0.1858,0.9439,-0.1411,3.2235,0.5126,-1.8917,-0.4264,-3.9032,-0.3811,
15.942012,0.1914,0.9117,-0.1907,3.2235,0.5126,-1.8917,-0.4264,-3.9032,-0.3811,
15.945258,0.2659,0.8458,-0.2486,3.2235,0.5126,-1.8917,-0.4264,-3.9032,-0.3811,
15.948204,0.4793,0.8077,-0.3120,3.2235,0.5126,-1.8917,-0.4264,-3.9032,-0.3811,
15.979104,0.4793,0.8077,-0.3120,3.2235,0.5126,-1.8917,0.3402,-2.1502,0.5785,
15.982352,0.4793,0.8077,-0.3120,4.3233,-0.8834,-2.7334,0.3402,-2.1502,0.5785,
16.004368,0.6934,0.9459,-0.4615,4.3233,-0.8834,-2.7334,0.3402,-2.1502,0.5785,
16.005611,0.6854,1.1210,-0.2005,4.3233,-0.8834,-2.7334,0.3402,-2.1502,0.5785,
16.006579,0.0964,1.2719,0.8162,4.3233,-0.8834,-2.7334,0.3402,-2.1502,0.5785,
16.036931,0.0964,1.2719,0.8162,4.3233,-0.8834,-2.7334,-0.2175,1.5433,0.2582,
16.041043,0.0964,1.2719,0.8162,5.8691,1.6018,0.2085,-0.2175,1.5433,0.2582,
16.059355,-0.3228,1.4662,0.5670,5.8691,1.6018,0.2085,-0.2175,1.5433,0.2582,
16.060675,-0.8914,1.3690,-0.2083,5.8691,1.6018,0.2085,-0.2175,1.5433,0.2582,
16.061633,-0.7528,0.9537,-0.0327,5.8691,1.6018,0.2085,-0.2175,1.5433,0.2582,
16.099677,-0.7528,0.9537,-0.0327,5.8691,1.6018,0.2085,0.2655,-0.1238,1.0780,
16.101845,-0.7528,0.9537,-0.0327,-5.8635,2.9711,0.8976,0.2655,-0.1238,1.0780,
16.128067,-0.2324,0.8158,0.0339,-5.8635,2.9711,0.8976,0.2655,-0.1238,1.0780,
16.129753,0.1350,1.0206,0.0581,-5.8635,2.9711,0.8976,0.2655,-0.1238,1.0780,
16.130710,0.4458,1.0221,0.1580,-5.8635,2.9711,0.8976,0.2655,-0.1238,1.0780,
16.147151,0.2144,0.9295,0.1604,-5.8635,2.9711,0.8976,0.2655,-0.1238,1.0780,
16.152603,0.2144,0.9295,0.1604,-5.8635,2.9711,0.8976,0.2521,-0.3132,0.9159,
16.153734,0.2144,0.9295,0.1604,1.1755,-0.0851,0.7699,0.2521,-0.3132,0.9159,
16.211463,-0.1045,1.0233,0.0696,1.1755,-0.0851,0.7699,0.2521,-0.3132,0.9159,
16.213746,-0.1052,1.0875,0.0027,1.1755,-0.0851,0.7699,0.2521,-0.3132,0.9159,
16.214737,0.0269,1.0436,-0.0017,1.1755,-0.0851,0.7699,0.2521,-0.3132,0.9159,
16.215980,0.1406,1.0128,-0.0620,1.1755,-0.0851,0.7699,0.2521,-0.3132,0.9159,
16.217411,0.1406,1.0128,-0.0620,1.1755,-0.0851,0.7699,0.2608,-0.4288,0.6681,
16.218978,0.1406,1.0128,-0.0620,-0.3088,0.5066,0.8464,0.2608,-0.4288,0.6681,
16.270982,0.1904,1.0135,-0.0405,-0.3088,0.5066,0.8464,0.2608,-0.4288,0.6681,
16.273838,0.0598,1.0167,-0.0361,-0.3088,0.5066,0.8464,0.2608,-0.4288,0.6681,
16.275526,-0.1201,1.0333,-0.0176,-0.3088,0.5066,0.8464,0.2608,-0.4288,0.6681,
16.277212,-0.1201,1.0333,-0.0176,-0.3088,0.5066,0.8464,0.2258,0.1175,0.3240,
16.278997,-0.1201,1.0333,-0.0176,0.6549,0.6027,-0.1314,0.2258,0.1175,0.3240,
16.329296,-0.1343,1.0304,0.0559,0.6549,0.6027,-0.1314,0.2258,0.1175,0.3240,
16.331775,-0.0513,1.0162,0.1069,0.6549,0.6027,-0.1314,0.2258,0.1175,0.3240,
16.333787,0.0816,0.9850,0.0112,0.6549,0.6027,-0.1314,0.2258,0.1175,0.3240,
16.336326,0.0816,0.9850,0.0112,-1.3764,0.6511,0.4461,0.2258,0.1175,0.3240,
16.338605,0.0816,0.9850,0.0112,-1.3764,0.6511,0.4461,0.4137,-0.2631,0.4643,
16.386045,0.1343,0.9801,0.0127,-1.3764,0.6511,0.4461,0.4137,-0.2631,0.4643,
16.387399,0.0010,0.9820,0.0452,-1.3764,0.6511,0.4461,0.4137,-0.2631,0.4643,
16.388000,-0.0801,0.9911,0.0264,-1.3764,0.6511,0.4461,0.4137,-0.2631,0.4643,
16.388559,-0.0801,0.9911,0.0264,-1.3764,0.6511,0.4461,0.5502,-0.2849,0.5671,
16.389574,-0.0801,0.9911,0.0264,-0.4954,0.3697,1.1628,0.5502,-0.2849,0.5671,
16.445654,0.0383,1.0077,-0.0190,-0.4954,0.3697,1.1628,0.5502,-0.2849,0.5671,
16.449083,0.1983,1.0089,-0.0403,-0.4954,0.3697,1.1628,0.5502,-0.2849,0.5671,
16.450955,0.1641,0.9901,-0.0947,-0.4954,0.3697,1.1628,0.5502,-0.2849,0.5671,
16.452708,0.1641,0.9901,-0.0947,-0.4954,0.3697,1.1628,0.6571,-0.4066,0.7939,
16.454840,0.1641,0.9901,-0.0947,-1.5496,0.4533,1.2719,0.6571,-0.4066,0.7939,
16.505830,0.0632,0.9620,-0.1079,-1.5496,0.4533,1.2719,0.6571,-0.4066,0.7939,
16.510062,0.1226,0.9759,-0.1126,-1.5496,0.4533,1.2719,0.6571,-0.4066,0.7939,
16.511953,0.1499,1.0333,-0.0850,-1.5496,0.4533,1.2719,0.6571,-0.4066,0.7939,
16.513810,0.1499,1.0333,-0.0850,-1.5496,0.4533,1.2719,0.7043,-0.4498,0.8013,
16.515712,0.1499,1.0333,-0.0850,-0.4159,0.5095,0.7162,0.7043,-0.4498,0.8013,
16.561038,0.0195,1.0616,-0.0754,-0.4159,0.5095,0.7162,0.7043,-0.4498,0.8013,
16.562403,0.0024,1.0663,-0.1179,-0.4159,0.5095,0.7162,0.7043,-0.4498,0.8013,
16.562931,0.1299,1.0973,-0.1121,-0.4159,0.5095,0.7162,0.7043,-0.4498,0.8013,
16.563637,0.1299,1.0973,-0.1121,-0.4159,0.5095,0.7162,0.8855,-0.3993,0.9933,
16.564495,0.1299,1.0973,-0.1121,-1.3140,1.0605,1.1146,0.8855,-0.3993,0.9933,
16.620000,0.0667,1.1244,-0.0479,-1.3140,1.0605,1.1146,0.8855,-0.3993,0.9933,
16.621815,-0.0374,1.1517,-0.0029,-1.3140,1.0605,1.1146,0.8855,-0.3993,0.9933,
16.622414,0.0171,1.1881,-0.0940,-1.3140,1.0605,1.1146,0.8855,-0.3993,0.9933,
16.622941,0.0171,1.1881,-0.0940,-1.3140,1.0605,1.1146,1.2952,-0.6082,1.3887,
16.623593,0.0171,1.1881,-0.0940,-2.2074,2.1232,1.8232,1.2952,-0.6082,1.3887,
16.677708,0.0501,1.2057,-0.1736,-2.2074,2.1232,1.8232,1.2952,-0.6082,1.3887,
16.679122,-0.0662,1.3212,-0.2688,-2.2074,2.1232,1.8232,1.2952,-0.6082,1.3887,
16.679970,-0.2710,1.6413,-0.0842,-2.2074,2.1232,1.8232,1.2952,-0.6082,1.3887,
16.680747,-0.2710,1.6413,-0.0842,-2.2074,2.1232,1.8232,1.7141,-0.9586,1.7679,
16.681561,-0.2710,1.6413,-0.0842,-3.3777,3.5586,2.8094,1.7141,-0.9586,1.7679,
16.737603,-0.2710,1.6413,-0.0842,-7.6161,8.3772,4.1037,1.7141,-0.9586,1.7679,
16.740986,-0.8119,1.7988,0.1099,-7.6161,8.3772,4.1037,1.7141,-0.9586,1.7679,
16.742806,-1.0460,1.6862,0.1858,-7.6161,8.3772,4.1037,1.7141,-0.9586,1.7679,
16.744853,-0.5325,1.3800,-0.0554,-7.6161,8.3772,4.1037,1.7141,-0.9586,1.7679,
16.746695,-0.5325,1.3800,-0.0554,-7.6161,8.3772,4.1037,2.0985,-1.5962,2.0941,
16.796302,0.4468,1.2333,-0.5298,-7.6161,8.3772,4.1037,2.0985,-1.5962,2.0941,
16.799566,1.2286,1.3522,-0.5096,-7.6161,8.3772,4.1037,2.0985,-1.5962,2.0941,
16.801635,0.9981,1.1407,-0.5198,-7.6161,8.3772,4.1037,2.0985,-1.5962,2.0941,
16.803560,0.9981,1.1407,-0.5198,-7.6161,8.3772,4.1037,2.2065,-1.6662,2.9743,
16.805749,0.9981,1.1407,-0.5198,-8.0084,8.1676,4.7541,2.2065,-1.6662,2.9743,
16.854591,0.5220,0.8043,-0.6407,-8.0084,8.1676,4.7541,2.2065,-1.6662,2.9743,
16.857426,0.3245,0.5418,-0.5816,-8.0084,8.1676,4.7541,2.2065,-1.6662,2.9743,
16.860326,0.3240,0.3958,-0.3409,-8.0084,8.1676,4.7541,2.2065,-1.6662,2.9743,
16.862367,0.3240,0.3958,-0.3409,4.3211,5.1539,0.7165,2.2065,-1.6662,2.9743,
16.864939,0.3240,0.3958,-0.3409,4.3211,5.1539,0.7165,0.4085,0.0346,0.7842,
16.911391,0.1956,0.2564,-0.1699,4.3211,5.1539,0.7165,0.4085,0.0346,0.7842,
16.913495,0.0161,0.1504,-0.0427,4.3211,5.1539,0.7165,0.4085,0.0346,0.7842,
16.915082,-0.0938,0.1753,-0.1348,4.3211,5.1539,0.7165,0.4085,0.0346,0.7842,
16.917162,-0.0938,0.1753,-0.1348,4.3211,5.1539,0.7165,-1.7060,0.5115,-1.0826,
16.919830,-0.0938,0.1753,-0.1348,-1.6626,-2.5399,1.8342,-1.7060,0.5115,-1.0826,
16.971446,-0.0732,0.3074,-0.2810,-1.6626,-2.5399,1.8342,-1.7060,0.5115,-1.0826,
16.975348,0.0005,0.4163,-0.3401,-1.6626,-2.5399,1.8342,-1.7060,0.5115,-1.0826,
16.977754,0.0479,0.4869,-0.3020,-1.6626,-2.5399,1.8342,-1.7060,0.5115,-1.0826,
16.979789,0.0479,0.4869,-0.3020,-1.6626,-2.5399,1.8342,-2.7756,-0.6976,-2.6222,
16.982226,0.0479,0.4869,-0.3020,-3.5609,-5.6524,2.8493,-2.7756,-0.6976,-2.6222,
17.028861,0.0654,0.5545,-0.3020,-3.5609,-5.6524,2.8493,-2.7756,-0.6976,-2.6222,
17.032371,0.0125,0.6570,-0.3020,-3.5609,-5.6524,2.8493,-2.7756,-0.6976,-2.6222,
17.034466,-0.0317,0.8280,-0.3728,-3.5609,-5.6524,2.8493,-2.7756,-0.6976,-2.6222,
17.036869,-0.0317,0.8280,-0.3728,-3.5609,-5.6524,2.8493,-4.0356,-1.7379,-3.8894,
17.039206,-0.0317,0.8280,-0.3728,-0.4272,-4.1530,-0.5195,-4.0356,-1.7379,-3.8894,
17.091849,0.0049,1.1163,-0.5674,-0.4272,-4.1530,-0.5195,-4.0356,-1.7379,-3.8894,
17.095292,0.2803,1.5890,-0.7384,-0.4272,-4.1530,-0.5195,-4.0356,-1.7379,-3.8894,
17.096458,0.4603,1.9365,-0.8414,-0.4272,-4.1530,-0.5195,-4.0356,-1.7379,-3.8894,
17.097504,0.4603,1.9365,-0.8414,-0.4272,-4.1530,-0.5195,-4.9299,-1.1181,-4.1464,
17.098574,0.4603,1.9365,-0.8414,1.4375,-0.6778,-4.0753,-4.9299,-1.1181,-4.1464,
17.145058,0.6068,1.6991,-0.9000,1.4375,-0.6778,-4.0753,-4.9299,-1.1181,-4.1464,
17.148637,0.8907,1.3463,-0.5887,1.4375,-0.6778,-4.0753,-4.9299,-1.1181,-4.1464,
17.156943,0.8431,1.1713,-0.3802,1.4375,-0.6778,-4.0753,-4.9299,-1.1181,-4.1464,
17.159194,0.8431,1.1713,-0.3802,1.4375,-0.6778,-4.0753,-4.3217,1.3401,-3.3524,
17.161570,0.8431,1.1713,-0.3802,7.6041,8.4899,-9.9732,-4.3217,1.3401,-3.3524,
17.202663,0.5220,1.1014,-0.4820,7.6041,8.4899,-9.9732,-4.3217,1.3401,-3.3524,
17.205004,0.4866,0.8558,-0.5618,7.6041,8.4899,-9.9732,-4.3217,1.3401,-3.3524,
17.206200,0.5621,0.8057,-0.4832,7.6041,8.4899,-9.9732,-4.3217,1.3401,-3.3524,
17.207296,0.5621,0.8057,-0.4832,7.6041,8.4899,-9.9732,-1.0542,2.1440,-0.2207,
17.208366,0.5621,0.8057,-0.4832,10.7590,3.3532,-6.5803,-1.0542,2.1440,-0.2207,
17.262697,0.4175,1.1464,-0.7554,10.7590,3.3532,-6.5803,-1.0542,2.1440,-0.2207,
17.266660,-0.9149,1.5539,0.3213,10.7590,3.3532,-6.5803,-1.0542,2.1440,-0.2207,
17.269255,-2.5156,1.4433,0.8560,10.7590,3.3532,-6.5803,-1.0542,2.1440,-0.2207,
17.271678,-2.5156,1.4433,0.8560,10.7590,3.3532,-6.5803,0.2449,3.2008,0.8595,
17.273758,-2.5156,1.4433,0.8560,7.8994,0.5098,-6.8555,0.2449,3.2008,0.8595,
17.320670,-0.8700,1.2880,-0.3924,7.8994,0.5098,-6.8555,0.2449,3.2008,0.8595,
17.323802,0.3460,1.3056,-0.9520,7.8994,0.5098,-6.8555,0.2449,3.2008,0.8595,
17.325711,0.5318,1.0272,-0.1482,7.8994,0.5098,-6.8555,0.2449,3.2008,0.8595,
17.327266,0.5318,1.0272,-0.1482,7.8994,0.5098,-6.8555,1.1924,0.7467,2.2590,
17.328886,0.5318,1.0272,-0.1482,-11.8702,4.8765,2.2960,1.1924,0.7467,2.2590,
17.379645,0.1521,0.7139,0.5369,-11.8702,4.8765,2.2960,1.1924,0.7467,2.2590,
17.383476,-0.0852,0.8541,0.1699,-11.8702,4.8765,2.2960,1.1924,0.7467,2.2590,
17.386147,0.0100,1.0677,-0.1753,-11.8702,4.8765,2.2960,1.1924,0.7467,2.2590,
17.388966,0.0100,1.0677,-0.1753,4.6713,0.6628,-1.7302,1.1924,0.7467,2.2590,
17.391325,0.0100,1.0677,-0.1753,4.6713,0.6628,-1.7302,0.6758,-0.1727,1.4757,
17.438097,0.1934,1.0936,-0.1504,4.6713,0.6628,-1.7302,0.6758,-0.1727,1.4757,
17.442432,0.0042,1.0235,-0.0894,4.6713,0.6628,-1.7302,0.6758,-0.1727,1.4757,
17.445583,-0.1985,0.9840,-0.0071,4.6713,0.6628,-1.7302,0.6758,-0.1727,1.4757,
17.448020,-0.1985,0.9840,-0.0071,4.6713,0.6628,-1.7302,0.4406,-0.0598,0.9070,
17.452066,-0.1985,0.9840,-0.0071,1.1809,0.5019,-0.1607,0.4406,-0.0598,0.9070,
17.507917,-0.1563,0.9898,0.0850,1.1809,0.5019,-0.1607,0.4406,-0.0598,0.9070,
17.511753,-0.0962,1.0062,0.1365,1.1809,0.5019,-0.1607,0.4406,-0.0598,0.9070,
17.513933,-0.0857,0.9835,0.0938,1.1809,0.5019,-0.1607,0.4406,-0.0598,0.9070,
17.515160,-0.0857,0.9835,0.0938,1.1809,0.5019,-0.1607,0.5180,0.1232,0.8074,
17.516001,-0.0857,0.9835,0.0938,-0.7816,0.4236,0.5871,0.5180,0.1232,0.8074,
17.554525,-0.0171,0.9796,0.0056,-0.7816,0.4236,0.5871,0.5180,0.1232,0.8074,
17.557467,-0.0249,0.9896,-0.0618,-0.7816,0.4236,0.5871,0.5180,0.1232,0.8074,
17.559341,-0.0139,1.0170,-0.0803,-0.7816,0.4236,0.5871,0.5180,0.1232,0.8074,
17.560924,-0.0139,1.0170,-0.0803,-0.7816,0.4236,0.5871,0.6744,-0.2317,0.9397,
17.563619,-0.0139,1.0170,-0.0803,-0.7749,0.3516,1.7333,0.6744,-0.2317,0.9397,
17.613142,0.0232,1.0050,-0.0476,-0.7749,0.3516,1.7333,0.6744,-0.2317,0.9397,
17.617198,0.0129,0.9928,-0.0027,-0.7749,0.3516,1.7333,0.6744,-0.2317,0.9397,
17.618780,0.0618,0.9732,-0.0242,-0.7749,0.3516,1.7333,0.6744,-0.2317,0.9397,
17.620315,0.0618,0.9732,-0.0242,-0.7749,0.3516,1.7333,0.7839,-0.2282,0.9520,
17.622087,0.0618,0.9732,-0.0242,-0.6661,0.5549,0.7610,0.7839,-0.2282,0.9520,
17.670624,0.0967,0.9762,-0.0696,-0.6661,0.5549,0.7610,0.7839,-0.2282,0.9520,
17.673318,0.0291,1.0084,-0.1199,-0.6661,0.5549,0.7610,0.7839,-0.2282,0.9520,
17.675510,0.0720,1.0292,-0.1712,-0.6661,0.5549,0.7610,0.7839,-0.2282,0.9520,
17.677377,0.0720,1.0292,-0.1712,-0.6661,0.5549,0.7610,0.9102,-0.3327,0.9825,
17.679200,0.0720,1.0292,-0.1712,-0.5427,0.4570,1.5461,0.9102,-0.3327,0.9825,
17.728775,0.0698,1.0221,-0.2261,-0.5427,0.4570,1.5461,0.9102,-0.3327,0.9825,
17.731325,0.0818,0.9750,-0.2473,-0.5427,0.4570,1.5461,0.9102,-0.3327,0.9825,
17.733865,0.0654,0.9938,-0.2051,-0.5427,0.4570,1.5461,0.9102,-0.3327,0.9825,
17.735813,0.0654,0.9938,-0.2051,-0.5427,0.4570,1.5461,0.9784,-0.4025,1.0493,
17.736621,0.0654,0.9938,-0.2051,-1.0308,1.0281,0.7086,0.9784,-0.4025,1.0493,
17.788217,0.0374,1.0021,-0.2068,-1.0308,1.0281,0.7086,0.9784,-0.4025,1.0493,
17.791761,0.0576,1.0672,-0.2056,-1.0308,1.0281,0.7086,0.9784,-0.4025,1.0493,
17.793453,0.0393,1.1215,-0.1494,-1.0308,1.0281,0.7086,0.9784,-0.4025,1.0493,
17.795466,0.0393,1.1215,-0.1494,-1.0308,1.0281,0.7086,1.2641,-0.1028,1.1446,
17.797347,0.0393,1.1215,-0.1494,-1.5331,1.0466,0.8891,1.2641,-0.1028,1.1446,
17.846246,0.0393,1.1215,-0.1494,-2.3198,2.7835,2.3475,1.2641,-0.1028,1.1446,
17.855187,0.0154,1.1598,-0.1238,-2.3198,2.7835,2.3475,1.2641,-0.1028,1.1446,
17.856034,-0.0142,1.3747,-0.0486,-2.3198,2.7835,2.3475,1.2641,-0.1028,1.1446,
17.856801,-0.2686,1.8063,0.2674,-2.3198,2.7835,2.3475,1.2641,-0.1028,1.1446,
17.857629,-0.2686,1.8063,0.2674,-2.3198,2.7835,2.3475,1.8126,-0.1521,1.2676,
17.903359,-0.8255,1.9169,0.2290,-2.3198,2.7835,2.3475,1.8126,-0.1521,1.2676,
17.906660,-1.0878,1.7543,0.1189,-2.3198,2.7835,2.3475,1.8126,-0.1521,1.2676,
17.908510,-0.7386,1.4547,0.0693,-2.3198,2.7835,2.3475,1.8126,-0.1521,1.2676,
17.910270,-0.7386,1.4547,0.0693,-6.8060,9.2912,6.4736,1.8126,-0.1521,1.2676,
17.912183,-0.7386,1.4547,0.0693,-6.8060,9.2912,6.4736,2.4268,-0.6723,1.7679,
17.961300,0.1482,1.2531,-0.4080,-6.8060,9.2912,6.4736,2.4268,-0.6723,1.7679,
17.963167,0.9828,1.3864,-0.5479,-6.8060,9.2912,6.4736,2.4268,-0.6723,1.7679,
17.963985,1.0731,1.1832,-0.3814,-6.8060,9.2912,6.4736,2.4268,-0.6723,1.7679,
17.964979,1.0731,1.1832,-0.3814,-6.8060,9.2912,6.4736,2.4530,-1.3893,2.9135,
17.966533,1.0731,1.1832,-0.3814,-9.1823,8.4812,5.4482,2.4530,-1.3893,2.9135,
18.019961,0.4981,0.8761,-0.5110,-9.1823,8.4812,5.4482,2.4530,-1.3893,2.9135,
18.022120,0.3667,0.4991,-0.5503,-9.1823,8.4812,5.4482,2.4530,-1.3893,2.9135,
18.022796,0.4297,0.4380,-0.4524,-9.1823,8.4812,5.4482,2.4530,-1.3893,2.9135,
18.023347,0.4297,0.4380,-0.4524,-9.1823,8.4812,5.4482,0.8715,-0.1179,0.7785,
18.023926,0.4297,0.4380,-0.4524,4.3442,5.5610,1.7529,0.8715,-0.1179,0.7785,
18.078197,0.3462,0.3650,-0.2346,4.3442,5.5610,1.7529,0.8715,-0.1179,0.7785,
18.080217,0.2368,0.2407,0.0251,4.3442,5.5610,1.7529,0.8715,-0.1179,0.7785,
18.081051,0.1653,0.1778,-0.0422,4.3442,5.5610,1.7529,0.8715,-0.1179,0.7785,
18.081751,0.1653,0.1778,-0.0422,4.3442,5.5610,1.7529,-1.5657,0.9283,-0.9648,
18.082984,0.1653,0.1778,-0.0422,-0.2485,-2.1844,1.6151,-1.5657,0.9283,-0.9648,
18.137400,0.1653,0.1778,-0.0422,-1.3497,-5.6326,3.6306,-1.5657,0.9283,-0.9648,
