time,gFx,gFy,gFz,ax,ay,az,wx,wy,wz,P
0.032,-0.03,0.98,0.28,0.01,0.04,0.04,0.00,0.02,0.00,1008.70
0.032,0.01,0.99,0.23,0.01,0.04,0.04,0.00,0.02,0.00,1008.70
0.033,0.04,0.97,0.24,0.01,0.04,0.04,0.00,0.02,0.00,1008.70
0.033,0.00,0.99,0.27,0.01,0.04,0.04,0.00,0.02,0.00,1008.70
0.033,0.00,0.99,0.27,0.01,0.04,0.04,0.01,-0.04,0.02,1008.70
0.034,0.00,0.99,0.27,-0.09,-0.01,0.07,0.01,-0.04,0.02,1008.70
0.072,0.00,0.99,0.27,-0.09,-0.01,0.07,0.01,-0.04,0.02,1008.70
0.091,0.00,0.99,0.27,-0.04,0.02,0.19,0.01,-0.04,0.02,1008.70
0.092,0.01,0.99,0.27,-0.04,0.02,0.19,0.01,-0.04,0.02,1008.70
0.092,0.03,0.97,0.25,-0.04,0.02,0.19,0.01,-0.04,0.02,1008.70
0.093,0.01,0.98,0.25,-0.04,0.02,0.19,0.01,-0.04,0.02,1008.70
0.093,0.01,0.98,0.25,-0.04,0.02,0.19,0.03,-0.05,0.01,1008.70
0.149,0.02,0.98,0.26,-0.04,0.02,0.19,0.03,-0.05,0.01,1008.70
0.15,0.02,0.99,0.26,-0.04,0.02,0.19,0.03,-0.05,0.01,1008.70
0.15,0.02,0.97,0.26,-0.04,0.02,0.19,0.03,-0.05,0.01,1008.70
0.15,0.02,0.97,0.26,-0.01,0.00,0.12,0.03,-0.05,0.01,1008.70
0.15,0.02,0.97,0.26,-0.01,0.00,0.12,0.05,-0.03,0.01,1008.70
0.151,0.02,0.97,0.26,-0.01,0.00,0.12,0.05,-0.03,0.01,1008.69
0.208,0.02,0.97,0.26,0.03,-0.07,0.06,0.05,-0.03,0.01,1008.69
0.208,0.02,0.97,0.24,0.03,-0.07,0.06,0.05,-0.03,0.01,1008.69
0.208,0.03,0.98,0.24,0.03,-0.07,0.06,0.05,-0.03,0.01,1008.69
0.209,0.02,0.98,0.24,0.03,-0.07,0.06,0.05,-0.03,0.01,1008.69
0.209,0.02,0.98,0.24,0.03,-0.07,0.06,0.06,-0.03,-0.00,1008.69
0.231,0.02,0.98,0.24,0.03,-0.07,0.06,0.06,-0.03,-0.00,1008.70
0.269,0.01,0.99,0.23,0.03,-0.07,0.06,0.06,-0.03,-0.00,1008.70
0.27,0.01,0.99,0.23,0.03,-0.07,0.06,0.06,-0.03,-0.00,1008.70
0.27,0.02,0.98,0.24,0.03,-0.07,0.06,0.06,-0.03,-0.00,1008.70
0.271,0.02,0.98,0.24,0.03,-0.07,0.06,0.06,-0.00,-0.02,1008.70
0.271,0.02,0.98,0.24,-0.04,0.06,-0.01,0.06,-0.00,-0.02,1008.70
0.271,0.02,0.98,0.24,-0.04,0.06,-0.01,0.06,-0.00,-0.02,1008.70
0.325,0.01,0.98,0.25,-0.04,0.06,-0.01,0.06,-0.00,-0.02,1008.70
0.326,0.01,0.98,0.25,-0.04,0.06,-0.01,0.06,-0.00,-0.02,1008.70
0.326,0.02,0.99,0.25,-0.04,0.06,-0.01,0.06,-0.00,-0.02,1008.70
0.326,0.02,0.99,0.25,-0.04,0.06,-0.01,0.07,-0.00,-0.02,1008.70
0.326,0.02,0.99,0.25,-0.03,-0.03,0.13,0.07,-0.00,-0.02,1008.70
0.352,0.02,0.99,0.25,-0.03,-0.03,0.13,0.07,-0.00,-0.02,1008.70
0.382,0.03,0.99,0.24,-0.03,-0.03,0.13,0.07,-0.00,-0.02,1008.70
0.383,0.03,0.98,0.25,-0.03,-0.03,0.13,0.07,-0.00,-0.02,1008.70
0.383,0.02,0.98,0.24,-0.03,-0.03,0.13,0.07,-0.00,-0.02,1008.70
0.383,0.02,0.98,0.24,-0.03,-0.03,0.13,0.12,-0.00,-0.04,1008.70
0.384,0.02,0.98,0.24,0.11,0.02,0.18,0.12,-0.00,-0.04,1008.70
0.433,0.02,0.98,0.24,0.11,0.02,0.18,0.12,-0.00,-0.04,1008.72
0.441,0.02,0.98,0.24,-0.11,-0.04,0.04,0.12,-0.00,-0.04,1008.72
0.442,0.01,0.97,0.23,-0.11,-0.04,0.04,0.12,-0.00,-0.04,1008.72
0.442,-0.02,1.01,0.21,-0.11,-0.04,0.04,0.12,-0.00,-0.04,1008.72
0.442,0.01,0.94,0.16,-0.11,-0.04,0.04,0.12,-0.00,-0.04,1008.72
0.442,0.01,0.94,0.16,-0.11,-0.04,0.04,0.13,-0.06,-0.03,1008.72
0.472,0.01,0.94,0.16,-0.11,-0.04,0.04,0.13,-0.06,-0.03,1008.70
0.499,0.04,0.98,0.19,-0.11,-0.04,0.04,0.13,-0.06,-0.03,1008.70
0.501,0.07,1.03,0.24,-0.11,-0.04,0.04,0.13,-0.06,-0.03,1008.70
0.501,0.03,0.99,0.23,-0.11,-0.04,0.04,0.13,-0.06,-0.03,1008.70
0.501,0.03,0.99,0.23,-0.11,-0.04,0.04,0.07,-0.05,-0.06,1008.70
0.502,0.03,0.99,0.23,0.26,-0.06,-0.21,0.07,-0.05,-0.06,1008.70
0.552,0.03,0.99,0.23,0.26,-0.06,-0.21,0.07,-0.05,-0.06,1008.70
0.557,0.00,0.97,0.23,0.26,-0.06,-0.21,0.07,-0.05,-0.06,1008.70
0.558,0.01,0.96,0.23,0.26,-0.06,-0.21,0.07,-0.05,-0.06,1008.70
0.559,-0.00,0.97,0.21,0.26,-0.06,-0.21,0.07,-0.05,-0.06,1008.70
0.559,-0.00,0.97,0.21,0.26,-0.06,-0.21,0.12,-0.04,-0.13,1008.70
0.559,-0.00,0.97,0.21,0.10,-0.14,0.18,0.12,-0.04,-0.13,1008.70
0.621,-0.00,0.97,0.21,-0.12,0.13,-0.15,0.12,-0.04,-0.13,1008.70
0.624,-0.02,1.01,0.19,-0.12,0.13,-0.15,0.12,-0.04,-0.13,1008.70
0.625,-0.01,1.02,0.17,-0.12,0.13,-0.15,0.12,-0.04,-0.13,1008.70
0.625,0.01,1.00,0.17,-0.12,0.13,-0.15,0.12,-0.04,-0.13,1008.70
0.626,0.01,1.00,0.17,-0.12,0.13,-0.15,0.09,-0.11,-0.13,1008.70
0.632,0.01,1.00,0.17,-0.12,0.13,-0.15,0.09,-0.11,-0.13,1008.70
0.673,0.01,1.00,0.17,-0.12,0.13,-0.15,0.09,-0.11,-0.13,1008.71
0.676,0.01,0.98,0.20,-0.12,0.13,-0.15,0.09,-0.11,-0.13,1008.71
0.678,-0.02,1.00,0.19,-0.12,0.13,-0.15,0.09,-0.11,-0.13,1008.71
0.679,-0.01,1.00,0.19,-0.12,0.13,-0.15,0.09,-0.11,-0.13,1008.71
0.68,-0.01,1.00,0.19,-0.12,0.13,-0.15,0.05,-0.04,-0.13,1008.71
0.681,-0.01,1.00,0.19,0.06,0.04,-0.14,0.05,-0.04,-0.13,1008.71
0.733,-0.00,0.99,0.21,0.06,0.04,-0.14,0.05,-0.04,-0.13,1008.71
0.735,-0.01,0.98,0.20,0.06,0.04,-0.14,0.05,-0.04,-0.13,1008.71
0.735,-0.02,0.98,0.22,0.06,0.04,-0.14,0.05,-0.04,-0.13,1008.71
0.737,-0.02,0.98,0.22,0.06,0.04,-0.14,0.05,-0.07,-0.12,1008.71
0.737,-0.02,0.98,0.22,0.05,-0.04,0.03,0.05,-0.07,-0.12,1008.71
0.754,-0.02,0.98,0.22,0.05,-0.04,0.03,0.05,-0.07,-0.12,1008.71
0.794,-0.04,1.00,0.22,0.05,-0.04,0.03,0.05,-0.07,-0.12,1008.71
0.795,-0.02,1.01,0.20,0.05,-0.04,0.03,0.05,-0.07,-0.12,1008.71
0.796,-0.00,1.00,0.19,0.05,-0.04,0.03,0.05,-0.07,-0.12,1008.71
0.796,-0.00,1.00,0.19,-0.07,0.07,0.19,0.05,-0.07,-0.12,1008.71
0.797,-0.00,1.00,0.19,-0.07,0.07,0.19,0.09,-0.06,-0.12,1008.71
0.838,-0.00,1.00,0.19,-0.07,0.07,0.19,0.09,-0.06,-0.12,1008.70
0.854,-0.01,0.97,0.20,-0.07,0.07,0.19,0.09,-0.06,-0.12,1008.70
0.855,-0.05,0.94,0.24,-0.07,0.07,0.19,0.09,-0.06,-0.12,1008.70
0.855,-0.07,0.94,0.21,-0.07,0.07,0.19,0.09,-0.06,-0.12,1008.70
0.855,-0.07,0.94,0.21,-0.07,0.07,0.19,0.13,0.01,-0.10,1008.70
0.856,-0.07,0.94,0.21,0.07,-0.22,0.23,0.13,0.01,-0.10,1008.70
0.872,-0.07,0.94,0.21,0.07,-0.22,0.23,0.13,0.01,-0.10,1008.71
0.908,-0.01,0.93,0.19,0.07,-0.22,0.23,0.13,0.01,-0.10,1008.71
0.908,-0.05,0.97,0.17,0.07,-0.22,0.23,0.13,0.01,-0.10,1008.71
0.908,-0.24,1.12,0.25,0.07,-0.22,0.23,0.13,0.01,-0.10,1008.71
0.909,-0.24,1.12,0.25,0.07,-0.22,0.23,0.09,0.04,0.06,1008.71
0.909,-0.24,1.12,0.25,-0.18,-0.42,0.09,0.09,0.04,0.06,1008.71
0.952,-0.24,1.12,0.25,-0.18,-0.42,0.09,0.09,0.04,0.06,1008.70
0.966,-0.30,1.17,0.22,-0.18,-0.42,0.09,0.09,0.04,0.06,1008.70
0.967,-0.05,1.01,0.06,-0.18,-0.42,0.09,0.09,0.04,0.06,1008.70
0.968,0.07,0.92,0.07,-0.18,-0.42,0.09,0.09,0.04,0.06,1008.70
0.968,0.07,0.92,0.07,-0.18,-0.42,0.09,0.21,-0.04,0.33,1008.70
0.969,0.07,0.92,0.07,-1.82,1.00,0.07,0.21,-0.04,0.33,1008.70
1.025,0.07,0.92,0.07,0.51,-0.47,-0.59,0.21,-0.04,0.33,1008.70
1.028,0.06,0.93,0.12,0.51,-0.47,-0.59,0.21,-0.04,0.33,1008.70
1.029,0.05,1.00,0.12,0.51,-0.47,-0.59,0.21,-0.04,0.33,1008.70
1.03,-0.01,1.08,0.12,0.51,-0.47,-0.59,0.21,-0.04,0.33,1008.70
1.031,-0.01,1.08,0.12,0.51,-0.47,-0.59,0.03,-0.04,0.34,1008.70
1.039,-0.01,1.08,0.12,0.51,-0.47,-0.59,0.03,-0.04,0.34,1008.70
1.072,-0.01,1.08,0.12,0.51,-0.47,-0.59,0.03,-0.04,0.34,1008.70
1.085,-0.04,1.03,0.14,0.51,-0.47,-0.59,0.03,-0.04,0.34,1008.70
1.087,0.04,0.93,0.13,0.51,-0.47,-0.59,0.03,-0.04,0.34,1008.70
1.088,0.12,0.92,0.19,0.51,-0.47,-0.59,0.03,-0.04,0.34,1008.70
1.089,0.12,0.92,0.19,-0.36,0.15,-0.37,0.03,-0.04,0.34,1008.70
1.09,0.12,0.92,0.19,-0.36,0.15,-0.37,-0.03,-0.16,0.37,1008.70
1.142,0.11,0.98,0.16,-0.36,0.15,-0.37,-0.03,-0.16,0.37,1008.70
1.144,0.12,0.97,0.14,-0.36,0.15,-0.37,-0.03,-0.16,0.37,1008.70
1.145,0.09,0.99,0.17,-0.36,0.15,-0.37,-0.03,-0.16,0.37,1008.70
1.146,0.09,0.99,0.17,0.64,-0.36,-0.08,-0.03,-0.16,0.37,1008.70
1.147,0.09,0.99,0.17,0.64,-0.36,-0.08,-0.11,-0.11,0.25,1008.70
1.155,0.09,0.99,0.17,0.64,-0.36,-0.08,-0.11,-0.11,0.25,1008.70
1.201,0.09,0.99,0.17,0.10,0.22,0.74,-0.11,-0.11,0.25,1008.70
1.204,0.03,1.05,0.31,0.10,0.22,0.74,-0.11,-0.11,0.25,1008.70
1.205,0.08,1.00,0.28,0.10,0.22,0.74,-0.11,-0.11,0.25,1008.70
1.206,0.17,0.93,0.24,0.10,0.22,0.74,-0.11,-0.11,0.25,1008.70
1.206,0.17,0.93,0.24,0.10,0.22,0.74,-0.05,-0.15,0.10,1008.70
1.24,0.17,0.93,0.24,0.10,0.22,0.74,-0.05,-0.15,0.10,1008.70
1.258,0.19,0.92,0.20,0.10,0.22,0.74,-0.05,-0.15,0.10,1008.70
1.26,0.12,0.96,0.19,0.10,0.22,0.74,-0.05,-0.15,0.10,1008.70
1.26,0.07,1.01,0.16,0.10,0.22,0.74,-0.05,-0.15,0.10,1008.70
1.261,0.07,1.01,0.16,0.10,0.22,0.74,0.11,-0.19,-0.11,1008.70
1.261,0.07,1.01,0.16,1.01,-0.54,0.37,0.11,-0.19,-0.11,1008.70
1.272,0.07,1.01,0.16,1.01,-0.54,0.37,0.11,-0.19,-0.11,1008.70
1.32,0.04,1.04,0.16,1.01,-0.54,0.37,0.11,-0.19,-0.11,1008.70
1.322,0.04,1.03,0.17,1.01,-0.54,0.37,0.11,-0.19,-0.11,1008.70
1.323,0.07,1.01,0.17,1.01,-0.54,0.37,0.11,-0.19,-0.11,1008.70
1.325,0.07,1.01,0.17,1.01,-0.54,0.37,0.16,-0.11,-0.18,1008.70
1.326,0.07,1.01,0.17,-0.00,0.27,0.04,0.16,-0.11,-0.18,1008.70
1.355,0.07,1.01,0.17,-0.00,0.27,0.04,0.16,-0.11,-0.18,1008.69
1.384,0.07,1.01,0.17,0.54,-0.04,0.01,0.16,-0.11,-0.18,1008.69
1.386,0.10,0.99,0.15,0.54,-0.04,0.01,0.16,-0.11,-0.18,1008.69
1.387,0.09,0.99,0.14,0.54,-0.04,0.01,0.16,-0.11,-0.18,1008.69
1.388,0.03,1.01,0.17,0.54,-0.04,0.01,0.16,-0.11,-0.18,1008.69
1.388,0.03,1.01,0.17,0.54,-0.04,0.01,0.24,0.17,-0.25,1008.69
1.435,0.03,1.01,0.17,0.03,-0.02,0.59,0.24,0.17,-0.25,1008.69
1.436,-0.01,1.00,0.22,0.03,-0.02,0.59,0.24,0.17,-0.25,1008.69
1.436,0.03,0.99,0.20,0.03,-0.02,0.59,0.24,0.17,-0.25,1008.69
1.437,0.04,1.00,0.15,0.03,-0.02,0.59,0.24,0.17,-0.25,1008.69
1.437,0.04,1.00,0.15,0.03,-0.02,0.59,0.32,0.22,-0.32,1008.69
1.437,0.04,1.00,0.15,0.03,-0.02,0.59,0.32,0.22,-0.32,1008.68
1.472,0.04,1.00,0.15,0.03,-0.02,0.59,0.32,0.22,-0.32,1008.68
1.492,0.02,1.02,0.11,0.03,-0.02,0.59,0.32,0.22,-0.32,1008.68
1.494,-0.02,1.00,0.08,0.03,-0.02,0.59,0.32,0.22,-0.32,1008.68
1.494,-0.07,0.99,0.10,0.03,-0.02,0.59,0.32,0.22,-0.32,1008.68
1.495,-0.07,0.99,0.10,0.03,-0.02,0.59,0.39,0.24,-0.37,1008.68
1.496,-0.07,0.99,0.10,0.24,0.03,0.04,0.39,0.24,-0.37,1008.68
1.549,-0.11,1.01,0.11,0.24,0.03,0.04,0.39,0.24,-0.37,1008.68
1.551,-0.13,1.03,0.10,0.24,0.03,0.04,0.39,0.24,-0.37,1008.68
1.551,-0.12,1.04,0.06,0.24,0.03,0.04,0.39,0.24,-0.37,1008.68
1.552,-0.12,1.04,0.06,0.24,0.03,0.04,0.40,0.12,-0.25,1008.68
1.553,-0.12,1.04,0.06,0.24,0.03,0.04,0.40,0.12,-0.25,1008.67
1.555,-0.12,1.04,0.06,-0.76,0.03,0.16,0.40,0.12,-0.25,1008.67
1.609,-0.05,1.04,0.02,-0.76,0.03,0.16,0.40,0.12,-0.25,1008.67
1.611,-0.03,1.09,0.01,-0.76,0.03,0.16,0.40,0.12,-0.25,1008.67
1.612,-0.06,1.10,0.00,-0.76,0.03,0.16,0.40,0.12,-0.25,1008.67
1.614,-0.06,1.10,0.00,-0.76,0.03,0.16,0.49,0.09,-0.10,1008.67
1.615,-0.06,1.10,0.00,-0.31,0.44,-0.27,0.49,0.09,-0.10,1008.67
1.644,-0.06,1.10,0.00,-0.31,0.44,-0.27,0.49,0.09,-0.10,1008.68
1.67,-0.04,1.09,0.01,-0.31,0.44,-0.27,0.49,0.09,-0.10,1008.68
1.671,-0.10,1.09,0.03,-0.31,0.44,-0.27,0.49,0.09,-0.10,1008.68
1.672,-0.21,1.11,0.01,-0.31,0.44,-0.27,0.49,0.09,-0.10,1008.68
1.673,-0.21,1.11,0.01,-0.31,0.44,-0.27,0.43,0.23,-0.09,1008.68
1.673,-0.21,1.11,0.01,-0.27,0.79,-0.18,0.43,0.23,-0.09,1008.68
1.674,-0.21,1.11,0.01,-0.27,0.79,-0.18,0.43,0.23,-0.09,1008.68
1.726,-0.27,1.12,-0.03,-0.27,0.79,-0.18,0.43,0.23,-0.09,1008.68
1.727,-0.22,1.03,-0.21,-0.27,0.79,-0.18,0.43,0.23,-0.09,1008.68
1.728,-0.01,1.13,-0.40,-0.27,0.79,-0.18,0.43,0.23,-0.09,1008.68
1.729,-0.01,1.13,-0.40,-0.27,0.79,-0.18,0.62,0.23,0.41,1008.68
1.73,-0.01,1.13,-0.40,-2.10,0.70,-0.68,0.62,0.23,0.41,1008.68
1.76,-0.01,1.13,-0.40,-2.10,0.70,-0.68,0.62,0.23,0.41,1008.68
1.789,0.09,1.11,-0.26,-2.10,0.70,-0.68,0.62,0.23,0.41,1008.68
1.791,-0.10,0.95,-0.22,-2.10,0.70,-0.68,0.62,0.23,0.41,1008.68
1.792,-0.42,0.87,-0.31,-2.10,0.70,-0.68,0.62,0.23,0.41,1008.68
1.793,-0.42,0.87,-0.31,-2.10,0.70,-0.68,0.95,1.03,0.90,1008.68
1.793,-0.42,0.87,-0.31,-0.40,0.44,-2.16,0.95,1.03,0.90,1008.68
1.838,-0.42,0.87,-0.31,-0.40,0.44,-2.16,0.95,1.03,0.90,1008.67
1.841,-0.58,0.81,-0.28,-0.40,0.44,-2.16,0.95,1.03,0.90,1008.67
1.841,-0.56,0.76,-0.25,-0.40,0.44,-2.16,0.95,1.03,0.90,1008.67
1.842,-0.49,0.78,-0.28,-0.40,0.44,-2.16,0.95,1.03,0.90,1008.67
1.842,-0.49,0.78,-0.28,-0.40,0.44,-2.16,0.97,0.16,0.54,1008.67
1.842,-0.49,0.78,-0.28,-5.56,-1.84,-1.44,0.97,0.16,0.54,1008.67
1.872,-0.49,0.78,-0.28,-5.56,-1.84,-1.44,0.97,0.16,0.54,1008.67
1.901,-0.40,0.82,-0.28,-5.56,-1.84,-1.44,0.97,0.16,0.54,1008.67
1.902,-0.31,0.87,-0.26,-5.56,-1.84,-1.44,0.97,0.16,0.54,1008.67
1.903,-0.26,0.88,-0.24,-5.56,-1.84,-1.44,0.97,0.16,0.54,1008.67
1.903,-0.26,0.88,-0.24,-5.56,-1.84,-1.44,0.80,-0.60,-0.37,1008.67
1.908,-0.26,0.88,-0.24,-4.01,-1.67,-0.89,0.80,-0.60,-0.37,1008.67
1.953,-0.26,0.88,-0.24,-4.01,-1.67,-0.89,0.80,-0.60,-0.37,1008.68
1.958,-0.26,0.89,-0.23,-4.01,-1.67,-0.89,0.80,-0.60,-0.37,1008.68
1.958,-0.25,0.92,-0.20,-4.01,-1.67,-0.89,0.80,-0.60,-0.37,1008.68
1.959,-0.21,0.91,-0.14,-4.01,-1.67,-0.89,0.80,-0.60,-0.37,1008.68
1.959,-0.21,0.91,-0.14,-4.01,-1.67,-0.89,0.28,-0.67,-1.08,1008.68
1.96,-0.21,0.91,-0.14,-1.90,-0.85,-0.24,0.28,-0.67,-1.08,1008.68
2.017,-0.16,0.90,-0.15,-1.90,-0.85,-0.24,0.28,-0.67,-1.08,1008.68
2.018,-0.10,0.93,-0.15,-1.90,-0.85,-0.24,0.28,-0.67,-1.08,1008.68
2.018,0.02,0.96,-0.11,-1.90,-0.85,-0.24,0.28,-0.67,-1.08,1008.68
2.018,0.02,0.96,-0.11,-1.90,-0.85,-0.24,-0.07,-1.53,-1.07,1008.68
2.019,0.02,0.96,-0.11,-0.15,-0.61,0.38,-0.07,-1.53,-1.07,1008.68
2.033,0.02,0.96,-0.11,-0.15,-0.61,0.38,-0.07,-1.53,-1.07,1008.70
2.073,0.02,0.96,-0.11,-0.15,-0.61,0.38,-0.07,-1.53,-1.07,1008.72
2.074,0.11,0.99,-0.04,-0.15,-0.61,0.38,-0.07,-1.53,-1.07,1008.72
2.074,0.16,1.00,0.01,-0.15,-0.61,0.38,-0.07,-1.53,-1.07,1008.72
2.074,0.21,0.92,0.06,-0.15,-0.61,0.38,-0.07,-1.53,-1.07,1008.72
2.075,0.21,0.92,0.06,-0.15,-0.61,0.38,-0.54,-2.70,-0.58,1008.72
2.075,0.21,0.92,0.06,2.83,0.02,0.75,-0.54,-2.70,-0.58,1008.72
2.134,0.41,0.91,-0.06,2.83,0.02,0.75,-0.54,-2.70,-0.58,1008.72
2.134,0.74,0.99,-0.47,2.83,0.02,0.75,-0.54,-2.70,-0.58,1008.72
2.135,1.41,1.18,-0.84,2.83,0.02,0.75,-0.54,-2.70,-0.58,1008.72
2.135,1.41,1.18,-0.84,2.83,0.02,0.75,0.01,-3.64,1.35,1008.72
2.136,1.41,1.18,-0.84,5.64,-0.49,-0.62,0.01,-3.64,1.35,1008.72
2.153,1.41,1.18,-0.84,5.64,-0.49,-0.62,0.01,-3.64,1.35,1008.73
2.193,0.82,1.48,0.36,5.64,-0.49,-0.62,0.01,-3.64,1.35,1008.73
2.195,-0.65,1.62,0.62,5.64,-0.49,-0.62,0.01,-3.64,1.35,1008.73
2.196,-0.92,1.22,-0.86,5.64,-0.49,-0.62,0.01,-3.64,1.35,1008.73
2.197,-0.92,1.22,-0.86,5.64,-0.49,-0.62,-0.21,1.48,0.89,1008.73
2.198,-0.92,1.22,-0.86,5.65,4.13,1.27,-0.21,1.48,0.89,1008.73
2.235,-0.92,1.22,-0.86,5.65,4.13,1.27,-0.21,1.48,0.89,1008.70
2.249,-0.07,0.80,-0.47,5.65,4.13,1.27,-0.21,1.48,0.89,1008.70
2.251,0.35,0.78,0.01,5.65,4.13,1.27,-0.21,1.48,0.89,1008.70
2.251,0.16,1.06,0.28,5.65,4.13,1.27,-0.21,1.48,0.89,1008.70
2.252,0.16,1.06,0.28,5.65,4.13,1.27,-0.30,0.19,1.65,1008.70
2.253,0.16,1.06,0.28,-2.50,-0.68,-3.63,-0.30,0.19,1.65,1008.70
2.273,0.16,1.06,0.28,-2.50,-0.68,-3.63,-0.30,0.19,1.65,1008.70
2.308,0.17,1.14,0.18,-2.50,-0.68,-3.63,-0.30,0.19,1.65,1008.70
2.31,0.37,0.97,-0.12,-2.50,-0.68,-3.63,-0.30,0.19,1.65,1008.70
2.31,0.36,0.97,-0.27,-2.50,-0.68,-3.63,-0.30,0.19,1.65,1008.70
2.311,0.36,0.97,-0.27,-2.50,-0.68,-3.63,-0.18,-0.55,1.07,1008.70
2.311,0.36,0.97,-0.27,1.25,0.53,1.69,-0.18,-0.55,1.07,1008.70
2.354,0.36,0.97,-0.27,1.25,0.53,1.69,-0.18,-0.55,1.07,1008.72
2.367,0.25,1.02,-0.15,1.25,0.53,1.69,-0.18,-0.55,1.07,1008.72
2.368,0.11,1.03,0.00,1.25,0.53,1.69,-0.18,-0.55,1.07,1008.72
2.369,0.09,0.98,0.07,1.25,0.53,1.69,-0.18,-0.55,1.07,1008.72
2.369,0.09,0.98,0.07,1.25,0.53,1.69,-0.32,0.06,0.53,1008.72
2.37,0.09,0.98,0.07,1.02,0.08,-0.93,-0.32,0.06,0.53,1008.72
2.425,0.11,0.97,0.06,1.02,0.08,-0.93,-0.32,0.06,0.53,1008.72
2.427,0.05,0.98,0.01,1.02,0.08,-0.93,-0.32,0.06,0.53,1008.72
2.428,0.05,0.99,-0.04,1.02,0.08,-0.93,-0.32,0.06,0.53,1008.72
2.428,0.05,0.99,-0.04,1.02,0.08,-0.93,-0.10,-0.00,0.58,1008.72
2.429,0.05,0.99,-0.04,-0.84,-0.19,0.83,-0.10,-0.00,0.58,1008.72
2.433,0.05,0.99,-0.04,-0.84,-0.19,0.83,-0.10,-0.00,0.58,1008.72
2.479,0.05,0.99,-0.04,-0.84,-0.19,0.83,-0.10,-0.00,0.58,1008.72
2.486,0.11,1.01,-0.04,-0.84,-0.19,0.83,-0.10,-0.00,0.58,1008.72
2.489,0.15,1.00,-0.05,-0.84,-0.19,0.83,-0.10,-0.00,0.58,1008.72
2.49,0.18,0.99,-0.00,-0.84,-0.19,0.83,-0.10,-0.00,0.58,1008.72
2.491,0.18,0.99,-0.00,-0.84,-0.19,0.83,0.04,-0.26,0.82,1008.72
2.492,0.18,0.99,-0.00,-1.10,0.14,-0.05,0.04,-0.26,0.82,1008.72
2.543,0.21,0.99,0.03,-1.10,0.14,-0.05,0.04,-0.26,0.82,1008.72
2.545,0.19,0.98,0.03,-1.10,0.14,-0.05,0.04,-0.26,0.82,1008.72
2.546,0.21,0.99,0.00,-1.10,0.14,-0.05,0.04,-0.26,0.82,1008.72
2.547,0.21,0.99,0.00,-1.10,0.14,-0.05,0.14,-0.36,0.92,1008.72
2.548,0.21,0.99,0.00,-0.68,0.15,0.70,0.14,-0.36,0.92,1008.72
2.563,0.21,0.99,0.00,-0.68,0.15,0.70,0.14,-0.36,0.92,1008.72
2.6,0.26,1.01,-0.07,-0.68,0.15,0.70,0.14,-0.36,0.92,1008.72
2.602,0.22,1.03,-0.10,-0.68,0.15,0.70,0.14,-0.36,0.92,1008.72
2.603,0.21,1.02,-0.09,-0.68,0.15,0.70,0.14,-0.36,0.92,1008.72
2.604,0.21,1.02,-0.09,-0.68,0.15,0.70,0.23,-0.40,1.03,1008.72
2.605,0.21,1.02,-0.09,-0.87,0.56,0.14,0.23,-0.40,1.03,1008.72
2.633,0.21,1.02,-0.09,-0.87,0.56,0.14,0.23,-0.40,1.03,1008.71
2.658,0.21,1.02,-0.09,-1.38,0.84,0.23,0.23,-0.40,1.03,1008.71
2.659,0.22,1.03,-0.08,-1.38,0.84,0.23,0.23,-0.40,1.03,1008.71
2.66,0.30,1.00,-0.05,-1.38,0.84,0.23,0.23,-0.40,1.03,1008.71
2.66,0.34,0.99,-0.06,-1.38,0.84,0.23,0.23,-0.40,1.03,1008.71
2.66,0.34,0.99,-0.06,-1.38,0.84,0.23,0.26,-0.51,1.24,1008.71
2.673,0.34,0.99,-0.06,-1.38,0.84,0.23,0.26,-0.51,1.24,1008.71
2.718,0.27,1.05,-0.08,-1.38,0.84,0.23,0.26,-0.51,1.24,1008.71
2.721,0.19,1.09,-0.13,-1.38,0.84,0.23,0.26,-0.51,1.24,1008.71
2.722,0.19,1.14,-0.14,-1.38,0.84,0.23,0.26,-0.51,1.24,1008.71
2.723,0.19,1.14,-0.14,-1.38,0.84,0.23,0.29,-0.61,1.41,1008.71
2.724,0.19,1.14,-0.14,-1.81,1.46,0.35,0.29,-0.61,1.41,1008.71
2.759,0.19,1.14,-0.14,-1.81,1.46,0.35,0.29,-0.61,1.41,1008.70
2.777,0.17,1.18,-0.13,-1.81,1.46,0.35,0.29,-0.61,1.41,1008.70
2.778,0.05,1.26,-0.11,-1.81,1.46,0.35,0.29,-0.61,1.41,1008.70
2.779,-0.15,1.40,-0.03,-1.81,1.46,0.35,0.29,-0.61,1.41,1008.70
2.779,-0.15,1.40,-0.03,-1.81,1.46,0.35,0.64,-0.58,1.85,1008.70
2.779,-0.15,1.40,-0.03,-3.88,3.40,0.46,0.64,-0.58,1.85,1008.70
2.835,-0.15,1.40,-0.03,-3.88,3.40,0.46,0.64,-0.58,1.85,1008.69
2.836,-0.15,1.40,-0.03,-10.27,8.09,2.56,0.64,-0.58,1.85,1008.69
2.838,-0.41,1.57,0.07,-10.27,8.09,2.56,0.64,-0.58,1.85,1008.69
2.839,-0.75,1.79,-0.02,-10.27,8.09,2.56,0.64,-0.58,1.85,1008.69
2.84,-1.09,1.93,-0.13,-10.27,8.09,2.56,0.64,-0.58,1.85,1008.69
2.841,-1.09,1.93,-0.13,-10.27,8.09,2.56,0.95,-1.19,2.49,1008.69
2.872,-1.09,1.93,-0.13,-10.27,8.09,2.56,0.95,-1.19,2.49,1008.70
2.893,-0.81,1.64,-0.05,-10.27,8.09,2.56,0.95,-1.19,2.49,1008.70
2.895,0.40,1.38,-0.39,-10.27,8.09,2.56,0.95,-1.19,2.49,1008.70
2.895,1.29,1.49,-0.29,-10.27,8.09,2.56,0.95,-1.19,2.49,1008.70
2.896,1.29,1.49,-0.29,-10.27,8.09,2.56,1.04,-3.14,4.01,1008.70
2.897,1.29,1.49,-0.29,-11.62,10.22,2.22,1.04,-3.14,4.01,1008.70
2.951,1.32,1.09,-0.42,-11.62,10.22,2.22,1.04,-3.14,4.01,1008.70
2.957,1.05,0.64,-0.99,-11.62,10.22,2.22,1.04,-3.14,4.01,1008.70
2.957,0.90,0.59,-1.19,-11.62,10.22,2.22,1.04,-3.14,4.01,1008.70
2.958,0.90,0.59,-1.19,-11.62,10.22,2.22,0.56,-1.02,2.20,1008.70
2.958,0.90,0.59,-1.19,4.70,5.52,-0.90,0.56,-1.02,2.20,1008.70
2.959,0.90,0.59,-1.19,4.70,5.52,-0.90,0.56,-1.02,2.20,1008.72
3.01,0.61,0.24,-0.57,4.70,5.52,-0.90,0.56,-1.02,2.20,1008.72
3.011,0.13,-0.03,-0.16,4.70,5.52,-0.90,0.56,-1.02,2.20,1008.72
3.011,-0.27,-0.20,-0.08,4.70,5.52,-0.90,0.56,-1.02,2.20,1008.72
3.012,-0.27,-0.20,-0.08,4.70,5.52,-0.90,-2.90,0.53,-1.48,1008.72
3.012,-0.27,-0.20,-0.08,-1.51,-3.62,-2.73,-2.90,0.53,-1.48,1008.72
3.033,-0.27,-0.20,-0.08,-1.51,-3.62,-2.73,-2.90,0.53,-1.48,1008.61
3.067,-0.35,-0.10,-0.36,-1.51,-3.62,-2.73,-2.90,0.53,-1.48,1008.61
3.068,-0.13,0.29,-0.56,-1.51,-3.62,-2.73,-2.90,0.53,-1.48,1008.61
3.069,0.26,0.55,-0.54,-1.51,-3.62,-2.73,-2.90,0.53,-1.48,1008.61
3.069,0.26,0.55,-0.54,-1.51,-3.62,-2.73,-2.88,-0.36,-3.40,1008.61
3.07,0.26,0.55,-0.54,-7.69,-7.88,-0.76,-2.88,-0.36,-3.40,1008.61
3.073,0.26,0.55,-0.54,-7.69,-7.88,-0.76,-2.88,-0.36,-3.40,1008.59
3.125,0.23,0.60,-0.49,-7.69,-7.88,-0.76,-2.88,-0.36,-3.40,1008.59
3.127,-0.01,0.56,-0.42,-7.69,-7.88,-0.76,-2.88,-0.36,-3.40,1008.59
3.127,-0.09,0.73,-0.42,-7.69,-7.88,-0.76,-2.88,-0.36,-3.40,1008.59
3.128,-0.09,0.73,-0.42,-7.69,-7.88,-0.76,-3.31,-2.09,-4.82,1008.59
3.129,-0.09,0.73,-0.42,-0.99,-3.68,-3.41,-3.31,-2.09,-4.82,1008.59
3.162,-0.09,0.73,-0.42,-0.99,-3.68,-3.41,-3.31,-2.09,-4.82,1008.69
3.184,0.14,1.07,-0.57,-0.99,-3.68,-3.41,-3.31,-2.09,-4.82,1008.69
3.186,0.60,1.41,-0.76,-0.99,-3.68,-3.41,-3.31,-2.09,-4.82,1008.69
3.187,0.98,1.45,-0.85,-0.99,-3.68,-3.41,-3.31,-2.09,-4.82,1008.69
3.187,0.98,1.45,-0.85,2.33,0.80,-5.93,-3.31,-2.09,-4.82,1008.69
3.189,0.98,1.45,-0.85,2.33,0.80,-5.93,-3.27,-2.49,-4.91,1008.69
3.233,0.98,1.45,-0.85,2.33,0.80,-5.93,-3.27,-2.49,-4.91,1008.70
3.249,1.04,1.31,-0.83,2.33,0.80,-5.93,-3.27,-2.49,-4.91,1008.70
3.25,0.94,1.20,-0.69,2.33,0.80,-5.93,-3.27,-2.49,-4.91,1008.70
3.252,0.77,1.11,-0.45,2.33,0.80,-5.93,-3.27,-2.49,-4.91,1008.70
3.253,0.77,1.11,-0.45,2.33,0.80,-5.93,-2.74,-0.48,-4.47,1008.70
3.254,0.77,1.11,-0.45,12.13,3.70,-9.32,-2.74,-0.48,-4.47,1008.70
3.279,0.77,1.11,-0.45,12.13,3.70,-9.32,-2.74,-0.48,-4.47,1008.67
3.3,0.86,1.00,-0.40,12.13,3.70,-9.32,-2.74,-0.48,-4.47,1008.67
3.302,0.90,0.90,-0.36,12.13,3.70,-9.32,-2.74,-0.48,-4.47,1008.67
3.302,0.76,0.87,-0.26,12.13,3.70,-9.32,-2.74,-0.48,-4.47,1008.67
3.303,0.76,0.87,-0.26,12.13,3.70,-9.32,-0.60,1.21,-1.13,1008.67
3.303,0.76,0.87,-0.26,11.27,0.81,-5.55,-0.60,1.21,-1.13,1008.67
3.355,0.76,0.87,-0.26,11.27,0.81,-5.55,-0.60,1.21,-1.13,1008.68
3.358,0.72,1.02,-0.29,11.27,0.81,-5.55,-0.60,1.21,-1.13,1008.68
3.359,0.30,1.47,-0.32,11.27,0.81,-5.55,-0.60,1.21,-1.13,1008.68
3.36,-1.91,1.65,0.91,11.27,0.81,-5.55,-0.60,1.21,-1.13,1008.68
3.36,-1.91,1.65,0.91,11.27,0.81,-5.55,0.10,2.67,1.17,1008.68
3.361,-1.91,1.65,0.91,8.26,1.78,-3.87,0.10,2.67,1.17,1008.68
3.417,-1.96,1.97,0.39,8.26,1.78,-3.87,0.10,2.67,1.17,1008.68
3.42,0.01,1.53,-0.70,8.26,1.78,-3.87,0.10,2.67,1.17,1008.68
3.421,0.58,0.78,-0.82,8.26,1.78,-3.87,0.10,2.67,1.17,1008.68
3.422,0.58,0.78,-0.82,8.26,1.78,-3.87,0.91,0.53,1.84,1008.68
3.423,0.58,0.78,-0.82,-10.97,7.21,1.47,0.91,0.53,1.84,1008.68
3.434,0.58,0.78,-0.82,-10.97,7.21,1.47,0.91,0.53,1.84,1008.71
3.478,0.58,0.78,-0.82,-10.97,7.21,1.47,0.91,0.53,1.84,1008.75
3.479,0.45,0.69,-0.08,-10.97,7.21,1.47,0.91,0.53,1.84,1008.75
3.481,0.53,0.90,0.48,-10.97,7.21,1.47,0.91,0.53,1.84,1008.75
3.481,0.17,1.01,0.44,-10.97,7.21,1.47,0.91,0.53,1.84,1008.75
3.482,0.17,1.01,0.44,-10.97,7.21,1.47,0.09,-0.00,1.94,1008.75
3.483,0.17,1.01,0.44,5.60,-1.95,-1.78,0.09,-0.00,1.94,1008.75
3.536,-0.14,0.98,-0.11,5.60,-1.95,-1.78,0.09,-0.00,1.94,1008.75
3.538,0.17,1.04,-0.16,5.60,-1.95,-1.78,0.09,-0.00,1.94,1008.75
3.539,0.24,1.06,-0.08,5.60,-1.95,-1.78,0.09,-0.00,1.94,1008.75
3.54,0.24,1.06,-0.08,5.60,-1.95,-1.78,0.47,0.12,1.22,1008.75
3.541,0.24,1.06,-0.08,0.41,0.17,0.38,0.47,0.12,1.22,1008.75
3.564,0.24,1.06,-0.08,0.41,0.17,0.38,0.47,0.12,1.22,1008.71
3.594,0.05,1.01,-0.07,0.41,0.17,0.38,0.47,0.12,1.22,1008.71
3.595,0.09,0.99,-0.02,0.41,0.17,0.38,0.47,0.12,1.22,1008.71
3.596,0.18,1.00,-0.04,0.41,0.17,0.38,0.47,0.12,1.22,1008.71
3.596,0.18,1.00,-0.04,0.41,0.17,0.38,0.33,0.51,0.85,1008.71
3.597,0.18,1.00,-0.04,0.56,0.31,-0.53,0.33,0.51,0.85,1008.71
3.633,0.18,1.00,-0.04,0.56,0.31,-0.53,0.33,0.51,0.85,1008.72
3.651,0.02,1.00,-0.02,0.56,0.31,-0.53,0.33,0.51,0.85,1008.72
3.653,-0.03,1.03,0.03,0.56,0.31,-0.53,0.33,0.51,0.85,1008.72
3.654,-0.02,1.06,-0.01,0.56,0.31,-0.53,0.33,0.51,0.85,1008.72
3.655,-0.02,1.06,-0.01,0.56,0.31,-0.53,0.29,0.39,0.76,1008.72
3.656,-0.02,1.06,-0.01,-0.59,0.25,0.07,0.29,0.39,0.76,1008.72
3.678,-0.02,1.06,-0.01,-0.59,0.25,0.07,0.29,0.39,0.76,1008.71
3.708,0.05,1.01,-0.04,-0.59,0.25,0.07,0.29,0.39,0.76,1008.71
3.709,0.13,0.98,0.03,-0.59,0.25,0.07,0.29,0.39,0.76,1008.71
3.71,0.10,0.99,0.03,-0.59,0.25,0.07,0.29,0.39,0.76,1008.71
3.711,0.10,0.99,0.03,-0.59,0.25,0.07,0.37,-0.06,1.02,1008.71
3.711,0.10,0.99,0.03,-1.17,0.34,0.32,0.37,-0.06,1.02,1008.71
3.754,0.10,0.99,0.03,-1.17,0.34,0.32,0.37,-0.06,1.02,1008.70
3.767,0.07,1.01,0.03,-1.17,0.34,0.32,0.37,-0.06,1.02,1008.70
3.769,0.07,1.01,0.01,-1.17,0.34,0.32,0.37,-0.06,1.02,1008.70
3.77,0.08,1.00,-0.06,-1.17,0.34,0.32,0.37,-0.06,1.02,1008.70
3.772,0.08,1.00,-0.06,-1.17,0.34,0.32,0.50,-0.16,1.23,1008.70
3.773,0.08,1.00,-0.06,-1.55,0.40,0.90,0.50,-0.16,1.23,1008.70
3.827,0.09,1.00,-0.09,-1.55,0.40,0.90,0.50,-0.16,1.23,1008.70
3.829,0.20,0.99,-0.09,-1.55,0.40,0.90,0.50,-0.16,1.23,1008.70
3.83,0.33,1.04,-0.05,-1.55,0.40,0.90,0.50,-0.16,1.23,1008.70
3.831,0.33,1.04,-0.05,-1.55,0.40,0.90,0.64,-0.49,1.61,1008.70
3.832,0.33,1.04,-0.05,-1.94,0.63,0.31,0.64,-0.49,1.61,1008.70
3.833,0.33,1.04,-0.05,-1.94,0.63,0.31,0.64,-0.49,1.61,1008.70
3.874,0.33,1.04,-0.05,-1.94,0.63,0.31,0.64,-0.49,1.61,1008.73
3.883,0.26,1.14,0.03,-1.94,0.63,0.31,0.64,-0.49,1.61,1008.73
3.884,0.04,1.22,0.03,-1.94,0.63,0.31,0.64,-0.49,1.61,1008.73
3.884,0.03,1.22,-0.06,-1.94,0.63,0.31,0.64,-0.49,1.61,1008.73
3.885,0.03,1.22,-0.06,-1.94,0.63,0.31,0.96,-0.45,1.82,1008.73
3.885,0.03,1.22,-0.06,-2.01,2.40,1.67,0.96,-0.45,1.82,1008.73
3.942,0.08,1.20,-0.16,-2.01,2.40,1.67,0.96,-0.45,1.82,1008.73
3.943,-0.02,1.29,-0.25,-2.01,2.40,1.67,0.96,-0.45,1.82,1008.73
3.944,-0.23,1.55,-0.28,-2.01,2.40,1.67,0.96,-0.45,1.82,1008.73
3.945,-0.23,1.55,-0.28,-2.01,2.40,1.67,1.41,-1.20,2.31,1008.73
3.946,-0.23,1.55,-0.28,-4.63,4.16,1.08,1.41,-1.20,2.31,1008.73
3.953,-0.23,1.55,-0.28,-4.63,4.16,1.08,1.41,-1.20,2.31,1008.74
3.999,-0.71,1.92,-0.20,-4.63,4.16,1.08,1.41,-1.20,2.31,1008.74
4.001,-1.16,2.07,-0.13,-4.63,4.16,1.08,1.41,-1.20,2.31,1008.74
4.001,-0.71,1.56,0.13,-4.63,4.16,1.08,1.41,-1.20,2.31,1008.74
4.002,-0.71,1.56,0.13,-4.63,4.16,1.08,1.70,-1.46,2.47,1008.74
4.003,-0.71,1.56,0.13,-12.37,11.00,1.81,1.70,-1.46,2.47,1008.74
4.034,-0.71,1.56,0.13,-12.37,11.00,1.81,1.70,-1.46,2.47,1008.73
4.064,0.46,1.17,-0.12,-12.37,11.00,1.81,1.70,-1.46,2.47,1008.73
4.065,1.32,1.29,-0.34,-12.37,11.00,1.81,1.70,-1.46,2.47,1008.73
4.065,1.23,1.11,-0.41,-12.37,11.00,1.81,1.70,-1.46,2.47,1008.73
4.066,1.23,1.11,-0.41,-12.37,11.00,1.81,1.90,-2.00,3.46,1008.73
4.066,1.23,1.11,-0.41,-2.74,7.61,4.05,1.90,-2.00,3.46,1008.73
4.08,1.23,1.11,-0.41,-2.74,7.61,4.05,1.90,-2.00,3.46,1008.73
4.116,0.91,0.66,-0.56,-2.74,7.61,4.05,1.90,-2.00,3.46,1008.73
4.118,0.75,0.49,-0.69,-2.74,7.61,4.05,1.90,-2.00,3.46,1008.73
4.118,0.51,0.34,-0.40,-2.74,7.61,4.05,1.90,-2.00,3.46,1008.73
4.119,0.51,0.34,-0.40,-2.74,7.61,4.05,0.25,0.85,0.34,1008.73
4.12,0.51,0.34,-0.40,2.86,2.01,-0.54,0.25,0.85,0.34,1008.73
4.154,0.51,0.34,-0.40,2.86,2.01,-0.54,0.25,0.85,0.34,1008.66
4.175,0.30,0.15,-0.09,2.86,2.01,-0.54,0.25,0.85,0.34,1008.66
4.176,0.09,0.03,0.15,2.86,2.01,-0.54,0.25,0.85,0.34,1008.66
4.176,-0.00,0.04,0.08,2.86,2.01,-0.54,0.25,0.85,0.34,1008.66
4.177,-0.00,0.04,0.08,2.86,2.01,-0.54,-1.61,1.17,-2.47,1008.66
4.177,-0.00,0.04,0.08,-3.05,-4.92,2.71,-1.61,1.17,-2.47,1008.66
4.235,-0.03,0.26,-0.11,-3.05,-4.92,2.71,-1.61,1.17,-2.47,1008.66
4.236,0.11,0.52,-0.29,-3.05,-4.92,2.71,-1.61,1.17,-2.47,1008.66
4.237,0.32,0.63,-0.28,-3.05,-4.92,2.71,-1.61,1.17,-2.47,1008.66
4.238,0.32,0.63,-0.28,-3.05,-4.92,2.71,-2.10,-0.66,-3.86,1008.66
4.239,0.32,0.63,-0.28,-3.05,-4.92,2.71,-2.10,-0.66,-3.86,1008.67
4.24,0.32,0.63,-0.28,-3.90,-5.45,2.02,-2.10,-0.66,-3.86,1008.67
4.274,0.32,0.63,-0.28,-3.90,-5.45,2.02,-2.10,-0.66,-3.86,1008.73
4.292,0.28,0.65,-0.28,-3.90,-5.45,2.02,-2.10,-0.66,-3.86,1008.73
4.294,0.20,0.72,-0.33,-3.90,-5.45,2.02,-2.10,-0.66,-3.86,1008.73
4.294,0.36,0.91,-0.40,-3.90,-5.45,2.02,-2.10,-0.66,-3.86,1008.73
4.295,0.36,0.91,-0.40,-3.90,-5.45,2.02,-3.04,-1.70,-4.66,1008.73
4.296,0.36,0.91,-0.40,1.09,-2.72,-1.09,-3.04,-1.70,-4.66,1008.73
4.35,0.70,1.21,-0.61,1.09,-2.72,-1.09,-3.04,-1.70,-4.66,1008.73
4.352,0.76,1.59,-0.70,1.09,-2.72,-1.09,-3.04,-1.70,-4.66,1008.73
4.353,0.65,1.62,-0.77,1.09,-2.72,-1.09,-3.04,-1.70,-4.66,1008.73
4.353,0.65,1.62,-0.77,1.09,-2.72,-1.09,-3.49,-0.80,-5.15,1008.73
4.354,0.65,1.62,-0.77,7.18,2.60,-5.59,-3.49,-0.80,-5.15,1008.73
4.355,0.65,1.62,-0.77,7.18,2.60,-5.59,-3.49,-0.80,-5.15,1008.71
4.408,0.61,1.42,-0.58,7.18,2.60,-5.59,-3.49,-0.80,-5.15,1008.71
4.409,0.88,1.30,-0.41,7.18,2.60,-5.59,-3.49,-0.80,-5.15,1008.71
4.41,1.03,1.26,-0.23,7.18,2.60,-5.59,-3.49,-0.80,-5.15,1008.71
4.41,1.03,1.26,-0.23,7.18,2.60,-5.59,-2.70,1.18,-4.00,1008.71
4.411,1.03,1.26,-0.23,10.30,5.22,-6.90,-2.70,1.18,-4.00,1008.71
4.434,1.03,1.26,-0.23,10.30,5.22,-6.90,-2.70,1.18,-4.00,1008.67
4.466,0.77,1.02,-0.28,10.30,5.22,-6.90,-2.70,1.18,-4.00,1008.67
4.467,0.45,0.84,-0.21,10.30,5.22,-6.90,-2.70,1.18,-4.00,1008.67
4.467,0.40,0.91,-0.19,10.30,5.22,-6.90,-2.70,1.18,-4.00,1008.67
4.468,0.40,0.91,-0.19,10.30,5.22,-6.90,-0.95,1.69,-0.73,1008.67
4.469,0.40,0.91,-0.19,10.94,1.44,-3.60,-0.95,1.69,-0.73,1008.67
4.474,0.40,0.91,-0.19,10.94,1.44,-3.60,-0.95,1.69,-0.73,1008.67
4.527,0.51,0.89,-0.43,10.94,1.44,-3.60,-0.95,1.69,-0.73,1008.67
4.529,0.55,1.06,-0.99,10.94,1.44,-3.60,-0.95,1.69,-0.73,1008.67
4.53,-1.03,1.37,-0.13,10.94,1.44,-3.60,-0.95,1.69,-0.73,1008.67
4.531,-1.03,1.37,-0.13,10.94,1.44,-3.60,0.17,2.39,1.70,1008.67
4.532,-1.03,1.37,-0.13,7.53,0.28,-5.84,0.17,2.39,1.70,1008.67
4.553,-1.03,1.37,-0.13,7.53,0.28,-5.84,0.17,2.39,1.70,1008.70
4.584,-2.59,1.64,0.55,7.53,0.28,-5.84,0.17,2.39,1.70,1008.70
4.585,-0.88,1.82,-0.01,7.53,0.28,-5.84,0.17,2.39,1.70,1008.70
4.586,0.70,1.26,-0.82,7.53,0.28,-5.84,0.17,2.39,1.70,1008.70
4.586,0.70,1.26,-0.82,7.53,0.28,-5.84,0.12,1.68,1.34,1008.70
4.587,0.70,1.26,-0.82,-12.44,6.40,1.05,0.12,1.68,1.34,1008.70
4.632,0.70,1.26,-0.82,-12.44,6.40,1.05,0.12,1.68,1.34,1008.70
4.643,0.58,0.81,-0.20,-12.44,6.40,1.05,0.12,1.68,1.34,1008.70
4.644,0.13,0.55,0.69,-12.44,6.40,1.05,0.12,1.68,1.34,1008.70
4.645,-0.06,0.91,0.17,-12.44,6.40,1.05,0.12,1.68,1.34,1008.70
4.646,-0.06,0.91,0.17,-12.44,6.40,1.05,0.16,-0.33,2.14,1008.70
4.647,-0.06,0.91,0.17,5.59,-1.04,-1.29,0.16,-0.33,2.14,1008.70
4.679,-0.06,0.91,0.17,5.59,-1.04,-1.29,0.16,-0.33,2.14,1008.73
4.703,-0.06,0.91,0.17,1.99,0.53,-0.42,0.16,-0.33,2.14,1008.73
4.705,0.20,1.15,-0.12,1.99,0.53,-0.42,0.16,-0.33,2.14,1008.73
4.705,0.39,1.04,-0.15,1.99,0.53,-0.42,0.16,-0.33,2.14,1008.73
4.705,0.12,0.99,-0.11,1.99,0.53,-0.42,0.16,-0.33,2.14,1008.73
4.706,0.12,0.99,-0.11,1.99,0.53,-0.42,0.24,-0.22,1.27,1008.73
4.753,0.12,0.99,-0.11,1.99,0.53,-0.42,0.24,-0.22,1.27,1008.75
4.766,-0.13,1.02,-0.06,1.99,0.53,-0.42,0.24,-0.22,1.27,1008.75
4.768,-0.10,1.04,0.04,1.99,0.53,-0.42,0.24,-0.22,1.27,1008.75
4.769,0.02,1.00,0.09,1.99,0.53,-0.42,0.24,-0.22,1.27,1008.75
4.77,0.02,1.00,0.09,1.99,0.53,-0.42,0.13,0.20,0.75,1008.75
4.771,0.02,1.00,0.09,-0.53,0.35,-0.42,0.13,0.20,0.75,1008.75
4.818,-0.02,0.96,0.08,-0.53,0.35,-0.42,0.13,0.20,0.75,1008.75
4.819,0.01,0.97,0.07,-0.53,0.35,-0.42,0.13,0.20,0.75,1008.75
4.819,0.01,1.00,0.01,-0.53,0.35,-0.42,0.13,0.20,0.75,1008.75
4.819,0.01,1.00,0.01,-0.53,0.35,-0.42,0.22,-0.18,0.89,1008.75
4.82,0.01,1.00,0.01,-0.62,-0.03,0.92,0.22,-0.18,0.89,1008.75
4.835,0.01,1.00,0.01,-0.62,-0.03,0.92,0.22,-0.18,0.89,1008.73
4.873,0.01,1.00,0.01,-0.62,-0.03,0.92,0.22,-0.18,0.89,1008.72
4.875,-0.03,1.02,-0.00,-0.62,-0.03,0.92,0.22,-0.18,0.89,1008.72
4.876,0.04,1.00,0.03,-0.62,-0.03,0.92,0.22,-0.18,0.89,1008.72
4.877,0.14,0.97,0.02,-0.62,-0.03,0.92,0.22,-0.18,0.89,1008.72
4.877,0.14,0.97,0.02,-0.62,-0.03,0.92,0.36,-0.25,1.09,1008.72
4.878,0.14,0.97,0.02,-1.17,0.32,0.45,0.36,-0.25,1.09,1008.72
4.935,0.18,0.97,-0.02,-1.17,0.32,0.45,0.36,-0.25,1.09,1008.72
4.937,0.16,0.97,-0.05,-1.17,0.32,0.45,0.36,-0.25,1.09,1008.72
4.938,0.15,0.99,-0.09,-1.17,0.32,0.45,0.36,-0.25,1.09,1008.72
4.939,0.15,0.99,-0.09,-1.17,0.32,0.45,0.45,-0.17,1.14,1008.72
4.94,0.15,0.99,-0.09,-0.29,0.07,0.43,0.45,-0.17,1.14,1008.72
4.954,0.15,0.99,-0.09,-0.29,0.07,0.43,0.45,-0.17,1.14,1008.72
4.991,0.14,1.01,-0.13,-0.29,0.07,0.43,0.45,-0.17,1.14,1008.72
4.994,0.16,1.01,-0.14,-0.29,0.07,0.43,0.45,-0.17,1.14,1008.72
4.995,0.20,1.01,-0.13,-0.29,0.07,0.43,0.45,-0.17,1.14,1008.72
4.995,0.20,1.01,-0.13,-0.29,0.07,0.43,0.42,-0.40,1.22,1008.72
4.996,0.20,1.01,-0.13,-1.02,0.56,-0.31,0.42,-0.40,1.22,1008.72
5.034,0.20,1.01,-0.13,-1.02,0.56,-0.31,0.42,-0.40,1.22,1008.73
5.051,0.25,1.02,-0.12,-1.02,0.56,-0.31,0.42,-0.40,1.22,1008.73
5.052,0.20,1.02,-0.12,-1.02,0.56,-0.31,0.42,-0.40,1.22,1008.73
5.053,0.14,1.07,-0.11,-1.02,0.56,-0.31,0.42,-0.40,1.22,1008.73
5.054,0.14,1.07,-0.11,-1.02,0.56,-0.31,0.53,-0.26,1.33,1008.73
5.055,0.14,1.07,-0.11,-1.04,0.94,-0.00,0.53,-0.26,1.33,1008.73
5.073,0.14,1.07,-0.11,-1.04,0.94,-0.00,0.53,-0.26,1.33,1008.74
5.11,0.15,1.09,-0.10,-1.04,0.94,-0.00,0.53,-0.26,1.33,1008.74
5.113,0.12,1.09,-0.11,-1.04,0.94,-0.00,0.53,-0.26,1.33,1008.74
5.114,0.02,1.18,-0.11,-1.04,0.94,-0.00,0.53,-0.26,1.33,1008.74
5.114,0.02,1.18,-0.11,-1.04,0.94,-0.00,0.76,-0.37,1.66,1008.74
5.115,0.02,1.18,-0.11,-2.62,1.95,0.62,0.76,-0.37,1.66,1008.74
5.154,0.02,1.18,-0.11,-2.62,1.95,0.62,0.76,-0.37,1.66,1008.73
5.17,-0.10,1.38,-0.11,-2.62,1.95,0.62,0.76,-0.37,1.66,1008.73
5.172,-0.16,1.62,-0.13,-2.62,1.95,0.62,0.76,-0.37,1.66,1008.73
5.174,-0.52,1.85,-0.20,-2.62,1.95,0.62,0.76,-0.37,1.66,1008.73
5.174,-0.52,1.85,-0.20,-2.62,1.95,0.62,1.08,-0.76,2.17,1008.73
5.175,-0.52,1.85,-0.20,-5.60,5.58,1.21,1.08,-0.76,2.17,1008.73
5.227,-1.09,2.03,-0.28,-5.60,5.58,1.21,1.08,-0.76,2.17,1008.73
5.229,-0.75,1.57,-0.03,-5.60,5.58,1.21,1.08,-0.76,2.17,1008.73
5.23,0.45,0.98,0.02,-5.60,5.58,1.21,1.08,-0.76,2.17,1008.73
5.231,0.45,0.98,0.02,-5.60,5.58,1.21,1.27,-1.74,2.88,1008.73
5.233,0.45,0.98,0.02,-13.28,10.66,1.81,1.27,-1.74,2.88,1008.73
5.235,0.45,0.98,0.02,-13.28,10.66,1.81,1.27,-1.74,2.88,1008.74
5.275,0.45,0.98,0.02,-13.28,10.66,1.81,1.27,-1.74,2.88,1008.72
5.284,1.53,0.96,-0.48,-13.28,10.66,1.81,1.27,-1.74,2.88,1008.72
5.285,1.74,0.91,-0.67,-13.28,10.66,1.81,1.27,-1.74,2.88,1008.72
5.285,1.15,0.66,-0.51,-13.28,10.66,1.81,1.27,-1.74,2.88,1008.72
5.286,1.15,0.66,-0.51,-13.28,10.66,1.81,1.65,-0.65,3.00,1008.72
5.287,1.15,0.66,-0.51,5.51,3.56,0.55,1.65,-0.65,3.00,1008.72
5.342,0.76,0.33,-0.34,5.51,3.56,0.55,1.65,-0.65,3.00,1008.72
5.344,0.45,0.15,-0.14,5.51,3.56,0.55,1.65,-0.65,3.00,1008.72
5.345,0.13,-0.02,0.16,5.51,3.56,0.55,1.65,-0.65,3.00,1008.72
5.346,0.13,-0.02,0.16,5.51,3.56,0.55,-0.64,1.75,-0.51,1008.72
5.347,0.13,-0.02,0.16,0.83,-2.34,0.12,-0.64,1.75,-0.51,1008.72
5.353,0.13,-0.02,0.16,0.83,-2.34,0.12,-0.64,1.75,-0.51,1008.68
5.399,-0.10,-0.14,0.33,0.83,-2.34,0.12,-0.64,1.75,-0.51,1008.68
5.4,-0.07,-0.06,0.12,0.83,-2.34,0.12,-0.64,1.75,-0.51,1008.68
5.4,0.11,0.15,-0.14,0.83,-2.34,0.12,-0.64,1.75,-0.51,1008.68
5.401,0.11,0.15,-0.14,0.83,-2.34,0.12,-0.81,0.50,-2.62,1008.68
5.401,0.11,0.15,-0.14,-6.00,-7.78,4.75,-0.81,0.50,-2.62,1008.68
5.434,0.11,0.15,-0.14,-6.00,-7.78,4.75,-0.81,0.50,-2.62,1008.67
5.464,0.29,0.30,-0.27,-6.00,-7.78,4.75,-0.81,0.50,-2.62,1008.67
5.465,0.37,0.44,-0.25,-6.00,-7.78,4.75,-0.81,0.50,-2.62,1008.67
5.465,0.45,0.51,-0.09,-6.00,-7.78,4.75,-0.81,0.50,-2.62,1008.67
5.466,0.45,0.51,-0.09,-1.53,-5.37,0.11,-0.81,0.50,-2.62,1008.67
5.466,0.45,0.51,-0.09,-1.53,-5.37,0.11,-1.26,-0.23,-3.89,1008.67
5.474,0.45,0.51,-0.09,-1.53,-5.37,0.11,-1.26,-0.23,-3.89,1008.75
5.517,0.41,0.67,-0.15,-1.53,-5.37,0.11,-1.26,-0.23,-3.89,1008.75
5.519,0.46,0.88,-0.26,-1.53,-5.37,0.11,-1.26,-0.23,-3.89,1008.75
5.52,0.69,1.14,-0.31,-1.53,-5.37,0.11,-1.26,-0.23,-3.89,1008.75
5.521,0.69,1.14,-0.31,-1.53,-5.37,0.11,-1.93,-0.35,-5.15,1008.75
5.522,0.69,1.14,-0.31,2.91,-2.50,-0.29,-1.93,-0.35,-5.15,1008.75
5.553,0.69,1.14,-0.31,2.91,-2.50,-0.29,-1.93,-0.35,-5.15,1008.70
5.576,0.69,1.14,-0.31,7.71,3.55,-3.57,-1.93,-0.35,-5.15,1008.70
5.579,0.72,1.32,-0.47,7.71,3.55,-3.57,-1.93,-0.35,-5.15,1008.70
5.584,0.60,1.51,-0.41,7.71,3.55,-3.57,-1.93,-0.35,-5.15,1008.70
5.585,0.60,1.57,-0.39,7.71,3.55,-3.57,-1.93,-0.35,-5.15,1008.70
5.586,0.60,1.57,-0.39,7.71,3.55,-3.57,-1.95,-0.70,-4.81,1008.70
5.634,0.66,1.38,-0.35,7.71,3.55,-3.57,-1.95,-0.70,-4.81,1008.70
5.636,0.69,1.15,-0.21,7.71,3.55,-3.57,-1.95,-0.70,-4.81,1008.70
5.637,0.64,1.00,-0.33,7.71,3.55,-3.57,-1.95,-0.70,-4.81,1008.70
5.639,0.64,1.00,-0.33,7.71,3.55,-3.57,-1.28,-1.46,-2.20,1008.70
5.646,0.64,1.00,-0.33,7.71,3.55,-3.57,-1.28,-1.46,-2.20,1008.68
5.648,0.64,1.00,-0.33,8.55,4.12,-3.60,-1.28,-1.46,-2.20,1008.68
5.677,0.64,1.00,-0.33,8.55,4.12,-3.60,-1.28,-1.46,-2.20,1008.66
5.691,0.56,0.89,-0.39,8.55,4.12,-3.60,-1.28,-1.46,-2.20,1008.66
5.693,0.56,1.03,-1.14,8.55,4.12,-3.60,-1.28,-1.46,-2.20,1008.66
5.693,-0.54,1.98,0.72,8.55,4.12,-3.60,-1.28,-1.46,-2.20,1008.66
5.694,-0.54,1.98,0.72,7.54,0.23,-6.53,-1.28,-1.46,-2.20,1008.66
5.695,-0.54,1.98,0.72,7.54,0.23,-6.53,-0.20,0.44,0.51,1008.66
5.75,-1.02,1.81,0.27,7.54,0.23,-6.53,-0.20,0.44,0.51,1008.66
5.752,-0.35,0.73,-0.74,7.54,0.23,-6.53,-0.20,0.44,0.51,1008.66
5.753,0.24,0.68,-0.05,7.54,0.23,-6.53,-0.20,0.44,0.51,1008.66
5.754,0.24,0.68,-0.05,7.54,0.23,-6.53,0.62,1.65,1.44,1008.66
5.755,0.24,0.68,-0.05,-5.14,5.25,0.84,0.62,1.65,1.44,1008.66
5.756,0.24,0.68,-0.05,-5.14,5.25,0.84,0.62,1.65,1.44,1008.69
5.808,0.19,0.92,-0.04,-5.14,5.25,0.84,0.62,1.65,1.44,1008.69
5.809,0.06,1.05,-0.12,-5.14,5.25,0.84,0.62,1.65,1.44,1008.69
5.81,0.17,1.12,-0.12,-5.14,5.25,0.84,0.62,1.65,1.44,1008.69
5.81,0.17,1.12,-0.12,-5.14,5.25,0.84,0.16,-0.66,1.24,1008.69
5.811,0.17,1.12,-0.12,1.98,-0.92,-0.59,0.16,-0.66,1.24,1008.69
5.834,0.17,1.12,-0.12,1.98,-0.92,-0.59,0.16,-0.66,1.24,1008.66
5.872,0.16,1.02,-0.05,1.98,-0.92,-0.59,0.16,-0.66,1.24,1008.66
5.873,0.10,0.97,-0.03,1.98,-0.92,-0.59,0.16,-0.66,1.24,1008.66
5.874,-0.05,0.99,0.06,1.98,-0.92,-0.59,0.16,-0.66,1.24,1008.66
5.874,-0.05,0.99,0.06,1.98,-0.92,-0.59,0.15,0.03,0.69,1008.66
5.875,-0.05,0.99,0.06,1.40,0.57,-0.47,0.15,0.03,0.69,1008.66
5.875,-0.05,0.99,0.06,1.40,0.57,-0.47,0.15,0.03,0.69,1008.71
5.926,-0.11,0.97,0.13,1.40,0.57,-0.47,0.15,0.03,0.69,1008.71
5.928,0.10,0.96,0.04,1.40,0.57,-0.47,0.15,0.03,0.69,1008.71
5.929,0.25,0.98,-0.03,1.40,0.57,-0.47,0.15,0.03,0.69,1008.71
5.93,0.25,0.98,-0.03,1.40,0.57,-0.47,0.23,-0.19,0.63,1008.71
5.931,0.25,0.98,-0.03,-0.57,-0.01,1.04,0.23,-0.19,0.63,1008.71
5.954,0.25,0.98,-0.03,-0.57,-0.01,1.04,0.23,-0.19,0.63,1008.70
5.983,0.16,0.97,-0.02,-0.57,-0.01,1.04,0.23,-0.19,0.63,1008.70
5.984,0.06,0.99,-0.03,-0.57,-0.01,1.04,0.23,-0.19,0.63,1008.70
5.985,0.05,1.02,-0.08,-0.57,-0.01,1.04,0.23,-0.19,0.63,1008.70
5.985,0.05,1.02,-0.08,-0.57,-0.01,1.04,0.25,-0.10,0.31,1008.70
5.986,0.05,1.02,-0.08,1.00,0.04,0.18,0.25,-0.10,0.31,1008.70
6.033,0.05,1.02,-0.08,1.00,0.04,0.18,0.25,-0.10,0.31,1008.71
6.042,0.09,1.00,-0.10,1.00,0.04,0.18,0.25,-0.10,0.31,1008.71
6.044,0.12,0.96,-0.08,1.00,0.04,0.18,0.25,-0.10,0.31,1008.71
6.045,0.14,0.96,-0.06,1.00,0.04,0.18,0.25,-0.10,0.31,1008.71
6.046,0.14,0.96,-0.06,0.22,0.15,-0.29,0.25,-0.10,0.31,1008.71
6.047,0.14,0.96,-0.06,0.22,0.15,-0.29,0.20,-0.26,0.19,1008.71
6.073,0.14,0.96,-0.06,0.22,0.15,-0.29,0.20,-0.26,0.19,1008.70
6.1,0.14,0.96,-0.07,0.22,0.15,-0.29,0.20,-0.26,0.19,1008.70
6.101,0.10,0.95,-0.05,0.22,0.15,-0.29,0.20,-0.26,0.19,1008.70
6.102,0.01,1.00,-0.03,0.22,0.15,-0.29,0.20,-0.26,0.19,1008.70
6.103,0.01,1.00,-0.03,0.22,0.15,-0.29,0.16,-0.23,0.02,1008.70
6.103,0.01,1.00,-0.03,0.58,-0.16,0.06,0.16,-0.23,0.02,1008.70
6.154,0.01,1.00,-0.03,0.58,-0.16,0.06,0.16,-0.23,0.02,1008.72
6.158,-0.01,1.07,-0.07,0.58,-0.16,0.06,0.16,-0.23,0.02,1008.72
6.16,0.12,1.03,-0.11,0.58,-0.16,0.06,0.16,-0.23,0.02,1008.72
6.161,0.07,0.98,-0.11,0.58,-0.16,0.06,0.16,-0.23,0.02,1008.72
6.162,0.07,0.98,-0.11,0.58,-0.16,0.06,0.20,-0.17,0.02,1008.72
6.173,0.07,0.98,-0.11,-0.28,0.57,0.08,0.20,-0.17,0.02,1008.72
6.218,0.06,1.00,-0.06,-0.28,0.57,0.08,0.20,-0.17,0.02,1008.72
6.22,0.05,1.01,0.01,-0.28,0.57,0.08,0.20,-0.17,0.02,1008.72
6.22,-0.08,1.02,0.02,-0.28,0.57,0.08,0.20,-0.17,0.02,1008.72
6.22,-0.08,1.02,0.02,-0.04,0.24,0.39,0.20,-0.17,0.02,1008.72
6.221,-0.08,1.02,0.02,-0.04,0.24,0.39,0.26,-0.40,-0.05,1008.72
6.233,-0.08,1.02,0.02,-0.04,0.24,0.39,0.26,-0.40,-0.05,1008.73
6.276,-0.08,1.02,0.02,-0.04,0.24,0.39,0.26,-0.40,-0.05,1008.74
6.278,-0.20,1.08,0.07,-0.04,0.24,0.39,0.26,-0.40,-0.05,1008.74
6.278,-0.28,1.13,0.10,-0.04,0.24,0.39,0.26,-0.40,-0.05,1008.74
6.279,-0.42,1.15,0.06,-0.04,0.24,0.39,0.26,-0.40,-0.05,1008.74
6.28,-0.42,1.15,0.06,-0.04,0.24,0.39,0.70,-0.54,0.36,1008.74
6.28,-0.42,1.15,0.06,-2.57,1.06,1.97,0.70,-0.54,0.36,1008.74
6.334,-0.42,1.26,0.03,-2.57,1.06,1.97,0.70,-0.54,0.36,1008.74
6.336,-0.18,1.28,-0.00,-2.57,1.06,1.97,0.70,-0.54,0.36,1008.74
6.337,0.11,1.23,-0.24,-2.57,1.06,1.97,0.70,-0.54,0.36,1008.74
6.338,0.11,1.23,-0.24,-2.57,1.06,1.97,0.89,-1.66,1.42,1008.74
6.339,0.11,1.23,-0.24,-4.61,2.71,2.14,0.89,-1.66,1.42,1008.74
6.354,0.11,1.23,-0.24,-4.61,2.71,2.14,0.89,-1.66,1.42,1008.73
6.392,0.30,1.28,-0.03,-4.61,2.71,2.14,0.89,-1.66,1.42,1008.73
6.394,0.31,0.98,-0.22,-4.61,2.71,2.14,0.89,-1.66,1.42,1008.73
6.394,0.26,0.91,-0.34,-4.61,2.71,2.14,0.89,-1.66,1.42,1008.73
6.394,0.26,0.91,-0.34,-4.61,2.71,2.14,-0.05,-3.02,1.62,1008.73
6.395,0.26,0.91,-0.34,0.53,2.12,0.52,-0.05,-3.02,1.62,1008.73
6.435,0.26,0.91,-0.34,0.53,2.12,0.52,-0.05,-3.02,1.62,1008.72
6.451,0.49,0.83,-0.09,0.53,2.12,0.52,-0.05,-3.02,1.62,1008.72
6.453,0.36,0.70,-0.19,0.53,2.12,0.52,-0.05,-3.02,1.62,1008.72
6.454,0.03,0.72,-0.49,0.53,2.12,0.52,-0.05,-3.02,1.62,1008.72
6.454,0.03,0.72,-0.49,0.53,2.12,0.52,-1.42,-4.53,1.49,1008.72
6.455,0.03,0.72,-0.49,1.50,-1.27,-0.14,-1.42,-4.53,1.49,1008.72
6.474,0.03,0.72,-0.49,1.50,-1.27,-0.14,-1.42,-4.53,1.49,1008.72
6.508,-0.07,0.69,-0.75,1.50,-1.27,-0.14,-1.42,-4.53,1.49,1008.72
6.509,0.00,0.66,-0.91,1.50,-1.27,-0.14,-1.42,-4.53,1.49,1008.72
6.51,0.08,0.68,-0.93,1.50,-1.27,-0.14,-1.42,-4.53,1.49,1008.72
6.51,0.08,0.68,-0.93,1.50,-1.27,-0.14,-1.35,-6.17,1.34,1008.72
6.511,0.08,0.68,-0.93,-2.23,-2.45,-5.04,-1.35,-6.17,1.34,1008.72
6.554,0.08,0.68,-0.93,-2.23,-2.45,-5.04,-1.35,-6.17,1.34,1008.70
6.572,0.15,0.72,-0.87,-2.23,-2.45,-5.04,-1.35,-6.17,1.34,1008.70
6.574,0.13,0.73,-0.76,-2.23,-2.45,-5.04,-1.35,-6.17,1.34,1008.70
6.577,0.06,0.71,-0.70,-2.23,-2.45,-5.04,-1.35,-6.17,1.34,1008.70
6.578,0.06,0.71,-0.70,-0.75,-2.18,-6.17,-1.35,-6.17,1.34,1008.70
6.578,0.06,0.71,-0.70,-0.75,-2.18,-6.17,-0.95,-5.05,0.78,1008.70
6.627,-0.05,0.75,-0.67,-0.75,-2.18,-6.17,-0.95,-5.05,0.78,1008.70
6.628,-0.19,0.80,-0.62,-0.75,-2.18,-6.17,-0.95,-5.05,0.78,1008.70
6.628,-0.23,0.85,-0.56,-0.75,-2.18,-6.17,-0.95,-5.05,0.78,1008.70
6.629,-0.23,0.85,-0.56,-0.75,-2.18,-6.17,-0.75,-4.16,-0.20,1008.70
6.629,-0.23,0.85,-0.56,-1.84,-1.87,-4.23,-0.75,-4.16,-0.20,1008.70
6.635,-0.23,0.85,-0.56,-1.84,-1.87,-4.23,-0.75,-4.16,-0.20,1008.67
6.676,-0.23,0.85,-0.56,-1.84,-1.87,-4.23,-0.75,-4.16,-0.20,1008.67
6.684,-0.23,0.85,-0.56,-1.99,-0.43,-2.64,-0.75,-4.16,-0.20,1008.67
6.685,-0.17,0.91,-0.51,-1.99,-0.43,-2.64,-0.75,-4.16,-0.20,1008.67
6.687,-0.10,0.95,-0.46,-1.99,-0.43,-2.64,-0.75,-4.16,-0.20,1008.67
6.688,-0.04,0.99,-0.42,-1.99,-0.43,-2.64,-0.75,-4.16,-0.20,1008.67
6.688,-0.04,0.99,-0.42,-1.99,-0.43,-2.64,-0.31,-4.29,-0.48,1008.67
6.742,0.02,1.02,-0.38,-1.99,-0.43,-2.64,-0.31,-4.29,-0.48,1008.67
6.743,0.02,1.02,-0.33,-1.99,-0.43,-2.64,-0.31,-4.29,-0.48,1008.67
6.744,-0.04,0.98,-0.24,-1.99,-0.43,-2.64,-0.31,-4.29,-0.48,1008.67
6.744,-0.04,0.98,-0.24,-1.99,-0.43,-2.64,-0.24,-3.76,-0.54,1008.67
6.745,-0.04,0.98,-0.24,0.41,0.58,-1.46,-0.24,-3.76,-0.54,1008.67
6.754,-0.04,0.98,-0.24,0.41,0.58,-1.46,-0.24,-3.76,-0.54,1008.68
6.8,-0.06,0.96,-0.18,0.41,0.58,-1.46,-0.24,-3.76,-0.54,1008.68
6.802,0.00,0.98,-0.15,0.41,0.58,-1.46,-0.24,-3.76,-0.54,1008.68
6.802,0.10,1.02,-0.11,0.41,0.58,-1.46,-0.24,-3.76,-0.54,1008.68
6.803,0.10,1.02,-0.11,0.41,0.58,-1.46,-0.18,-3.59,-0.30,1008.68
6.804,0.10,1.02,-0.11,0.72,0.20,0.12,-0.18,-3.59,-0.30,1008.68
6.836,0.10,1.02,-0.11,0.72,0.20,0.12,-0.18,-3.59,-0.30,1008.69
6.859,0.14,1.03,0.03,0.72,0.20,0.12,-0.18,-3.59,-0.30,1008.69
6.861,0.15,0.97,0.12,0.72,0.20,0.12,-0.18,-3.59,-0.30,1008.69
6.862,0.23,0.90,0.10,0.72,0.20,0.12,-0.18,-3.59,-0.30,1008.69
6.864,0.23,0.90,0.10,0.72,0.20,0.12,-0.12,-3.99,0.01,1008.69
6.865,0.23,0.90,0.10,2.65,0.50,1.72,-0.12,-3.99,0.01,1008.69
6.876,0.23,0.90,0.10,2.65,0.50,1.72,-0.12,-3.99,0.01,1008.71
6.918,0.29,0.89,0.05,2.65,0.50,1.72,-0.12,-3.99,0.01,1008.71
6.919,0.39,0.87,-0.03,2.65,0.50,1.72,-0.12,-3.99,0.01,1008.71
6.919,0.66,0.82,-0.54,2.65,0.50,1.72,-0.12,-3.99,0.01,1008.71
6.92,0.66,0.82,-0.54,2.65,0.50,1.72,0.17,-3.84,0.78,1008.71
6.92,0.66,0.82,-0.54,4.20,-0.74,1.77,0.17,-3.84,0.78,1008.71
6.956,0.66,0.82,-0.54,4.20,-0.74,1.77,0.17,-3.84,0.78,1008.72
6.975,0.48,1.51,-0.49,4.20,-0.74,1.77,0.17,-3.84,0.78,1008.72
6.976,-0.28,1.81,0.53,4.20,-0.74,1.77,0.17,-3.84,0.78,1008.72
6.977,-0.54,1.13,0.03,4.20,-0.74,1.77,0.17,-3.84,0.78,1008.72
6.978,-0.54,1.13,0.03,3.60,4.02,-0.46,0.17,-3.84,0.78,1008.72
6.979,-0.54,1.13,0.03,3.60,4.02,-0.46,-0.47,1.01,0.49,1008.72
7.035,-0.33,0.87,-0.56,3.60,4.02,-0.46,-0.47,1.01,0.49,1008.72
7.036,0.10,0.88,-0.10,3.60,4.02,-0.46,-0.47,1.01,0.49,1008.72
7.036,0.08,0.83,0.29,3.60,4.02,-0.46,-0.47,1.01,0.49,1008.72
7.037,0.08,0.83,0.29,3.60,4.02,-0.46,-0.03,1.71,1.16,1008.72
7.037,0.08,0.83,0.29,3.60,4.02,-0.46,-0.03,1.71,1.16,1008.68
7.037,0.08,0.83,0.29,-2.41,-0.18,-0.86,-0.03,1.71,1.16,1008.68
7.074,0.08,0.83,0.29,-2.41,-0.18,-0.86,-0.03,1.71,1.16,1008.69
7.092,-0.31,0.97,0.40,-2.41,-0.18,-0.86,-0.03,1.71,1.16,1008.69
7.093,-0.13,1.11,-0.16,-2.41,-0.18,-0.86,-0.03,1.71,1.16,1008.69
7.093,0.44,0.99,-0.27,-2.41,-0.18,-0.86,-0.03,1.71,1.16,1008.69
7.094,0.44,0.99,-0.27,-2.41,-0.18,-0.86,-0.14,-0.44,1.19,1008.69
7.094,0.44,0.99,-0.27,-1.70,-0.05,2.82,-0.14,-0.44,1.19,1008.69
7.151,0.55,0.98,-0.23,-1.70,-0.05,2.82,-0.14,-0.44,1.19,1008.69
7.152,0.18,1.06,-0.15,-1.70,-0.05,2.82,-0.14,-0.44,1.19,1008.69
7.152,-0.16,1.07,-0.07,-1.70,-0.05,2.82,-0.14,-0.44,1.19,1008.69
7.153,-0.16,1.07,-0.07,2.83,0.36,-1.17,-0.14,-0.44,1.19,1008.69
7.153,-0.16,1.07,-0.07,2.83,0.36,-1.17,-0.20,0.40,0.70,1008.69
7.154,-0.16,1.07,-0.07,2.83,0.36,-1.17,-0.20,0.40,0.70,1008.73
7.208,-0.12,1.02,0.01,2.83,0.36,-1.17,-0.20,0.40,0.70,1008.73
7.209,0.08,0.97,-0.02,2.83,0.36,-1.17,-0.20,0.40,0.70,1008.73
7.209,0.19,0.97,-0.08,2.83,0.36,-1.17,-0.20,0.40,0.70,1008.73
7.21,0.19,0.97,-0.08,2.83,0.36,-1.17,-0.02,0.06,0.74,1008.73
7.21,0.19,0.97,-0.08,-2.00,0.51,0.70,-0.02,0.06,0.74,1008.73
7.234,0.19,0.97,-0.08,-2.00,0.51,0.70,-0.02,0.06,0.74,1008.71
7.275,0.18,0.99,-0.10,-2.00,0.51,0.70,-0.02,0.06,0.74,1008.71
7.282,0.23,0.99,-0.13,-2.00,0.51,0.70,-0.02,0.06,0.74,1008.71
7.282,0.17,1.00,-0.12,-2.00,0.51,0.70,-0.02,0.06,0.74,1008.71
7.283,0.17,1.00,-0.12,0.27,0.19,-0.04,-0.02,0.06,0.74,1008.71
7.284,0.17,1.00,-0.12,0.27,0.19,-0.04,-0.03,-0.23,0.64,1008.71
7.284,0.17,1.00,-0.12,0.27,0.19,-0.04,-0.03,-0.23,0.64,1008.72
7.326,0.09,1.02,-0.04,0.27,0.19,-0.04,-0.03,-0.23,0.64,1008.72
7.327,0.10,0.99,0.00,0.27,0.19,-0.04,-0.03,-0.23,0.64,1008.72
7.327,0.10,0.96,0.00,0.27,0.19,-0.04,-0.03,-0.23,0.64,1008.72
7.328,0.10,0.96,0.00,0.27,0.19,-0.04,-0.02,-0.09,0.62,1008.72
7.328,0.10,0.96,0.00,-0.87,0.46,0.45,-0.02,-0.09,0.62,1008.72
7.355,0.10,0.96,0.00,-0.87,0.46,0.45,-0.02,-0.09,0.62,1008.71
7.393,0.18,0.97,-0.04,-0.87,0.46,0.45,-0.02,-0.09,0.62,1008.71
7.395,0.24,0.98,-0.06,-0.87,0.46,0.45,-0.02,-0.09,0.62,1008.71
7.395,0.20,1.01,-0.09,-0.87,0.46,0.45,-0.02,-0.09,0.62,1008.71
7.396,0.20,1.01,-0.09,-0.87,0.46,0.45,0.02,-0.27,0.78,1008.71
7.396,0.20,1.01,-0.09,-0.72,0.22,0.68,0.02,-0.27,0.78,1008.71
7.433,0.20,1.01,-0.09,-0.72,0.22,0.68,0.02,-0.27,0.78,1008.70
7.441,0.15,1.02,-0.06,-0.72,0.22,0.68,0.02,-0.27,0.78,1008.70
7.441,0.14,1.02,-0.03,-0.72,0.22,0.68,0.02,-0.27,0.78,1008.70
7.441,0.14,1.03,-0.03,-0.72,0.22,0.68,0.02,-0.27,0.78,1008.70
7.442,0.14,1.03,-0.03,-0.72,0.22,0.68,0.10,-0.28,0.88,1008.70
7.442,0.14,1.03,-0.03,-1.26,0.81,0.51,0.10,-0.28,0.88,1008.70
7.474,0.14,1.03,-0.03,-1.26,0.81,0.51,0.10,-0.28,0.88,1008.70
7.5,0.14,1.03,-0.03,-2.22,1.27,0.76,0.10,-0.28,0.88,1008.70
7.501,0.11,1.05,-0.04,-2.22,1.27,0.76,0.10,-0.28,0.88,1008.70
7.502,0.12,1.05,-0.10,-2.22,1.27,0.76,0.10,-0.28,0.88,1008.70
7.502,0.27,1.05,-0.07,-2.22,1.27,0.76,0.10,-0.28,0.88,1008.70
7.503,0.27,1.05,-0.07,-2.22,1.27,0.76,0.29,-0.59,1.26,1008.70
7.554,0.27,1.05,-0.07,-2.22,1.27,0.76,0.29,-0.59,1.26,1008.71
7.559,0.25,1.08,-0.01,-2.22,1.27,0.76,0.29,-0.59,1.26,1008.71
7.56,0.11,1.15,-0.03,-2.22,1.27,0.76,0.29,-0.59,1.26,1008.71
7.561,0.09,1.15,-0.09,-2.22,1.27,0.76,0.29,-0.59,1.26,1008.71
7.562,0.09,1.15,-0.09,-2.22,1.27,0.76,0.46,-0.88,1.61,1008.71
7.563,0.09,1.15,-0.09,-2.09,2.13,1.39,0.46,-0.88,1.61,1008.71
7.617,0.25,1.15,-0.17,-2.09,2.13,1.39,0.46,-0.88,1.61,1008.71
7.62,0.23,1.35,-0.17,-2.09,2.13,1.39,0.46,-0.88,1.61,1008.71
7.621,-0.10,1.75,-0.09,-2.09,2.13,1.39,0.46,-0.88,1.61,1008.71
7.622,-0.10,1.75,-0.09,-2.09,2.13,1.39,0.90,-0.93,1.94,1008.71
7.624,-0.10,1.75,-0.09,-3.07,3.92,0.95,0.90,-0.93,1.94,1008.71
7.634,-0.10,1.75,-0.09,-3.07,3.92,0.95,0.90,-0.93,1.94,1008.72
7.674,-0.10,1.75,-0.09,-3.07,3.92,0.95,0.90,-0.93,1.94,1008.71
7.676,-0.78,1.99,-0.06,-3.07,3.92,0.95,0.90,-0.93,1.94,1008.71
7.677,-1.15,1.75,-0.23,-3.07,3.92,0.95,0.90,-0.93,1.94,1008.71
7.677,-0.71,1.42,-0.17,-3.07,3.92,0.95,0.90,-0.93,1.94,1008.71
7.678,-0.71,1.42,-0.17,-3.07,3.92,0.95,0.99,-1.54,2.51,1008.71
7.678,-0.71,1.42,-0.17,-12.21,10.69,2.04,0.99,-1.54,2.51,1008.71
7.736,0.09,1.11,-0.14,-12.21,10.69,2.04,0.99,-1.54,2.51,1008.71
7.737,0.88,0.98,-0.25,-12.21,10.69,2.04,0.99,-1.54,2.51,1008.71
7.738,1.32,1.02,-0.56,-12.21,10.69,2.04,0.99,-1.54,2.51,1008.71
7.738,1.32,1.02,-0.56,-12.21,10.69,2.04,0.98,-3.06,3.71,1008.71
7.739,1.32,1.02,-0.56,-5.31,5.67,2.82,0.98,-3.06,3.71,1008.71
7.754,1.32,1.02,-0.56,-5.31,5.67,2.82,0.98,-3.06,3.71,1008.71
7.792,1.14,0.84,-0.73,-5.31,5.67,2.82,0.98,-3.06,3.71,1008.71
7.793,0.71,0.54,-0.57,-5.31,5.67,2.82,0.98,-3.06,3.71,1008.71
7.793,0.44,0.39,-0.41,-5.31,5.67,2.82,0.98,-3.06,3.71,1008.71
7.794,0.44,0.39,-0.41,-5.31,5.67,2.82,-0.17,-0.01,1.43,1008.71
7.794,0.44,0.39,-0.41,3.65,2.43,-1.42,-0.17,-0.01,1.43,1008.71
7.836,0.44,0.39,-0.41,3.65,2.43,-1.42,-0.17,-0.01,1.43,1008.68
7.85,0.20,0.20,-0.19,3.65,2.43,-1.42,-0.17,-0.01,1.43,1008.68
7.851,-0.02,0.13,-0.04,3.65,2.43,-1.42,-0.17,-0.01,1.43,1008.68
7.851,-0.10,0.14,-0.09,3.65,2.43,-1.42,-0.17,-0.01,1.43,1008.68
7.852,-0.10,0.14,-0.09,3.65,2.43,-1.42,-1.90,0.48,-1.27,1008.68
7.852,-0.10,0.14,-0.09,-4.28,-3.90,1.69,-1.90,0.48,-1.27,1008.68
7.874,-0.10,0.14,-0.09,-4.28,-3.90,1.69,-1.90,0.48,-1.27,1008.64
7.909,0.05,0.23,-0.27,-4.28,-3.90,1.69,-1.90,0.48,-1.27,1008.64
7.91,0.14,0.35,-0.35,-4.28,-3.90,1.69,-1.90,0.48,-1.27,1008.64
7.911,0.13,0.41,-0.24,-4.28,-3.90,1.69,-1.90,0.48,-1.27,1008.64
7.912,0.13,0.41,-0.24,-4.28,-3.90,1.69,-2.12,-0.57,-2.96,1008.64
7.913,0.13,0.41,-0.24,-4.59,-5.23,0.77,-2.12,-0.57,-2.96,1008.64
7.955,0.13,0.41,-0.24,-4.59,-5.23,0.77,-2.12,-0.57,-2.96,1008.70
7.968,0.13,0.48,-0.17,-4.59,-5.23,0.77,-2.12,-0.57,-2.96,1008.70
7.97,0.14,0.61,-0.21,-4.59,-5.23,0.77,-2.12,-0.57,-2.96,1008.70
7.971,0.12,0.76,-0.24,-4.59,-5.23,0.77,-2.12,-0.57,-2.96,1008.70
7.972,0.12,0.76,-0.24,-4.59,-5.23,0.77,-2.83,-1.67,-4.75,1008.70
7.974,0.12,0.76,-0.24,-0.97,-4.03,0.03,-2.83,-1.67,-4.75,1008.70
8.026,0.05,1.03,-0.37,-0.97,-4.03,0.03,-2.83,-1.67,-4.75,1008.70
8.028,0.24,1.57,-0.53,-0.97,-4.03,0.03,-2.83,-1.67,-4.75,1008.70
8.029,0.74,2.00,-0.88,-0.97,-4.03,0.03,-2.83,-1.67,-4.75,1008.70
8.03,0.74,2.00,-0.88,-0.97,-4.03,0.03,-3.24,-1.49,-5.47,1008.70
8.031,0.74,2.00,-0.88,2.08,1.50,-3.33,-3.24,-1.49,-5.47,1008.70
8.037,0.74,2.00,-0.88,2.08,1.50,-3.33,-3.24,-1.49,-5.47,1008.70
8.08,0.74,2.00,-0.88,2.08,1.50,-3.33,-3.24,-1.49,-5.47,1008.69
8.085,0.99,1.78,-0.93,2.08,1.50,-3.33,-3.24,-1.49,-5.47,1008.69
8.087,1.25,1.27,-0.45,2.08,1.50,-3.33,-3.24,-1.49,-5.47,1008.69
8.087,1.24,1.05,-0.17,2.08,1.50,-3.33,-3.24,-1.49,-5.47,1008.69
8.088,1.24,1.05,-0.17,2.08,1.50,-3.33,-2.78,1.26,-4.61,1008.69
8.089,1.24,1.05,-0.17,12.79,7.50,-8.12,-2.78,1.26,-4.61,1008.69
8.142,0.82,1.10,-0.31,12.79,7.50,-8.12,-2.78,1.26,-4.61,1008.69
8.144,0.63,0.94,-0.27,12.79,7.50,-8.12,-2.78,1.26,-4.61,1008.69
8.145,0.75,0.94,-0.39,12.79,7.50,-8.12,-2.78,1.26,-4.61,1008.69
8.146,0.75,0.94,-0.39,12.79,7.50,-8.12,-0.73,2.90,-0.59,1008.69
8.147,0.75,0.94,-0.39,12.05,1.21,-2.92,-0.73,2.90,-0.59,1008.69
8.154,0.75,0.94,-0.39,12.05,1.21,-2.92,-0.73,2.90,-0.59,1008.64
8.201,0.31,1.38,-0.94,12.05,1.21,-2.92,-0.73,2.90,-0.59,1008.64
8.204,-2.09,1.56,0.46,12.05,1.21,-2.92,-0.73,2.90,-0.59,1008.64
8.204,-2.36,1.80,0.12,12.05,1.21,-2.92,-0.73,2.90,-0.59,1008.64
8.205,-2.36,1.80,0.12,12.05,1.21,-2.92,-0.09,2.33,0.40,1008.64
8.212,-2.36,1.80,0.12,-0.24,3.67,-2.88,-0.09,2.33,0.40,1008.64
8.235,-2.36,1.80,0.12,-0.24,3.67,-2.88,-0.09,2.33,0.40,1008.68
8.259,0.17,1.43,-0.52,-0.24,3.67,-2.88,-0.09,2.33,0.40,1008.68
8.261,1.00,0.73,-0.66,-0.24,3.67,-2.88,-0.09,2.33,0.40,1008.68
8.262,0.76,0.54,0.14,-0.24,3.67,-2.88,-0.09,2.33,0.40,1008.68
8.262,0.76,0.54,0.14,-0.24,3.67,-2.88,0.62,0.77,3.36,1008.68
8.264,0.76,0.54,0.14,-2.55,3.45,-3.02,0.62,0.77,3.36,1008.68
8.277,0.76,0.54,0.14,-2.55,3.45,-3.02,0.62,0.77,3.36,1008.62
8.317,-0.07,0.78,0.64,-2.55,3.45,-3.02,0.62,0.77,3.36,1008.62
8.318,-0.64,1.16,0.08,-2.55,3.45,-3.02,0.62,0.77,3.36,1008.62
8.319,-0.06,1.17,-0.21,-2.55,3.45,-3.02,0.62,0.77,3.36,1008.62
8.319,-0.06,1.17,-0.21,-2.55,3.45,-3.02,0.18,0.11,1.40,1008.62
8.319,-0.06,1.17,-0.21,0.73,-1.45,3.32,0.18,0.11,1.40,1008.62
8.355,-0.06,1.17,-0.21,0.73,-1.45,3.32,0.18,0.11,1.40,1008.67
8.376,0.49,0.96,-0.20,0.73,-1.45,3.32,0.18,0.11,1.40,1008.67
8.378,0.26,0.98,-0.19,0.73,-1.45,3.32,0.18,0.11,1.40,1008.67
8.379,0.03,1.01,-0.06,0.73,-1.45,3.32,0.18,0.11,1.40,1008.67
8.38,0.03,1.01,-0.06,0.73,-1.45,3.32,0.21,-0.11,1.29,1008.67
8.381,0.03,1.01,-0.06,2.04,0.56,-1.30,0.21,-0.11,1.29,1008.67
8.435,0.07,0.99,-0.01,2.04,0.56,-1.30,0.21,-0.11,1.29,1008.67
8.437,0.03,1.01,-0.02,2.04,0.56,-1.30,0.21,-0.11,1.29,1008.67
8.438,-0.02,1.01,-0.04,2.04,0.56,-1.30,0.21,-0.11,1.29,1008.67
8.439,-0.02,1.01,-0.04,2.04,0.56,-1.30,0.13,0.15,0.80,1008.67
8.44,-0.02,1.01,-0.04,2.04,0.56,-1.30,0.13,0.15,0.80,1008.69
8.441,-0.02,1.01,-0.04,-0.21,0.31,0.40,0.13,0.15,0.80,1008.69
8.474,-0.02,1.01,-0.04,-0.21,0.31,0.40,0.13,0.15,0.80,1008.71
8.493,0.05,0.99,-0.04,-0.21,0.31,0.40,0.13,0.15,0.80,1008.71
8.495,0.09,1.02,-0.06,-0.21,0.31,0.40,0.13,0.15,0.80,1008.71
8.496,0.11,1.01,-0.07,-0.21,0.31,0.40,0.13,0.15,0.80,1008.71
8.497,0.11,1.01,-0.07,-0.72,0.36,0.35,0.13,0.15,0.80,1008.71
8.498,0.11,1.01,-0.07,-0.72,0.36,0.35,0.15,-0.29,0.86,1008.71
8.552,0.12,0.98,-0.01,-0.72,0.36,0.35,0.15,-0.29,0.86,1008.71
8.554,0.04,0.98,0.01,-0.72,0.36,0.35,0.15,-0.29,0.86,1008.71
8.555,0.01,0.96,0.02,-0.72,0.36,0.35,0.15,-0.29,0.86,1008.71
8.555,0.01,0.96,0.02,-0.72,0.36,0.35,0.25,-0.17,0.90,1008.71
8.556,0.01,0.96,0.02,-0.72,0.36,0.35,0.25,-0.17,0.90,1008.72
8.556,0.01,0.96,0.02,-0.70,0.29,0.72,0.25,-0.17,0.90,1008.72
8.609,0.08,0.97,0.01,-0.70,0.29,0.72,0.25,-0.17,0.90,1008.72
8.61,0.20,0.99,-0.03,-0.70,0.29,0.72,0.25,-0.17,0.90,1008.72
8.612,0.24,1.01,-0.13,-0.70,0.29,0.72,0.25,-0.17,0.90,1008.72
8.613,0.24,1.01,-0.13,-0.70,0.29,0.72,0.36,-0.32,1.18,1008.72
8.613,0.24,1.01,-0.13,-1.21,0.26,1.15,0.36,-0.32,1.18,1008.72
8.635,0.24,1.01,-0.13,-1.21,0.26,1.15,0.36,-0.32,1.18,1008.70
8.667,0.18,1.03,-0.19,-1.21,0.26,1.15,0.36,-0.32,1.18,1008.70
8.669,0.15,1.03,-0.18,-1.21,0.26,1.15,0.36,-0.32,1.18,1008.70
8.671,0.21,1.03,-0.11,-1.21,0.26,1.15,0.36,-0.32,1.18,1008.70
8.672,0.21,1.03,-0.11,-0.97,0.95,-0.24,0.36,-0.32,1.18,1008.70
8.673,0.21,1.03,-0.11,-0.97,0.95,-0.24,0.40,-0.27,1.21,1008.70
8.674,0.21,1.03,-0.11,-0.97,0.95,-0.24,0.40,-0.27,1.21,1008.71
8.724,0.18,1.07,-0.06,-0.97,0.95,-0.24,0.40,-0.27,1.21,1008.71
8.725,0.08,1.13,-0.00,-0.97,0.95,-0.24,0.40,-0.27,1.21,1008.71
8.726,0.08,1.14,-0.01,-0.97,0.95,-0.24,0.40,-0.27,1.21,1008.71
8.726,0.08,1.14,-0.01,-0.97,0.95,-0.24,0.63,-0.06,1.46,1008.71
8.726,0.08,1.14,-0.01,-1.98,1.77,1.14,0.63,-0.06,1.46,1008.71
8.754,0.08,1.14,-0.01,-1.98,1.77,1.14,0.63,-0.06,1.46,1008.72
8.789,0.15,1.14,-0.09,-1.98,1.77,1.14,0.63,-0.06,1.46,1008.72
8.789,0.10,1.28,-0.15,-1.98,1.77,1.14,0.63,-0.06,1.46,1008.72
8.79,-0.14,1.60,-0.07,-1.98,1.77,1.14,0.63,-0.06,1.46,1008.72
8.79,-0.14,1.60,-0.07,-1.98,1.77,1.14,0.86,-0.68,1.88,1008.72
8.791,-0.14,1.60,-0.07,-3.24,3.33,1.51,0.86,-0.68,1.88,1008.72
8.835,-0.14,1.60,-0.07,-3.24,3.33,1.51,0.86,-0.68,1.88,1008.73
8.843,-0.56,1.82,-0.11,-3.24,3.33,1.51,0.86,-0.68,1.88,1008.73
8.844,-1.01,1.82,-0.19,-3.24,3.33,1.51,0.86,-0.68,1.88,1008.73
8.844,-1.00,1.66,-0.13,-3.24,3.33,1.51,0.86,-0.68,1.88,1008.73
8.844,-1.00,1.66,-0.13,-3.24,3.33,1.51,1.21,-1.45,2.31,1008.73
8.845,-1.00,1.66,-0.13,-10.55,9.46,2.02,1.21,-1.45,2.31,1008.73
8.874,-1.00,1.66,-0.13,-10.55,9.46,2.02,1.21,-1.45,2.31,1008.71
8.911,-0.20,1.15,0.01,-10.55,9.46,2.02,1.21,-1.45,2.31,1008.71
8.913,0.89,1.06,-0.35,-10.55,9.46,2.02,1.21,-1.45,2.31,1008.71
8.914,1.34,1.12,-0.44,-10.55,9.46,2.02,1.21,-1.45,2.31,1008.71
8.914,1.34,1.12,-0.44,-10.55,9.46,2.02,1.44,-2.77,3.70,1008.71
8.915,1.34,1.12,-0.44,-6.69,6.40,3.08,1.44,-2.77,3.70,1008.71
8.956,1.34,1.12,-0.44,-6.69,6.40,3.08,1.44,-2.77,3.70,1008.70
8.959,1.14,0.86,-0.44,-6.69,6.40,3.08,1.44,-2.77,3.70,1008.70
8.96,0.89,0.48,-0.52,-6.69,6.40,3.08,1.44,-2.77,3.70,1008.70
8.96,0.68,0.37,-0.56,-6.69,6.40,3.08,1.44,-2.77,3.70,1008.70
8.961,0.68,0.37,-0.56,-6.69,6.40,3.08,0.64,0.19,1.22,1008.70
8.961,0.68,0.37,-0.56,4.76,2.36,0.20,0.64,0.19,1.22,1008.70
9.016,0.37,0.25,-0.25,4.76,2.36,0.20,0.64,0.19,1.22,1008.70
9.018,0.13,0.08,0.04,4.76,2.36,0.20,0.64,0.19,1.22,1008.70
9.019,-0.15,0.01,0.17,4.76,2.36,0.20,0.64,0.19,1.22,1008.70
9.019,-0.15,0.01,0.17,-2.09,-4.29,1.26,0.64,0.19,1.22,1008.70
9.02,-0.15,0.01,0.17,-2.09,-4.29,1.26,-1.53,1.24,-1.60,1008.70
9.035,-0.15,0.01,0.17,-2.09,-4.29,1.26,-1.53,1.24,-1.60,1008.66
9.076,-0.15,0.01,0.17,-2.09,-4.29,1.26,-1.53,1.24,-1.60,1008.71
9.077,-0.15,0.01,0.17,-5.48,-6.32,3.25,-1.53,1.24,-1.60,1008.71
9.078,-0.18,0.10,-0.00,-5.48,-6.32,3.25,-1.53,1.24,-1.60,1008.71
9.078,0.01,0.33,-0.14,-5.48,-6.32,3.25,-1.53,1.24,-1.60,1008.71
9.079,0.24,0.54,-0.24,-5.48,-6.32,3.25,-1.53,1.24,-1.60,1008.71
9.079,0.24,0.54,-0.24,-5.48,-6.32,3.25,-1.53,-0.40,-3.15,1008.71
9.133,0.37,0.66,-0.29,-5.48,-6.32,3.25,-1.53,-0.40,-3.15,1008.71
9.135,0.36,0.67,-0.17,-5.48,-6.32,3.25,-1.53,-0.40,-3.15,1008.71
9.136,0.30,0.71,-0.11,-5.48,-6.32,3.25,-1.53,-0.40,-3.15,1008.71
9.136,0.30,0.71,-0.11,-5.48,-6.32,3.25,-2.21,-0.63,-4.41,1008.71
9.137,0.30,0.71,-0.11,0.95,-2.78,-0.04,-2.21,-0.63,-4.41,1008.71
9.154,0.30,0.71,-0.11,0.95,-2.78,-0.04,-2.21,-0.63,-4.41,1008.72
9.191,0.27,0.94,-0.17,0.95,-2.78,-0.04,-2.21,-0.63,-4.41,1008.72
9.193,0.29,1.31,-0.29,0.95,-2.78,-0.04,-2.21,-0.63,-4.41,1008.72
9.194,0.41,1.69,-0.41,0.95,-2.78,-0.04,-2.21,-0.63,-4.41,1008.72
9.194,0.41,1.69,-0.41,0.95,-2.78,-0.04,-2.67,-0.32,-5.45,1008.72
9.195,0.41,1.69,-0.41,3.48,0.29,-1.06,-2.67,-0.32,-5.45,1008.72
9.236,0.41,1.69,-0.41,3.48,0.29,-1.06,-2.67,-0.32,-5.45,1008.69
9.255,0.47,1.86,-0.39,3.48,0.29,-1.06,-2.67,-0.32,-5.45,1008.69
9.256,0.59,1.71,-0.24,3.48,0.29,-1.06,-2.67,-0.32,-5.45,1008.69
9.257,0.64,1.33,0.05,3.48,0.29,-1.06,-2.67,-0.32,-5.45,1008.69
9.258,0.64,1.33,0.05,3.48,0.29,-1.06,-2.77,0.99,-4.84,1008.69
9.259,0.64,1.33,0.05,7.94,8.25,-3.88,-2.77,0.99,-4.84,1008.69
9.279,0.64,1.33,0.05,7.94,8.25,-3.88,-2.77,0.99,-4.84,1008.65
9.311,0.60,1.08,0.02,7.94,8.25,-3.88,-2.77,0.99,-4.84,1008.65
9.313,0.39,1.05,-0.15,7.94,8.25,-3.88,-2.77,0.99,-4.84,1008.65
9.315,0.41,1.02,-0.20,7.94,8.25,-3.88,-2.77,0.99,-4.84,1008.65
9.317,0.41,1.02,-0.20,7.94,8.25,-3.88,-1.52,1.32,-1.92,1008.65
9.318,0.41,1.02,-0.20,9.39,2.77,-1.18,-1.52,1.32,-1.92,1008.65
9.354,0.41,1.02,-0.20,9.39,2.77,-1.18,-1.52,1.32,-1.92,1008.68
9.368,0.54,0.88,-0.23,9.39,2.77,-1.18,-1.52,1.32,-1.92,1008.68
9.369,0.67,0.87,-0.68,9.39,2.77,-1.18,-1.52,1.32,-1.92,1008.68
9.369,0.35,1.28,-1.15,9.39,2.77,-1.18,-1.52,1.32,-1.92,1008.68
9.369,0.35,1.28,-1.15,9.39,2.77,-1.18,0.20,1.91,1.60,1008.68
9.369,0.35,1.28,-1.15,8.45,0.17,-3.97,0.20,1.91,1.60,1008.68
9.425,-1.68,1.55,0.19,8.45,0.17,-3.97,0.20,1.91,1.60,1008.68
9.426,-2.35,1.55,0.26,8.45,0.17,-3.97,0.20,1.91,1.60,1008.68
9.426,0.00,1.45,0.01,8.45,0.17,-3.97,0.20,1.91,1.60,1008.68
9.426,0.00,1.45,0.01,8.45,0.17,-3.97,-0.09,2.44,1.08,1008.68
9.427,0.00,1.45,0.01,-9.27,5.16,-2.24,-0.09,2.44,1.08,1008.68
9.436,0.00,1.45,0.01,-9.27,5.16,-2.24,-0.09,2.44,1.08,1008.69
9.475,0.00,1.45,0.01,-9.27,5.16,-2.24,-0.09,2.44,1.08,1008.68
9.484,1.00,0.99,-0.93,-9.27,5.16,-2.24,-0.09,2.44,1.08,1008.68
9.485,0.64,0.66,0.00,-9.27,5.16,-2.24,-0.09,2.44,1.08,1008.68
9.485,0.02,0.69,0.46,-9.27,5.16,-2.24,-0.09,2.44,1.08,1008.68
9.486,0.02,0.69,0.46,-9.27,5.16,-2.24,0.35,0.33,2.66,1008.68
9.486,0.02,0.69,0.46,6.58,0.65,-2.67,0.35,0.33,2.66,1008.68
9.542,-0.27,1.08,0.02,6.58,0.65,-2.67,0.35,0.33,2.66,1008.68
9.543,0.11,1.19,-0.14,6.58,0.65,-2.67,0.35,0.33,2.66,1008.68
9.544,0.29,1.01,-0.15,6.58,0.65,-2.67,0.35,0.33,2.66,1008.68
9.544,0.29,1.01,-0.15,6.58,0.65,-2.67,0.15,-0.28,1.27,1008.68
9.545,0.29,1.01,-0.15,0.04,0.11,1.51,0.15,-0.28,1.27,1008.68
9.554,0.29,1.01,-0.15,0.04,0.11,1.51,0.15,-0.28,1.27,1008.70
9.601,0.02,1.01,-0.12,0.04,0.11,1.51,0.15,-0.28,1.27,1008.70
9.602,-0.14,1.02,0.02,0.04,0.11,1.51,0.15,-0.28,1.27,1008.70
9.603,-0.10,0.98,0.11,0.04,0.11,1.51,0.15,-0.28,1.27,1008.70
9.603,-0.10,0.98,0.11,0.04,0.11,1.51,0.08,0.15,0.77,1008.70
9.604,-0.10,0.98,0.11,0.62,0.35,-0.38,0.08,0.15,0.77,1008.70
9.634,-0.10,0.98,0.11,0.62,0.35,-0.38,0.08,0.15,0.77,1008.69
9.659,-0.01,1.01,0.08,0.62,0.35,-0.38,0.08,0.15,0.77,1008.69
9.661,-0.01,0.99,0.00,0.62,0.35,-0.38,0.08,0.15,0.77,1008.69
9.662,-0.02,0.97,-0.02,0.62,0.35,-0.38,0.08,0.15,0.77,1008.69
9.663,-0.02,0.97,-0.02,0.62,0.35,-0.38,0.20,-0.14,0.90,1008.69
9.664,-0.02,0.97,-0.02,-0.79,0.19,1.20,0.20,-0.14,0.90,1008.69
9.674,-0.02,0.97,-0.02,-0.79,0.19,1.20,0.20,-0.14,0.90,1008.70
9.717,0.03,1.01,0.00,-0.79,0.19,1.20,0.20,-0.14,0.90,1008.70
9.719,0.01,1.01,0.00,-0.79,0.19,1.20,0.20,-0.14,0.90,1008.70
9.72,0.03,0.99,0.05,-0.79,0.19,1.20,0.20,-0.14,0.90,1008.70
9.72,0.03,0.99,0.05,-0.79,0.19,1.20,0.34,-0.24,1.01,1008.70
9.721,0.03,0.99,0.05,-0.89,0.27,0.67,0.34,-0.24,1.01,1008.70
9.755,0.03,0.99,0.05,-0.89,0.27,0.67,0.34,-0.24,1.01,1008.71
9.781,0.06,0.97,0.01,-0.89,0.27,0.67,0.34,-0.24,1.01,1008.71
9.783,0.13,0.95,-0.04,-0.89,0.27,0.67,0.34,-0.24,1.01,1008.71
9.784,0.24,0.95,-0.12,-0.89,0.27,0.67,0.34,-0.24,1.01,1008.71
9.785,0.24,0.95,-0.12,-0.89,0.27,0.67,0.49,-0.26,1.19,1008.71
9.786,0.24,0.95,-0.12,-0.86,0.12,1.06,0.49,-0.26,1.19,1008.71
9.834,0.27,0.97,-0.16,-0.86,0.12,1.06,0.49,-0.26,1.19,1008.71
9.836,0.19,1.00,-0.15,-0.86,0.12,1.06,0.49,-0.26,1.19,1008.71
9.836,0.18,0.97,-0.12,-0.86,0.12,1.06,0.49,-0.26,1.19,1008.71
9.837,0.18,0.97,-0.12,-0.86,0.12,1.06,0.39,-0.29,1.06,1008.71
9.837,0.18,0.97,-0.12,-0.86,0.12,1.06,0.39,-0.29,1.06,1008.72
9.838,0.18,0.97,-0.12,0.17,0.28,-0.18,0.39,-0.29,1.06,1008.72
9.875,0.18,0.97,-0.12,0.17,0.28,-0.18,0.39,-0.29,1.06,1008.73
9.893,0.26,0.94,-0.10,0.17,0.28,-0.18,0.39,-0.29,1.06,1008.73
9.894,0.28,0.98,-0.10,0.17,0.28,-0.18,0.39,-0.29,1.06,1008.73
9.895,0.20,1.04,-0.10,0.17,0.28,-0.18,0.39,-0.29,1.06,1008.73
9.896,0.20,1.04,-0.10,0.17,0.28,-0.18,0.44,-0.05,1.04,1008.73
9.897,0.20,1.04,-0.10,-0.33,0.38,0.42,0.44,-0.05,1.04,1008.73
9.949,0.08,1.05,-0.10,-0.33,0.38,0.42,0.44,-0.05,1.04,1008.73
9.952,0.08,1.08,-0.10,-0.33,0.38,0.42,0.44,-0.05,1.04,1008.73
9.952,0.19,1.07,-0.11,-0.33,0.38,0.42,0.44,-0.05,1.04,1008.73
9.953,0.19,1.07,-0.11,-0.33,0.38,0.42,0.66,0.00,1.26,1008.73
9.954,0.19,1.07,-0.11,-2.12,1.53,0.84,0.66,0.00,1.26,1008.73
9.955,0.19,1.07,-0.11,-2.12,1.53,0.84,0.66,0.00,1.26,1008.74
10.014,0.20,1.09,-0.12,-2.12,1.53,0.84,0.66,0.00,1.26,1008.74
10.016,0.13,1.19,-0.12,-2.12,1.53,0.84,0.66,0.00,1.26,1008.74
10.017,0.03,1.39,-0.11,-2.12,1.53,0.84,0.66,0.00,1.26,1008.74
10.018,0.03,1.39,-0.11,-2.12,1.53,0.84,0.95,-0.30,1.65,1008.74
10.019,0.03,1.39,-0.11,-2.34,2.55,1.19,0.95,-0.30,1.65,1008.74
10.043,0.03,1.39,-0.11,-2.34,2.55,1.19,0.95,-0.30,1.65,1008.74
10.068,-0.14,1.58,-0.14,-2.34,2.55,1.19,0.95,-0.30,1.65,1008.74
10.069,-0.43,1.74,-0.19,-2.34,2.55,1.19,0.95,-0.30,1.65,1008.74
10.069,-0.82,1.77,-0.21,-2.34,2.55,1.19,0.95,-0.30,1.65,1008.74
10.069,-0.82,1.77,-0.21,-2.34,2.55,1.19,1.35,-0.83,1.99,1008.74
10.07,-0.82,1.77,-0.21,-6.52,7.58,1.72,1.35,-0.83,1.99,1008.74
10.075,-0.82,1.77,-0.21,-6.52,7.58,1.72,1.35,-0.83,1.99,1008.73
10.126,-0.72,1.50,-0.10,-6.52,7.58,1.72,1.35,-0.83,1.99,1008.73
10.129,0.06,1.01,-0.07,-6.52,7.58,1.72,1.35,-0.83,1.99,1008.73
10.13,1.00,0.92,-0.39,-6.52,7.58,1.72,1.35,-0.83,1.99,1008.73
10.131,1.00,0.92,-0.39,-6.52,7.58,1.72,1.57,-2.28,2.95,1008.73
10.132,1.00,0.92,-0.39,-10.14,7.32,3.20,1.57,-2.28,2.95,1008.73
10.155,1.00,0.92,-0.39,-10.14,7.32,3.20,1.57,-2.28,2.95,1008.71
10.186,1.30,0.95,-0.44,-10.14,7.32,3.20,1.57,-2.28,2.95,1008.71
10.187,1.17,0.73,-0.54,-10.14,7.32,3.20,1.57,-2.28,2.95,1008.71
10.187,0.91,0.45,-0.53,-10.14,7.32,3.20,1.57,-2.28,2.95,1008.71
10.188,0.91,0.45,-0.53,-10.14,7.32,3.20,1.54,-0.20,1.80,1008.71
10.188,0.91,0.45,-0.53,5.37,2.79,0.58,1.54,-0.20,1.80,1008.71
10.236,0.91,0.45,-0.53,5.37,2.79,0.58,1.54,-0.20,1.80,1008.68
10.244,0.67,0.33,-0.44,5.37,2.79,0.58,1.54,-0.20,1.80,1008.68
10.245,0.40,0.26,-0.21,5.37,2.79,0.58,1.54,-0.20,1.80,1008.68
10.247,0.13,0.12,0.11,5.37,2.79,0.58,1.54,-0.20,1.80,1008.68
10.248,0.13,0.12,0.11,5.37,2.79,0.58,-0.71,1.91,-0.94,1008.68
10.249,0.13,0.12,0.11,0.29,-2.75,0.25,-0.71,1.91,-0.94,1008.68
10.274,0.13,0.12,0.11,0.29,-2.75,0.25,-0.71,1.91,-0.94,1008.64
10.301,-0.08,0.10,0.32,0.29,-2.75,0.25,-0.71,1.91,-0.94,1008.64
10.301,-0.09,0.24,0.12,0.29,-2.75,0.25,-0.71,1.91,-0.94,1008.64
10.302,0.00,0.44,-0.03,0.29,-2.75,0.25,-0.71,1.91,-0.94,1008.64
10.302,0.00,0.44,-0.03,0.29,-2.75,0.25,-0.91,0.87,-2.93,1008.64
10.303,0.00,0.44,-0.03,-5.24,-5.77,5.15,-0.91,0.87,-2.93,1008.64
10.354,0.00,0.44,-0.03,-5.24,-5.77,5.15,-0.91,0.87,-2.93,1008.71
10.359,0.20,0.55,-0.06,-5.24,-5.77,5.15,-0.91,0.87,-2.93,1008.71
10.36,0.35,0.63,-0.11,-5.24,-5.77,5.15,-0.91,0.87,-2.93,1008.71
10.361,0.33,0.77,-0.12,-5.24,-5.77,5.15,-0.91,0.87,-2.93,1008.71
10.362,0.33,0.77,-0.12,-5.24,-5.77,5.15,-1.08,-0.59,-3.80,1008.71
10.363,0.33,0.77,-0.12,-1.44,-3.04,2.32,-1.08,-0.59,-3.80,1008.71
10.418,0.36,0.92,-0.14,-1.44,-3.04,2.32,-1.08,-0.59,-3.80,1008.71
10.421,0.49,1.07,-0.18,-1.44,-3.04,2.32,-1.08,-0.59,-3.80,1008.71
10.422,0.54,1.24,-0.25,-1.44,-3.04,2.32,-1.08,-0.59,-3.80,1008.71
10.423,0.54,1.24,-0.25,-1.44,-3.04,2.32,-2.26,-0.64,-4.77,1008.71
10.424,0.54,1.24,-0.25,3.12,-0.21,0.45,-2.26,-0.64,-4.77,1008.71
10.453,0.54,1.24,-0.25,3.12,-0.21,0.45,-2.26,-0.64,-4.77,1008.72
10.476,0.54,1.24,-0.25,3.12,-0.21,0.45,-2.26,-0.64,-4.77,1008.68
10.478,0.48,1.45,-0.29,3.12,-0.21,0.45,-2.26,-0.64,-4.77,1008.68
10.478,0.32,1.66,-0.23,3.12,-0.21,0.45,-2.26,-0.64,-4.77,1008.68
10.479,0.21,1.62,-0.17,3.12,-0.21,0.45,-2.26,-0.64,-4.77,1008.68
10.479,0.21,1.62,-0.17,3.12,-0.21,0.45,-2.99,0.40,-5.04,1008.68
10.479,0.21,1.62,-0.17,6.25,4.92,-2.19,-2.99,0.40,-5.04,1008.68
10.533,0.27,1.44,-0.05,6.25,4.92,-2.19,-2.99,0.40,-5.04,1008.68
10.534,0.33,1.24,-0.03,6.25,4.92,-2.19,-2.99,0.40,-5.04,1008.68
10.535,0.39,1.06,-0.17,6.25,4.92,-2.19,-2.99,0.40,-5.04,1008.68
10.535,0.39,1.06,-0.17,6.25,4.92,-2.19,-2.38,-0.37,-2.94,1008.68
10.536,0.39,1.06,-0.17,5.96,5.16,-1.78,-2.38,-0.37,-2.94,1008.68
10.556,0.39,1.06,-0.17,5.96,5.16,-1.78,-2.38,-0.37,-2.94,1008.66
10.592,0.35,0.96,-0.36,5.96,5.16,-1.78,-2.38,-0.37,-2.94,1008.66
10.593,0.39,0.88,-0.36,5.96,5.16,-1.78,-2.38,-0.37,-2.94,1008.66
10.594,0.34,0.84,-0.28,5.96,5.16,-1.78,-2.38,-0.37,-2.94,1008.66
10.594,0.34,0.84,-0.28,5.96,5.16,-1.78,-0.78,-0.53,-0.35,1008.66
10.594,0.34,0.84,-0.28,7.02,0.71,-4.30,-0.78,-0.53,-0.35,1008.66
10.634,0.34,0.84,-0.28,7.02,0.71,-4.30,-0.78,-0.53,-0.35,1008.69
10.649,0.39,0.89,-0.46,7.02,0.71,-4.30,-0.78,-0.53,-0.35,1008.69
10.65,0.39,1.09,-0.93,7.02,0.71,-4.30,-0.78,-0.53,-0.35,1008.69
10.65,-0.54,1.43,-0.25,7.02,0.71,-4.30,-0.78,-0.53,-0.35,1008.69
10.651,-0.54,1.43,-0.25,7.02,0.71,-4.30,0.39,1.71,1.35,1008.69
10.652,-0.54,1.43,-0.25,6.31,0.14,-6.26,0.39,1.71,1.35,1008.69
10.674,-0.54,1.43,-0.25,6.31,0.14,-6.26,0.39,1.71,1.35,1008.69
10.715,-1.91,1.51,0.48,6.31,0.14,-6.26,0.39,1.71,1.35,1008.69
10.717,-0.55,1.55,0.19,6.31,0.14,-6.26,0.39,1.71,1.35,1008.69
10.719,0.77,1.12,-0.60,6.31,0.14,-6.26,0.39,1.71,1.35,1008.69
10.721,0.77,1.12,-0.60,6.31,0.14,-6.26,0.48,2.24,1.58,1008.69
10.722,0.77,1.12,-0.60,-7.80,5.29,1.08,0.48,2.24,1.58,1008.69
10.754,0.77,1.12,-0.60,-7.80,5.29,1.08,0.48,2.24,1.58,1008.66
10.766,0.24,0.79,-0.12,-7.80,5.29,1.08,0.48,2.24,1.58,1008.66
10.767,-0.22,0.81,0.10,-7.80,5.29,1.08,0.48,2.24,1.58,1008.66
10.767,-0.12,1.05,0.01,-7.80,5.29,1.08,0.48,2.24,1.58,1008.66
10.767,-0.12,1.05,0.01,-7.80,5.29,1.08,0.47,0.41,1.49,1008.66
10.768,-0.12,1.05,0.01,3.72,-0.63,-1.97,0.47,0.41,1.49,1008.66
10.828,-0.12,1.05,0.01,1.83,0.59,-0.29,0.47,0.41,1.49,1008.66
10.829,0.26,1.07,-0.10,1.83,0.59,-0.29,0.47,0.41,1.49,1008.66
10.83,0.26,0.99,-0.04,1.83,0.59,-0.29,0.47,0.41,1.49,1008.66
10.831,-0.07,1.02,-0.02,1.83,0.59,-0.29,0.47,0.41,1.49,1008.66
10.832,-0.07,1.02,-0.02,1.83,0.59,-0.29,0.11,0.04,1.07,1008.66
10.834,-0.07,1.02,-0.02,1.83,0.59,-0.29,0.11,0.04,1.07,1008.71
10.876,-0.07,1.02,-0.02,1.83,0.59,-0.29,0.11,0.04,1.07,1008.71
10.884,-0.20,1.07,-0.04,1.83,0.59,-0.29,0.11,0.04,1.07,1008.71
10.885,-0.15,1.03,0.06,1.83,0.59,-0.29,0.11,0.04,1.07,1008.71
10.885,0.04,0.98,0.04,1.83,0.59,-0.29,0.11,0.04,1.07,1008.71
10.886,0.04,0.98,0.04,-1.29,0.58,0.14,0.11,0.04,1.07,1008.71
10.886,0.04,0.98,0.04,-1.29,0.58,0.14,0.05,-0.06,0.80,1008.71
10.942,0.16,0.97,0.01,-1.29,0.58,0.14,0.05,-0.06,0.80,1008.71
10.944,0.17,0.98,-0.01,-1.29,0.58,0.14,0.05,-0.06,0.80,1008.71
10.944,0.08,1.01,-0.02,-1.29,0.58,0.14,0.05,-0.06,0.80,1008.71
10.945,0.08,1.01,-0.02,-1.29,0.58,0.14,0.12,-0.17,0.71,1008.71
10.945,0.08,1.01,-0.02,0.87,0.00,0.36,0.12,-0.17,0.71,1008.71
10.956,0.08,1.01,-0.02,0.87,0.00,0.36,0.12,-0.17,0.71,1008.71
11.001,-0.04,1.03,0.02,0.87,0.00,0.36,0.12,-0.17,0.71,1008.71
11.003,-0.04,1.00,0.06,0.87,0.00,0.36,0.12,-0.17,0.71,1008.71
11.004,0.06,0.98,0.05,0.87,0.00,0.36,0.12,-0.17,0.71,1008.71
11.005,0.06,0.98,0.05,0.87,0.00,0.36,0.17,-0.11,0.57,1008.71
11.006,0.06,0.98,0.05,-0.64,0.39,0.51,0.17,-0.11,0.57,1008.71
11.035,0.06,0.98,0.05,-0.64,0.39,0.51,0.17,-0.11,0.57,1008.71
11.059,0.11,0.97,0.02,-0.64,0.39,0.51,0.17,-0.11,0.57,1008.71
11.06,0.10,0.97,0.01,-0.64,0.39,0.51,0.17,-0.11,0.57,1008.71
11.061,0.12,0.96,-0.01,-0.64,0.39,0.51,0.17,-0.11,0.57,1008.71
11.061,0.12,0.96,-0.01,-0.64,0.39,0.51,0.28,-0.29,0.63,1008.71
11.061,0.12,0.96,-0.01,-0.09,-0.00,0.72,0.28,-0.29,0.63,1008.71
11.075,0.12,0.96,-0.01,-0.09,-0.00,0.72,0.28,-0.29,0.63,1008.71
11.117,0.16,0.96,-0.02,-0.09,-0.00,0.72,0.28,-0.29,0.63,1008.71
11.119,0.13,0.99,-0.02,-0.09,-0.00,0.72,0.28,-0.29,0.63,1008.71
11.12,0.08,1.00,-0.06,-0.09,-0.00,0.72,0.28,-0.29,0.63,1008.71
11.122,0.08,1.00,-0.06,-0.09,-0.00,0.72,0.31,-0.13,0.55,1008.71
11.123,0.08,1.00,-0.06,0.10,-0.01,0.46,0.31,-0.13,0.55,1008.71
11.154,0.08,1.00,-0.06,0.10,-0.01,0.46,0.31,-0.13,0.55,1008.72
11.176,0.08,1.00,-0.06,-0.50,0.21,0.19,0.31,-0.13,0.55,1008.72
11.178,0.12,0.97,-0.07,-0.50,0.21,0.19,0.31,-0.13,0.55,1008.72
11.179,0.13,0.98,-0.06,-0.50,0.21,0.19,0.31,-0.13,0.55,1008.72
11.18,0.11,1.00,-0.03,-0.50,0.21,0.19,0.31,-0.13,0.55,1008.72
11.181,0.11,1.00,-0.03,-0.50,0.21,0.19,0.30,-0.23,0.60,1008.72
11.233,0.10,1.00,-0.04,-0.50,0.21,0.19,0.30,-0.23,0.60,1008.72
11.234,0.10,1.02,-0.04,-0.50,0.21,0.19,0.30,-0.23,0.60,1008.72
11.235,0.12,1.02,-0.09,-0.50,0.21,0.19,0.30,-0.23,0.60,1008.72
11.235,0.12,1.02,-0.09,-0.50,0.21,0.19,0.36,-0.62,0.71,1008.72
11.236,0.12,1.02,-0.09,-0.90,0.56,0.73,0.36,-0.62,0.71,1008.72
11.236,0.12,1.02,-0.09,-0.90,0.56,0.73,0.36,-0.62,0.71,1008.73
11.276,0.12,1.02,-0.09,-0.90,0.56,0.73,0.36,-0.62,0.71,1008.74
11.292,0.19,0.98,-0.12,-0.90,0.56,0.73,0.36,-0.62,0.71,1008.74
11.293,0.30,0.98,-0.12,-0.90,0.56,0.73,0.36,-0.62,0.71,1008.74
11.294,0.26,0.98,-0.06,-0.90,0.56,0.73,0.36,-0.62,0.71,1008.74
11.294,0.26,0.98,-0.06,-0.90,0.56,0.73,0.48,-1.01,0.83,1008.74
11.295,0.26,0.98,-0.06,-0.32,0.52,0.36,0.48,-1.01,0.83,1008.74
11.351,0.13,1.06,0.00,-0.32,0.52,0.36,0.48,-1.01,0.83,1008.74
11.352,0.02,1.27,0.02,-0.32,0.52,0.36,0.48,-1.01,0.83,1008.74
11.353,-0.06,1.40,-0.05,-0.32,0.52,0.36,0.48,-1.01,0.83,1008.74
11.353,-0.06,1.40,-0.05,-0.32,0.52,0.36,0.67,-1.27,0.87,1008.74
11.353,-0.06,1.40,-0.05,-1.27,1.77,1.82,0.67,-1.27,0.87,1008.74
11.356,-0.06,1.40,-0.05,-1.27,1.77,1.82,0.67,-1.27,0.87,1008.75
11.409,0.03,1.39,-0.01,-1.27,1.77,1.82,0.67,-1.27,0.87,1008.75
11.411,0.23,1.34,0.05,-1.27,1.77,1.82,0.67,-1.27,0.87,1008.75
11.411,0.14,1.28,-0.11,-1.27,1.77,1.82,0.67,-1.27,0.87,1008.75
11.412,0.14,1.28,-0.11,-1.27,1.77,1.82,0.29,-2.13,1.51,1008.75
11.412,0.14,1.28,-0.11,-2.42,4.65,2.39,0.29,-2.13,1.51,1008.75
11.434,0.14,1.28,-0.11,-2.42,4.65,2.39,0.29,-2.13,1.51,1008.73
11.467,0.24,1.07,-0.24,-2.42,4.65,2.39,0.29,-2.13,1.51,1008.73
11.468,0.49,0.92,-0.25,-2.42,4.65,2.39,0.29,-2.13,1.51,1008.73
11.468,0.56,0.86,-0.04,-2.42,4.65,2.39,0.29,-2.13,1.51,1008.73
11.468,0.56,0.86,-0.04,-2.42,4.65,2.39,-0.92,-3.59,2.08,1008.73
11.468,0.56,0.86,-0.04,-0.75,2.09,0.65,-0.92,-3.59,2.08,1008.73
11.474,0.56,0.86,-0.04,-0.75,2.09,0.65,-0.92,-3.59,2.08,1008.70
11.525,0.41,0.76,-0.09,-0.75,2.09,0.65,-0.92,-3.59,2.08,1008.70
11.526,0.13,0.76,-0.19,-0.75,2.09,0.65,-0.92,-3.59,2.08,1008.70
11.526,0.00,0.75,-0.27,-0.75,2.09,0.65,-0.92,-3.59,2.08,1008.70
11.527,0.00,0.75,-0.27,-0.19,-0.79,1.30,-0.92,-3.59,2.08,1008.70
11.527,0.00,0.75,-0.27,-0.19,-0.79,1.30,-2.44,-4.40,1.68,1008.70
11.555,0.00,0.75,-0.27,-0.19,-0.79,1.30,-2.44,-4.40,1.68,1008.70
11.584,-0.15,0.69,-0.47,-0.19,-0.79,1.30,-2.44,-4.40,1.68,1008.70
11.586,-0.20,0.65,-0.75,-0.19,-0.79,1.30,-2.44,-4.40,1.68,1008.70
11.587,-0.08,0.69,-0.92,-0.19,-0.79,1.30,-2.44,-4.40,1.68,1008.70
11.588,-0.08,0.69,-0.92,-0.19,-0.79,1.30,-2.80,-5.89,1.51,1008.70
11.589,-0.08,0.69,-0.92,-4.77,-1.76,-2.58,-2.80,-5.89,1.51,1008.70
11.634,-0.08,0.69,-0.92,-4.77,-1.76,-2.58,-2.80,-5.89,1.51,1008.70
11.643,-0.08,0.69,-0.92,-3.48,-1.78,-6.65,-2.80,-5.89,1.51,1008.70
11.645,0.03,0.73,-0.98,-3.48,-1.78,-6.65,-2.80,-5.89,1.51,1008.70
11.646,0.01,0.70,-0.83,-3.48,-1.78,-6.65,-2.80,-5.89,1.51,1008.70
11.647,-0.10,0.66,-0.78,-3.48,-1.78,-6.65,-2.80,-5.89,1.51,1008.70
11.647,-0.10,0.66,-0.78,-3.48,-1.78,-6.65,-2.40,-5.25,0.88,1008.70
11.676,-0.10,0.66,-0.78,-3.48,-1.78,-6.65,-2.40,-5.25,0.88,1008.68
11.7,-0.20,0.73,-0.74,-3.48,-1.78,-6.65,-2.40,-5.25,0.88,1008.68
11.701,-0.14,0.79,-0.71,-3.48,-1.78,-6.65,-2.40,-5.25,0.88,1008.68
11.701,-0.09,0.82,-0.72,-3.48,-1.78,-6.65,-2.40,-5.25,0.88,1008.68
11.702,-0.09,0.82,-0.72,-3.48,-1.78,-6.65,-2.06,-4.65,-0.35,1008.68
11.703,-0.09,0.82,-0.72,-3.94,-1.86,-5.14,-2.06,-4.65,-0.35,1008.68
11.755,-0.09,0.82,-0.72,-3.94,-1.86,-5.14,-2.06,-4.65,-0.35,1008.67
11.759,-0.11,0.83,-0.64,-3.94,-1.86,-5.14,-2.06,-4.65,-0.35,1008.67
11.76,-0.10,0.89,-0.57,-3.94,-1.86,-5.14,-2.06,-4.65,-0.35,1008.67
11.76,-0.05,0.98,-0.50,-3.94,-1.86,-5.14,-2.06,-4.65,-0.35,1008.67
11.761,-0.05,0.98,-0.50,-3.94,-1.86,-5.14,-1.41,-4.11,-1.42,1008.67
11.761,-0.05,0.98,-0.50,-2.20,-0.98,-4.39,-1.41,-4.11,-1.42,1008.67
11.821,-0.05,1.03,-0.41,-2.20,-0.98,-4.39,-1.41,-4.11,-1.42,1008.67
11.822,-0.08,1.06,-0.35,-2.20,-0.98,-4.39,-1.41,-4.11,-1.42,1008.67
11.823,-0.10,1.12,-0.34,-2.20,-0.98,-4.39,-1.41,-4.11,-1.42,1008.67
11.823,-0.10,1.12,-0.34,-2.20,-0.98,-4.39,-1.04,-3.79,-2.19,1008.67
11.823,-0.10,1.12,-0.34,-0.28,0.54,-2.64,-1.04,-3.79,-2.19,1008.67
11.834,-0.10,1.12,-0.34,-0.28,0.54,-2.64,-1.04,-3.79,-2.19,1008.69
11.878,-0.10,1.12,-0.34,-0.28,0.54,-2.64,-1.04,-3.79,-2.19,1008.70
11.879,-0.07,1.18,-0.31,-0.28,0.54,-2.64,-1.04,-3.79,-2.19,1008.70
11.879,-0.05,1.15,-0.22,-0.28,0.54,-2.64,-1.04,-3.79,-2.19,1008.70
11.88,-0.05,1.08,-0.15,-0.28,0.54,-2.64,-1.04,-3.79,-2.19,1008.70
11.88,-0.05,1.08,-0.15,-0.28,0.54,-2.64,-0.83,-3.60,-2.04,1008.70
11.881,-0.05,1.08,-0.15,0.96,1.85,-1.97,-0.83,-3.60,-2.04,1008.70
11.937,-0.05,1.08,-0.15,2.67,0.81,-0.97,-0.83,-3.60,-2.04,1008.70
11.939,0.04,1.02,-0.15,2.67,0.81,-0.97,-0.83,-3.60,-2.04,1008.70
11.939,0.07,0.99,-0.09,2.67,0.81,-0.97,-0.83,-3.60,-2.04,1008.70
11.939,0.10,1.00,-0.05,2.67,0.81,-0.97,-0.83,-3.60,-2.04,1008.70
11.94,0.10,1.00,-0.05,2.67,0.81,-0.97,-0.28,-3.19,-1.34,1008.70
11.955,0.10,1.00,-0.05,2.67,0.81,-0.97,-0.28,-3.19,-1.34,1008.71
11.993,0.12,0.97,-0.04,2.67,0.81,-0.97,-0.28,-3.19,-1.34,1008.71
11.994,0.05,0.92,-0.00,2.67,0.81,-0.97,-0.28,-3.19,-1.34,1008.71
11.995,0.18,0.88,0.01,2.67,0.81,-0.97,-0.28,-3.19,-1.34,1008.71
11.995,0.18,0.88,0.01,2.67,0.81,-0.97,0.31,-2.32,-0.16,1008.71
11.995,0.18,0.88,0.01,3.42,0.17,-0.15,0.31,-2.32,-0.16,1008.71
12.036,0.18,0.88,0.01,3.42,0.17,-0.15,0.31,-2.32,-0.16,1008.72
12.064,0.18,0.88,0.01,5.04,-0.26,0.67,0.31,-2.32,-0.16,1008.72
12.065,0.38,0.92,0.03,5.04,-0.26,0.67,0.31,-2.32,-0.16,1008.72
12.066,0.41,0.99,0.05,5.04,-0.26,0.67,0.31,-2.32,-0.16,1008.72
12.066,0.17,1.02,0.09,5.04,-0.26,0.67,0.31,-2.32,-0.16,1008.72
12.067,0.17,1.02,0.09,5.04,-0.26,0.67,0.57,-0.63,1.06,1008.72
12.076,0.17,1.02,0.09,5.04,-0.26,0.67,0.57,-0.63,1.06,1008.72
12.112,-0.56,1.00,0.42,5.04,-0.26,0.67,0.57,-0.63,1.06,1008.72
12.113,-0.83,1.01,0.49,5.04,-0.26,0.67,0.57,-0.63,1.06,1008.72
12.113,-0.15,1.34,-0.62,5.04,-0.26,0.67,0.57,-0.63,1.06,1008.72
12.113,-0.15,1.34,-0.62,5.04,-0.26,0.67,-0.15,0.93,0.57,1008.72
12.114,-0.15,1.34,-0.62,-2.42,0.46,3.61,-0.15,0.93,0.57,1008.72
12.155,-0.15,1.34,-0.62,-2.42,0.46,3.61,-0.15,0.93,0.57,1008.69
12.167,-0.13,1.59,-0.50,-2.42,0.46,3.61,-0.15,0.93,0.57,1008.69
12.168,-0.25,1.06,-0.14,-2.42,0.46,3.61,-0.15,0.93,0.57,1008.69
12.169,-0.36,0.88,-0.19,-2.42,0.46,3.61,-0.15,0.93,0.57,1008.69
12.169,-0.36,0.88,-0.19,-2.42,0.46,3.61,-0.00,0.52,1.11,1008.69
12.17,-0.36,0.88,-0.19,-0.77,3.45,-3.68,-0.00,0.52,1.11,1008.69
12.224,-0.00,0.94,0.07,-0.77,3.45,-3.68,-0.00,0.52,1.11,1008.69
12.225,0.24,1.00,0.16,-0.77,3.45,-3.68,-0.00,0.52,1.11,1008.69
12.225,0.04,0.96,0.18,-0.77,3.45,-3.68,-0.00,0.52,1.11,1008.69
12.226,0.04,0.96,0.18,-0.77,3.45,-3.68,-0.22,0.13,1.16,1008.69
12.227,0.04,0.96,0.18,-0.10,-0.45,0.40,-0.22,0.13,1.16,1008.69
12.234,0.04,0.96,0.18,-0.10,-0.45,0.40,-0.22,0.13,1.16,1008.69
12.275,0.04,0.96,0.18,-0.10,-0.45,0.40,-0.22,0.13,1.16,1008.71
12.283,-0.14,0.96,0.16,-0.10,-0.45,0.40,-0.22,0.13,1.16,1008.71
12.284,-0.07,1.05,-0.02,-0.10,-0.45,0.40,-0.22,0.13,1.16,1008.71
12.285,0.11,1.11,-0.17,-0.10,-0.45,0.40,-0.22,0.13,1.16,1008.71
12.285,0.11,1.11,-0.17,-0.10,-0.45,0.40,-0.08,-0.47,0.82,1008.71
12.285,0.11,1.11,-0.17,-0.68,0.05,1.26,-0.08,-0.47,0.82,1008.71
12.341,0.16,1.04,-0.05,-0.68,0.05,1.26,-0.08,-0.47,0.82,1008.71
12.342,0.09,0.98,0.03,-0.68,0.05,1.26,-0.08,-0.47,0.82,1008.71
12.342,0.03,1.00,0.06,-0.68,0.05,1.26,-0.08,-0.47,0.82,1008.71
12.343,0.03,1.00,0.06,-0.68,0.05,1.26,-0.06,-0.23,0.53,1008.71
12.343,0.03,1.00,0.06,0.73,0.57,-0.43,-0.06,-0.23,0.53,1008.71
12.355,0.03,1.00,0.06,0.73,0.57,-0.43,-0.06,-0.23,0.53,1008.70
12.402,-0.03,1.01,0.07,0.73,0.57,-0.43,-0.06,-0.23,0.53,1008.70
12.403,-0.05,1.01,0.06,0.73,0.57,-0.43,-0.06,-0.23,0.53,1008.70
12.403,-0.03,1.00,0.02,0.73,0.57,-0.43,-0.06,-0.23,0.53,1008.70
12.404,-0.03,1.00,0.02,0.73,0.57,-0.43,0.06,-0.36,0.45,1008.70
12.404,-0.03,1.00,0.02,-0.86,0.21,0.88,0.06,-0.36,0.45,1008.70
12.436,-0.03,1.00,0.02,-0.86,0.21,0.88,0.06,-0.36,0.45,1008.70
12.461,0.02,0.99,0.04,-0.86,0.21,0.88,0.06,-0.36,0.45,1008.70
12.462,0.07,0.99,0.06,-0.86,0.21,0.88,0.06,-0.36,0.45,1008.70
12.462,0.11,0.98,0.02,-0.86,0.21,0.88,0.06,-0.36,0.45,1008.70
12.463,0.11,0.98,0.02,-0.86,0.21,0.88,0.16,-0.39,0.63,1008.70
12.463,0.11,0.98,0.02,-0.80,0.15,0.69,0.16,-0.39,0.63,1008.70
12.477,0.11,0.98,0.02,-0.80,0.15,0.69,0.16,-0.39,0.63,1008.71
12.516,0.12,0.97,0.03,-0.80,0.15,0.69,0.16,-0.39,0.63,1008.71
12.517,0.07,1.00,-0.01,-0.80,0.15,0.69,0.16,-0.39,0.63,1008.71
12.518,0.09,1.02,-0.02,-0.80,0.15,0.69,0.16,-0.39,0.63,1008.71
12.518,0.09,1.02,-0.02,-0.80,0.15,0.69,0.17,-0.20,0.61,1008.71
12.519,0.09,1.02,-0.02,-0.33,0.09,0.56,0.17,-0.20,0.61,1008.71
12.556,0.09,1.02,-0.02,-0.33,0.09,0.56,0.17,-0.20,0.61,1008.72
12.575,0.13,1.02,-0.03,-0.33,0.09,0.56,0.17,-0.20,0.61,1008.72
12.576,0.05,1.01,-0.04,-0.33,0.09,0.56,0.17,-0.20,0.61,1008.72
12.576,0.00,1.00,-0.01,-0.33,0.09,0.56,0.17,-0.20,0.61,1008.72
12.577,0.00,1.00,-0.01,-0.33,0.09,0.56,0.22,-0.06,0.69,1008.72
12.577,0.00,1.00,-0.01,-0.83,0.46,0.21,0.22,-0.06,0.69,1008.72
12.638,0.11,1.00,-0.02,-0.83,0.46,0.21,0.22,-0.06,0.69,1008.72
12.64,0.19,1.00,-0.07,-0.83,0.46,0.21,0.22,-0.06,0.69,1008.72
12.641,0.16,1.02,-0.09,-0.83,0.46,0.21,0.22,-0.06,0.69,1008.72
12.642,0.16,1.02,-0.09,-0.83,0.46,0.21,0.29,-0.17,0.93,1008.72
12.643,0.16,1.02,-0.09,-0.83,0.46,0.21,0.29,-0.17,0.93,1008.73
12.645,0.16,1.02,-0.09,-1.20,0.42,0.38,0.29,-0.17,0.93,1008.73
12.674,0.16,1.02,-0.09,-1.20,0.42,0.38,0.29,-0.17,0.93,1008.74
12.692,0.09,1.01,-0.08,-1.20,0.42,0.38,0.29,-0.17,0.93,1008.74
12.693,0.22,1.00,-0.05,-1.20,0.42,0.38,0.29,-0.17,0.93,1008.74
12.693,0.38,1.00,-0.10,-1.20,0.42,0.38,0.29,-0.17,0.93,1008.74
12.694,0.38,1.00,-0.10,-1.20,0.42,0.38,0.29,-0.33,1.06,1008.74
12.694,0.38,1.00,-0.10,-1.21,0.68,0.17,0.29,-0.33,1.06,1008.74
12.751,0.28,1.01,-0.12,-1.21,0.68,0.17,0.29,-0.33,1.06,1008.74
12.753,0.19,1.02,-0.12,-1.21,0.68,0.17,0.29,-0.33,1.06,1008.74
12.754,0.22,1.02,-0.09,-1.21,0.68,0.17,0.29,-0.33,1.06,1008.74
12.754,0.22,1.02,-0.09,-1.21,0.68,0.17,0.31,-0.28,0.97,1008.74
12.755,0.22,1.02,-0.09,-0.43,0.83,0.03,0.31,-0.28,0.97,1008.74
12.756,0.22,1.02,-0.09,-0.43,0.83,0.03,0.31,-0.28,0.97,1008.75
12.808,0.24,1.03,-0.07,-0.43,0.83,0.03,0.31,-0.28,0.97,1008.75
12.809,0.18,1.08,-0.02,-0.43,0.83,0.03,0.31,-0.28,0.97,1008.75
12.81,0.22,1.09,-0.04,-0.43,0.83,0.03,0.31,-0.28,0.97,1008.75
12.81,0.22,1.09,-0.04,-0.43,0.83,0.03,0.43,-0.37,1.17,1008.75
12.81,0.22,1.09,-0.04,-1.70,1.43,0.83,0.43,-0.37,1.17,1008.75
12.835,0.22,1.09,-0.04,-1.70,1.43,0.83,0.43,-0.37,1.17,1008.73
12.866,0.26,1.08,-0.09,-1.70,1.43,0.83,0.43,-0.37,1.17,1008.73
12.867,0.22,1.13,-0.13,-1.70,1.43,0.83,0.43,-0.37,1.17,1008.73
12.868,0.10,1.24,-0.09,-1.70,1.43,0.83,0.43,-0.37,1.17,1008.73
12.868,0.10,1.24,-0.09,-1.70,1.43,0.83,0.60,-0.59,1.45,1008.73
12.869,0.10,1.24,-0.09,-2.12,2.33,0.98,0.60,-0.59,1.45,1008.73
12.874,0.10,1.24,-0.09,-2.12,2.33,0.98,0.60,-0.59,1.45,1008.73
12.925,-0.03,1.35,-0.05,-2.12,2.33,0.98,0.60,-0.59,1.45,1008.73
12.926,-0.14,1.42,-0.05,-2.12,2.33,0.98,0.60,-0.59,1.45,1008.73
12.927,-0.45,1.51,-0.05,-2.12,2.33,0.98,0.60,-0.59,1.45,1008.73
12.927,-0.45,1.51,-0.05,-2.12,2.33,0.98,0.89,-0.77,1.78,1008.73
12.928,-0.45,1.51,-0.05,-5.31,5.19,1.84,0.89,-0.77,1.78,1008.73
12.955,-0.45,1.51,-0.05,-5.31,5.19,1.84,0.89,-0.77,1.78,1008.70
12.984,-0.77,1.62,-0.05,-5.31,5.19,1.84,0.89,-0.77,1.78,1008.70
12.985,-0.48,1.36,-0.10,-5.31,5.19,1.84,0.89,-0.77,1.78,1008.70
12.985,0.46,1.07,-0.28,-5.31,5.19,1.84,0.89,-0.77,1.78,1008.70
12.986,0.46,1.07,-0.28,-11.27,7.71,2.88,0.89,-0.77,1.78,1008.70
12.986,0.46,1.07,-0.28,-11.27,7.71,2.88,0.90,-2.33,2.84,1008.70
13.039,0.46,1.07,-0.28,-11.27,7.71,2.88,0.90,-2.33,2.84,1008.69
13.043,1.17,1.15,-0.39,-11.27,7.71,2.88,0.90,-2.33,2.84,1008.69
13.044,1.10,1.04,-0.35,-11.27,7.71,2.88,0.90,-2.33,2.84,1008.69
13.044,0.85,0.74,-0.38,-11.27,7.71,2.88,0.90,-2.33,2.84,1008.69
13.044,0.85,0.74,-0.38,-11.27,7.71,2.88,1.12,-1.68,2.91,1008.69
13.045,0.85,0.74,-0.38,2.49,4.86,1.19,1.12,-1.68,2.91,1008.69
13.075,0.85,0.74,-0.38,2.49,4.86,1.19,1.12,-1.68,2.91,1008.68
13.1,0.78,0.51,-0.51,2.49,4.86,1.19,1.12,-1.68,2.91,1008.68
13.102,0.63,0.51,-0.53,2.49,4.86,1.19,1.12,-1.68,2.91,1008.68
13.104,0.34,0.36,-0.28,2.49,4.86,1.19,1.12,-1.68,2.91,1008.68
13.105,0.34,0.36,-0.28,2.49,4.86,1.19,-0.47,1.06,0.59,1008.68
13.106,0.34,0.36,-0.28,0.50,0.07,-0.70,-0.47,1.06,0.59,1008.68
13.154,0.34,0.36,-0.28,0.50,0.07,-0.70,-0.47,1.06,0.59,1008.65
13.159,-0.02,0.21,-0.03,0.50,0.07,-0.70,-0.47,1.06,0.59,1008.65
13.159,-0.23,0.16,-0.03,0.50,0.07,-0.70,-0.47,1.06,0.59,1008.65
13.159,-0.12,0.29,-0.27,0.50,0.07,-0.70,-0.47,1.06,0.59,1008.65
13.16,-0.12,0.29,-0.27,0.50,0.07,-0.70,-1.45,0.47,-1.82,1008.65
13.16,-0.12,0.29,-0.27,-5.90,-4.22,2.10,-1.45,0.47,-1.82,1008.65
13.218,0.12,0.46,-0.46,-5.90,-4.22,2.10,-1.45,0.47,-1.82,1008.65
13.219,0.29,0.53,-0.46,-5.90,-4.22,2.10,-1.45,0.47,-1.82,1008.65
13.219,0.29,0.51,-0.38,-5.90,-4.22,2.10,-1.45,0.47,-1.82,1008.65
13.22,0.29,0.51,-0.38,-5.90,-4.22,2.10,-1.74,-0.84,-2.82,1008.65
13.22,0.29,0.51,-0.38,-3.89,-3.59,-1.12,-1.74,-0.84,-2.82,1008.65
13.235,0.29,0.51,-0.38,-3.89,-3.59,-1.12,-1.74,-0.84,-2.82,1008.69
13.276,0.20,0.55,-0.37,-3.89,-3.59,-1.12,-1.74,-0.84,-2.82,1008.69
13.277,0.13,0.66,-0.37,-3.89,-3.59,-1.12,-1.74,-0.84,-2.82,1008.69
13.277,0.10,0.83,-0.45,-3.89,-3.59,-1.12,-1.74,-0.84,-2.82,1008.69
13.278,0.10,0.83,-0.45,-3.89,-3.59,-1.12,-2.17,-1.21,-4.36,1008.69
13.278,0.10,0.83,-0.45,-0.49,-3.33,-1.67,-2.17,-1.21,-4.36,1008.69
13.279,0.10,0.83,-0.45,-0.49,-3.33,-1.67,-2.17,-1.21,-4.36,1008.70
13.343,0.22,1.03,-0.49,-0.49,-3.33,-1.67,-2.17,-1.21,-4.36,1008.70
13.344,0.38,1.23,-0.48,-0.49,-3.33,-1.67,-2.17,-1.21,-4.36,1008.70
13.344,0.37,1.49,-0.43,-0.49,-3.33,-1.67,-2.17,-1.21,-4.36,1008.70
13.345,0.37,1.49,-0.43,-0.49,-3.33,-1.67,-2.37,-0.73,-5.02,1008.70
13.345,0.37,1.49,-0.43,2.52,0.61,-3.83,-2.37,-0.73,-5.02,1008.70
13.354,0.37,1.49,-0.43,2.52,0.61,-3.83,-2.37,-0.73,-5.02,1008.67
13.391,0.37,1.67,-0.45,2.52,0.61,-3.83,-2.37,-0.73,-5.02,1008.67
13.392,0.58,1.56,-0.41,2.52,0.61,-3.83,-2.37,-0.73,-5.02,1008.67
13.392,0.90,1.34,-0.21,2.52,0.61,-3.83,-2.37,-0.73,-5.02,1008.67
13.393,0.90,1.34,-0.21,2.52,0.61,-3.83,-1.95,-0.13,-4.62,1008.67
13.393,0.90,1.34,-0.21,6.94,6.19,-4.41,-1.95,-0.13,-4.62,1008.67
13.434,0.90,1.34,-0.21,6.94,6.19,-4.41,-1.95,-0.13,-4.62,1008.64
13.458,0.93,1.15,-0.25,6.94,6.19,-4.41,-1.95,-0.13,-4.62,1008.64
13.459,0.74,1.07,-0.29,6.94,6.19,-4.41,-1.95,-0.13,-4.62,1008.64
13.46,0.85,1.00,-0.28,6.94,6.19,-4.41,-1.95,-0.13,-4.62,1008.64
13.46,0.85,1.00,-0.28,6.94,6.19,-4.41,-0.77,0.63,-1.41,1008.64
13.46,0.85,1.00,-0.28,11.62,2.65,-2.85,-0.77,0.63,-1.41,1008.64
13.475,0.85,1.00,-0.28,11.62,2.65,-2.85,-0.77,0.63,-1.41,1008.63
13.509,0.88,1.09,-0.39,11.62,2.65,-2.85,-0.77,0.63,-1.41,1008.63
13.51,0.33,1.38,-0.50,11.62,2.65,-2.85,-0.77,0.63,-1.41,1008.63
13.511,-1.85,1.39,0.70,11.62,2.65,-2.85,-0.77,0.63,-1.41,1008.63
13.511,-1.85,1.39,0.70,11.62,2.65,-2.85,-0.09,1.58,1.00,1008.63
13.511,-1.85,1.39,0.70,9.27,2.14,-3.88,-0.09,1.58,1.00,1008.63
13.555,-1.85,1.39,0.70,9.27,2.14,-3.88,-0.09,1.58,1.00,1008.67
13.583,-1.86,1.27,0.46,9.27,2.14,-3.88,-0.09,1.58,1.00,1008.67
13.584,0.32,1.00,-0.32,9.27,2.14,-3.88,-0.09,1.58,1.00,1008.67
13.584,0.80,1.00,-0.89,9.27,2.14,-3.88,-0.09,1.58,1.00,1008.67
13.585,0.80,1.00,-0.89,9.27,2.14,-3.88,0.69,0.77,2.07,1008.67
13.585,0.80,1.00,-0.89,-9.51,2.49,3.09,0.69,0.77,2.07,1008.67
13.626,0.50,0.97,-0.37,-9.51,2.49,3.09,0.69,0.77,2.07,1008.67
13.627,0.06,0.94,0.17,-9.51,2.49,3.09,0.69,0.77,2.07,1008.67
13.628,-0.27,1.01,0.28,-9.51,2.49,3.09,0.69,0.77,2.07,1008.67
13.628,-0.27,1.01,0.28,-9.51,2.49,3.09,-0.21,0.31,1.21,1008.67
13.628,-0.27,1.01,0.28,5.25,-0.07,-3.30,-0.21,0.31,1.21,1008.67
13.635,-0.27,1.01,0.28,5.25,-0.07,-3.30,-0.21,0.31,1.21,1008.69
13.676,-0.27,1.01,0.28,5.25,-0.07,-3.30,-0.21,0.31,1.21,1008.71
13.684,-0.11,1.03,0.13,5.25,-0.07,-3.30,-0.21,0.31,1.21,1008.71
13.685,0.12,1.04,-0.05,5.25,-0.07,-3.30,-0.21,0.31,1.21,1008.71
13.685,0.09,1.03,-0.05,5.25,-0.07,-3.30,-0.21,0.31,1.21,1008.71
13.686,0.09,1.03,-0.05,5.25,-0.07,-3.30,0.09,0.13,1.05,1008.71
13.686,0.09,1.03,-0.05,-0.62,0.45,1.48,0.09,0.13,1.05,1008.71
13.741,-0.07,1.00,-0.05,-0.62,0.45,1.48,0.09,0.13,1.05,1008.71
13.742,-0.07,1.02,0.01,-0.62,0.45,1.48,0.09,0.13,1.05,1008.71
13.743,0.02,1.02,-0.02,-0.62,0.45,1.48,0.09,0.13,1.05,1008.71
13.743,0.02,1.02,-0.02,-0.62,0.45,1.48,0.09,0.01,0.81,1008.71
13.744,0.02,1.02,-0.02,-0.41,0.34,0.08,0.09,0.01,0.81,1008.71
13.757,0.02,1.02,-0.02,-0.41,0.34,0.08,0.09,0.01,0.81,1008.73
13.803,0.08,1.00,0.00,-0.41,0.34,0.08,0.09,0.01,0.81,1008.73
13.804,0.07,0.98,-0.04,-0.41,0.34,0.08,0.09,0.01,0.81,1008.73
13.805,-0.02,1.01,-0.07,-0.41,0.34,0.08,0.09,0.01,0.81,1008.73
13.805,-0.02,1.01,-0.07,-0.41,0.34,0.08,0.15,0.25,0.79,1008.73
13.805,-0.02,1.01,-0.07,-0.09,0.24,0.22,0.15,0.25,0.79,1008.73
13.835,-0.02,1.01,-0.07,-0.09,0.24,0.22,0.15,0.25,0.79,1008.73
13.858,-0.06,1.05,-0.02,-0.09,0.24,0.22,0.15,0.25,0.79,1008.73
13.859,0.01,1.01,0.04,-0.09,0.24,0.22,0.15,0.25,0.79,1008.73
13.859,0.07,0.96,0.09,-0.09,0.24,0.22,0.15,0.25,0.79,1008.73
13.859,0.07,0.96,0.09,-0.09,0.24,0.22,0.20,-0.13,0.90,1008.73
13.859,0.07,0.96,0.09,-1.40,0.49,0.37,0.20,-0.13,0.90,1008.73
13.876,0.07,0.96,0.09,-1.40,0.49,0.37,0.20,-0.13,0.90,1008.73
13.918,0.07,0.95,0.05,-1.40,0.49,0.37,0.20,-0.13,0.90,1008.73
13.919,0.10,0.98,-0.01,-1.40,0.49,0.37,0.20,-0.13,0.90,1008.73
13.92,0.15,1.01,-0.05,-1.40,0.49,0.37,0.20,-0.13,0.90,1008.73
13.92,0.15,1.01,-0.05,-1.40,0.49,0.37,0.38,-0.16,1.11,1008.73
13.92,0.15,1.01,-0.05,-0.94,-0.02,1.17,0.38,-0.16,1.11,1008.73
13.956,0.15,1.01,-0.05,-0.94,-0.02,1.17,0.38,-0.16,1.11,1008.73
13.98,0.17,1.01,-0.11,-0.94,-0.02,1.17,0.38,-0.16,1.11,1008.73
13.981,0.20,0.98,-0.11,-0.94,-0.02,1.17,0.38,-0.16,1.11,1008.73
13.981,0.24,0.98,-0.11,-0.94,-0.02,1.17,0.38,-0.16,1.11,1008.73
13.982,0.24,0.98,-0.11,-0.94,-0.02,1.17,0.42,-0.15,1.17,1008.73
13.982,0.24,0.98,-0.11,-0.64,0.51,0.13,0.42,-0.15,1.17,1008.73
14.035,0.22,1.01,-0.13,-0.64,0.51,0.13,0.42,-0.15,1.17,1008.73
14.036,0.19,1.03,-0.13,-0.64,0.51,0.13,0.42,-0.15,1.17,1008.73
14.036,0.21,1.03,-0.11,-0.64,0.51,0.13,0.42,-0.15,1.17,1008.73
14.037,0.21,1.03,-0.11,-0.64,0.51,0.13,0.43,-0.15,1.17,1008.73
14.037,0.21,1.03,-0.11,-0.80,0.77,0.05,0.43,-0.15,1.17,1008.73
14.037,0.21,1.03,-0.11,-0.80,0.77,0.05,0.43,-0.15,1.17,1008.75
14.076,0.21,1.03,-0.11,-0.80,0.77,0.05,0.43,-0.15,1.17,1008.75
14.093,0.23,1.03,-0.09,-0.80,0.77,0.05,0.43,-0.15,1.17,1008.75
14.094,0.25,1.08,-0.04,-0.80,0.77,0.05,0.43,-0.15,1.17,1008.75
14.094,0.21,1.10,-0.06,-0.80,0.77,0.05,0.43,-0.15,1.17,1008.75
14.095,0.21,1.10,-0.06,-0.80,0.77,0.05,0.61,-0.10,1.33,1008.75
14.095,0.21,1.10,-0.06,-1.38,1.45,0.79,0.61,-0.10,1.33,1008.75
14.151,0.21,1.10,-0.06,-2.31,2.73,1.09,0.61,-0.10,1.33,1008.75
14.152,0.20,1.11,-0.11,-2.31,2.73,1.09,0.61,-0.10,1.33,1008.75
14.153,0.18,1.20,-0.14,-2.31,2.73,1.09,0.61,-0.10,1.33,1008.75
14.153,0.03,1.48,-0.04,-2.31,2.73,1.09,0.61,-0.10,1.33,1008.75
14.154,0.03,1.48,-0.04,-2.31,2.73,1.09,0.83,-0.57,1.51,1008.75
14.155,0.03,1.48,-0.04,-2.31,2.73,1.09,0.83,-0.57,1.51,1008.75
14.21,-0.42,1.74,-0.04,-2.31,2.73,1.09,0.83,-0.57,1.51,1008.75
14.211,-0.96,1.76,-0.21,-2.31,2.73,1.09,0.83,-0.57,1.51,1008.75
14.211,-1.18,1.67,-0.28,-2.31,2.73,1.09,0.83,-0.57,1.51,1008.75
14.212,-1.18,1.67,-0.28,-2.31,2.73,1.09,1.32,-1.44,2.00,1008.75
14.212,-1.18,1.67,-0.28,-9.21,8.44,2.15,1.32,-1.44,2.00,1008.75
14.235,-1.18,1.67,-0.28,-9.21,8.44,2.15,1.32,-1.44,2.00,1008.74
14.267,-0.62,1.34,-0.09,-9.21,8.44,2.15,1.32,-1.44,2.00,1008.74
14.268,0.41,1.05,-0.21,-9.21,8.44,2.15,1.32,-1.44,2.00,1008.74
14.268,1.34,1.07,-0.48,-9.21,8.44,2.15,1.32,-1.44,2.00,1008.74
14.268,1.34,1.07,-0.48,-9.21,8.44,2.15,1.54,-2.93,3.62,1008.74
14.271,1.34,1.07,-0.48,-10.02,6.77,2.68,1.54,-2.93,3.62,1008.74
14.274,1.34,1.07,-0.48,-10.02,6.77,2.68,1.54,-2.93,3.62,1008.72
14.326,1.37,1.01,-0.49,-10.02,6.77,2.68,1.54,-2.93,3.62,1008.72
14.326,0.91,0.66,-0.47,-10.02,6.77,2.68,1.54,-2.93,3.62,1008.72
14.327,0.63,0.43,-0.51,-10.02,6.77,2.68,1.54,-2.93,3.62,1008.72
14.327,0.63,0.43,-0.51,-10.02,6.77,2.68,0.97,0.09,1.67,1008.72
14.328,0.63,0.43,-0.51,5.63,3.26,0.17,0.97,0.09,1.67,1008.72
14.355,0.63,0.43,-0.51,5.63,3.26,0.17,0.97,0.09,1.67,1008.67
14.385,0.48,0.41,-0.41,5.63,3.26,0.17,0.97,0.09,1.67,1008.67
14.386,0.27,0.28,-0.14,5.63,3.26,0.17,0.97,0.09,1.67,1008.67
14.386,-0.04,0.14,0.16,5.63,3.26,0.17,0.97,0.09,1.67,1008.67
14.387,-0.04,0.14,0.16,5.63,3.26,0.17,-1.25,1.58,-0.79,1008.67
14.387,-0.04,0.14,0.16,-1.81,-2.59,0.37,-1.25,1.58,-0.79,1008.67
14.435,-0.04,0.14,0.16,-1.81,-2.59,0.37,-1.25,1.58,-0.79,1008.65
14.442,-0.21,0.11,0.16,-1.81,-2.59,0.37,-1.25,1.58,-0.79,1008.65
14.442,-0.01,0.25,-0.04,-1.81,-2.59,0.37,-1.25,1.58,-0.79,1008.65
14.442,0.24,0.43,-0.20,-1.81,-2.59,0.37,-1.25,1.58,-0.79,1008.65
14.443,0.24,0.43,-0.20,-1.81,-2.59,0.37,-1.53,-0.07,-2.52,1008.65
14.443,0.24,0.43,-0.20,-6.04,-5.68,4.13,-1.53,-0.07,-2.52,1008.65
14.475,0.24,0.43,-0.20,-6.04,-5.68,4.13,-1.53,-0.07,-2.52,1008.72
14.501,0.29,0.53,-0.21,-6.04,-5.68,4.13,-1.53,-0.07,-2.52,1008.72
14.501,0.29,0.59,-0.21,-6.04,-5.68,4.13,-1.53,-0.07,-2.52,1008.72
14.502,0.29,0.66,-0.15,-6.04,-5.68,4.13,-1.53,-0.07,-2.52,1008.72
14.502,0.29,0.66,-0.15,-6.04,-5.68,4.13,-2.06,-1.01,-3.95,1008.72
14.502,0.29,0.66,-0.15,-0.51,-3.51,0.41,-2.06,-1.01,-3.95,1008.72
14.565,0.29,0.66,-0.15,-0.51,-3.51,0.41,-2.06,-1.01,-3.95,1008.70
14.566,0.19,0.81,-0.14,-0.51,-3.51,0.41,-2.06,-1.01,-3.95,1008.70
14.566,0.13,1.08,-0.23,-0.51,-3.51,0.41,-2.06,-1.01,-3.95,1008.70
14.567,0.34,1.48,-0.39,-0.51,-3.51,0.41,-2.06,-1.01,-3.95,1008.70
14.567,0.34,1.48,-0.39,1.63,-1.05,-0.58,-2.06,-1.01,-3.95,1008.70
14.567,0.34,1.48,-0.39,1.63,-1.05,-0.58,-2.80,-1.24,-5.10,1008.70
14.617,0.49,1.75,-0.53,1.63,-1.05,-0.58,-2.80,-1.24,-5.10,1008.70
14.618,0.38,1.82,-0.52,1.63,-1.05,-0.58,-2.80,-1.24,-5.10,1008.70
14.618,0.46,1.60,-0.37,1.63,-1.05,-0.58,-2.80,-1.24,-5.10,1008.70
14.619,0.46,1.60,-0.37,1.63,-1.05,-0.58,-3.10,-0.14,-5.02,1008.70
14.619,0.46,1.60,-0.37,6.23,7.25,-5.16,-3.10,-0.14,-5.02,1008.70
14.635,0.46,1.60,-0.37,6.23,7.25,-5.16,-3.10,-0.14,-5.02,1008.67
14.675,0.66,1.28,-0.09,6.23,7.25,-5.16,-3.10,-0.14,-5.02,1008.67
14.676,0.61,1.10,0.02,6.23,7.25,-5.16,-3.10,-0.14,-5.02,1008.67
14.676,0.43,1.02,-0.14,6.23,7.25,-5.16,-3.10,-0.14,-5.02,1008.67
14.676,0.43,1.02,-0.14,6.23,7.25,-5.16,-2.12,1.20,-3.04,1008.67
14.676,0.43,1.02,-0.14,9.43,4.34,-2.76,-2.12,1.20,-3.04,1008.67
14.677,0.43,1.02,-0.14,9.43,4.34,-2.76,-2.12,1.20,-3.04,1008.63
14.735,0.31,1.02,-0.19,9.43,4.34,-2.76,-2.12,1.20,-3.04,1008.63
14.736,0.35,0.94,-0.14,9.43,4.34,-2.76,-2.12,1.20,-3.04,1008.63
14.736,0.52,0.92,-0.20,9.43,4.34,-2.76,-2.12,1.20,-3.04,1008.63
14.736,0.52,0.92,-0.20,9.43,4.34,-2.76,-0.39,0.99,0.31,1008.63
14.737,0.52,0.92,-0.20,7.18,1.01,-2.76,-0.39,0.99,0.31,1008.63
14.758,0.52,0.92,-0.20,7.18,1.01,-2.76,-0.39,0.99,0.31,1008.68
14.793,0.70,1.06,-0.76,7.18,1.01,-2.76,-0.39,0.99,0.31,1008.68
14.794,-0.14,1.35,-0.68,7.18,1.01,-2.76,-0.39,0.99,0.31,1008.68
14.794,-2.39,1.37,0.54,7.18,1.01,-2.76,-0.39,0.99,0.31,1008.68
14.794,-2.39,1.37,0.54,7.18,1.01,-2.76,0.01,3.07,1.17,1008.68
14.795,-2.39,1.37,0.54,6.56,1.92,-5.87,0.01,3.07,1.17,1008.68
14.836,-2.39,1.37,0.54,6.56,1.92,-5.87,0.01,3.07,1.17,1008.70
14.853,-1.55,1.51,0.03,6.56,1.92,-5.87,0.01,3.07,1.17,1008.70
14.853,0.60,1.39,-0.57,6.56,1.92,-5.87,0.01,3.07,1.17,1008.70
14.854,0.78,0.92,-0.63,6.56,1.92,-5.87,0.01,3.07,1.17,1008.70
14.854,0.78,0.92,-0.63,6.56,1.92,-5.87,0.66,1.43,2.55,1008.70
14.855,0.78,0.92,-0.63,-9.07,4.53,0.05,0.66,1.43,2.55,1008.70
14.878,0.78,0.92,-0.63,-9.07,4.53,0.05,0.66,1.43,2.55,1008.69
14.909,0.29,0.63,0.17,-9.07,4.53,0.05,0.66,1.43,2.55,1008.69
14.911,-0.09,0.84,0.53,-9.07,4.53,0.05,0.66,1.43,2.55,1008.69
14.911,-0.35,1.13,0.08,-9.07,4.53,0.05,0.66,1.43,2.55,1008.69
14.912,-0.35,1.13,0.08,-9.07,4.53,0.05,-0.04,0.19,1.42,1008.69
14.912,-0.35,1.13,0.08,4.20,-1.69,0.28,-0.04,0.19,1.42,1008.69
14.956,-0.35,1.13,0.08,4.20,-1.69,0.28,-0.04,0.19,1.42,1008.69
14.985,-0.02,1.15,-0.20,4.20,-1.69,0.28,-0.04,0.19,1.42,1008.69
14.986,0.25,0.99,-0.03,4.20,-1.69,0.28,-0.04,0.19,1.42,1008.69
14.987,0.02,0.98,-0.08,4.20,-1.69,0.28,-0.04,0.19,1.42,1008.69
14.987,0.02,0.98,-0.08,4.20,-1.69,0.28,0.14,-0.43,1.26,1008.69
14.988,0.02,0.98,-0.08,-0.12,1.11,-0.35,0.14,-0.43,1.26,1008.69
15.027,-0.08,1.01,0.01,-0.12,1.11,-0.35,0.14,-0.43,1.26,1008.69
15.029,0.04,1.00,0.06,-0.12,1.11,-0.35,0.14,-0.43,1.26,1008.69
15.029,0.08,0.99,0.02,-0.12,1.11,-0.35,0.14,-0.43,1.26,1008.69
15.029,0.08,0.99,0.02,-0.26,0.19,0.15,0.14,-0.43,1.26,1008.69
15.029,0.08,0.99,0.02,-0.26,0.19,0.15,0.13,0.06,0.90,1008.69
15.035,0.08,0.99,0.02,-0.26,0.19,0.15,0.13,0.06,0.90,1008.68
15.077,0.08,0.99,0.02,-0.26,0.19,0.15,0.13,0.06,0.90,1008.68
15.084,-0.00,0.98,-0.00,-0.26,0.19,0.15,0.13,0.06,0.90,1008.68
15.084,0.01,1.01,-0.04,-0.26,0.19,0.15,0.13,0.06,0.90,1008.68
15.085,0.07,1.03,-0.03,-0.26,0.19,0.15,0.13,0.06,0.90,1008.68
15.085,0.07,1.03,-0.03,-0.26,0.19,0.15,0.13,-0.14,0.83,1008.68
15.085,0.07,1.03,-0.03,-0.37,0.18,0.19,0.13,-0.14,0.83,1008.68
15.143,0.08,1.00,0.05,-0.37,0.18,0.19,0.13,-0.14,0.83,1008.68
15.144,0.05,0.99,0.07,-0.37,0.18,0.19,0.13,-0.14,0.83,1008.68
15.144,0.06,0.99,0.06,-0.37,0.18,0.19,0.13,-0.14,0.83,1008.68
15.145,0.06,0.99,0.06,-0.37,0.18,0.19,0.22,-0.10,0.88,1008.68
15.145,0.06,0.99,0.06,-0.49,0.33,0.67,0.22,-0.10,0.88,1008.68
15.155,0.06,0.99,0.06,-0.49,0.33,0.67,0.22,-0.10,0.88,1008.70
15.202,0.07,0.99,0.01,-0.49,0.33,0.67,0.22,-0.10,0.88,1008.70
15.203,0.08,0.99,-0.02,-0.49,0.33,0.67,0.22,-0.10,0.88,1008.70
15.203,0.09,1.00,-0.02,-0.49,0.33,0.67,0.22,-0.10,0.88,1008.70
15.204,0.09,1.00,-0.02,-0.49,0.33,0.67,0.35,-0.14,1.03,1008.70
15.204,0.09,1.00,-0.02,-0.99,0.28,0.73,0.35,-0.14,1.03,1008.70
15.236,0.09,1.00,-0.02,-0.99,0.28,0.73,0.35,-0.14,1.03,1008.70
15.26,0.16,1.00,-0.03,-0.99,0.28,0.73,0.35,-0.14,1.03,1008.70
15.261,0.17,1.01,-0.07,-0.99,0.28,0.73,0.35,-0.14,1.03,1008.70
15.261,0.14,1.02,-0.09,-0.99,0.28,0.73,0.35,-0.14,1.03,1008.70
15.262,0.14,1.02,-0.09,-0.99,0.28,0.73,0.39,-0.16,1.21,1008.70
15.262,0.14,1.02,-0.09,-0.97,0.55,0.41,0.39,-0.16,1.21,1008.70
15.276,0.14,1.02,-0.09,-0.97,0.55,0.41,0.39,-0.16,1.21,1008.70
15.321,0.14,1.02,-0.09,-0.84,0.77,-0.02,0.39,-0.16,1.21,1008.70
15.322,0.23,1.01,-0.10,-0.84,0.77,-0.02,0.39,-0.16,1.21,1008.70
15.322,0.30,0.98,-0.13,-0.84,0.77,-0.02,0.39,-0.16,1.21,1008.70
15.323,0.26,1.01,-0.10,-0.84,0.77,-0.02,0.39,-0.16,1.21,1008.70
15.323,0.26,1.01,-0.10,-0.84,0.77,-0.02,0.41,-0.13,1.31,1008.70
15.355,0.26,1.01,-0.10,-0.84,0.77,-0.02,0.41,-0.13,1.31,1008.72
15.376,0.21,1.08,-0.03,-0.84,0.77,-0.02,0.41,-0.13,1.31,1008.72
15.377,0.16,1.11,-0.02,-0.84,0.77,-0.02,0.41,-0.13,1.31,1008.72
15.377,0.12,1.12,-0.03,-0.84,0.77,-0.02,0.41,-0.13,1.31,1008.72
15.378,0.12,1.12,-0.03,-0.84,0.77,-0.02,0.57,-0.09,1.39,1008.72
15.378,0.12,1.12,-0.03,-1.65,1.65,0.85,0.57,-0.09,1.39,1008.72
15.435,0.09,1.15,-0.09,-1.65,1.65,0.85,0.57,-0.09,1.39,1008.72
15.436,0.11,1.28,-0.13,-1.65,1.65,0.85,0.57,-0.09,1.39,1008.72
15.436,-0.08,1.52,-0.09,-1.65,1.65,0.85,0.57,-0.09,1.39,1008.72
15.437,-0.08,1.52,-0.09,-1.65,1.65,0.85,0.81,-0.68,1.79,1008.72
15.437,-0.08,1.52,-0.09,-3.42,3.25,1.03,0.81,-0.68,1.79,1008.72
15.438,-0.08,1.52,-0.09,-3.42,3.25,1.03,0.81,-0.68,1.79,1008.73
15.478,-0.08,1.52,-0.09,-3.42,3.25,1.03,0.81,-0.68,1.79,1008.74
15.499,-0.56,1.74,-0.09,-3.42,3.25,1.03,0.81,-0.68,1.79,1008.74
15.5,-1.06,1.74,-0.19,-3.42,3.25,1.03,0.81,-0.68,1.79,1008.74
15.5,-0.91,1.47,-0.21,-3.42,3.25,1.03,0.81,-0.68,1.79,1008.74
15.501,-0.91,1.47,-0.21,-3.42,3.25,1.03,1.09,-1.90,2.27,1008.74
15.501,-0.91,1.47,-0.21,-10.60,8.65,1.68,1.09,-1.90,2.27,1008.74
15.553,-0.04,1.01,-0.15,-10.60,8.65,1.68,1.09,-1.90,2.27,1008.74
15.554,1.04,0.91,-0.57,-10.60,8.65,1.68,1.09,-1.90,2.27,1008.74
15.555,1.40,1.03,-0.58,-10.60,8.65,1.68,1.09,-1.90,2.27,1008.74
15.555,1.40,1.03,-0.58,-10.60,8.65,1.68,1.43,-3.22,3.76,1008.74
15.556,1.40,1.03,-0.58,-5.51,4.83,1.47,1.43,-3.22,3.76,1008.74
15.556,1.40,1.03,-0.58,-5.51,4.83,1.47,1.43,-3.22,3.76,1008.73
15.609,1.08,0.82,-0.46,-5.51,4.83,1.47,1.43,-3.22,3.76,1008.73
15.61,0.89,0.46,-0.47,-5.51,4.83,1.47,1.43,-3.22,3.76,1008.73
15.61,0.78,0.41,-0.50,-5.51,4.83,1.47,1.43,-3.22,3.76,1008.73
15.611,0.78,0.41,-0.50,-5.51,4.83,1.47,0.39,-0.15,1.23,1008.73
15.611,0.78,0.41,-0.50,4.76,1.80,-0.24,0.39,-0.15,1.23,1008.73
15.636,0.78,0.41,-0.50,4.76,1.80,-0.24,0.39,-0.15,1.23,1008.71
15.672,0.55,0.33,-0.30,4.76,1.80,-0.24,0.39,-0.15,1.23,1008.71
15.672,0.18,0.19,-0.02,4.76,1.80,-0.24,0.39,-0.15,1.23,1008.71
15.673,-0.23,0.14,0.20,4.76,1.80,-0.24,0.39,-0.15,1.23,1008.71
15.673,-0.23,0.14,0.20,-1.16,-3.47,0.97,0.39,-0.15,1.23,1008.71
15.674,-0.23,0.14,0.20,-1.16,-3.47,0.97,-1.56,1.20,-1.27,1008.71
15.675,-0.23,0.14,0.20,-1.16,-3.47,0.97,-1.56,1.20,-1.27,1008.65
15.726,-0.30,0.22,0.04,-1.16,-3.47,0.97,-1.56,1.20,-1.27,1008.65
15.727,-0.07,0.41,-0.20,-1.16,-3.47,0.97,-1.56,1.20,-1.27,1008.65
15.727,0.26,0.56,-0.36,-1.16,-3.47,0.97,-1.56,1.20,-1.27,1008.65
15.727,0.26,0.56,-0.36,-6.75,-4.99,3.48,-1.56,1.20,-1.27,1008.65
15.728,0.26,0.56,-0.36,-6.75,-4.99,3.48,-1.41,-0.93,-2.48,1008.65
15.755,0.26,0.56,-0.36,-6.75,-4.99,3.48,-1.41,-0.93,-2.48,1008.70
15.783,0.46,0.63,-0.37,-6.75,-4.99,3.48,-1.41,-0.93,-2.48,1008.70
15.784,0.51,0.66,-0.32,-6.75,-4.99,3.48,-1.41,-0.93,-2.48,1008.70
15.784,0.44,0.70,-0.26,-6.75,-4.99,3.48,-1.41,-0.93,-2.48,1008.70
15.784,0.44,0.70,-0.26,-6.75,-4.99,3.48,-2.19,-1.25,-3.52,1008.70
15.785,0.44,0.70,-0.26,1.11,-2.58,-0.87,-2.19,-1.25,-3.52,1008.70
15.837,0.44,0.70,-0.26,1.11,-2.58,-0.87,-2.19,-1.25,-3.52,1008.74
15.843,0.31,0.80,-0.28,1.11,-2.58,-0.87,-2.19,-1.25,-3.52,1008.74
15.844,0.24,0.97,-0.34,1.11,-2.58,-0.87,-2.19,-1.25,-3.52,1008.74
15.845,0.36,1.26,-0.43,1.11,-2.58,-0.87,-2.19,-1.25,-3.52,1008.74
15.845,0.36,1.26,-0.43,2.87,-1.28,-1.69,-2.19,-1.25,-3.52,1008.74
15.846,0.36,1.26,-0.43,2.87,-1.28,-1.69,-2.77,-0.45,-4.70,1008.74
15.881,0.36,1.26,-0.43,2.87,-1.28,-1.69,-2.77,-0.45,-4.70,1008.68
15.901,0.41,1.49,-0.40,2.87,-1.28,-1.69,-2.77,-0.45,-4.70,1008.68
15.902,0.31,1.58,-0.38,2.87,-1.28,-1.69,-2.77,-0.45,-4.70,1008.68
15.902,0.34,1.46,-0.28,2.87,-1.28,-1.69,-2.77,-0.45,-4.70,1008.68
15.902,0.34,1.46,-0.28,2.87,-1.28,-1.69,-2.70,0.21,-4.73,1008.68
15.902,0.34,1.46,-0.28,5.64,4.85,-4.18,-2.70,0.21,-4.73,1008.68
15.955,0.34,1.46,-0.28,5.64,4.85,-4.18,-2.70,0.21,-4.73,1008.66
15.958,0.45,1.27,-0.02,5.64,4.85,-4.18,-2.70,0.21,-4.73,1008.66
15.958,0.54,1.15,-0.02,5.64,4.85,-4.18,-2.70,0.21,-4.73,1008.66
15.958,0.40,1.11,-0.17,5.64,4.85,-4.18,-2.70,0.21,-4.73,1008.66
15.958,0.40,1.11,-0.17,5.64,4.85,-4.18,-1.88,-0.12,-2.69,1008.66
15.962,0.40,1.11,-0.17,7.73,3.83,-2.21,-1.88,-0.12,-2.69,1008.66
16.018,0.25,0.99,-0.17,7.73,3.83,-2.21,-1.88,-0.12,-2.69,1008.66
16.019,0.34,0.90,-0.11,7.73,3.83,-2.21,-1.88,-0.12,-2.69,1008.66
16.019,0.35,0.94,-0.15,7.73,3.83,-2.21,-1.88,-0.12,-2.69,1008.66
16.02,0.35,0.94,-0.15,7.73,3.83,-2.21,-0.48,0.02,0.04,1008.66
16.02,0.35,0.94,-0.15,6.50,0.97,-2.82,-0.48,0.02,0.04,1008.66
16.036,0.35,0.94,-0.15,6.50,0.97,-2.82,-0.48,0.02,0.04,1008.67
16.077,0.33,0.91,-0.69,6.50,0.97,-2.82,-0.48,0.02,0.04,1008.67
16.079,-0.60,1.19,-0.79,6.50,0.97,-2.82,-0.48,0.02,0.04,1008.67
16.079,-2.13,1.37,0.34,6.50,0.97,-2.82,-0.48,0.02,0.04,1008.67
16.08,-2.13,1.37,0.34,6.50,0.97,-2.82,0.13,2.09,0.60,1008.67
16.081,-2.13,1.37,0.34,3.27,1.00,-6.15,0.13,2.09,0.60,1008.67
16.082,-2.13,1.37,0.34,3.27,1.00,-6.15,0.13,2.09,0.60,1008.70
16.134,-0.62,1.76,0.26,3.27,1.00,-6.15,0.13,2.09,0.60,1008.70
16.135,1.02,1.47,-0.14,3.27,1.00,-6.15,0.13,2.09,0.60,1008.70
16.136,0.37,0.82,-0.80,3.27,1.00,-6.15,0.13,2.09,0.60,1008.70
16.136,0.37,0.82,-0.80,-3.73,5.64,1.29,0.13,2.09,0.60,1008.70
16.137,0.37,0.82,-0.80,-3.73,5.64,1.29,0.63,2.19,2.28,1008.70
16.157,0.37,0.82,-0.80,-3.73,5.64,1.29,0.63,2.19,2.28,1008.66
16.191,-0.30,0.60,0.63,-3.73,5.64,1.29,0.63,2.19,2.28,1008.66
16.192,-0.59,0.90,0.22,-3.73,5.64,1.29,0.63,2.19,2.28,1008.66
16.193,-0.18,1.21,-0.31,-3.73,5.64,1.29,0.63,2.19,2.28,1008.66
16.193,-0.18,1.21,-0.31,-3.73,5.64,1.29,0.27,0.13,1.28,1008.66
16.194,-0.18,1.21,-0.31,-0.49,-1.90,0.16,0.27,0.13,1.28,1008.66
16.237,-0.18,1.21,-0.31,-0.49,-1.90,0.16,0.27,0.13,1.28,1008.71
16.251,0.53,1.07,-0.19,-0.49,-1.90,0.16,0.27,0.13,1.28,1008.71
16.252,0.38,0.88,-0.10,-0.49,-1.90,0.16,0.27,0.13,1.28,1008.71
16.253,-0.06,1.00,-0.04,-0.49,-1.90,0.16,0.27,0.13,1.28,1008.71
16.253,-0.06,1.00,-0.04,-0.49,-1.90,0.16,0.11,-0.12,1.04,1008.71
16.254,-0.06,1.00,-0.04,3.00,0.80,-1.88,0.11,-0.12,1.04,1008.71
16.277,-0.06,1.00,-0.04,3.00,0.80,-1.88,0.11,-0.12,1.04,1008.71
16.309,-0.22,1.07,0.05,3.00,0.80,-1.88,0.11,-0.12,1.04,1008.71
16.31,-0.13,0.98,0.13,3.00,0.80,-1.88,0.11,-0.12,1.04,1008.71
16.31,0.00,0.98,0.07,3.00,0.80,-1.88,0.11,-0.12,1.04,1008.71
16.311,0.00,0.98,0.07,3.00,0.80,-1.88,0.01,0.02,0.53,1008.71
16.311,0.00,0.98,0.07,-1.02,0.36,0.51,0.01,0.02,0.53,1008.71
16.357,0.00,0.98,0.07,-1.02,0.36,0.51,0.01,0.02,0.53,1008.67
16.368,0.04,1.03,0.02,-1.02,0.36,0.51,0.01,0.02,0.53,1008.67
16.369,0.01,1.01,0.01,-1.02,0.36,0.51,0.01,0.02,0.53,1008.67
16.369,-0.02,0.99,0.05,-1.02,0.36,0.51,0.01,0.02,0.53,1008.67
16.37,-0.02,0.99,0.05,-1.02,0.36,0.51,0.15,-0.09,0.53,1008.67
16.37,-0.02,0.99,0.05,0.20,0.29,0.48,0.15,-0.09,0.53,1008.67
16.426,-0.05,0.98,0.09,0.20,0.29,0.48,0.15,-0.09,0.53,1008.67
16.427,-0.10,0.97,0.12,0.20,0.29,0.48,0.15,-0.09,0.53,1008.67
16.427,-0.08,0.97,0.05,0.20,0.29,0.48,0.15,-0.09,0.53,1008.67
16.428,-0.08,0.97,0.05,0.20,0.29,0.48,0.33,0.11,0.61,1008.67
16.428,-0.08,0.97,0.05,-0.85,0.06,1.15,0.33,0.11,0.61,1008.67
16.436,-0.08,0.97,0.05,-0.85,0.06,1.15,0.33,0.11,0.61,1008.68
16.476,-0.08,0.97,0.05,-0.85,0.06,1.15,0.33,0.11,0.61,1008.67
16.509,-0.08,0.97,0.05,-0.36,0.11,0.75,0.33,0.11,0.61,1008.67
16.51,0.04,0.99,0.01,-0.36,0.11,0.75,0.33,0.11,0.61,1008.67
16.511,0.16,1.00,-0.01,-0.36,0.11,0.75,0.33,0.11,0.61,1008.67
16.511,0.16,0.96,-0.04,-0.36,0.11,0.75,0.33,0.11,0.61,1008.67
16.512,0.16,0.96,-0.04,-0.36,0.11,0.75,0.45,-0.01,0.79,1008.67
16.543,0.12,0.95,-0.09,-0.36,0.11,0.75,0.45,-0.01,0.79,1008.67
16.544,0.06,0.98,-0.08,-0.36,0.11,0.75,0.45,-0.01,0.79,1008.67
16.544,0.06,0.99,-0.12,-0.36,0.11,0.75,0.45,-0.01,0.79,1008.67
16.545,0.06,0.99,-0.12,-0.36,0.11,0.75,0.42,0.25,0.64,1008.67
16.545,0.06,0.99,-0.12,0.05,-0.04,0.09,0.42,0.25,0.64,1008.67
16.555,0.06,0.99,-0.12,0.05,-0.04,0.09,0.42,0.25,0.64,1008.69
16.603,0.11,1.01,-0.10,0.05,-0.04,0.09,0.42,0.25,0.64,1008.69
16.604,0.12,1.03,-0.07,0.05,-0.04,0.09,0.42,0.25,0.64,1008.69
16.604,0.11,1.01,-0.08,0.05,-0.04,0.09,0.42,0.25,0.64,1008.69
16.605,0.11,1.01,-0.08,0.05,-0.04,0.09,0.38,-0.09,0.68,1008.69
16.605,0.11,1.01,-0.08,-0.50,0.49,0.04,0.38,-0.09,0.68,1008.69
16.636,0.11,1.01,-0.08,-0.50,0.49,0.04,0.38,-0.09,0.68,1008.74
16.66,0.12,0.99,-0.10,-0.50,0.49,0.04,0.38,-0.09,0.68,1008.74
16.662,0.14,0.99,-0.08,-0.50,0.49,0.04,0.38,-0.09,0.68,1008.74
16.663,0.09,1.01,-0.05,-0.50,0.49,0.04,0.38,-0.09,0.68,1008.74
16.664,0.09,1.01,-0.05,-0.50,0.49,0.04,0.45,-0.54,0.77,1008.74
16.665,0.09,1.01,-0.05,-0.61,0.42,0.42,0.45,-0.54,0.77,1008.74
16.682,0.09,1.01,-0.05,-0.61,0.42,0.42,0.45,-0.54,0.77,1008.75
16.716,-0.09,1.12,-0.04,-0.61,0.42,0.42,0.45,-0.54,0.77,1008.75
16.717,-0.24,1.36,0.03,-0.61,0.42,0.42,0.45,-0.54,0.77,1008.75
16.718,-0.25,1.60,-0.02,-0.61,0.42,0.42,0.45,-0.54,0.77,1008.75
16.718,-0.25,1.60,-0.02,-0.61,0.42,0.42,0.68,-1.20,1.25,1008.75
16.719,-0.25,1.60,-0.02,-3.11,2.29,1.58,0.68,-1.20,1.25,1008.75
16.756,-0.25,1.60,-0.02,-3.11,2.29,1.58,0.68,-1.20,1.25,1008.77
16.775,-0.09,1.77,-0.03,-3.11,2.29,1.58,0.68,-1.20,1.25,1008.77
16.776,-0.14,1.44,-0.05,-3.11,2.29,1.58,0.68,-1.20,1.25,1008.77
16.776,0.04,1.19,-0.31,-3.11,2.29,1.58,0.68,-1.20,1.25,1008.77
16.776,0.04,1.19,-0.31,-3.11,2.29,1.58,0.19,-2.86,2.21,1008.77
16.777,0.04,1.19,-0.31,-4.65,6.83,1.99,0.19,-2.86,2.21,1008.77
16.835,0.60,0.96,-0.17,-4.65,6.83,1.99,0.19,-2.86,2.21,1008.77
16.835,0.68,0.69,0.08,-4.65,6.83,1.99,0.19,-2.86,2.21,1008.77
16.836,0.48,0.64,-0.21,-4.65,6.83,1.99,0.19,-2.86,2.21,1008.77
16.836,0.48,0.64,-0.21,-4.65,6.83,1.99,-1.50,-4.47,2.58,1008.77
16.837,0.48,0.64,-0.21,0.53,0.69,1.13,-1.50,-4.47,2.58,1008.77
16.837,0.48,0.64,-0.21,0.53,0.69,1.13,-1.50,-4.47,2.58,1008.73
16.877,0.48,0.64,-0.21,0.53,0.69,1.13,-1.50,-4.47,2.58,1008.70
16.904,0.19,0.61,-0.45,0.53,0.69,1.13,-1.50,-4.47,2.58,1008.70
16.905,-0.08,0.49,-0.67,0.53,0.69,1.13,-1.50,-4.47,2.58,1008.70
16.906,-0.24,0.45,-0.88,0.53,0.69,1.13,-1.50,-4.47,2.58,1008.70
16.906,-0.24,0.45,-0.88,0.53,0.69,1.13,-2.47,-5.75,1.81,1008.70
16.907,-0.24,0.45,-0.88,-1.91,-2.79,-1.83,-2.47,-5.75,1.81,1008.70
16.952,-0.07,0.44,-1.01,-1.91,-2.79,-1.83,-2.47,-5.75,1.81,1008.70
16.953,0.03,0.53,-0.93,-1.91,-2.79,-1.83,-2.47,-5.75,1.81,1008.70
16.953,0.04,0.63,-0.80,-1.91,-2.79,-1.83,-2.47,-5.75,1.81,1008.70
16.954,0.04,0.63,-0.80,-1.91,-2.79,-1.83,-2.39,-5.47,1.60,1008.70
16.954,0.04,0.63,-0.80,-4.62,-3.79,-6.55,-2.39,-5.47,1.60,1008.70
16.957,0.04,0.63,-0.80,-4.62,-3.79,-6.55,-2.39,-5.47,1.60,1008.70
17.01,-0.09,0.67,-0.81,-4.62,-3.79,-6.55,-2.39,-5.47,1.60,1008.70
17.012,-0.19,0.70,-0.82,-4.62,-3.79,-6.55,-2.39,-5.47,1.60,1008.70
17.013,-0.22,0.77,-0.84,-4.62,-3.79,-6.55,-2.39,-5.47,1.60,1008.70
17.014,-0.22,0.77,-0.84,-4.62,-3.79,-6.55,-2.41,-5.19,0.38,1008.70
17.015,-0.22,0.77,-0.84,-3.83,-2.14,-5.31,-2.41,-5.19,0.38,1008.70
17.036,-0.22,0.77,-0.84,-3.83,-2.14,-5.31,-2.41,-5.19,0.38,1008.67
17.067,-0.18,0.80,-0.87,-3.83,-2.14,-5.31,-2.41,-5.19,0.38,1008.67
17.068,-0.05,0.84,-0.81,-3.83,-2.14,-5.31,-2.41,-5.19,0.38,1008.67
17.068,0.04,0.89,-0.69,-3.83,-2.14,-5.31,-2.41,-5.19,0.38,1008.67
17.068,0.04,0.89,-0.69,-3.83,-2.14,-5.31,-2.02,-5.08,-0.34,1008.67
17.069,0.04,0.89,-0.69,-3.54,-1.12,-5.81,-2.02,-5.08,-0.34,1008.67
17.077,0.04,0.89,-0.69,-3.54,-1.12,-5.81,-2.02,-5.08,-0.34,1008.67
17.126,0.04,0.93,-0.63,-3.54,-1.12,-5.81,-2.02,-5.08,-0.34,1008.67
17.127,0.02,0.98,-0.62,-3.54,-1.12,-5.81,-2.02,-5.08,-0.34,1008.67
17.127,0.03,1.00,-0.57,-3.54,-1.12,-5.81,-2.02,-5.08,-0.34,1008.67
17.128,0.03,1.00,-0.57,-3.54,-1.12,-5.81,-1.45,-4.46,-1.15,1008.67
17.128,0.03,1.00,-0.57,-0.56,-0.13,-4.21,-1.45,-4.46,-1.15,1008.67
17.158,0.03,1.00,-0.57,-0.56,-0.13,-4.21,-1.45,-4.46,-1.15,1008.69
17.186,0.07,1.02,-0.49,-0.56,-0.13,-4.21,-1.45,-4.46,-1.15,1008.69
17.187,0.12,1.05,-0.41,-0.56,-0.13,-4.21,-1.45,-4.46,-1.15,1008.69
17.188,0.12,1.07,-0.32,-0.56,-0.13,-4.21,-1.45,-4.46,-1.15,1008.69
17.189,0.12,1.07,-0.32,-0.56,-0.13,-4.21,-1.14,-3.35,-1.61,1008.69
17.19,0.12,1.07,-0.32,1.06,0.59,-3.20,-1.14,-3.35,-1.61,1008.69
17.237,0.12,1.07,-0.32,1.06,0.59,-3.20,-1.14,-3.35,-1.61,1008.68
17.244,0.12,1.05,-0.19,1.06,0.59,-3.20,-1.14,-3.35,-1.61,1008.68
17.245,0.13,1.03,-0.13,1.06,0.59,-3.20,-1.14,-3.35,-1.61,1008.68
17.245,0.09,1.03,-0.06,1.06,0.59,-3.20,-1.14,-3.35,-1.61,1008.68
17.246,0.09,1.03,-0.06,1.06,0.59,-3.20,-0.81,-2.39,-1.59,1008.68
17.246,0.09,1.03,-0.06,2.59,0.88,-1.03,-0.81,-2.39,-1.59,1008.68
17.275,0.09,1.03,-0.06,2.59,0.88,-1.03,-0.81,-2.39,-1.59,1008.70
17.3,0.06,1.03,0.03,2.59,0.88,-1.03,-0.81,-2.39,-1.59,1008.70
17.301,0.14,1.00,0.03,2.59,0.88,-1.03,-0.81,-2.39,-1.59,1008.70
17.301,0.26,0.98,0.03,2.59,0.88,-1.03,-0.81,-2.39,-1.59,1008.70
17.301,0.26,0.98,0.03,2.59,0.88,-1.03,-0.29,-2.40,-0.97,1008.70
17.302,0.26,0.98,0.03,2.94,0.65,0.65,-0.29,-2.40,-0.97,1008.70
17.356,0.26,0.98,0.03,2.94,0.65,0.65,-0.29,-2.40,-0.97,1008.72
17.358,0.32,0.98,0.04,2.94,0.65,0.65,-0.29,-2.40,-0.97,1008.72
17.359,0.43,0.98,-0.04,2.94,0.65,0.65,-0.29,-2.40,-0.97,1008.72
17.359,0.58,0.91,-0.12,2.94,0.65,0.65,-0.29,-2.40,-0.97,1008.72
17.359,0.58,0.91,-0.12,2.94,0.65,0.65,0.05,-1.64,0.39,1008.72
17.359,0.58,0.91,-0.12,5.07,0.20,0.57,0.05,-1.64,0.39,1008.72
17.418,0.32,0.80,-0.10,5.07,0.20,0.57,0.05,-1.64,0.39,1008.72
17.419,-0.49,0.79,-0.03,5.07,0.20,0.57,0.05,-1.64,0.39,1008.72
17.419,-1.48,1.24,0.25,5.07,0.20,0.57,0.05,-1.64,0.39,1008.72
17.42,-1.48,1.24,0.25,2.95,-1.25,-0.45,0.05,-1.64,0.39,1008.72
17.42,-1.48,1.24,0.25,2.95,-1.25,-0.45,-0.28,0.50,0.13,1008.72
17.438,-1.48,1.24,0.25,2.95,-1.25,-0.45,-0.28,0.50,0.13,1008.72
17.475,-0.48,1.81,0.26,2.95,-1.25,-0.45,-0.28,0.50,0.13,1008.72
17.476,0.63,1.44,-0.15,2.95,-1.25,-0.45,-0.28,0.50,0.13,1008.72
17.477,-0.04,0.82,-0.36,2.95,-1.25,-0.45,-0.28,0.50,0.13,1008.72
17.477,-0.04,0.82,-0.36,2.95,-1.25,-0.45,-0.07,0.42,1.17,1008.72
17.477,-0.04,0.82,-0.36,-3.34,5.11,1.51,-0.07,0.42,1.17,1008.72
17.478,-0.04,0.82,-0.36,-3.34,5.11,1.51,-0.07,0.42,1.17,1008.69
17.535,-0.35,0.82,-0.01,-3.34,5.11,1.51,-0.07,0.42,1.17,1008.69
17.536,-0.12,1.04,0.30,-3.34,5.11,1.51,-0.07,0.42,1.17,1008.69
17.537,0.02,0.99,0.17,-3.34,5.11,1.51,-0.07,0.42,1.17,1008.69
17.537,0.02,0.99,0.17,-1.35,-0.81,0.06,-0.07,0.42,1.17,1008.69
17.537,0.02,0.99,0.17,-1.35,-0.81,0.06,-0.14,0.09,1.22,1008.69
17.556,0.02,0.99,0.17,-1.35,-0.81,0.06,-0.14,0.09,1.22,1008.71
17.592,0.11,0.91,0.07,-1.35,-0.81,0.06,-0.14,0.09,1.22,1008.71
17.593,0.13,0.98,0.00,-1.35,-0.81,0.06,-0.14,0.09,1.22,1008.71
17.593,0.10,1.05,-0.08,-1.35,-0.81,0.06,-0.14,0.09,1.22,1008.71
17.593,0.10,1.05,-0.08,-1.35,-0.81,0.06,0.10,-0.13,1.09,1008.71
17.594,0.10,1.05,-0.08,0.61,-0.19,1.10,0.10,-0.13,1.09,1008.71
17.637,0.10,1.05,-0.08,0.61,-0.19,1.10,0.10,-0.13,1.09,1008.70
17.651,0.08,1.05,-0.08,0.61,-0.19,1.10,0.10,-0.13,1.09,1008.70
17.652,0.10,0.98,0.03,0.61,-0.19,1.10,0.10,-0.13,1.09,1008.70
17.652,0.16,0.97,0.05,0.61,-0.19,1.10,0.10,-0.13,1.09,1008.70
17.653,0.16,0.97,0.05,0.61,-0.19,1.10,0.02,0.32,0.72,1008.70
17.653,0.16,0.97,0.05,0.21,0.48,-0.11,0.02,0.32,0.72,1008.70
17.677,0.16,0.97,0.05,0.21,0.48,-0.11,0.02,0.32,0.72,1008.70
17.709,0.09,1.00,-0.01,0.21,0.48,-0.11,0.02,0.32,0.72,1008.70
17.71,-0.06,1.05,-0.06,0.21,0.48,-0.11,0.02,0.32,0.72,1008.70
17.71,-0.13,1.09,-0.06,0.21,0.48,-0.11,0.02,0.32,0.72,1008.70
17.711,-0.13,1.09,-0.06,0.21,0.48,-0.11,0.06,0.39,0.56,1008.70
17.711,-0.13,1.09,-0.06,-0.38,0.28,0.26,0.06,0.39,0.56,1008.70
17.758,-0.13,1.09,-0.06,-0.38,0.28,0.26,0.06,0.39,0.56,1008.72
17.769,0.03,1.05,-0.05,-0.38,0.28,0.26,0.06,0.39,0.56,1008.72
17.769,0.16,0.99,-0.02,-0.38,0.28,0.26,0.06,0.39,0.56,1008.72
17.77,0.17,0.97,0.03,-0.38,0.28,0.26,0.06,0.39,0.56,1008.72
17.77,0.17,0.97,0.03,-0.38,0.28,0.26,0.12,-0.10,0.80,1008.72
17.771,0.17,0.97,0.03,-1.22,0.69,-0.03,0.12,-0.10,0.80,1008.72
17.825,0.12,0.96,0.03,-1.22,0.69,-0.03,0.12,-0.10,0.80,1008.72
17.826,0.04,0.99,0.02,-1.22,0.69,-0.03,0.12,-0.10,0.80,1008.72
17.826,0.02,1.01,0.03,-1.22,0.69,-0.03,0.12,-0.10,0.80,1008.72
17.827,0.02,1.01,0.03,-1.22,0.69,-0.03,0.17,-0.10,0.79,1008.72
17.827,0.02,1.01,0.03,-0.76,0.10,0.73,0.17,-0.10,0.79,1008.72
17.837,0.02,1.01,0.03,-0.76,0.10,0.73,0.17,-0.10,0.79,1008.72
17.877,0.02,1.01,0.03,-0.76,0.10,0.73,0.17,-0.10,0.79,1008.71
17.884,0.07,1.00,0.01,-0.76,0.10,0.73,0.17,-0.10,0.79,1008.71
17.885,0.22,0.99,-0.01,-0.76,0.10,0.73,0.17,-0.10,0.79,1008.71
17.885,0.25,1.00,-0.04,-0.76,0.10,0.73,0.17,-0.10,0.79,1008.71
17.886,0.25,1.00,-0.04,-0.76,0.10,0.73,0.28,-0.30,1.10,1008.71
17.886,0.25,1.00,-0.04,-1.40,0.50,0.78,0.28,-0.30,1.10,1008.71
17.943,0.16,1.04,-0.04,-1.40,0.50,0.78,0.28,-0.30,1.10,1008.71
17.945,0.11,1.09,-0.05,-1.40,0.50,0.78,0.28,-0.30,1.10,1008.71
17.945,0.16,1.07,-0.06,-1.40,0.50,0.78,0.28,-0.30,1.10,1008.71
17.945,0.16,1.07,-0.06,-1.28,1.10,0.45,0.28,-0.30,1.10,1008.71
17.946,0.16,1.07,-0.06,-1.28,1.10,0.45,0.32,-0.38,1.13,1008.71
17.956,0.16,1.07,-0.06,-1.28,1.10,0.45,0.32,-0.38,1.13,1008.72
18.001,0.20,1.03,-0.14,-1.28,1.10,0.45,0.32,-0.38,1.13,1008.72
18.002,0.16,1.04,-0.13,-1.28,1.10,0.45,0.32,-0.38,1.13,1008.72
18.002,0.15,1.08,-0.10,-1.28,1.10,0.45,0.32,-0.38,1.13,1008.72
18.002,0.15,1.08,-0.10,-1.28,1.10,0.45,0.41,-0.47,1.44,1008.72
18.003,0.15,1.08,-0.10,-1.93,1.41,0.13,0.41,-0.47,1.44,1008.72
18.037,0.15,1.08,-0.10,-1.93,1.41,0.13,0.41,-0.47,1.44,1008.74
18.059,0.20,1.12,-0.07,-1.93,1.41,0.13,0.41,-0.47,1.44,1008.74
18.06,0.25,1.12,-0.08,-1.93,1.41,0.13,0.41,-0.47,1.44,1008.74
18.06,0.21,1.11,-0.11,-1.93,1.41,0.13,0.41,-0.47,1.44,1008.74
18.061,0.21,1.11,-0.11,-1.93,1.41,0.13,0.57,-0.58,1.82,1008.74
18.061,0.21,1.11,-0.11,-2.53,2.41,0.78,0.57,-0.58,1.82,1008.74
18.076,0.21,1.11,-0.11,-2.53,2.41,0.78,0.57,-0.58,1.82,1008.75
18.118,0.11,1.22,-0.15,-2.53,2.41,0.78,0.57,-0.58,1.82,1008.75
18.119,-0.09,1.52,-0.07,-2.53,2.41,0.78,0.57,-0.58,1.82,1008.75
18.119,-0.58,1.88,-0.04,-2.53,2.41,0.78,0.57,-0.58,1.82,1008.75
18.12,-0.58,1.88,-0.04,-2.53,2.41,0.78,0.82,-0.97,2.02,1008.75
18.12,-0.58,1.88,-0.04,-4.48,4.73,1.19,0.82,-0.97,2.02,1008.75
18.157,-0.58,1.88,-0.04,-4.48,4.73,1.19,0.82,-0.97,2.02,1008.75
18.176,-1.05,1.91,-0.12,-4.48,4.73,1.19,0.82,-0.97,2.02,1008.75
18.176,-0.88,1.61,-0.15,-4.48,4.73,1.19,0.82,-0.97,2.02,1008.75
18.177,0.14,1.15,-0.17,-4.48,4.73,1.19,0.82,-0.97,2.02,1008.75
18.177,0.14,1.15,-0.17,-4.48,4.73,1.19,0.99,-2.23,2.95,1008.75
18.178,0.14,1.15,-0.17,-14.08,10.78,2.37,0.99,-2.23,2.95,1008.75
18.234,1.33,1.11,-0.48,-14.08,10.78,2.37,0.99,-2.23,2.95,1008.75
18.235,1.30,1.07,-0.48,-14.08,10.78,2.37,0.99,-2.23,2.95,1008.75
18.236,0.82,0.76,-0.42,-14.08,10.78,2.37,0.99,-2.23,2.95,1008.75
18.236,0.82,0.76,-0.42,-14.08,10.78,2.37,1.06,-1.94,3.30,1008.75
18.237,0.82,0.76,-0.42,2.41,5.42,0.80,1.06,-1.94,3.30,1008.75
18.237,0.82,0.76,-0.42,2.41,5.42,0.80,1.06,-1.94,3.30,1008.72
18.276,0.82,0.76,-0.42,2.41,5.42,0.80,1.06,-1.94,3.30,1008.70
18.307,0.82,0.76,-0.42,0.50,-0.42,-0.73,1.06,-1.94,3.30,1008.70
18.308,0.76,0.44,-0.50,0.50,-0.42,-0.73,1.06,-1.94,3.30,1008.70
18.308,0.69,0.36,-0.51,0.50,-0.42,-0.73,1.06,-1.94,3.30,1008.70
18.308,0.37,0.16,-0.29,0.50,-0.42,-0.73,1.06,-1.94,3.30,1008.70
18.308,0.37,0.16,-0.29,0.50,-0.42,-0.73,-0.79,0.67,0.35,1008.70
18.352,-0.03,0.05,-0.05,0.50,-0.42,-0.73,-0.79,0.67,0.35,1008.70
18.353,-0.26,0.01,-0.01,0.50,-0.42,-0.73,-0.79,0.67,0.35,1008.70
18.353,-0.21,0.18,-0.17,0.50,-0.42,-0.73,-0.79,0.67,0.35,1008.70
18.353,-0.21,0.18,-0.17,0.50,-0.42,-0.73,-1.70,0.04,-2.40,1008.70
18.354,-0.21,0.18,-0.17,-5.74,-6.01,2.13,-1.70,0.04,-2.40,1008.70
18.357,-0.21,0.18,-0.17,-5.74,-6.01,2.13,-1.70,0.04,-2.40,1008.65
18.41,0.07,0.40,-0.35,-5.74,-6.01,2.13,-1.70,0.04,-2.40,1008.65
18.411,0.25,0.53,-0.37,-5.74,-6.01,2.13,-1.70,0.04,-2.40,1008.65
18.411,0.21,0.58,-0.32,-5.74,-6.01,2.13,-1.70,0.04,-2.40,1008.65
18.411,0.21,0.58,-0.32,-5.74,-6.01,2.13,-2.12,-1.60,-3.37,1008.65
18.412,0.21,0.58,-0.32,-3.87,-4.42,-0.06,-2.12,-1.60,-3.37,1008.65
18.437,0.21,0.58,-0.32,-3.87,-4.42,-0.06,-2.12,-1.60,-3.37,1008.70
18.468,0.12,0.63,-0.32,-3.87,-4.42,-0.06,-2.12,-1.60,-3.37,1008.70
18.47,0.11,0.76,-0.35,-3.87,-4.42,-0.06,-2.12,-1.60,-3.37,1008.70
18.47,0.28,1.00,-0.48,-3.87,-4.42,-0.06,-2.12,-1.60,-3.37,1008.70
18.47,0.28,1.00,-0.48,-3.87,-4.42,-0.06,-2.78,-2.18,-4.71,1008.70
18.471,0.28,1.00,-0.48,-0.04,-2.74,-1.38,-2.78,-2.18,-4.71,1008.70
18.476,0.28,1.00,-0.48,-0.04,-2.74,-1.38,-2.78,-2.18,-4.71,1008.71
18.527,0.53,1.29,-0.58,-0.04,-2.74,-1.38,-2.78,-2.18,-4.71,1008.71
18.528,0.56,1.57,-0.52,-0.04,-2.74,-1.38,-2.78,-2.18,-4.71,1008.71
18.528,0.59,1.78,-0.59,-0.04,-2.74,-1.38,-2.78,-2.18,-4.71,1008.71
18.529,0.59,1.78,-0.59,-0.04,-2.74,-1.38,-3.24,-0.57,-5.26,1008.71
18.529,0.59,1.78,-0.59,5.79,3.20,-4.97,-3.24,-0.57,-5.26,1008.71
18.556,0.59,1.78,-0.59,5.79,3.20,-4.97,-3.24,-0.57,-5.26,1008.69
18.584,0.57,1.70,-0.55,5.79,3.20,-4.97,-3.24,-0.57,-5.26,1008.69
18.586,0.63,1.26,-0.28,5.79,3.20,-4.97,-3.24,-0.57,-5.26,1008.69
18.587,0.66,1.11,0.07,5.79,3.20,-4.97,-3.24,-0.57,-5.26,1008.69
18.588,0.66,1.11,0.07,9.46,6.70,-5.39,-3.24,-0.57,-5.26,1008.69
18.59,0.66,1.11,0.07,9.46,6.70,-5.39,-2.40,1.41,-4.44,1008.69
18.636,0.66,1.11,0.07,9.46,6.70,-5.39,-2.40,1.41,-4.44,1008.64
18.641,0.57,1.12,-0.01,9.46,6.70,-5.39,-2.40,1.41,-4.44,1008.64
18.642,0.56,1.04,-0.26,9.46,6.70,-5.39,-2.40,1.41,-4.44,1008.64
18.643,0.71,0.89,-0.28,9.46,6.70,-5.39,-2.40,1.41,-4.44,1008.64
18.643,0.71,0.89,-0.28,9.46,6.70,-5.39,-0.64,1.28,-0.48,1008.64
18.644,0.71,0.89,-0.28,9.55,2.01,-1.44,-0.64,1.28,-0.48,1008.64
18.676,0.71,0.89,-0.28,9.55,2.01,-1.44,-0.64,1.28,-0.48,1008.66
18.7,0.77,0.98,-0.51,9.55,2.01,-1.44,-0.64,1.28,-0.48,1008.66
18.7,0.07,1.28,-0.56,9.55,2.01,-1.44,-0.64,1.28,-0.48,1008.66
18.701,-2.23,1.32,0.54,9.55,2.01,-1.44,-0.64,1.28,-0.48,1008.66
18.701,-2.23,1.32,0.54,9.55,2.01,-1.44,-0.10,2.84,1.19,1008.66
18.702,-2.23,1.32,0.54,8.13,1.34,-4.59,-0.10,2.84,1.19,1008.66
18.757,-2.23,1.32,0.54,8.13,1.34,-4.59,-0.10,2.84,1.19,1008.70
18.761,-2.19,1.50,0.17,8.13,1.34,-4.59,-0.10,2.84,1.19,1008.70
18.761,0.07,1.43,-0.40,8.13,1.34,-4.59,-0.10,2.84,1.19,1008.70
18.761,0.80,0.99,-0.55,8.13,1.34,-4.59,-0.10,2.84,1.19,1008.70
18.762,0.80,0.99,-0.55,8.13,1.34,-4.59,0.52,1.20,2.09,1008.70
18.762,0.80,0.99,-0.55,-12.07,4.54,1.27,0.52,1.20,2.09,1008.70
18.819,0.37,0.77,-0.23,-12.07,4.54,1.27,0.52,1.20,2.09,1008.70
18.82,0.05,0.82,0.21,-12.07,4.54,1.27,0.52,1.20,2.09,1008.70
18.82,-0.10,0.98,0.26,-12.07,4.54,1.27,0.52,1.20,2.09,1008.70
18.821,-0.10,0.98,0.26,-12.07,4.54,1.27,0.05,0.21,1.73,1008.70
18.821,-0.10,0.98,0.26,5.10,-1.06,-1.54,0.05,0.21,1.73,1008.70
18.837,-0.10,0.98,0.26,5.10,-1.06,-1.54,0.05,0.21,1.73,1008.65
18.876,-0.08,1.10,-0.11,5.10,-1.06,-1.54,0.05,0.21,1.73,1008.65
