
time,gFx,gFy,gFz,ax,ay,az,wx,wy,wz,
0.026246,-0.4100,0.7146,0.5508,0.0000,0.0000,0.0000,0.0000,0.0000,0.0000,
0.066484,-0.4100,0.7146,0.5508,-0.0258,-0.0010,-0.0388,0.0000,0.0000,0.0000,
0.067207,-0.4227,0.7100,0.5430,-0.0258,-0.0010,-0.0388,0.0000,0.0000,0.0000,
0.067676,-0.4227,0.7100,0.5430,-0.0258,-0.0010,-0.0388,-0.1527,0.2590,0.0454,
0.123888,-0.4101,0.5595,0.4498,-0.0258,-0.0010,-0.0388,-0.1527,0.2590,0.0454,
0.125015,-0.4101,0.5595,0.4498,-0.0258,-0.0010,-0.0388,0.2906,-0.1794,0.0499,
0.125574,-0.4101,0.5595,0.4498,0.0140,-1.0525,-0.5843,0.2906,-0.1794,0.0499,
0.182408,-0.3936,0.4420,0.3875,0.0140,-1.0525,-0.5843,0.2906,-0.1794,0.0499,
0.183438,-0.3936,0.4420,0.3875,0.0140,-1.0525,-0.5843,0.5675,-0.4329,0.2240,
0.184124,-0.3936,0.4420,0.3875,-0.0265,-1.8135,-0.8054,0.5675,-0.4329,0.2240,
0.240749,-0.3041,0.5220,0.3603,-0.0265,-1.8135,-0.8054,0.5675,-0.4329,0.2240,
0.241667,-0.3041,0.5220,0.3603,-0.0265,-1.8135,-0.8054,0.8851,-0.4431,0.3458,
0.242393,-0.3041,0.5220,0.3603,0.4854,-1.0689,-0.6740,0.8851,-0.4431,0.3458,
0.300002,-0.2415,0.7273,0.3567,0.4854,-1.0689,-0.6740,0.8851,-0.4431,0.3458,
0.301019,-0.2415,0.7273,0.3567,0.4854,-1.0689,-0.6740,1.1959,-0.2777,0.3751,
0.301655,-0.2415,0.7273,0.3567,0.7458,0.4909,-0.2665,1.1959,-0.2777,0.3751,
0.357622,-0.2415,0.7273,0.3567,0.5042,1.1078,0.1715,1.1959,-0.2777,0.3751,
0.358357,-0.2372,0.8467,0.3483,0.5042,1.1078,0.1715,1.1959,-0.2777,0.3751,
0.358691,-0.2372,0.8467,0.3483,0.5042,1.1078,0.1715,1.5031,-0.2830,0.3551,
0.415233,-0.2039,0.9024,0.3082,0.5042,1.1078,0.1715,1.5031,-0.2830,0.3551,
0.416193,-0.2039,0.9024,0.3082,0.5042,1.1078,0.1715,1.6754,-0.4300,0.3800,
0.416835,-0.2039,0.9024,0.3082,0.5206,1.1445,0.3768,1.6754,-0.4300,0.3800,
0.474649,-0.1762,1.0310,0.2700,0.5206,1.1445,0.3768,1.6754,-0.4300,0.3800,
0.476325,-0.1762,1.0310,0.2700,0.5206,1.1445,0.3768,1.5603,-0.3985,0.3042,
0.477457,-0.1762,1.0310,0.2700,0.5325,1.9126,0.5852,1.5603,-0.3985,0.3042,
0.533535,-0.0936,1.1712,0.2002,0.5325,1.9126,0.5852,1.5603,-0.3985,0.3042,
0.537315,-0.0936,1.1712,0.2002,0.5325,1.9126,0.5852,1.2623,-0.1384,0.3873,
0.540264,-0.0936,1.1712,0.2002,1.0259,2.7965,0.4444,1.2623,-0.1384,0.3873,
0.591336,-0.2569,1.1137,0.2348,1.0259,2.7965,0.4444,1.2623,-0.1384,0.3873,
0.593830,-0.2569,1.1137,0.2348,1.0259,2.7965,0.4444,0.8424,-0.2738,0.5510,
0.595990,-0.2569,1.1137,0.2348,-0.7961,1.9192,1.0765,0.8424,-0.2738,0.5510,
0.650782,-0.1355,1.0496,0.2324,-0.7961,1.9192,1.0765,0.8424,-0.2738,0.5510,
0.653938,-0.1355,1.0496,0.2324,-0.7961,1.9192,1.0765,0.7766,-0.6878,0.8807,
0.655672,-0.1355,1.0496,0.2324,-0.1043,1.0705,1.2882,0.7766,-0.6878,0.8807,
0.709205,-0.3225,1.5113,0.3033,-0.1043,1.0705,1.2882,0.7766,-0.6878,0.8807,
0.712084,-0.3225,1.5113,0.3033,-0.1043,1.0705,1.2882,0.6074,-0.4203,0.9992,
0.715053,-0.3225,1.5113,0.3033,-2.3052,5.0867,2.1105,0.6074,-0.4203,0.9992,
0.765729,-0.2480,1.4187,0.0845,-2.3052,5.0867,2.1105,0.6074,-0.4203,0.9992,
0.767275,-0.2480,1.4187,0.0845,-2.3052,5.0867,2.1105,0.7518,-0.3918,0.6459,
0.768317,-0.2480,1.4187,0.0845,-1.8181,3.8306,0.3523,0.7518,-0.3918,0.6459,
0.824671,0.2261,0.6715,-0.0720,-1.8181,3.8306,0.3523,0.7518,-0.3918,0.6459,
0.826970,0.2261,0.6715,-0.0720,-1.8181,3.8306,0.3523,0.7569,0.1346,0.6526,
0.828683,0.2261,0.6715,-0.0720,2.2819,-3.2847,-0.6850,0.7569,0.1346,0.6526,
0.882172,-0.0757,1.2092,-0.1109,2.2819,-3.2847,-0.6850,0.7569,0.1346,0.6526,
0.884116,-0.0757,1.2092,-0.1109,2.2819,-3.2847,-0.6850,0.5033,-0.2657,0.4464,
0.885188,-0.0757,1.2092,-0.1109,-0.8710,1.8671,-0.7259,0.5033,-0.2657,0.4464,
0.940799,0.0156,1.0727,-0.1724,-0.8710,1.8671,-0.7259,0.5033,-0.2657,0.4464,
0.942627,0.0156,1.0727,-0.1724,-0.8710,1.8671,-0.7259,0.4685,-0.0120,0.4551,
0.944083,0.0156,1.0727,-0.1724,-0.2268,0.5176,-0.9942,0.4685,-0.0120,0.4551,
0.999595,-0.2745,1.3566,-0.0630,-0.2268,0.5176,-0.9942,0.4685,-0.0120,0.4551,
1.002653,-0.2745,1.3566,-0.0630,-0.2268,0.5176,-0.9942,0.2439,0.0497,0.4126,
1.005421,-0.2745,1.3566,-0.0630,-3.1287,3.1381,0.2061,0.2439,0.0497,0.4126,
1.058635,-0.1332,1.1788,-0.1581,-3.1287,3.1381,0.2061,0.2439,0.0497,0.4126,
1.061239,-0.1332,1.1788,-0.1581,-3.1287,3.1381,0.2061,0.2012,-0.8723,1.0190,
1.063317,-0.1332,1.1788,-0.1581,-2.1780,1.3730,-0.5397,0.2012,-0.8723,1.0190,
1.116932,-0.4317,0.8499,0.0248,-2.1780,1.3730,-0.5397,0.2012,-0.8723,1.0190,
1.120085,-0.4317,0.8499,0.0248,-2.1780,1.3730,-0.5397,-0.3132,-1.1584,0.5152,
1.123605,-0.4317,0.8499,0.0248,-5.0763,-1.7457,1.0799,-0.3132,-1.1584,0.5152,
1.176547,-0.4094,0.7486,-0.1208,-5.0763,-1.7457,1.0799,-0.3132,-1.1584,0.5152,
1.179327,-0.4094,0.7486,-0.1208,-5.0763,-1.7457,1.0799,-0.6097,-2.5168,-0.4500,
1.180955,-0.4094,0.7486,-0.1208,-4.2746,-2.6485,-0.5754,-0.6097,-2.5168,-0.4500,
1.234443,-0.1968,0.8425,-0.0771,-4.2746,-2.6485,-0.5754,-0.6097,-2.5168,-0.4500,
1.237425,-0.1968,0.8425,-0.0771,-4.2746,-2.6485,-0.5754,-1.1201,-2.9234,-1.3830,
1.240280,-0.1968,0.8425,-0.0771,-1.2729,-1.6534,-0.7869,-1.1201,-2.9234,-1.3830,
1.291836,-0.0534,0.9187,-0.0844,-1.2729,-1.6534,-0.7869,-1.1201,-2.9234,-1.3830,
1.295197,-0.0534,0.9187,-0.0844,-1.2729,-1.6534,-0.7869,-1.4997,-2.7236,-1.6483,
1.299072,-0.0534,0.9187,-0.0844,0.9541,-0.7207,-1.8099,-1.4997,-2.7236,-1.6483,
1.349918,0.1417,1.1041,-0.0366,0.9541,-0.7207,-1.8099,-1.4997,-2.7236,-1.6483,
1.352727,0.1417,1.1041,-0.0366,0.9541,-0.7207,-1.8099,-1.3608,-2.1893,-1.3579,
1.355553,0.1417,1.1041,-0.0366,3.2965,1.2976,-2.2334,-1.3608,-2.1893,-1.3579,
1.409489,0.3094,0.8535,-0.1714,3.2965,1.2976,-2.2334,-1.3608,-2.1893,-1.3579,
1.412239,0.3094,0.8535,-0.1714,3.2965,1.2976,-2.2334,-0.2437,-2.2914,-0.1635,
1.414285,0.3094,0.8535,-0.1714,4.5576,-1.0668,-3.7817,-0.2437,-2.2914,-0.1635,
1.465304,0.6042,0.6986,-0.4690,4.5576,-1.0668,-3.7817,-0.2437,-2.2914,-0.1635,
1.466592,0.6042,0.6986,-0.4690,4.5576,-1.0668,-3.7817,0.7334,-0.3250,1.0096,
1.467621,0.6042,0.6986,-0.4690,6.5823,-2.6334,-6.0773,0.7334,-0.3250,1.0096,
1.525079,0.6042,0.6986,-0.4690,-7.1635,7.5069,1.3570,0.7334,-0.3250,1.0096,
1.527472,-0.7932,1.7699,0.2552,-7.1635,7.5069,1.3570,0.7334,-0.3250,1.0096,
1.529350,-0.7932,1.7699,0.2552,-7.1635,7.5069,1.3570,0.6227,1.7035,0.8104,
1.584102,0.4386,0.9953,-0.1075,-7.1635,7.5069,1.3570,0.6227,1.7035,0.8104,
1.587527,0.4386,0.9953,-0.1075,-7.1635,7.5069,1.3570,0.7815,-1.1407,2.0523,
1.590012,0.4386,0.9953,-0.1075,3.5400,-0.1212,-1.6721,0.7815,-1.1407,2.0523,
1.643994,0.2393,0.9520,-0.0231,3.5400,-0.1212,-1.6721,0.7815,-1.1407,2.0523,
1.646899,0.2393,0.9520,-0.0231,3.5400,-0.1212,-1.6721,0.4734,-0.3003,0.8335,
1.649586,0.2393,0.9520,-0.0231,1.0601,-0.4921,-0.5369,0.4734,-0.3003,0.8335,
1.699855,0.1855,1.0273,0.0147,1.0601,-0.4921,-0.5369,0.4734,-0.3003,0.8335,
1.702461,0.1855,1.0273,0.0147,1.0601,-0.4921,-0.5369,0.3382,-0.4337,0.6205,
1.704559,0.1855,1.0273,0.0147,0.1679,0.2849,0.0626,0.3382,-0.4337,0.6205,
1.758442,0.1734,0.9723,0.0606,0.1679,0.2849,0.0626,0.3382,-0.4337,0.6205,
1.760850,0.1734,0.9723,0.0606,0.1679,0.2849,0.0626,0.4649,-0.3834,0.6050,
1.764081,0.1734,0.9723,0.0606,-0.2841,-0.1820,0.7903,0.4649,-0.3834,0.6050,
1.816572,0.1538,0.9949,-0.0207,-0.2841,-0.1820,0.7903,0.4649,-0.3834,0.6050,
1.818773,0.1538,0.9949,-0.0207,-0.2841,-0.1820,0.7903,0.5893,-0.3553,0.6516,
1.820986,0.1538,0.9949,-0.0207,-0.8091,0.1311,0.3597,0.5893,-0.3553,0.6516,
1.876612,0.1538,0.9949,-0.0207,-0.2037,-0.0662,0.2793,0.5893,-0.3553,0.6516,
1.879677,0.2567,0.9601,-0.0709,-0.2037,-0.0662,0.2793,0.5893,-0.3553,0.6516,
1.882209,0.2567,0.9601,-0.0709,-0.2037,-0.0662,0.2793,0.6772,-0.2952,0.7581,
1.932785,0.2494,0.9990,-0.1807,-0.2037,-0.0662,0.2793,0.6772,-0.2952,0.7581,
1.935425,0.2494,0.9990,-0.1807,-0.2037,-0.0662,0.2793,0.6084,-0.4125,0.7779,
1.938087,0.2494,0.9990,-0.1807,-0.6531,0.4748,-0.3814,0.6084,-0.4125,0.7779,
1.993469,0.2494,0.9990,-0.1807,-1.6588,1.2440,0.1131,0.6084,-0.4125,0.7779,
2.000042,0.1865,1.0581,-0.1702,-1.6588,1.2440,0.1131,0.6084,-0.4125,0.7779,
2.001664,0.1865,1.0581,-0.1702,-1.6588,1.2440,0.1131,0.6194,-0.3239,0.8713,
2.049259,-0.0317,1.2031,-0.0907,-1.6588,1.2440,0.1131,0.6194,-0.3239,0.8713,
2.051015,-0.0317,1.2031,-0.0907,-1.6588,1.2440,0.1131,0.9696,-0.2855,1.2419,
2.052070,-0.0317,1.2031,-0.0907,-4.2879,2.9714,1.4191,0.9696,-0.2855,1.2419,
2.108702,-0.4333,1.5081,0.0477,-4.2879,2.9714,1.4191,0.9696,-0.2855,1.2419,
2.111675,-0.4333,1.5081,0.0477,-4.2879,2.9714,1.4191,1.4435,-0.9487,1.7610,
2.114193,-0.4333,1.5081,0.0477,-8.6986,6.4626,3.6322,1.4435,-0.9487,1.7610,
2.166768,-0.5839,1.5693,-0.0907,-8.6986,6.4626,3.6322,1.4435,-0.9487,1.7610,
2.169510,-0.5839,1.5693,-0.0907,-8.6986,6.4626,3.6322,1.7477,-2.3046,2.8864,
2.172309,-0.5839,1.5693,-0.0907,-10.6599,8.0596,3.6256,1.7477,-2.3046,2.8864,
2.226256,-0.5839,1.5693,-0.0907,4.2043,6.2951,0.6429,1.7477,-2.3046,2.8864,
2.228269,1.0138,1.2531,-0.5178,4.2043,6.2951,0.6429,1.7477,-2.3046,2.8864,
2.229574,1.0138,1.2531,-0.5178,4.2043,6.2951,0.6429,1.8760,-1.6259,3.0334,
2.282320,0.3985,0.4987,-0.4732,4.2043,6.2951,0.6429,1.8760,-1.6259,3.0334,
2.284026,0.3985,0.4987,-0.4732,4.2043,6.2951,0.6429,-0.6522,0.0672,0.4771,
2.285606,0.3985,0.4987,-0.4732,-1.9584,-1.1222,0.8107,-0.6522,0.0672,0.4771,
2.342271,0.0206,0.1307,-0.2693,-1.9584,-1.1222,0.8107,-0.6522,0.0672,0.4771,
2.346764,0.0206,0.1307,-0.2693,-1.9584,-1.1222,0.8107,-2.0847,-0.3700,-2.0627,
2.349302,0.0206,0.1307,-0.2693,-4.6314,-5.8559,2.0676,-2.0847,-0.3700,-2.0627,
2.400202,0.1483,0.4888,-0.4051,-4.6314,-5.8559,2.0676,-2.0847,-0.3700,-2.0627,
2.405053,0.1483,0.4888,-0.4051,-4.6314,-5.8559,2.0676,-3.4321,-1.2712,-3.4652,
2.409047,0.1483,0.4888,-0.4051,-1.4286,-3.8582,-0.5640,-3.4321,-1.2712,-3.4652,
2.460937,0.0932,0.9343,-0.5074,-1.4286,-3.8582,-0.5640,-3.4321,-1.2712,-3.4652,
2.465434,0.0932,0.9343,-0.5074,-1.4286,-3.8582,-0.5640,-4.4435,-2.3119,-4.0783,
2.470353,0.0932,0.9343,-0.5074,0.5303,-0.4803,-3.6654,-4.4435,-2.3119,-4.0783,
2.515944,0.6876,1.4008,-0.9182,0.5303,-0.4803,-3.6654,-4.4435,-2.3119,-4.0783,
2.518426,0.6876,1.4008,-0.9182,0.5303,-0.4803,-3.6654,-4.7216,-0.2561,-4.0480,
2.520159,0.6876,1.4008,-0.9182,8.4621,4.1844,-10.1015,-4.7216,-0.2561,-4.0480,
2.574471,0.7835,1.0401,-0.6415,8.4621,4.1844,-10.1015,-4.7216,-0.2561,-4.0480,
2.577432,0.7835,1.0401,-0.6415,8.4621,4.1844,-10.1015,-3.0016,2.5757,-2.7413,
2.579596,0.7835,1.0401,-0.6415,10.9224,1.3424,-8.3938,-3.0016,2.5757,-2.7413,
2.633231,0.4541,0.8248,-0.4671,10.9224,1.3424,-8.3938,-3.0016,2.5757,-2.7413,
2.636572,0.4541,0.8248,-0.4671,10.9224,1.3424,-8.3938,0.1057,2.1238,0.6563,
2.637970,0.4541,0.8248,-0.4671,7.4372,-0.8798,-6.0773,0.1057,2.1238,0.6563,
2.691079,-0.8753,2.0481,0.4213,7.4372,-0.8798,-6.0773,0.1057,2.1238,0.6563,
2.692789,-0.8753,2.0481,0.4213,7.4372,-0.8798,-6.0773,0.2107,2.0324,1.1985,
2.694248,-0.8753,2.0481,0.4213,-5.9450,10.6680,3.0042,0.2107,2.0324,1.1985,
2.749781,0.1927,0.6110,-0.3389,-5.9450,10.6680,3.0042,0.2107,2.0324,1.1985,
2.752416,0.1927,0.6110,-0.3389,-5.9450,10.6680,3.0042,1.2195,0.1075,2.6276,
2.755314,0.1927,0.6110,-0.3389,2.9989,-3.6840,-3.6583,1.2195,0.1075,2.6276,
2.811308,0.1927,0.6110,-0.3389,3.8773,0.7500,-0.6429,1.2195,0.1075,2.6276,
2.814389,0.3592,1.0711,-0.0740,3.8773,0.7500,-0.6429,1.2195,0.1075,2.6276,
2.815522,0.3592,1.0711,-0.0740,3.8773,0.7500,-0.6429,0.7283,-0.1847,1.1859,
2.866725,-0.1064,1.0562,-0.1683,3.8773,0.7500,-0.6429,0.7283,-0.1847,1.1859,
2.869836,-0.1064,1.0562,-0.1683,3.8773,0.7500,-0.6429,0.3311,0.3578,0.5944,
2.872591,-0.1064,1.0562,-0.1683,-1.0070,0.5889,-1.3492,0.3311,0.3578,0.5944,
2.925656,-0.0710,1.0004,0.0350,-1.0070,0.5889,-1.3492,0.3311,0.3578,0.5944,
2.927816,-0.0710,1.0004,0.0350,-1.0070,0.5889,-1.3492,0.3333,0.2112,0.6188,
2.930263,-0.0710,1.0004,0.0350,-0.9969,0.0543,0.8151,0.3333,0.2112,0.6188,
2.983296,-0.0040,0.9748,0.0354,-0.9969,0.0543,0.8151,0.3333,0.2112,0.6188,
2.987137,-0.0040,0.9748,0.0354,-0.9969,0.0543,0.8151,0.6192,-0.5589,0.9444,
2.989469,-0.0040,0.9748,0.0354,-0.8378,-0.1396,1.1673,0.6192,-0.5589,0.9444,
3.041730,-0.0040,0.9748,0.0354,-0.7613,-0.1406,0.8404,0.6192,-0.5589,0.9444,
3.045759,0.0623,0.9619,-0.0479,-0.7613,-0.1406,0.8404,0.6192,-0.5589,0.9444,
3.047833,0.0623,0.9619,-0.0479,-0.7613,-0.1406,0.8404,0.8855,-0.1498,1.0613,
3.099644,0.1210,0.9763,-0.1721,-0.7613,-0.1406,0.8404,0.8855,-0.1498,1.0613,
3.102173,0.1210,0.9763,-0.1721,-0.7613,-0.1406,0.8404,1.0285,-0.6259,1.3722,
3.104374,0.1210,0.9763,-0.1721,-0.8662,0.2317,0.2499,1.0285,-0.6259,1.3722,
3.162399,0.1865,1.0738,-0.2218,-0.8662,0.2317,0.2499,1.0285,-0.6259,1.3722,
3.165423,0.1865,1.0738,-0.2218,-0.8662,0.2317,0.2499,1.1568,-0.2079,1.2659,
3.167559,0.1865,1.0738,-0.2218,-0.8600,1.4880,0.4025,1.1568,-0.2079,1.2659,
3.216897,0.0190,1.2316,-0.1410,-0.8600,1.4880,0.4025,1.1568,-0.2079,1.2659,
3.219510,0.0190,1.2316,-0.1410,-0.8600,1.4880,0.4025,1.5923,-0.3305,1.4362,
3.221281,0.0190,1.2316,-0.1410,-3.1229,3.5049,2.0305,1.5923,-0.3305,1.4362,
3.277402,-0.6750,1.7788,0.0634,-3.1229,3.5049,2.0305,1.5923,-0.3305,1.4362,
3.280347,-0.6750,1.7788,0.0634,-3.1229,3.5049,2.0305,2.2152,-0.7208,1.6744,
3.282413,-0.6750,1.7788,0.0634,-10.3652,9.5722,5.1484,2.2152,-0.7208,1.6744,
3.332796,0.1909,1.3376,-0.2858,-10.3652,9.5722,5.1484,2.2152,-0.7208,1.6744,
3.335333,0.1909,1.3376,-0.2858,-10.3652,9.5722,5.1484,2.3728,-1.8778,2.7599,
3.336423,0.1909,1.3376,-0.2858,-2.4109,6.5165,3.1177,2.3728,-1.8778,2.7599,
3.391025,0.7568,0.8991,-0.5753,-2.4109,6.5165,3.1177,2.3728,-1.8778,2.7599,
3.393310,0.7568,0.8991,-0.5753,-2.4109,6.5165,3.1177,1.7373,0.0088,1.5331,
3.394455,0.7568,0.8991,-0.5753,2.5372,3.2025,0.8737,1.7373,0.0088,1.5331,
3.450075,0.2420,0.3894,-0.2129,2.5372,3.2025,0.8737,1.7373,0.0088,1.5331,
3.453944,0.2420,0.3894,-0.2129,2.5372,3.2025,0.8737,-1.0694,0.7052,-0.3488,
3.456487,0.2420,0.3894,-0.2129,-2.6017,-2.2435,3.7912,-1.0694,0.7052,-0.3488,
3.509098,0.0434,0.2977,-0.2963,-2.6017,-2.2435,3.7912,-1.0694,0.7052,-0.3488,
3.512806,0.0434,0.2977,-0.2963,-2.6017,-2.2435,3.7912,-2.3207,-0.0211,-2.1262,
3.515635,0.0434,0.2977,-0.2963,-3.6457,-4.3709,2.0329,-2.3207,-0.0211,-2.1262,
3.566515,0.0596,0.5789,-0.3283,-3.6457,-4.3709,2.0329,-2.3207,-0.0211,-2.1262,
3.570133,0.0596,0.5789,-0.3283,-3.6457,-4.3709,2.0329,-3.7805,-1.0945,-3.5092,
3.572404,0.0596,0.5789,-0.3283,-1.5349,-3.1239,0.1183,-3.7805,-1.0945,-3.5092,
3.624113,0.2071,1.1664,-0.8180,-1.5349,-3.1239,0.1183,-3.7805,-1.0945,-3.5092,
3.626570,0.2071,1.1664,-0.8180,-1.5349,-3.1239,0.1183,-4.3496,-1.7202,-3.8362,
3.627716,0.2071,1.1664,-0.8180,2.1694,1.8174,-6.8264,-4.3496,-1.7202,-3.8362,
3.683591,0.2071,1.1664,-0.8180,8.3070,2.4502,-9.6826,-4.3496,-1.7202,-3.8362,
3.688364,0.6342,1.2102,-0.8976,8.3070,2.4502,-9.6826,-4.3496,-1.7202,-3.8362,
3.690988,0.6342,1.2102,-0.8976,8.3070,2.4502,-9.6826,-4.1016,0.4150,-3.7080,
3.742266,0.6374,0.8809,-0.7222,8.3070,2.4502,-9.6826,-4.1016,0.4150,-3.7080,
3.747750,0.6374,0.8809,-0.7222,8.3070,2.4502,-9.6826,-1.8835,0.5341,-1.4457,
3.754497,0.6374,0.8809,-0.7222,9.0110,-0.4092,-8.7477,-1.8835,0.5341,-1.4457,
3.800659,-0.0894,1.5449,0.0492,9.0110,-0.4092,-8.7477,-1.8835,0.5341,-1.4457,
3.806050,-0.0894,1.5449,0.0492,9.0110,-0.4092,-8.7477,-0.2792,1.3639,0.7518,
3.808529,-0.0894,1.5449,0.0492,1.5998,5.9100,-1.1001,-0.2792,1.3639,0.7518,
3.858732,-0.4013,1.0976,-0.2530,1.5998,5.9100,-1.1001,-0.2792,1.3639,0.7518,
3.864340,-0.4013,1.0976,-0.2530,1.5998,5.9100,-1.1001,1.4363,1.1715,1.6626,
3.866708,-0.4013,1.0976,-0.2530,-2.2463,1.2127,-3.0769,1.4363,1.1715,1.6626,
3.916047,0.3291,1.0060,-0.1204,-2.2463,1.2127,-3.0769,1.4363,1.1715,1.6626,
3.919477,0.3291,1.0060,-0.1204,-2.2463,1.2127,-3.0769,0.6412,-0.6811,1.6390,
3.921455,0.3291,1.0060,-0.1204,3.9127,0.1786,-1.4342,0.6412,-0.6811,1.6390,
3.975089,-0.0542,1.0040,-0.0287,3.9127,0.1786,-1.4342,0.6412,-0.6811,1.6390,
3.978544,-0.0542,1.0040,-0.0287,3.9127,0.1786,-1.4342,0.3262,0.2910,0.6496,
3.980168,-0.0542,1.0040,-0.0287,-0.2054,0.1350,-0.3399,0.3262,0.2910,0.6496,
4.033820,0.0025,1.0012,0.0017,-0.2054,0.1350,-0.3399,0.3262,0.2910,0.6496,
4.037909,0.0025,1.0012,0.0017,-0.2054,0.1350,-0.3399,0.2708,-0.2531,0.6510,
4.040074,0.0025,1.0012,0.0017,-0.0170,0.1011,0.1087,0.2708,-0.2531,0.6510,
4.091160,0.0740,0.9907,0.0169,-0.0170,0.1011,0.1087,0.2708,-0.2531,0.6510,
4.094323,0.0740,0.9907,0.0169,-0.0170,0.1011,0.1087,0.2714,-0.4178,0.5034,
4.096594,0.0740,0.9907,0.0169,0.3957,0.0061,0.4095,0.2714,-0.4178,0.5034,
4.149724,0.0216,1.0038,-0.0236,0.3957,0.0061,0.4095,0.2714,-0.4178,0.5034,
4.153246,0.0216,1.0038,-0.0236,0.3957,0.0061,0.4095,0.3298,-0.5202,0.4659,
4.154722,0.0216,1.0038,-0.0236,-0.3640,0.1502,0.2093,0.3298,-0.5202,0.4659,
4.209019,0.0964,0.9330,-0.0225,-0.3640,0.1502,0.2093,0.3298,-0.5202,0.4659,
4.215601,0.0964,0.9330,-0.0225,-0.3640,0.1502,0.2093,0.4412,-0.3942,0.4769,
4.218074,0.0964,0.9330,-0.0225,0.1101,-0.5008,0.4766,0.4412,-0.3942,0.4769,
4.266809,0.1310,0.9929,-0.0750,0.1101,-0.5008,0.4766,0.4412,-0.3942,0.4769,
4.269941,0.1310,0.9929,-0.0750,0.1101,-0.5008,0.4766,0.4272,-0.5072,0.4840,
4.271954,0.1310,0.9929,-0.0750,0.1997,0.1317,0.2273,0.4272,-0.5072,0.4840,
4.326306,0.1566,0.9286,-0.0346,0.1997,0.1317,0.2273,0.4272,-0.5072,0.4840,
4.330203,0.1566,0.9286,-0.0346,0.2351,-0.4295,0.9049,0.4272,-0.5072,0.4840,
4.332300,0.1566,0.9286,-0.0346,0.2351,-0.4295,0.9049,0.4655,-0.5404,0.4409,
4.384456,-0.0283,1.1598,-0.0001,0.2351,-0.4295,0.9049,0.4655,-0.5404,0.4409,
4.387747,-0.0283,1.1598,-0.0001,0.2351,-0.4295,0.9049,0.6070,-0.7892,0.6508,
4.389842,-0.0283,1.1598,-0.0001,-1.8393,1.9094,1.6181,0.6070,-0.7892,0.6508,
4.442906,-0.0467,1.3541,-0.1758,-1.8393,1.9094,1.6181,0.6070,-0.7892,0.6508,
4.447858,-0.0467,1.3541,-0.1758,-1.8393,1.9094,1.6181,0.4989,-1.4207,1.5926,
4.449824,-0.0467,1.3541,-0.1758,-2.6889,3.9782,0.3214,0.4989,-1.4207,1.5926,
4.499850,-0.0467,1.3541,-0.1758,1.4531,0.8973,-1.1221,0.4989,-1.4207,1.5926,
4.503374,0.4512,1.0178,-0.3382,1.4531,0.8973,-1.1221,0.4989,-1.4207,1.5926,
4.505466,0.4512,1.0178,-0.3382,1.4531,0.8973,-1.1221,-0.7127,-3.3311,2.1073,
4.558069,-0.2140,0.6549,-0.5544,1.4531,0.8973,-1.1221,-0.7127,-3.3311,2.1073,
4.562233,-0.2140,0.6549,-0.5544,1.4531,0.8973,-1.1221,-1.7237,-6.1459,1.7925,
4.565689,-0.2140,0.6549,-0.5544,-5.0981,-2.5256,-2.9901,-1.7237,-6.1459,1.7925,
4.616350,-0.1482,0.6600,-1.1012,-5.0981,-2.5256,-2.9901,-1.7237,-6.1459,1.7925,
4.620468,-0.1482,0.6600,-1.1012,-5.0981,-2.5256,-2.9901,-1.9652,-7.6719,2.0273,
4.623561,-0.1482,0.6600,-1.1012,-4.2744,-2.3804,-7.9085,-1.9652,-7.6719,2.0273,
4.673530,-0.2609,0.6790,-0.8200,-4.2744,-2.3804,-7.9085,-1.9652,-7.6719,2.0273,
4.675757,-0.2609,0.6790,-0.8200,-4.2744,-2.3804,-7.9085,-1.9558,-6.2567,0.8100,
4.676726,-0.2609,0.6790,-0.8200,-4.6694,-2.3582,-5.1547,-1.9558,-6.2567,0.8100,
4.731239,-0.2875,0.7804,-0.7091,-4.6694,-2.3582,-5.1547,-1.9558,-6.2567,0.8100,
4.732283,-0.2875,0.7804,-0.7091,-4.6694,-2.3582,-5.1547,-1.3240,-6.1696,-0.4612,
4.732752,-0.2875,0.7804,-0.7091,-3.6081,-1.5895,-4.1506,-1.3240,-6.1696,-0.4612,
4.792373,0.2013,0.9221,-0.5302,-3.6081,-1.5895,-4.1506,-1.3240,-6.1696,-0.4612,
4.794669,0.2013,0.9221,-0.5302,-3.6081,-1.5895,-4.1506,-1.3924,-4.9395,-1.1201,
4.795517,0.2013,0.9221,-0.5302,2.4694,-0.3982,-3.0609,-1.3924,-4.9395,-1.1201,
4.849980,0.1080,0.9705,-0.2433,2.4694,-0.3982,-3.0609,-1.3924,-4.9395,-1.1201,
4.854605,0.1080,0.9705,-0.2433,2.4694,-0.3982,-3.0609,-1.4704,-3.6220,-1.4241,
4.857201,0.1080,0.9705,-0.2433,2.6496,0.0267,-1.2608,-1.4704,-3.6220,-1.4241,
4.908070,0.2436,0.9452,-0.1765,2.6496,0.0267,-1.2608,-1.4704,-3.6220,-1.4241,
4.911874,0.2436,0.9452,-0.1765,2.6496,0.0267,-1.2608,-0.8501,-3.9144,-0.5314,
4.914535,0.2436,0.9452,-0.1765,4.3471,-0.1973,-1.4788,-0.8501,-3.9144,-0.5314,
4.966047,0.2436,0.9452,-0.1765,6.7411,-0.8513,-3.6449,-0.8501,-3.9144,-0.5314,
4.968223,0.5316,0.8834,-0.3782,6.7411,-0.8513,-3.6449,-0.8501,-3.9144,-0.5314,
4.969260,0.5316,0.8834,-0.3782,6.7411,-0.8513,-3.6449,0.1643,-3.1484,0.5918,
5.024587,-0.1008,1.5615,0.3706,6.7411,-0.8513,-3.6449,0.1643,-3.1484,0.5918,
5.027378,-0.1008,1.5615,0.3706,6.7411,-0.8513,-3.6449,-0.1472,1.0147,0.6382,
5.030313,-0.1008,1.5615,0.3706,0.1822,5.6479,3.6227,-0.1472,1.0147,0.6382,
5.087350,-0.3811,0.8798,-0.0696,0.1822,5.6479,3.6227,-0.1472,1.0147,0.6382,
5.091508,-0.3811,0.8798,-0.0696,0.1822,5.6479,3.6227,0.3459,0.2853,1.2818,
5.093830,-0.3811,0.8798,-0.0696,-3.2352,-1.0731,-0.4706,0.3459,0.2853,1.2818,
5.141302,-0.3811,0.8798,-0.0696,2.5000,0.2550,0.6051,0.3459,0.2853,1.2818,
5.144681,0.2693,1.0166,0.0273,2.5000,0.2550,0.6051,0.3459,0.2853,1.2818,
5.146693,0.2693,1.0166,0.0273,2.5000,0.2550,0.6051,0.2482,-0.5416,1.0717,
5.199696,0.0614,1.0411,-0.0273,2.5000,0.2550,0.6051,0.2482,-0.5416,1.0717,
5.202862,0.0614,1.0411,-0.0273,0.0819,0.5010,0.1115,0.2482,-0.5416,1.0717,
5.205054,0.0614,1.0411,-0.0273,0.0819,0.5010,0.1115,0.0684,-0.2227,0.6793,
5.258192,0.0614,1.0411,-0.0273,0.0254,-0.0224,0.6529,0.0684,-0.2227,0.6793,
5.264376,0.0806,0.9859,0.0250,0.0254,-0.0224,0.6529,0.0684,-0.2227,0.6793,
5.269219,0.0806,0.9859,0.0250,0.0254,-0.0224,0.6529,0.1069,0.5032,0.4095,
5.316606,-0.1991,1.0638,0.0132,0.0254,-0.0224,0.6529,0.1069,0.5032,0.4095,
5.320064,-0.1991,1.0638,0.0132,0.0254,-0.0224,0.6529,0.3480,-0.3873,0.5618,
5.322056,-0.1991,1.0638,0.0132,-2.9693,0.7692,0.7427,0.3480,-0.3873,0.5618,
5.375265,0.0938,0.9998,-0.0259,-2.9693,0.7692,0.7427,0.3480,-0.3873,0.5618,
5.378284,0.0938,0.9998,-0.0259,-2.9693,0.7692,0.7427,0.5508,-0.5683,0.7227,
5.379766,0.0938,0.9998,-0.0259,-0.4709,0.2141,0.6972,0.5508,-0.5683,0.7227,
5.431187,0.1506,0.9763,-0.0147,-0.4709,0.2141,0.6972,0.5508,-0.5683,0.7227,
5.432224,0.1506,0.9763,-0.0147,-0.4709,0.2141,0.6972,0.7324,-0.9597,0.9487,
5.433903,0.1506,0.9763,-0.0147,-0.3664,0.1232,1.2825,0.7324,-0.9597,0.9487,
5.490081,0.1171,1.0048,-0.0406,-0.3664,0.1232,1.2825,0.7324,-0.9597,0.9487,
5.491845,0.1171,1.0048,-0.0406,-0.3664,0.1232,1.2825,0.8688,-0.8039,0.9281,
5.494232,0.1171,1.0048,-0.0406,-1.1029,0.5906,1.5720,0.8688,-0.8039,0.9281,
5.548365,0.1395,1.0041,-0.1786,-1.1029,0.5906,1.5720,0.8688,-0.8039,0.9281,
5.550753,0.1395,1.0041,-0.1786,-1.1029,0.5906,1.5720,1.0938,-0.5907,1.1810,
5.551696,0.1395,1.0041,-0.1786,-1.4085,0.8897,0.8724,1.0938,-0.5907,1.1810,
5.607764,-0.0601,1.1923,-0.1602,-1.4085,0.8897,0.8724,1.0938,-0.5907,1.1810,
5.610917,-0.0601,1.1923,-0.1602,-1.4085,0.8897,0.8724,1.4744,-0.4830,1.4751,
5.613225,-0.0601,1.1923,-0.1602,-3.9613,3.2088,1.8558,1.4744,-0.4830,1.4751,
5.666522,-0.9577,1.9640,-0.0026,-3.9613,3.2088,1.8558,1.4744,-0.4830,1.4751,
5.670418,-0.9577,1.9640,-0.0026,-3.9613,3.2088,1.8558,2.0796,-0.5714,2.1806,
5.672452,-0.9577,1.9640,-0.0026,-13.4162,11.5458,4.4238,2.0796,-0.5714,2.1806,
5.723426,0.1642,1.6061,-0.1590,-13.4162,11.5458,4.4238,2.0796,-0.5714,2.1806,
5.725407,0.1642,1.6061,-0.1590,-13.4162,11.5458,4.4238,2.4938,-1.6909,3.4622,
5.726406,0.1642,1.6061,-0.1590,-3.2421,9.5417,4.2722,2.4938,-1.6909,3.4622,
5.782655,1.6940,0.9339,-0.6112,-3.2421,9.5417,4.2722,2.4938,-1.6909,3.4622,
5.786382,1.6940,0.9339,-0.6112,-3.2421,9.5417,4.2722,1.8025,1.6101,2.0851,
5.788459,1.6940,0.9339,-0.6112,10.3331,4.1636,-0.1029,1.8025,1.6101,2.0851,
5.841542,-0.0352,0.0278,0.0575,10.3331,4.1636,-0.1029,1.8025,1.6101,2.0851,
5.845592,-0.0352,0.0278,0.0575,10.3331,4.1636,-0.1029,-0.0705,0.9463,-1.4471,
5.849478,-0.0352,0.0278,0.0575,-6.3815,-5.1793,5.9743,-0.0705,0.9463,-1.4471,
5.900611,-0.0352,0.0278,0.0575,0.7614,-4.9002,1.9350,-0.0705,0.9463,-1.4471,
5.906573,0.5856,0.1497,-0.3505,0.7614,-4.9002,1.9350,-0.0705,0.9463,-1.4471,
5.909135,0.5856,0.1497,-0.3505,0.7614,-4.9002,1.9350,-0.9357,-1.0138,-2.1732,
5.957495,0.4480,0.1085,-0.3039,0.7614,-4.9002,1.9350,-0.9357,-1.0138,-2.1732,
5.961014,0.4480,0.1085,-0.3039,0.7614,-4.9002,1.9350,-2.5944,0.9540,-3.5512,
5.963673,0.4480,0.1085,-0.3039,0.6391,-6.8101,1.0461,-2.5944,0.9540,-3.5512,
6.016082,0.1543,0.3577,-0.1559,0.6391,-6.8101,1.0461,-2.5944,0.9540,-3.5512,
6.019512,0.1543,0.3577,-0.1559,0.6391,-6.8101,1.0461,-3.1364,1.8304,-4.4259,
6.021811,0.1543,0.3577,-0.1559,-0.3414,-5.5739,0.6165,-3.1364,1.8304,-4.4259,
6.075423,0.0853,1.1453,-0.5380,-0.3414,-5.5739,0.6165,-3.1364,1.8304,-4.4259,
6.080830,0.0853,1.1453,-0.5380,-0.3414,-5.5739,0.6165,-3.2653,-1.4938,-4.6361,
6.083654,0.0853,1.1453,-0.5380,1.5704,1.7211,-4.8223,-3.2653,-1.4938,-4.6361,
6.131393,1.1713,1.5061,-0.8663,1.5704,1.7211,-4.8223,-3.2653,-1.4938,-4.6361,
6.133824,1.1713,1.5061,-0.8663,1.5704,1.7211,-4.8223,-2.9819,-1.2993,-3.1726,
6.136265,1.1713,1.5061,-0.8663,13.6852,5.5334,-9.6301,-2.9819,-1.2993,-3.1726,
6.191128,0.4454,1.0431,-0.3607,13.6852,5.5334,-9.6301,-2.9819,-1.2993,-3.1726,
6.195953,0.4454,1.0431,-0.3607,13.6852,5.5334,-9.6301,-0.6681,1.9082,-0.6227,
6.198524,0.4454,1.0431,-0.3607,6.9339,1.1140,-4.6630,-0.6681,1.9082,-0.6227,
6.249212,-1.0740,1.6976,0.5731,6.9339,1.1140,-4.6630,-0.6681,1.9082,-0.6227,
6.252885,-1.0740,1.6976,0.5731,6.9339,1.1140,-4.6630,0.2840,1.2912,0.7265,
6.256145,-1.0740,1.6976,0.5731,-8.1308,7.2870,4.7479,0.2840,1.2912,0.7265,
6.306705,0.2748,0.8858,-0.1559,-8.1308,7.2870,4.7479,0.2840,1.2912,0.7265,
6.309408,0.2748,0.8858,-0.1559,-8.1308,7.2870,4.7479,0.9684,0.4348,2.2682,
6.310368,0.2748,0.8858,-0.1559,3.7840,-0.9203,-1.7782,0.9684,0.4348,2.2682,
6.365800,0.0515,0.9946,-0.0182,3.7840,-0.9203,-1.7782,0.9684,0.4348,2.2682,
6.368983,0.0515,0.9946,-0.0182,3.7840,-0.9203,-1.7782,0.8971,-0.1242,1.3792,
6.371374,0.0515,0.9946,-0.0182,0.8087,0.0881,0.0718,0.8971,-0.1242,1.3792,
6.424375,0.0425,1.0215,-0.0883,0.8087,0.0881,0.0718,0.8971,-0.1242,1.3792,
6.427850,0.0425,1.0215,-0.0883,0.8087,0.0881,0.0718,0.6829,0.1847,0.9972,
6.429781,0.0425,1.0215,-0.0883,0.1504,0.3616,-0.2271,0.6829,0.1847,0.9972,
6.482741,0.0628,1.0017,-0.0947,0.1504,0.3616,-0.2271,0.6829,0.1847,0.9972,
6.486377,0.0628,1.0017,-0.0947,0.1504,0.3616,-0.2271,0.6068,0.1263,0.8235,
6.488327,0.0628,1.0017,-0.0947,-0.1164,0.2167,0.0461,0.6068,0.1263,0.8235,
6.541449,0.0650,1.0161,-0.0793,-0.1164,0.2167,0.0461,0.6068,0.1263,0.8235,
6.545174,0.0650,1.0161,-0.0793,-0.4960,0.4261,0.4956,0.6068,0.1263,0.8235,
6.549671,0.0650,1.0161,-0.0793,-0.4960,0.4261,0.4956,0.5298,-0.1869,0.7571,
6.599762,0.0492,0.9970,-0.0366,-0.4960,0.4261,0.4956,0.5298,-0.1869,0.7571,
6.604055,0.0492,0.9970,-0.0366,-0.4960,0.4261,0.4956,0.6933,-0.2350,0.7880,
6.606442,0.0492,0.9970,-0.0366,-1.0490,0.3547,1.2932,0.6933,-0.2350,0.7880,
6.657964,0.1156,0.9828,-0.1498,-1.0490,0.3547,1.2932,0.6933,-0.2350,0.7880,
6.661047,0.1156,0.9828,-0.1498,-1.0490,0.3547,1.2932,0.8460,-0.3378,0.9173,
6.662682,0.1156,0.9828,-0.1498,-0.8455,0.3973,0.6676,0.8460,-0.3378,0.9173,
6.714658,0.1508,0.9619,-0.2122,-0.8455,0.3973,0.6676,0.8460,-0.3378,0.9173,
6.716018,0.1508,0.9619,-0.2122,-0.8455,0.3973,0.6676,0.9560,-0.3040,1.0503,
6.716684,0.1508,0.9619,-0.2122,-0.9983,0.4560,0.5937,0.9560,-0.3040,1.0503,
6.774883,0.1209,1.1173,-0.1219,-0.9983,0.4560,0.5937,0.9560,-0.3040,1.0503,
6.779257,0.1209,1.1173,-0.1219,-0.9983,0.4560,0.5937,1.3437,0.0055,1.1220,
6.782249,0.1209,1.1173,-0.1219,-1.8360,2.3563,2.1274,1.3437,0.0055,1.1220,
6.833114,-0.0601,1.3716,-0.1287,-1.8360,2.3563,2.1274,1.3437,0.0055,1.1220,
6.838312,-0.0601,1.3716,-0.1287,-1.8360,2.3563,2.1274,1.7300,-0.4188,1.3313,
6.840334,-0.0601,1.3716,-0.1287,-4.0912,5.3952,2.9295,1.7300,-0.4188,1.3313,
6.891859,-0.8676,1.7274,0.1336,-4.0912,5.3952,2.9295,1.7300,-0.4188,1.3313,
6.896977,-0.8676,1.7274,0.1336,-4.0912,5.3952,2.9295,2.1887,-1.2250,1.7870,
6.899080,-0.8676,1.7274,0.1336,-12.2380,9.7218,6.6222,2.1887,-1.2250,1.7870,
6.949084,0.8767,1.2730,-0.4406,-12.2380,9.7218,6.6222,2.1887,-1.2250,1.7870,
6.952502,0.8767,1.2730,-0.4406,-12.2380,9.7218,6.6222,2.2779,-1.8839,2.8640,
6.956461,0.8767,1.2730,-0.4406,4.3597,6.6142,2.2593,2.2779,-1.8839,2.8640,
7.008461,0.5058,0.6247,-0.6518,4.3597,6.6142,2.2593,2.2779,-1.8839,2.8640,
7.011686,0.5058,0.6247,-0.6518,4.3597,6.6142,2.2593,0.7192,0.4024,0.7070,
7.014164,0.5058,0.6247,-0.6518,0.3268,0.7087,0.3128,0.7192,0.4024,0.7070,
7.066479,0.1461,0.1903,-0.0750,0.3268,0.7087,0.3128,0.7192,0.4024,0.7070,
7.070439,0.1461,0.1903,-0.0750,0.3268,0.7087,0.3128,-1.6777,1.0316,-1.1060,
7.074102,0.1461,0.1903,-0.0750,-3.1457,-4.3884,5.0238,-1.6777,1.0316,-1.1060,
7.127802,0.1485,0.3329,-0.2653,-3.1457,-4.3884,5.0238,-1.6777,1.0316,-1.1060,
7.131651,0.1485,0.3329,-0.2653,-3.1457,-4.3884,5.0238,-2.9314,-0.1134,-2.6188,
7.135452,0.1485,0.3329,-0.2653,-1.9838,-4.4215,1.9455,-2.9314,-0.1134,-2.6188,
7.182714,0.1837,0.6777,-0.2662,-1.9838,-4.4215,1.9455,-2.9314,-0.1134,-2.6188,
7.189542,0.1837,0.6777,-0.2662,-1.9838,-4.4215,1.9455,-4.3746,-0.8904,-3.7356,
7.192060,0.1837,0.6777,-0.2662,0.3821,-2.4423,-0.1041,-4.3746,-0.8904,-3.7356,
7.240957,0.3825,1.5540,-0.6951,0.3821,-2.4423,-0.1041,-4.3746,-0.8904,-3.7356,
7.245045,0.3825,1.5540,-0.6951,0.3821,-2.4423,-0.1041,-5.0694,-0.9548,-4.0560,
7.247846,0.3825,1.5540,-0.6951,4.5417,5.6474,-6.9542,-5.0694,-0.9548,-4.0560,
7.298775,0.8586,1.2858,-0.7499,4.5417,5.6474,-6.9542,-5.0694,-0.9548,-4.0560,
7.301351,0.8586,1.2858,-0.7499,4.5417,5.6474,-6.9542,-4.0548,0.8756,-3.1417,
7.302567,0.8586,1.2858,-0.7499,10.8217,3.5580,-9.4381,-4.0548,0.8756,-3.1417,
7.357797,0.5513,0.8305,-0.6854,10.8217,3.5580,-9.4381,-4.0548,0.8756,-3.1417,
7.361016,0.5513,0.8305,-0.6854,10.8217,3.5580,-9.4381,-0.6974,2.3861,0.0283,
7.363453,0.5513,0.8305,-0.6854,7.9749,-0.8073,-8.6484,-0.6974,2.3861,0.0283,
7.416047,-1.2708,1.5247,0.3763,7.9749,-0.8073,-8.6484,-0.6974,2.3861,0.0283,
7.420258,-1.2708,1.5247,0.3763,7.9749,-0.8073,-8.6484,0.2203,3.4136,0.3134,
7.422625,-1.2708,1.5247,0.3763,-9.5560,5.8299,2.3632,0.2203,3.4136,0.3134,
7.473705,0.2490,1.0526,-0.3787,-9.5560,5.8299,2.3632,0.2203,3.4136,0.3134,
7.475245,0.2490,1.0526,-0.3787,4.0346,0.8121,-4.2468,0.2203,3.4136,0.3134,
7.476067,0.2490,1.0526,-0.3787,4.0346,0.8121,-4.2468,1.1845,0.3920,2.3317,
7.531818,0.1340,1.0136,-0.0533,4.0346,0.8121,-4.2468,1.1845,0.3920,2.3317,
7.534529,0.1340,1.0136,-0.0533,4.0346,0.8121,-4.2468,0.5229,-0.1525,1.2271,
7.536608,0.1340,1.0136,-0.0533,2.1844,0.3230,-0.7623,0.5229,-0.1525,1.2271,
7.590284,-0.1218,1.0183,0.0659,2.1844,0.3230,-0.7623,0.5229,-0.1525,1.2271,
7.592677,-0.1218,1.0183,0.0659,2.1844,0.3230,-0.7623,0.3054,0.1126,0.7139,
7.593893,-0.1218,1.0183,0.0659,-0.7113,0.3321,0.5717,0.3054,0.1126,0.7139,
7.648367,-0.0034,0.9799,0.0905,-0.7113,0.3321,0.5717,0.3054,0.1126,0.7139,
7.650360,-0.0034,0.9799,0.0905,-0.7113,0.3321,0.5717,0.4327,0.0660,0.6868,
7.651194,-0.0034,0.9799,0.0905,0.0614,-0.0530,1.0397,0.4327,0.0660,0.6868,
7.707364,-0.0321,0.9865,0.0486,0.0614,-0.0530,1.0397,0.4327,0.0660,0.6868,
7.710075,-0.0321,0.9865,0.0486,0.0614,-0.0530,1.0397,0.5129,-0.2124,0.6630,
7.711225,-0.0321,0.9865,0.0486,-0.5788,0.0236,0.9040,0.5129,-0.2124,0.6630,
7.764708,0.0144,0.9652,0.0544,-0.5788,0.0236,0.9040,0.5129,-0.2124,0.6630,
7.767039,0.0144,0.9652,0.0544,-0.5788,0.0236,0.9040,0.7595,-0.2105,0.7257,
7.767857,0.0144,0.9652,0.0544,-0.5144,-0.1349,1.3703,0.7595,-0.2105,0.7257,
7.823623,0.0307,0.9812,-0.0978,-0.5144,-0.1349,1.3703,0.7595,-0.2105,0.7257,
7.825652,0.0307,0.9812,-0.0978,-0.5144,-0.1349,1.3703,0.8988,-0.3838,0.8471,
7.827202,0.0307,0.9812,-0.0978,-0.7885,0.1212,0.3920,0.8988,-0.3838,0.8471,
7.881421,0.1575,0.9780,-0.1515,-0.7885,0.1212,0.3920,0.8988,-0.3838,0.8471,
7.883159,0.1575,0.9780,-0.1515,-0.7885,0.1212,0.3920,0.8322,-0.5182,0.8695,
7.883928,0.1575,0.9780,-0.1515,0.0244,0.2300,0.3568,0.8322,-0.5182,0.8695,
7.939546,0.0592,1.0595,-0.0138,0.0244,0.2300,0.3568,0.8322,-0.5182,0.8695,
7.940957,0.0592,1.0595,-0.0138,-1.3213,1.2192,2.2582,0.8322,-0.5182,0.8695,
7.941713,0.0592,1.0595,-0.0138,-1.3213,1.2192,2.2582,0.9768,-0.6172,0.8921,
7.997590,-0.2246,1.5452,0.1152,-1.3213,1.2192,2.2582,0.9768,-0.6172,0.8921,
7.998733,-0.2246,1.5452,0.1152,-1.3213,1.2192,2.2582,1.4677,-1.3056,1.5598,
7.999268,-0.2246,1.5452,0.1152,-4.6189,6.3170,4.3824,1.4677,-1.3056,1.5598,
8.056182,0.0095,1.4068,-0.4419,-4.6189,6.3170,4.3824,1.4677,-1.3056,1.5598,
8.057856,0.0095,1.4068,-0.4419,-4.6189,6.3170,4.3824,1.1926,-2.7719,2.7807,
8.058791,0.0095,1.4068,-0.4419,-3.0310,5.5850,-0.0274,1.1926,-2.7719,2.7807,
8.114980,0.6304,0.7020,-0.4972,-3.0310,5.5850,-0.0274,1.1926,-2.7719,2.7807,
8.116543,0.6304,0.7020,-0.4972,-3.0310,5.5850,-0.0274,-0.6229,-3.7165,2.9442,
8.117735,0.6304,0.7020,-0.4972,2.6336,-0.9028,-0.1267,-0.6229,-3.7165,2.9442,
8.172899,0.0020,0.2813,-0.7540,2.6336,-0.9028,-0.1267,-0.6229,-3.7165,2.9442,
8.175143,0.0020,0.2813,-0.7540,2.6336,-0.9028,-0.1267,-2.4808,-3.0224,2.3331,
8.175946,0.0020,0.2813,-0.7540,-3.7156,-5.0994,-3.0777,-2.4808,-3.0224,2.3331,
8.232574,-0.3400,0.3461,-0.7211,-3.7156,-5.0994,-3.0777,-2.4808,-3.0224,2.3331,
8.235828,-0.3400,0.3461,-0.7211,-3.7156,-5.0994,-3.0777,-3.2955,-3.4628,1.5687,
8.238425,-0.3400,0.3461,-0.7211,-6.8891,-4.7963,-3.4918,-3.2955,-3.4628,1.5687,
8.290053,-0.4327,0.5331,-1.0203,-6.8891,-4.7963,-3.4918,-3.2955,-3.4628,1.5687,
8.292242,-0.4327,0.5331,-1.0203,-6.8891,-4.7963,-3.4918,-2.7019,-5.6157,0.8076,
8.294134,-0.4327,0.5331,-1.0203,-6.9591,-3.2906,-6.5731,-2.7019,-5.6157,0.8076,
8.350387,-0.4327,0.5331,-1.0203,-1.6965,-1.2016,-5.7744,-2.7019,-5.6157,0.8076,
8.354334,0.0007,0.7919,-0.8867,-1.6965,-1.2016,-5.7744,-2.7019,-5.6157,0.8076,
8.355882,0.0007,0.7919,-0.8867,-1.6965,-1.2016,-5.7744,-2.4125,-4.7279,-0.2231,
8.407405,-0.1568,1.0689,-0.5825,-1.6965,-1.2016,-5.7744,-2.4125,-4.7279,-0.2231,
8.410636,-0.1568,1.0689,-0.5825,-1.6965,-1.2016,-5.7744,-2.0147,-3.6978,-1.3919,
8.413132,-0.1568,1.0689,-0.5825,-1.9138,1.1162,-3.5692,-2.0147,-3.6978,-1.3919,
8.465528,0.0069,1.1471,-0.4353,-1.9138,1.1162,-3.5692,-2.0147,-3.6978,-1.3919,
8.468431,0.0069,1.1471,-0.4353,-1.9138,1.1162,-3.5692,-1.4048,-4.0280,-1.2789,
8.469867,0.0069,1.1471,-0.4353,0.7847,1.7237,-2.8976,-1.4048,-4.0280,-1.2789,
8.524700,0.0543,1.0415,-0.2511,0.7847,1.7237,-2.8976,-1.4048,-4.0280,-1.2789,
8.528427,0.0543,1.0415,-0.2511,0.7847,1.7237,-2.8976,-0.9566,-3.5286,-1.0393,
8.530851,0.0543,1.0415,-0.2511,1.9949,0.6891,-1.8242,-0.9566,-3.5286,-1.0393,
8.582559,0.2713,0.9087,-0.0990,1.9949,0.6891,-1.8242,-0.9566,-3.5286,-1.0393,
8.587449,0.2713,0.9087,-0.0990,1.9949,0.6891,-1.8242,-0.5107,-3.5373,-0.4443,
8.590618,0.2713,0.9087,-0.0990,4.3582,-0.5714,-0.9430,-0.5107,-3.5373,-0.4443,
8.641626,0.7383,1.0515,-0.2592,4.3582,-0.5714,-0.9430,-0.5107,-3.5373,-0.4443,
8.646810,0.7383,1.0515,-0.2592,4.3582,-0.5714,-0.9430,-0.0589,-2.6115,0.7241,
8.649205,0.7383,1.0515,-0.2592,8.3702,0.7518,-2.7361,-0.0589,-2.6115,0.7241,
8.699152,-0.2628,1.1862,0.5075,8.3702,0.7518,-2.7361,-0.0589,-2.6115,0.7241,
8.703538,-0.2628,1.1862,0.5075,8.3702,0.7518,-2.7361,-0.1825,0.8732,0.5661,
8.706083,-0.2628,1.1862,0.5075,-1.7145,2.0088,4.6412,-0.1825,0.8732,0.5661,
8.757176,-0.1476,0.9446,-0.1925,-1.7145,2.0088,4.6412,-0.1825,0.8732,0.5661,
8.760149,-0.1476,0.9446,-0.1925,-1.7145,2.0088,4.6412,0.2977,0.1910,1.0485,
8.762349,-0.1476,0.9446,-0.1925,-1.1522,-0.3916,-2.0083,0.2977,0.1910,1.0485,
8.815804,-0.0046,1.0812,0.1445,-1.1522,-0.3916,-2.0083,0.2977,0.1910,1.0485,
8.818617,-0.0046,1.0812,0.1445,-1.1522,-0.3916,-2.0083,0.2071,0.0414,1.1684,
8.819888,-0.0046,1.0812,0.1445,-0.4007,0.9333,1.3873,0.2071,0.0414,1.1684,
8.874227,0.1099,1.0054,-0.0181,-0.4007,0.9333,1.3873,0.2071,0.0414,1.1684,
8.877562,0.1099,1.0054,-0.0181,-0.4007,0.9333,1.3873,0.4903,-0.3704,1.1977,
8.879555,0.1099,1.0054,-0.0181,0.0492,0.2376,0.0849,0.4903,-0.3704,1.1977,
8.932466,0.2530,0.9804,-0.0787,0.0492,0.2376,0.0849,0.4903,-0.3704,1.1977,
8.936110,0.2530,0.9804,-0.0787,0.0492,0.2376,0.0849,0.4437,-0.1918,0.8929,
8.937940,0.2530,0.9804,-0.0787,0.9415,0.0681,-0.2433,0.4437,-0.1918,0.8929,
8.991638,0.1650,1.0106,-0.0724,0.9415,0.0681,-0.2433,0.4437,-0.1918,0.8929,
8.996468,0.1650,1.0106,-0.0724,0.9415,0.0681,-0.2433,0.3696,-0.1635,0.6653,
8.998453,0.1650,1.0106,-0.0724,-0.2795,0.4372,0.0387,0.3696,-0.1635,0.6653,
9.048986,0.2326,0.9869,-0.0736,-0.2795,0.4372,0.0387,0.3696,-0.1635,0.6653,
9.052353,0.2326,0.9869,-0.0736,-0.2795,0.4372,0.0387,0.3412,-0.3492,0.6107,
9.054387,0.2326,0.9869,-0.0736,0.0644,0.2905,0.2530,0.3412,-0.3492,0.6107,
9.107521,0.1925,1.0025,-0.0768,0.0644,0.2905,0.2530,0.3412,-0.3492,0.6107,
9.110685,0.1925,1.0025,-0.0768,0.0644,0.2905,0.2530,0.3665,-0.4325,0.6205,
9.111607,0.1925,1.0025,-0.0768,-0.6278,0.5438,0.4724,0.3665,-0.4325,0.6205,
9.165766,0.2355,1.0044,-0.1335,-0.6278,0.5438,0.4724,0.3665,-0.4325,0.6205,
9.168676,0.2355,1.0044,-0.1335,-0.6278,0.5438,0.4724,0.3755,-0.5823,0.7327,
9.170812,0.2355,1.0044,-0.1335,-0.5435,0.6953,0.2069,0.3755,-0.5823,0.7327,
9.224355,0.2092,0.9850,-0.1183,-0.5435,0.6953,0.2069,0.3755,-0.5823,0.7327,
9.227905,0.2092,0.9850,-0.1183,-0.5435,0.6953,0.2069,0.3472,-0.6640,0.8333,
9.229924,0.2092,0.9850,-0.1183,-1.1579,0.6747,0.6463,0.3472,-0.6640,0.8333,
9.282433,0.1135,1.0505,-0.1182,-1.1579,0.6747,0.6463,0.3472,-0.6640,0.8333,
9.286310,0.1135,1.0505,-0.1182,-1.1579,0.6747,0.6463,0.5899,-0.6564,1.1354,
9.288646,0.1135,1.0505,-0.1182,-2.5599,1.5890,1.0652,0.5899,-0.6564,1.1354,
9.345541,0.0002,1.2474,-0.1147,-2.5599,1.5890,1.0652,0.5899,-0.6564,1.1354,
9.348791,0.0002,1.2474,-0.1147,-2.5599,1.5890,1.0652,1.0918,-0.7727,1.6027,
9.350913,0.0002,1.2474,-0.1147,-4.2715,3.9916,1.7871,1.0918,-0.7727,1.6027,
9.399412,-0.6742,1.6455,0.0585,-4.2715,3.9916,1.7871,1.0918,-0.7727,1.6027,
9.402814,-0.6742,1.6455,0.0585,-4.2715,3.9916,1.7871,1.3604,-1.5927,1.8353,
9.405402,-0.6742,1.6455,0.0585,-11.2125,8.5083,4.4578,1.3604,-1.5927,1.8353,
9.456755,0.5502,1.2702,-0.4964,-11.2125,8.5083,4.4578,1.3604,-1.5927,1.8353,
9.459369,0.5502,1.2702,-0.4964,-11.2125,8.5083,4.4578,1.5644,-2.9470,3.1686,
9.460675,0.5502,1.2702,-0.4964,0.2931,6.0522,0.4909,1.5644,-2.9470,3.1686,
9.515710,0.5517,0.8051,-0.6954,0.2931,6.0522,0.4909,1.5644,-2.9470,3.1686,
9.518892,0.5517,0.8051,-0.6954,0.2931,6.0522,0.4909,0.7760,-1.3268,1.7589,
9.521067,0.5517,0.8051,-0.6954,0.1307,2.2458,-0.7731,0.7760,-1.3268,1.7589,
9.575890,-0.0260,0.2482,-0.2206,0.1307,2.2458,-0.7731,0.7760,-1.3268,1.7589,
9.578953,-0.0260,0.2482,-0.2206,0.1307,2.2458,-0.7731,-1.8186,-0.0387,-0.2339,
9.581790,-0.0260,0.2482,-0.2206,-5.3365,-3.8305,3.2061,-1.8186,-0.0387,-0.2339,
9.631280,-0.0668,0.4498,-0.4467,-5.3365,-3.8305,3.2061,-1.8186,-0.0387,-0.2339,
9.633482,-0.0668,0.4498,-0.4467,-5.3365,-3.8305,3.2061,-2.5439,-0.5215,-2.0779,
9.634605,-0.0668,0.4498,-0.4467,-4.6651,-3.0920,0.1046,-2.5439,-0.5215,-2.0779,
9.689993,0.0010,0.6484,-0.3624,-4.6651,-3.0920,0.1046,-2.5439,-0.5215,-2.0779,
9.693718,0.0010,0.6484,-0.3624,-4.6651,-3.0920,0.1046,-3.6591,-1.9224,-3.5587,
9.695122,0.0010,0.6484,-0.3624,-1.8309,-2.5273,-0.4991,-3.6591,-1.9224,-3.5587,
9.751079,0.1250,1.1697,-0.6026,-1.8309,-2.5273,-0.4991,-3.6591,-1.9224,-3.5587,
9.753838,0.1250,1.1697,-0.6026,1.7604,1.9045,-5.0990,-3.6591,-1.9224,-3.5587,
9.754769,0.1250,1.1697,-0.6026,1.7604,1.9045,-5.0990,-4.4490,-2.2360,-3.9716,
9.811065,0.6787,1.4712,-0.7871,1.7604,1.9045,-5.0990,-4.4490,-2.2360,-3.9716,
9.812666,0.6787,1.4712,-0.7871,1.7604,1.9045,-5.0990,-4.5974,0.3490,-3.8031,
9.813683,0.6787,1.4712,-0.7871,9.1607,5.2484,-9.2164,-4.5974,0.3490,-3.8031,
9.864824,0.7166,0.9529,-0.4668,9.1607,5.2484,-9.2164,-4.5974,0.3490,-3.8031,
9.866951,0.7166,0.9529,-0.4668,9.1607,5.2484,-9.2164,-1.7962,2.1975,-1.4135,
9.868011,0.7166,0.9529,-0.4668,10.3486,0.5976,-6.5005,-1.7962,2.1975,-1.4135,
9.924716,-0.3077,1.3103,-0.0552,10.3486,0.5976,-6.5005,-1.7962,2.1975,-1.4135,
9.928728,-0.3077,1.3103,-0.0552,10.3486,0.5976,-6.5005,0.2661,2.7094,1.1597,
9.930880,-0.3077,1.3103,-0.0552,-0.0226,3.7985,-1.7810,0.2661,2.7094,1.1597,
9.981780,-0.3718,1.3449,-0.4340,-0.0226,3.7985,-1.7810,0.2661,2.7094,1.1597,
9.985073,-0.3718,1.3449,-0.4340,-0.0226,3.7985,-1.7810,1.3763,0.8562,1.9426,
9.986733,-0.3718,1.3449,-0.4340,-1.6193,3.7290,-4.5392,1.3763,0.8562,1.9426,
10.040903,0.2300,0.8417,0.3654,-1.6193,3.7290,-4.5392,1.3763,0.8562,1.9426,
10.044243,0.2300,0.8417,0.3654,-1.6193,3.7290,-4.5392,0.4337,0.2631,1.6461,
10.046315,0.2300,0.8417,0.3654,3.3089,-1.3345,3.5026,0.4337,0.2631,1.6461,
10.098335,-0.0829,1.0676,-0.2077,3.3089,-1.3345,3.5026,0.4337,0.2631,1.6461,
10.100563,-0.0829,1.0676,-0.2077,3.3089,-1.3345,3.5026,0.7463,-0.2083,0.9835,
10.101326,-0.0829,1.0676,-0.2077,-0.3011,0.8257,-1.6743,0.7463,-0.2083,0.9835,
10.157722,0.0396,0.9830,-0.0850,-0.3011,0.8257,-1.6743,0.7463,-0.2083,0.9835,
10.161392,0.0396,0.9830,-0.0850,-0.3011,0.8257,-1.6743,0.4245,0.1440,0.7711,
10.163616,0.0396,0.9830,-0.0850,0.4536,-0.0042,-0.2274,0.4245,0.1440,0.7711,
10.216347,0.0396,0.9830,-0.0850,-0.8959,0.0810,0.8705,0.4245,0.1440,0.7711,
10.223442,-0.0586,0.9894,0.0033,-0.8959,0.0810,0.8705,0.4245,0.1440,0.7711,
10.225368,-0.0586,0.9894,0.0033,-0.8959,0.0810,0.8705,0.4378,-0.1171,0.7253,
10.274397,0.0431,0.9859,-0.0230,-0.8959,0.0810,0.8705,0.4378,-0.1171,0.7253,
10.277721,0.0431,0.9859,-0.0230,-0.8959,0.0810,0.8705,0.5994,-0.3205,0.8465,
10.279991,0.0431,0.9859,-0.0230,-0.3472,0.1082,0.9427,0.5994,-0.3205,0.8465,
10.333665,0.0567,0.9977,-0.0941,-0.3472,0.1082,0.9427,0.5994,-0.3205,0.8465,
10.336938,0.0567,0.9977,-0.0941,-0.3472,0.1082,0.9427,0.7858,-0.2690,0.9534,
10.339279,0.0567,0.9977,-0.0941,-0.7085,0.3388,0.6850,0.7858,-0.2690,0.9534,
10.389327,0.0265,1.0060,-0.0942,-0.7085,0.3388,0.6850,0.7858,-0.2690,0.9534,
10.390703,0.0265,1.0060,-0.0942,-0.7085,0.3388,0.6850,0.9660,-0.3922,1.1377,
10.391753,0.0265,1.0060,-0.0942,-1.5555,0.6186,1.2257,0.9660,-0.3922,1.1377,
10.448971,0.0945,1.1272,-0.0938,-1.5555,0.6186,1.2257,0.9660,-0.3922,1.1377,
10.452201,0.0945,1.1272,-0.0938,-1.5555,0.6186,1.2257,1.4626,-0.1861,1.4066,
10.454502,0.0945,1.1272,-0.0938,-1.5785,2.1664,1.9902,1.4626,-0.1861,1.4066,
10.509181,0.0945,1.1272,-0.0938,-4.0920,5.3293,2.5691,1.4626,-0.1861,1.4066,
10.512659,-0.1024,1.3937,-0.1384,-4.0920,5.3293,2.5691,1.4626,-0.1861,1.4066,
10.514344,-0.1024,1.3937,-0.1384,-4.0920,5.3293,2.5691,1.9069,-0.6330,1.5628,
10.567305,-0.9137,1.7814,0.0453,-4.0920,5.3293,2.5691,1.9069,-0.6330,1.5628,
10.572841,-0.9137,1.7814,0.0453,-4.0920,5.3293,2.5691,2.4180,-0.8815,1.9023,
10.576232,-0.9137,1.7814,0.0453,-12.4661,9.9839,5.5564,2.4180,-0.8815,1.9023,
10.623761,-0.9137,1.7814,0.0453,4.0104,5.0454,2.1878,2.4180,-0.8815,1.9023,
10.626144,0.8324,1.1414,-0.4266,4.0104,5.0454,2.1878,2.4180,-0.8815,1.9023,
10.627088,0.8324,1.1414,-0.4266,4.0104,5.0454,2.1878,2.3184,-1.6620,2.8666,
10.681515,0.6045,0.5559,-0.6130,4.0104,5.0454,2.1878,2.3184,-1.6620,2.8666,
10.683927,0.6045,0.5559,-0.6130,4.0104,5.0454,2.1878,0.6817,0.2389,0.4769,
10.684789,0.6045,0.5559,-0.6130,1.4918,-0.3121,0.5253,0.6817,0.2389,0.4769,
10.740335,0.2096,0.1568,0.0046,1.4918,-0.3121,0.5253,0.6817,0.2389,0.4769,
10.743764,0.2096,0.1568,0.0046,1.4918,-0.3121,0.5253,-1.8316,1.0228,-1.6491,
10.746311,0.2096,0.1568,0.0046,-2.1013,-5.1996,5.5512,-1.8316,1.0228,-1.6491,
10.798072,0.2220,0.3899,-0.2136,-2.1013,-5.1996,5.5512,-1.8316,1.0228,-1.6491,
10.803556,0.2220,0.3899,-0.2136,-2.1013,-5.1996,5.5512,-2.7620,0.3158,-3.1172,
10.804869,0.2220,0.3899,-0.2136,-0.6991,-4.2762,2.1003,-2.7620,0.3158,-3.1172,
10.857342,0.2521,0.7550,-0.1496,-0.6991,-4.2762,2.1003,-2.7620,0.3158,-3.1172,
10.861122,0.2521,0.7550,-0.1496,-0.6991,-4.2762,2.1003,-3.9998,-0.2610,-4.1508,
10.863594,0.2521,0.7550,-0.1496,1.7326,-1.8545,0.6917,-3.9998,-0.2610,-4.1508,
10.916313,0.3509,1.6398,-0.3925,1.7326,-1.8545,0.6917,-3.9998,-0.2610,-4.1508,
10.920017,0.3509,1.6398,-0.3925,1.7326,-1.8545,0.6917,-4.9485,-0.5990,-4.2928,
10.922453,0.3509,1.6398,-0.3925,4.9998,6.5901,-4.3538,-4.9485,-0.5990,-4.2928,
10.974998,0.3032,1.3693,-0.1798,4.9998,6.5901,-4.3538,-4.9485,-0.5990,-4.2928,
10.979146,0.3032,1.3693,-0.1798,4.9998,6.5901,-4.3538,-4.4441,-0.8717,-2.7664,
10.981958,0.3032,1.3693,-0.1798,5.8178,4.6839,-4.6780,-4.4441,-0.8717,-2.7664,
11.031562,0.4246,0.8074,-0.4661,5.8178,4.6839,-4.6780,-4.4441,-0.8717,-2.7664,
11.035319,0.4246,0.8074,-0.4661,5.8178,4.6839,-4.6780,-1.5653,0.0619,-0.3958,
11.037857,0.4246,0.8074,-0.4661,7.1033,-0.4446,-8.1134,-1.5653,0.0619,-0.3958,
11.090407,0.0964,1.0974,-0.5357,7.1033,-0.4446,-8.1134,-1.5653,0.0619,-0.3958,
11.094645,0.0964,1.0974,-0.5357,7.1033,-0.4446,-8.1134,0.9863,2.9957,1.7508,
11.096754,0.0964,1.0974,-0.5357,3.4962,1.9068,-7.6777,0.9863,2.9957,1.7508,
11.148501,-1.1984,1.6193,0.0968,3.4962,1.9068,-7.6777,0.9863,2.9957,1.7508,
11.151411,-1.1984,1.6193,0.0968,3.4962,1.9068,-7.6777,1.1140,2.9049,0.9754,
11.152502,-1.1984,1.6193,0.0968,-9.2196,6.6447,-0.4730,1.1140,2.9049,0.9754,
11.207100,0.2298,0.7590,0.1093,-9.2196,6.6447,-0.4730,1.1140,2.9049,0.9754,
11.210671,0.2298,0.7590,0.1093,-9.2196,6.6447,-0.4730,1.3296,0.7302,2.2122,
11.212931,0.2298,0.7590,0.1093,3.5536,-2.0803,0.4689,1.3296,0.7302,2.2122,
11.265864,0.1498,1.0874,-0.1874,3.5536,-2.0803,0.4689,1.3296,0.7302,2.2122,
11.269464,0.1498,1.0874,-0.1874,2.0061,1.0322,-2.0015,1.3296,0.7302,2.2122,
11.271507,0.1498,1.0874,-0.1874,2.0061,1.0322,-2.0015,0.7239,-0.0820,1.3069,
11.324637,-0.0496,1.0314,-0.0328,2.0061,1.0322,-2.0015,0.7239,-0.0820,1.3069,
11.327594,-0.0496,1.0314,-0.0328,2.0061,1.0322,-2.0015,0.3355,0.2784,0.8654,
11.328912,-0.0496,1.0314,-0.0328,-0.4274,0.4594,-0.2898,0.3355,0.2784,0.8654,
11.346381,0.0947,0.9840,0.0200,-0.4274,0.4594,-0.2898,0.3355,0.2784,0.8654,
11.364159,0.1506,1.0043,-0.0300,-0.4274,0.4594,-0.2898,0.3355,0.2784,0.8654,
11.380930,0.1506,1.0043,-0.0300,-0.4274,0.4594,-0.2898,0.2392,-0.1729,0.6868,
11.382016,0.1423,1.0096,-0.0762,-0.4274,0.4594,-0.2898,0.2392,-0.1729,0.6868,
11.382823,0.1423,1.0096,-0.0762,0.9250,0.1485,-0.1112,0.2392,-0.1729,0.6868,
11.400569,0.0637,1.0148,-0.0254,0.9250,0.1485,-0.1112,0.2392,-0.1729,0.6868,
11.419756,0.0085,1.0309,0.0337,0.9250,0.1485,-0.1112,0.2392,-0.1729,0.6868,
11.440783,0.0085,1.0309,0.0337,0.9250,0.1485,-0.1112,0.1588,-0.0924,0.4403,
11.443242,0.0386,0.9867,0.0488,0.9250,0.1485,-0.1112,0.1588,-0.0924,0.4403,
11.444010,0.0386,0.9867,0.0488,-0.2221,0.2704,0.4413,0.1588,-0.0924,0.4403,
11.458860,0.0884,0.9569,0.0425,-0.2221,0.2704,0.4413,0.1588,-0.0924,0.4403,
11.477962,0.0427,0.9508,0.0510,-0.2221,0.2704,0.4413,0.1588,-0.0924,0.4403,
11.497612,0.0427,0.9508,0.0510,-0.2221,0.2704,0.4413,0.2543,-0.1678,0.4712,
11.499232,-0.0215,0.9310,0.0972,-0.2221,0.2704,0.4413,0.2543,-0.1678,0.4712,
11.500056,-0.0215,0.9310,0.0972,-0.4792,-0.3320,1.0103,0.2543,-0.1678,0.4712,
11.517056,-0.0391,0.9405,0.1284,-0.4792,-0.3320,1.0103,0.2543,-0.1678,0.4712,
11.536568,-0.0100,0.9642,0.0632,-0.4792,-0.3320,1.0103,0.2543,-0.1678,0.4712,
11.558006,-0.0100,0.9642,0.0632,-0.8920,-0.1438,0.8547,0.2543,-0.1678,0.4712,
11.560794,-0.0100,0.9642,0.0632,-0.8920,-0.1438,0.8547,0.5331,-0.3999,0.7646,
11.562111,0.1546,0.9713,-0.1428,-0.8920,-0.1438,0.8547,0.5331,-0.3999,0.7646,
11.576584,0.2071,0.9584,-0.2178,-0.8920,-0.1438,0.8547,0.5331,-0.3999,0.7646,
11.597570,0.1861,0.9605,-0.1807,-0.8920,-0.1438,0.8547,0.5331,-0.3999,0.7646,
11.615313,0.1861,0.9605,-0.1807,-0.8920,-0.1438,0.8547,0.4496,-0.7536,0.7762,
11.617269,0.2617,0.9637,-0.1624,-0.8920,-0.1438,0.8547,0.4496,-0.7536,0.7762,
11.618157,0.2617,0.9637,-0.1624,0.5022,-0.0345,-0.8104,0.4496,-0.7536,0.7762,
11.634756,0.2703,0.9525,-0.0830,0.5022,-0.0345,-0.8104,0.4496,-0.7536,0.7762,
11.654359,0.1528,0.9430,0.0642,0.5022,-0.0345,-0.8104,0.4496,-0.7536,0.7762,
11.675178,0.1528,0.9430,0.0642,0.5022,-0.0345,-0.8104,0.4233,-1.1881,0.6125,
11.679799,0.0083,1.0023,0.1350,0.5022,-0.0345,-0.8104,0.4233,-1.1881,0.6125,
11.682195,0.0083,1.0023,0.1350,-0.4721,0.1058,1.7279,0.4233,-1.1881,0.6125,
11.693563,0.0378,1.0638,0.1961,-0.4721,0.1058,1.7279,0.4233,-1.1881,0.6125,
11.712438,-0.0508,1.1918,0.2937,-0.4721,0.1058,1.7279,0.4233,-1.1881,0.6125,
11.734447,-0.4141,1.5436,0.4092,-0.4721,0.1058,1.7279,0.4233,-1.1881,0.6125,
11.737631,-0.4141,1.5436,0.4092,-0.4721,0.1058,1.7279,1.2083,-1.5903,1.0020,
11.739668,-0.4141,1.5436,0.4092,-3.5939,3.2421,5.0429,1.2083,-1.5903,1.0020,
11.755478,-0.7232,1.8813,0.2957,-3.5939,3.2421,5.0429,1.2083,-1.5903,1.0020,
11.770331,-0.3816,1.7604,-0.1292,-3.5939,3.2421,5.0429,1.2083,-1.5903,1.0020,
11.789862,-0.0063,1.4916,-0.4644,-3.5939,3.2421,5.0429,1.2083,-1.5903,1.0020,
11.791611,-0.0063,1.4916,-0.4644,-6.5598,8.1563,2.4880,1.2083,-1.5903,1.0020,
11.794075,-0.0063,1.4916,-0.4644,-6.5598,8.1563,2.4880,1.6689,-3.4736,2.7412,
11.811719,0.1653,0.9806,-0.6082,-6.5598,8.1563,2.4880,1.6689,-3.4736,2.7412,
11.827776,0.5911,0.9166,-0.5040,-6.5598,8.1563,2.4880,1.6689,-3.4736,2.7412,
11.847508,0.5911,0.9166,-0.5040,-6.5598,8.1563,2.4880,0.8188,-4.6086,3.6237,
11.848772,0.8980,0.8221,-0.5775,-6.5598,8.1563,2.4880,0.8188,-4.6086,3.6237,
11.849325,0.8980,0.8221,-0.5775,1.8282,1.1360,-0.7683,0.8188,-4.6086,3.6237,
11.866928,0.7420,0.6302,-0.5914,1.8282,1.1360,-0.7683,0.8188,-4.6086,3.6237,
11.886566,0.3929,0.5323,-0.5584,1.8282,1.1360,-0.7683,0.8188,-4.6086,3.6237,
11.906017,0.0144,0.4485,-0.4854,1.8282,1.1360,-0.7683,0.8188,-4.6086,3.6237,
11.907843,0.0144,0.4485,-0.4854,1.8282,1.1360,-0.7683,-1.0497,-3.6416,2.9560,
11.909531,0.0144,0.4485,-0.4854,-0.0603,-2.1188,-0.2576,-1.0497,-3.6416,2.9560,
11.946288,-0.3238,0.3958,-0.5897,-0.0603,-2.1188,-0.2576,-1.0497,-3.6416,2.9560,
11.949826,-0.6378,0.3824,-0.7960,-0.0603,-2.1188,-0.2576,-1.0497,-3.6416,2.9560,
11.965341,-0.6378,0.3824,-0.7960,-8.2659,-3.7727,-2.5941,-1.0497,-3.6416,2.9560,
11.967435,-0.4378,0.3523,-0.9054,-8.2659,-3.7727,-2.5941,-1.0497,-3.6416,2.9560,
11.968423,-0.4378,0.3523,-0.9054,-8.2659,-3.7727,-2.5941,-2.2604,-3.3105,2.2879,
11.984817,-0.2151,0.3372,-1.0494,-8.2659,-3.7727,-2.5941,-2.2604,-3.3105,2.2879,
12.005623,-0.1130,0.4187,-1.0084,-8.2659,-3.7727,-2.5941,-2.2604,-3.3105,2.2879,
12.023997,-0.1130,0.4187,-1.0084,-8.2659,-3.7727,-2.5941,-3.0519,-2.6505,1.8306,
12.027512,-0.0146,0.5352,-0.8497,-8.2659,-3.7727,-2.5941,-3.0519,-2.6505,1.8306,
12.029658,-0.0146,0.5352,-0.8497,-4.8442,-3.5935,-5.3047,-3.0519,-2.6505,1.8306,
12.046268,-0.1436,0.5721,-0.6627,-4.8442,-3.5935,-5.3047,-3.0519,-2.6505,1.8306,
12.062607,-0.3746,0.6522,-0.5623,-4.8442,-3.5935,-5.3047,-3.0519,-2.6505,1.8306,
12.084243,-0.5860,0.8016,-0.5145,-4.8442,-3.5935,-5.3047,-3.0519,-2.6505,1.8306,
12.089081,-0.5860,0.8016,-0.5145,-4.8442,-3.5935,-5.3047,-3.7797,-4.0004,0.3727,
12.092123,-0.5860,0.8016,-0.5145,-6.5301,-1.8991,-2.4506,-3.7797,-4.0004,0.3727,
12.101031,-0.5345,0.9183,-0.5413,-6.5301,-1.8991,-2.4506,-3.7797,-4.0004,0.3727,
12.120067,-0.3479,0.9757,-0.5865,-6.5301,-1.8991,-2.4506,-3.7797,-4.0004,0.3727,
12.139729,-0.3479,0.9757,-0.5865,-6.5301,-1.8991,-2.4506,-3.0132,-6.7195,-0.1309,
12.154248,-0.3479,0.9757,-0.5865,-5.0644,0.5771,-2.9437,-3.0132,-6.7195,-0.1309,
12.161334,-0.1655,1.0541,-0.5840,-5.0644,0.5771,-2.9437,-3.0132,-6.7195,-0.1309,
12.165378,0.0266,1.1158,-0.5345,-5.0644,0.5771,-2.9437,-3.0132,-6.7195,-0.1309,
12.178409,0.1055,1.1591,-0.4715,-5.0644,0.5771,-2.9437,-3.0132,-6.7195,-0.1309,
12.199088,0.0784,1.1473,-0.4700,-5.0644,0.5771,-2.9437,-3.0132,-6.7195,-0.1309,
12.201958,0.0784,1.1473,-0.4700,-5.0644,0.5771,-2.9437,-2.9350,-6.6798,-0.1841,
12.204527,0.0784,1.1473,-0.4700,-0.0307,1.7233,-3.2566,-2.9350,-6.6798,-0.1841,
12.218783,0.0488,1.0665,-0.4708,-0.0307,1.7233,-3.2566,-2.9350,-6.6798,-0.1841,
12.237147,0.0769,0.9886,-0.4324,-0.0307,1.7233,-3.2566,-2.9350,-6.6798,-0.1841,
12.256913,0.1624,0.9730,-0.4339,-0.0307,1.7233,-3.2566,-2.9350,-6.6798,-0.1841,
12.263762,0.1624,0.9730,-0.4339,-0.0307,1.7233,-3.2566,-2.3669,-4.8825,-0.6292,
12.267421,0.1624,0.9730,-0.4339,0.8425,0.2829,-3.9383,-2.3669,-4.8825,-0.6292,
12.278439,0.2466,0.9569,-0.4559,0.8425,0.2829,-3.9383,-2.3669,-4.8825,-0.6292,
12.297568,0.3575,0.8507,-0.4485,0.8425,0.2829,-3.9383,-2.3669,-4.8825,-0.6292,
12.315900,0.3575,0.8507,-0.4485,0.8425,0.2829,-3.9383,-1.2993,-2.2920,-0.5764,
12.319169,0.4368,0.7149,-0.5210,0.8425,0.2829,-3.9383,-1.2993,-2.2920,-0.5764,
12.321082,0.4368,0.7149,-0.5210,3.5755,-1.3484,-4.8795,-1.2993,-2.2920,-0.5764,
12.334423,0.4515,0.7000,-0.5775,3.5755,-1.3484,-4.8795,-1.2993,-2.2920,-0.5764,
12.354435,0.6697,1.0304,-0.5963,3.5755,-1.3484,-4.8795,-1.2993,-2.2920,-0.5764,
12.374093,0.6553,1.4525,0.3284,3.5755,-1.3484,-4.8795,-1.2993,-2.2920,-0.5764,
12.378792,0.6553,1.4525,0.3284,3.5755,-1.3484,-4.8795,-0.3116,1.1362,0.1456,
12.381982,0.6553,1.4525,0.3284,5.8247,0.7999,-3.0955,-0.3116,1.1362,0.1456,
12.394716,-0.5611,1.3639,1.1852,5.8247,0.7999,-3.0955,-0.3116,1.1362,0.1456,
12.411733,-1.1600,1.1337,0.2168,5.8247,0.7999,-3.0955,-0.3116,1.1362,0.1456,
12.431751,-0.5650,1.0692,-0.2210,5.8247,0.7999,-3.0955,-0.3116,1.1362,0.1456,
12.435647,-0.5650,1.0692,-0.2210,5.8247,0.7999,-3.0955,0.0393,1.2389,0.1200,
12.437808,-0.5650,1.0692,-0.2210,-7.3646,2.0188,3.4867,0.0393,1.2389,0.1200,
12.458453,-0.0283,1.0235,-0.2390,-7.3646,2.0188,3.4867,0.0393,1.2389,0.1200,
12.470439,0.3890,1.0707,-0.1116,-7.3646,2.0188,3.4867,0.0393,1.2389,0.1200,
12.489443,0.3890,1.0707,-0.1116,-7.3646,2.0188,3.4867,0.1415,-0.8617,1.0778,
12.491174,0.5831,0.9969,-0.0708,-7.3646,2.0188,3.4867,0.1415,-0.8617,1.0778,
12.492125,0.5831,0.9969,-0.0708,2.5222,0.4674,-1.6266,0.1415,-0.8617,1.0778,
12.509664,0.3296,0.9364,0.0347,2.5222,0.4674,-1.6266,0.1415,-0.8617,1.0778,
12.537250,0.0247,1.0533,0.0457,2.5222,0.4674,-1.6266,0.1415,-0.8617,1.0778,
12.551947,-0.0886,1.0760,0.0574,2.5222,0.4674,-1.6266,0.1415,-0.8617,1.0778,
12.555786,-0.0886,1.0760,0.0574,2.5222,0.4674,-1.6266,-0.0682,0.0039,0.2570,
12.558051,-0.0886,1.0760,0.0574,0.1605,0.3884,0.1582,-0.0682,0.0039,0.2570,
12.578601,0.0808,1.0133,0.0591,0.1605,0.3884,0.1582,-0.0682,0.0039,0.2570,
12.587040,0.1677,1.0218,0.0676,0.1605,0.3884,0.1582,-0.0682,0.0039,0.2570,
12.606045,0.0989,0.9952,0.1135,0.1605,0.3884,0.1582,-0.0682,0.0039,0.2570,
12.608266,0.0989,0.9952,0.1135,0.1605,0.3884,0.1582,-0.0631,-0.1977,0.2326,
12.609692,0.0989,0.9952,0.1135,0.2888,0.2796,0.4590,-0.0631,-0.1977,0.2326,
12.625510,0.0105,0.9754,0.1904,0.2888,0.2796,0.4590,-0.0631,-0.1977,0.2326,
12.652216,-0.0693,0.9808,0.1636,0.2888,0.2796,0.4590,-0.0631,-0.1977,0.2326,
12.668405,-0.0693,0.9808,0.1636,0.2888,0.2796,0.4590,0.1295,0.0086,0.2527,
12.671080,-0.0715,0.9842,0.1614,0.2888,0.2796,0.4590,0.1295,0.0086,0.2527,
12.672475,-0.0715,0.9842,0.1614,-1.3902,-0.0025,1.4061,0.1295,0.0086,0.2527,
12.699261,-0.0593,0.9730,0.1782,-1.3902,-0.0025,1.4061,0.1295,0.0086,0.2527,
12.708762,0.0068,0.9803,0.1384,-1.3902,-0.0025,1.4061,0.1295,0.0086,0.2527,
12.722639,0.0322,1.0157,0.1123,-1.3902,-0.0025,1.4061,0.1295,0.0086,0.2527,
12.724159,0.0322,1.0157,0.1123,-1.3902,-0.0025,1.4061,0.5424,-0.1608,0.6498,
12.725002,0.0322,1.0157,0.1123,-1.3719,0.1283,1.4142,0.5424,-0.1608,0.6498,
12.742011,0.0427,0.9825,0.0134,-1.3719,0.1283,1.4142,0.5424,-0.1608,0.6498,
12.770524,0.0845,0.9920,-0.0029,-1.3719,0.1283,1.4142,0.5424,-0.1608,0.6498,
12.782921,0.0845,0.9920,-0.0029,-1.3719,0.1283,1.4142,0.7648,-0.3480,0.8994,
12.785747,0.1231,0.9962,-0.0273,-1.3719,0.1283,1.4142,0.7648,-0.3480,0.8994,
12.786604,0.1231,0.9962,-0.0273,-0.9665,0.2223,0.4076,0.7648,-0.3480,0.8994,
12.799980,0.1292,1.0201,-0.1177,-0.9665,0.2223,0.4076,0.7648,-0.3480,0.8994,
12.820337,0.1306,1.0401,-0.1580,-0.9665,0.2223,0.4076,0.7648,-0.3480,0.8994,
12.839763,0.1782,1.0548,-0.2119,-0.9665,0.2223,0.4076,0.7648,-0.3480,0.8994,
12.842091,0.1782,1.0548,-0.2119,-0.9665,0.2223,0.4076,0.8143,-0.6554,0.9687,
12.843653,0.1782,1.0548,-0.2119,-0.8423,0.8291,-0.5946,0.8143,-0.6554,0.9687,
12.860017,0.2539,1.0651,-0.1665,-0.8423,0.8291,-0.5946,0.8143,-0.6554,0.9687,
12.888561,0.2705,1.0157,-0.1028,-0.8423,0.8291,-0.5946,0.8143,-0.6554,0.9687,
12.898887,0.2705,1.0157,-0.1028,-0.5390,0.9620,0.5212,0.8143,-0.6554,0.9687,
12.901302,0.1360,1.0245,-0.0220,-0.5390,0.9620,0.5212,0.8143,-0.6554,0.9687,
12.902263,0.1360,1.0245,-0.0220,-0.5390,0.9620,0.5212,0.6294,-0.9802,0.9338,
12.917892,0.0347,1.0416,-0.0544,-0.5390,0.9620,0.5212,0.6294,-0.9802,0.9338,
12.936515,0.0559,1.0843,-0.1028,-0.5390,0.9620,0.5212,0.6294,-0.9802,0.9338,
12.956526,0.0681,1.1705,-0.0942,-0.5390,0.9620,0.5212,0.6294,-0.9802,0.9338,
12.958908,0.0681,1.1705,-0.0942,-0.5390,0.9620,0.5212,0.8739,-0.9226,1.1792,
12.960506,0.0681,1.1705,-0.0942,-2.6598,1.8500,1.2498,0.8739,-0.9226,1.1792,
12.975950,0.0899,1.1678,-0.0999,-2.6598,1.8500,1.2498,0.8739,-0.9226,1.1792,
13.007153,0.0593,1.1493,-0.0974,-2.6598,1.8500,1.2498,0.8739,-0.9226,1.1792,
13.019449,0.0593,1.1493,-0.0974,-3.3718,3.2936,1.9963,0.8739,-0.9226,1.1792,
13.021763,0.0593,1.1493,-0.0974,-3.3718,3.2936,1.9963,1.3211,-0.8526,1.5195,
13.022691,-0.0281,1.2843,-0.0730,-3.3718,3.2936,1.9963,1.3211,-0.8526,1.5195,
13.034705,-0.2825,1.6139,0.1607,-3.3718,3.2936,1.9963,1.3211,-0.8526,1.5195,
13.053206,-0.8275,1.6703,0.1570,-3.3718,3.2936,1.9963,1.3211,-0.8526,1.5195,
13.072502,-1.0670,1.5468,0.0938,-3.3718,3.2936,1.9963,1.3211,-0.8526,1.5195,
13.074943,-1.0670,1.5468,0.0938,-3.3718,3.2936,1.9963,1.8198,-1.1641,1.7901,
13.082599,-1.0670,1.5468,0.0938,-11.2984,7.9688,5.2705,1.8198,-1.1641,1.7901,
13.097823,-0.7130,1.3598,-0.0730,-11.2984,7.9688,5.2705,1.8198,-1.1641,1.7901,
13.112713,0.2029,1.2706,-0.4932,-11.2984,7.9688,5.2705,1.8198,-1.1641,1.7901,
13.132592,1.1000,1.5446,-0.5440,-11.2984,7.9688,5.2705,1.8198,-1.1641,1.7901,
13.134501,1.1000,1.5446,-0.5440,-11.2984,7.9688,5.2705,1.9379,-2.7613,3.1570,
13.135355,1.1000,1.5446,-0.5440,-2.7647,7.0646,1.8087,1.9379,-2.7613,3.1570,
13.150554,1.0272,1.2482,-0.3965,-2.7647,7.0646,1.8087,1.9379,-2.7613,3.1570,
13.169775,0.6216,0.8324,-0.4949,-2.7647,7.0646,1.8087,1.9379,-2.7613,3.1570,
13.190354,0.6216,0.8324,-0.4949,-2.7647,7.0646,1.8087,1.3622,-1.1800,1.7441,
13.194163,0.5589,0.6295,-0.7032,-2.7647,7.0646,1.8087,1.3622,-1.1800,1.7441,
13.196591,0.5589,0.6295,-0.7032,2.2594,3.1796,1.0221,1.3622,-1.1800,1.7441,
13.210129,0.4673,0.5506,-0.5296,2.2594,3.1796,1.0221,1.3622,-1.1800,1.7441,
13.230400,0.2600,0.3333,-0.1970,2.2594,3.1796,1.0221,1.3622,-1.1800,1.7441,
13.250632,0.2600,0.3333,-0.1970,2.2594,3.1796,1.0221,-1.1660,0.3914,-0.2677,
13.256847,0.0078,0.1668,0.0210,2.2594,3.1796,1.0221,-1.1660,0.3914,-0.2677,
13.257767,0.0078,0.1668,0.0210,-2.5476,-2.6816,3.3548,-1.1660,0.3914,-0.2677,
13.274481,-0.0459,0.1528,-0.1267,-2.5476,-2.6816,3.3548,-1.1660,0.3914,-0.2677,
13.286171,0.0884,0.3301,-0.3150,-2.5476,-2.6816,3.3548,-1.1660,0.3914,-0.2677,
13.307623,0.0884,0.3301,-0.3150,-3.3399,-4.1222,2.2424,-1.1660,0.3914,-0.2677,
13.310060,0.0884,0.3301,-0.3150,-3.3399,-4.1222,2.2424,-2.1818,-0.1437,-2.2278,
13.311629,0.1502,0.4893,-0.3413,-3.3399,-4.1222,2.2424,-2.1818,-0.1437,-2.2278,
13.325919,0.1502,0.5408,-0.2766,-3.3399,-4.1222,2.2424,-2.1818,-0.1437,-2.2278,
13.349051,0.1682,0.5738,-0.2569,-3.3399,-4.1222,2.2424,-2.1818,-0.1437,-2.2278,
13.367536,0.1682,0.5738,-0.2569,-3.3399,-4.1222,2.2424,-3.5329,-1.1238,-3.5131,
13.372889,0.1904,0.6780,-0.3079,-3.3399,-4.1222,2.2424,-3.5329,-1.1238,-3.5131,
13.374934,0.1904,0.6780,-0.3079,-0.3794,-2.8588,0.5691,-3.5329,-1.1238,-3.5131,
13.384031,0.1804,0.8267,-0.3387,-0.3794,-2.8588,0.5691,-3.5329,-1.1238,-3.5131,
13.404761,0.1555,1.0309,-0.4143,-0.3794,-2.8588,0.5691,-3.5329,-1.1238,-3.5131,
13.423969,0.1555,1.0309,-0.4143,-0.3794,-2.8588,0.5691,-4.6080,-1.4742,-4.1162,
13.427558,0.2254,1.3976,-0.5616,-0.3794,-2.8588,0.5691,-4.6080,-1.4742,-4.1162,
13.429704,0.2254,1.3976,-0.5616,2.1493,1.1194,-3.3236,-4.6080,-1.4742,-4.1162,
13.443896,0.5020,1.8217,-0.7576,2.1493,1.1194,-3.3236,-4.6080,-1.4742,-4.1162,
13.465863,0.6185,1.7878,-0.8136,2.1493,1.1194,-3.3236,-4.6080,-1.4742,-4.1162,
13.483385,0.6185,1.7878,-0.8136,2.1493,1.1194,-3.3236,-4.9287,0.4014,-3.8613,
13.486859,0.7489,1.3300,-0.6983,2.1493,1.1194,-3.3236,-4.9287,0.4014,-3.8613,
13.488909,0.7489,1.3300,-0.6983,8.4304,6.9268,-8.9418,-4.9287,0.4014,-3.8613,
13.506187,0.9002,1.1178,-0.5203,8.4304,6.9268,-8.9418,-4.9287,0.4014,-3.8613,
13.519797,0.7032,1.0741,-0.4712,8.4304,6.9268,-8.9418,-4.9287,0.4014,-3.8613,
13.539012,0.7032,1.0741,-0.4712,8.4304,6.9268,-8.9418,-2.4753,2.0365,-1.6125,
13.540660,0.6397,0.8131,-0.7166,8.4304,6.9268,-8.9418,-2.4753,2.0365,-1.6125,
13.541584,0.6397,0.8131,-0.7166,10.5769,1.1517,-7.9055,-2.4753,2.0365,-1.6125,
13.558695,0.7064,0.7440,-0.6173,10.5769,1.1517,-7.9055,-2.4753,2.0365,-1.6125,
13.580780,0.5176,1.0104,-0.8121,10.5769,1.1517,-7.9055,-2.4753,2.0365,-1.6125,
13.600330,0.5176,1.0104,-0.8121,10.5769,1.1517,-7.9055,0.3999,2.7599,1.3969,
13.603500,-0.6585,1.5238,0.1741,10.5769,1.1517,-7.9055,0.3999,2.7599,1.3969,
13.605539,-0.6585,1.5238,0.1741,4.6361,1.7218,-5.6104,0.3999,2.7599,1.3969,
13.622179,-2.5901,1.5085,1.0743,4.6361,1.7218,-5.6104,0.3999,2.7599,1.3969,
13.636579,-1.0704,1.5585,-0.2007,4.6361,1.7218,-5.6104,0.3999,2.7599,1.3969,
13.656654,-1.0704,1.5585,-0.2007,4.6361,1.7218,-5.6104,0.9409,2.3696,1.0656,
13.659350,0.3687,1.4086,-1.2311,4.6361,1.7218,-5.6104,0.9409,2.3696,1.0656,
13.661182,0.3687,1.4086,-1.2311,-8.2371,5.3241,-1.7896,0.9409,2.3696,1.0656,
13.675475,0.4090,0.9522,-0.3687,-8.2371,5.3241,-1.7896,0.9409,2.3696,1.0656,
13.694812,0.2766,0.6082,0.3711,-8.2371,5.3241,-1.7896,0.9409,2.3696,1.0656,
13.716060,0.1988,0.8831,0.3724,-8.2371,5.3241,-1.7896,0.9409,2.3696,1.0656,
13.717606,0.1988,0.8831,0.3724,-8.2371,5.3241,-1.7896,0.4997,0.4134,2.0601,
13.718448,0.1988,0.8831,0.3724,4.2134,-1.5363,0.9200,0.4997,0.4134,2.0601,
13.734563,-0.0291,1.1498,0.0479,4.2134,-1.5363,0.9200,0.4997,0.4134,2.0601,
13.753288,-0.0273,1.0941,-0.2403,4.2134,-1.5363,0.9200,0.4997,0.4134,2.0601,
13.772304,-0.0251,1.0646,-0.1394,4.2134,-1.5363,0.9200,0.4997,0.4134,2.0601,
13.774655,-0.0251,1.0646,-0.1394,4.2134,-1.5363,0.9200,0.5650,-0.2427,1.0583,
13.776118,-0.0251,1.0646,-0.1394,0.4593,1.2000,-1.0671,0.5650,-0.2427,1.0583,
13.792920,-0.1397,1.0338,-0.0657,0.4593,1.2000,-1.0671,0.5650,-0.2427,1.0583,
13.815045,-0.0742,0.9574,0.0364,0.4593,1.2000,-1.0671,0.5650,-0.2427,1.0583,
13.835519,-0.0176,0.9981,0.1282,0.4593,1.2000,-1.0671,0.5650,-0.2427,1.0583,
13.840891,-0.0176,0.9981,0.1282,0.4593,1.2000,-1.0671,0.3508,0.0914,0.8090,
13.842769,-0.0176,0.9981,0.1282,-0.4775,0.1341,0.5296,0.3508,0.0914,0.8090,
13.851961,-0.0613,1.0072,0.0947,-0.4775,0.1341,0.5296,0.3508,0.0914,0.8090,
13.870263,-0.0837,0.9447,0.0671,-0.4775,0.1341,0.5296,0.3508,0.0914,0.8090,
13.890562,-0.0461,0.9710,0.0007,-0.4775,0.1341,0.5296,0.3508,0.0914,0.8090,
13.894296,-0.0461,0.9710,0.0007,-0.4775,0.1341,0.5296,0.4706,-0.2290,0.8646,
13.897309,-0.0461,0.9710,0.0007,-0.8128,-0.0742,0.9856,0.4706,-0.2290,0.8646,
13.909709,0.0474,0.9877,0.0244,-0.8128,-0.0742,0.9856,0.4706,-0.2290,0.8646,
13.929097,0.0701,0.9767,0.0974,-0.8128,-0.0742,0.9856,0.4706,-0.2290,0.8646,
13.950257,0.0166,0.9518,0.1182,-0.8128,-0.0742,0.9856,0.4706,-0.2290,0.8646,
13.954194,0.0166,0.9518,0.1182,-0.8128,-0.0742,0.9856,0.6719,-0.3557,0.9943,
13.957226,0.0166,0.9518,0.1182,-0.2888,-0.0437,1.5973,0.6719,-0.3557,0.9943,
13.969569,-0.0515,0.9527,0.0784,-0.2888,-0.0437,1.5973,0.6719,-0.3557,0.9943,
13.986727,-0.0042,0.9764,-0.0479,-0.2888,-0.0437,1.5973,0.6719,-0.3557,0.9943,
14.007115,-0.0042,0.9764,-0.0479,-0.2888,-0.0437,1.5973,1.0287,-0.1926,1.2010,
14.010195,0.1030,0.9862,-0.1692,-0.2888,-0.0437,1.5973,1.0287,-0.1926,1.2010,
14.016558,0.1030,0.9862,-0.1692,-1.2060,0.0925,0.9263,1.0287,-0.1926,1.2010,
14.026710,0.1272,1.0194,-0.2237,-1.2060,0.0925,0.9263,1.0287,-0.1926,1.2010,
14.046234,0.1177,1.0045,-0.2635,-1.2060,0.0925,0.9263,1.0287,-0.1926,1.2010,
14.065978,0.1719,0.9945,-0.2901,-1.2060,0.0925,0.9263,1.0287,-0.1926,1.2010,
14.069738,0.1719,0.9945,-0.2901,-0.6716,0.6520,-0.5467,1.0287,-0.1926,1.2010,
14.074660,0.1719,0.9945,-0.2901,-0.6716,0.6520,-0.5467,1.0472,-0.3396,1.3199,
14.084158,0.2845,1.0086,-0.3096,-0.6716,0.6520,-0.5467,1.0472,-0.3396,1.3199,
14.104119,0.2683,1.0367,-0.2888,-0.6716,0.6520,-0.5467,1.0472,-0.3396,1.3199,
14.123184,0.0586,1.0760,-0.2415,-0.6716,0.6520,-0.5467,1.0472,-0.3396,1.3199,
14.125385,0.0586,1.0760,-0.2415,-0.6716,0.6520,-0.5467,0.9515,-0.1240,1.2157,
14.127401,0.0586,1.0760,-0.2415,-0.6523,1.2589,-0.2280,0.9515,-0.1240,1.2157,
14.141837,-0.0476,1.1500,-0.2022,-0.6523,1.2589,-0.2280,0.9515,-0.1240,1.2157,
14.161651,-0.0105,1.2050,-0.1536,-0.6523,1.2589,-0.2280,0.9515,-0.1240,1.2157,
14.186183,-0.0105,1.2050,-0.1536,-3.7230,3.5925,1.7449,0.9515,-0.1240,1.2157,
14.188502,-0.0877,1.3649,-0.0718,-3.7230,3.5925,1.7449,0.9515,-0.1240,1.2157,
14.189709,-0.0877,1.3649,-0.0718,-3.7230,3.5925,1.7449,1.2038,-0.2443,1.3777,
14.200481,-0.3763,1.7556,0.0945,-3.7230,3.5925,1.7449,1.2038,-0.2443,1.3777,
14.221632,-0.9620,1.9614,0.1585,-3.7230,3.5925,1.7449,1.2038,-0.2443,1.3777,
14.239261,-0.9620,1.9614,0.1585,-3.7230,3.5925,1.7449,2.0191,-0.9273,1.8652,
14.240866,-1.4469,1.8952,0.0396,-3.7230,3.5925,1.7449,2.0191,-0.9273,1.8652,
14.241742,-1.4469,1.8952,0.0396,-12.8135,10.4279,5.1667,2.0191,-0.9273,1.8652,
14.258576,-0.9632,1.4911,-0.0742,-12.8135,10.4279,5.1667,2.0191,-0.9273,1.8652,
14.278656,0.0732,1.1866,-0.4998,-12.8135,10.4279,5.1667,2.0191,-0.9273,1.8652,
14.299087,0.0732,1.1866,-0.4998,-3.2832,6.4702,1.8868,2.0191,-0.9273,1.8652,
14.301938,0.0732,1.1866,-0.4998,-3.2832,6.4702,1.8868,2.2975,-2.2726,3.1912,
14.304468,1.2120,1.3195,-0.5914,-3.2832,6.4702,1.8868,2.2975,-2.2726,3.1912,
14.336221,1.5912,1.0790,-0.4349,-3.2832,6.4702,1.8868,2.2975,-2.2726,3.1912,
14.337980,0.8302,0.8331,-0.6334,-3.2832,6.4702,1.8868,2.2975,-2.2726,3.1912,
14.356022,0.8302,0.8331,-0.6334,-3.2832,6.4702,1.8868,1.6890,0.0880,1.6836,
14.357864,0.5403,0.5049,-0.6319,-3.2832,6.4702,1.8868,1.6890,0.0880,1.6836,
14.358748,0.5403,0.5049,-0.6319,4.6247,2.3145,0.6936,1.6890,0.0880,1.6836,
14.375207,0.4285,0.3826,-0.2635,4.6247,2.3145,0.6936,1.6890,0.0880,1.6836,
14.395638,0.2886,0.2073,0.1289,4.6247,2.3145,0.6936,1.6890,0.0880,1.6836,
14.424532,0.1194,0.0752,0.1533,4.6247,2.3145,0.6936,1.6890,0.0880,1.6836,
14.427534,0.1194,0.0752,0.1533,4.6247,2.3145,0.6936,-1.0200,1.0053,-0.9391,
14.430297,0.1194,0.0752,0.1533,-2.3057,-3.9719,5.5632,-1.0200,1.0053,-0.9391,
14.434923,-0.0430,0.1289,-0.0581,-2.3057,-3.9719,5.5632,-1.0200,1.0053,-0.9391,
14.458947,-0.0364,0.3340,-0.1760,-2.3057,-3.9719,5.5632,-1.0200,1.0053,-0.9391,
14.472460,0.1170,0.4683,-0.2281,-2.3057,-3.9719,5.5632,-1.0200,1.0053,-0.9391,
14.474758,0.1170,0.4683,-0.2281,-2.3057,-3.9719,5.5632,-1.6192,-0.1991,-2.6906,
14.475500,0.1170,0.4683,-0.2281,-3.7320,-4.2304,3.3447,-1.6192,-0.1991,-2.6906,
14.491602,0.2014,0.5213,-0.1304,-3.7320,-4.2304,3.3447,-1.6192,-0.1991,-2.6906,
14.511935,0.2593,0.5963,-0.1265,-3.7320,-4.2304,3.3447,-1.6192,-0.1991,-2.6906,
14.537700,0.2593,0.5963,-0.1265,-3.7320,-4.2304,3.3447,-3.0087,-1.3339,-3.5949,
14.541657,0.3726,0.7208,-0.2840,-3.7320,-4.2304,3.3447,-3.0087,-1.3339,-3.5949,
14.544440,0.3726,0.7208,-0.2840,0.8583,-2.5802,1.8667,-3.0087,-1.3339,-3.5949,
14.552367,0.3977,0.8350,-0.3128,0.8583,-2.5802,1.8667,-3.0087,-1.3339,-3.5949,
14.570467,0.3482,0.9979,-0.3328,0.8583,-2.5802,1.8667,-3.0087,-1.3339,-3.5949,
14.589845,0.3138,1.3642,-0.4517,0.8583,-2.5802,1.8667,-3.0087,-1.3339,-3.5949,
14.593502,0.3138,1.3642,-0.4517,3.9892,1.0238,-2.2747,-3.0087,-1.3339,-3.5949,
14.597020,0.3138,1.3642,-0.4517,3.9892,1.0238,-2.2747,-4.5365,-1.0806,-4.3310,
14.611554,0.3140,1.7607,-0.6971,3.9892,1.0238,-2.2747,-4.5365,-1.0806,-4.3310,
14.628150,0.3474,1.7775,-0.6527,3.9892,1.0238,-2.2747,-4.5365,-1.0806,-4.3310,
14.650226,0.6612,1.5082,-0.5413,3.9892,1.0238,-2.2747,-4.5365,-1.0806,-4.3310,
14.652469,0.6612,1.5082,-0.5413,3.9892,1.0238,-2.2747,-4.9063,0.2580,-4.1502,
14.654095,0.6612,1.5082,-0.5413,7.0030,7.3520,-7.3689,-4.9063,0.2580,-4.1502,
14.667357,0.9681,1.2728,-0.4195,7.0030,7.3520,-7.3689,-4.9063,0.2580,-4.1502,
14.686860,0.7352,1.0736,-0.5108,7.0030,7.3520,-7.3689,-4.9063,0.2580,-4.1502,
14.705799,0.4576,0.7679,-0.6859,7.0030,7.3520,-7.3689,-4.9063,0.2580,-4.1502,
14.708093,0.4576,0.7679,-0.6859,7.0030,7.3520,-7.3689,-2.7245,1.1100,-1.6613,
14.709903,0.4576,0.7679,-0.6859,10.5511,1.6092,-7.5324,-2.7245,1.1100,-1.6613,
14.725206,0.5091,0.6854,-0.5770,10.5511,1.6092,-7.5324,-2.7245,1.1100,-1.6613,
14.744834,0.4114,0.9981,-0.9969,10.5511,1.6092,-7.5324,-2.7245,1.1100,-1.6613,
14.771402,0.4114,0.9981,-0.9969,10.5511,1.6092,-7.5324,0.1891,2.4940,1.2099,
14.774340,0.4114,0.9981,-0.9969,3.3339,2.2683,-6.1615,0.1891,2.4940,1.2099,
14.808856,-1.3865,1.7125,0.2929,3.3339,2.2683,-6.1615,0.1891,2.4940,1.2099,
14.822351,-1.3865,1.7125,0.2929,3.3339,2.2683,-6.1615,1.2527,2.1729,1.3871,
14.823840,-1.3865,1.7125,0.2929,-6.2602,5.3547,-1.2901,1.2527,2.1729,1.3871,
14.861661,0.4278,0.7911,-0.1723,-6.2602,5.3547,-1.2901,1.2527,2.1729,1.3871,
14.884214,0.4278,0.7911,-0.1723,-6.2602,5.3547,-1.2901,0.9145,0.6539,1.8611,
14.887149,0.4278,0.7911,-0.1723,3.3757,-1.7718,1.7631,0.9145,0.6539,1.8611,
14.920705,-0.0409,1.0949,-0.1215,3.3757,-1.7718,1.7631,0.9145,0.6539,1.8611,
14.939176,-0.0409,1.0949,-0.1215,3.3757,-1.7718,1.7631,0.6895,0.0122,1.1975,
14.940952,-0.0409,1.0949,-0.1215,0.7937,0.9274,-1.4615,0.6895,0.0122,1.1975,
14.979163,-0.0667,0.9871,-0.1001,0.7937,0.9274,-1.4615,0.6895,0.0122,1.1975,
15.001499,-0.0667,0.9871,-0.1001,-0.0506,0.1320,0.2489,0.6895,0.0122,1.1975,
15.005378,-0.0667,0.9871,-0.1001,-0.0506,0.1320,0.2489,0.4137,0.3572,0.9308,
15.036768,-0.0169,0.9998,-0.0238,-0.0506,0.1320,0.2489,0.4137,0.3572,0.9308,
15.057285,-0.0169,0.9998,-0.0238,-0.0506,0.1320,0.2489,0.4042,-0.0572,0.8701,
15.060627,-0.0169,0.9998,-0.0238,-0.0735,0.1379,0.5276,0.4042,-0.0572,0.8701,
15.095541,0.1114,0.9544,-0.0265,-0.0735,0.1379,0.5276,0.4042,-0.0572,0.8701,
15.117913,0.1114,0.9544,-0.0265,-0.0735,0.1379,0.5276,0.4691,0.2427,0.7398,
15.120994,0.1114,0.9544,-0.0265,0.2944,-0.0239,0.9438,0.4691,0.2427,0.7398,
15.152913,-0.0381,0.9828,-0.0618,0.2944,-0.0239,0.9438,0.4691,0.2427,0.7398,
15.173812,-0.0381,0.9828,-0.0618,0.2944,-0.0239,0.9438,0.6648,-0.0134,0.8104,
15.176630,-0.0381,0.9828,-0.0618,-1.2079,0.1280,0.4994,0.6648,-0.0134,0.8104,
15.211457,0.0568,0.9759,-0.1353,-1.2079,0.1280,0.4994,0.6648,-0.0134,0.8104,
15.235735,0.0568,0.9759,-0.1353,-1.2079,0.1280,0.4994,0.7585,-0.4052,1.0012,
15.239575,0.0568,0.9759,-0.1353,-0.6406,0.2197,0.5467,0.7585,-0.4052,1.0012,
15.269459,0.1591,0.9557,-0.1802,-0.6406,0.2197,0.5467,0.7585,-0.4052,1.0012,
15.289562,0.1591,0.9557,-0.1802,-0.6406,0.2197,0.5467,0.8053,-0.6096,1.0540,
15.291698,0.1591,0.9557,-0.1802,-0.2489,0.2755,0.6950,0.8053,-0.6096,1.0540,
15.328950,0.1522,0.9587,-0.1171,-0.2489,0.2755,0.6950,0.8053,-0.6096,1.0540,
15.355649,0.1522,0.9587,-0.1171,-0.2489,0.2755,0.6950,1.0179,-0.9344,1.2089,
15.361006,0.1522,0.9587,-0.1171,-1.0109,1.0778,2.1796,1.0179,-0.9344,1.2089,
15.386382,0.0632,1.3241,-0.0127,-1.0109,1.0778,2.1796,1.0179,-0.9344,1.2089,
15.407876,0.0632,1.3241,-0.0127,-1.0109,1.0778,2.1796,1.5174,-1.3412,1.7062,
15.410523,0.0632,1.3241,-0.0127,-3.4099,6.8646,3.7148,1.5174,-1.3412,1.7062,
15.445393,-0.0620,1.6232,-0.2364,-3.4099,6.8646,3.7148,1.5174,-1.3412,1.7062,
15.465170,-0.0620,1.6232,-0.2364,-3.4099,6.8646,3.7148,1.6795,-1.9273,2.5213,
15.467669,-0.0620,1.6232,-0.2364,-2.6223,5.5970,1.5440,1.6795,-1.9273,2.5213,
15.503319,0.6103,0.7331,-0.6323,-2.6223,5.5970,1.5440,1.6795,-1.9273,2.5213,
15.525470,0.6103,0.7331,-0.6323,-2.6223,5.5970,1.5440,0.0951,-2.7798,2.7524,
15.528360,0.6103,0.7331,-0.6323,2.7687,-1.2808,-0.6281,0.0951,-2.7798,2.7524,
15.562678,0.0272,0.2297,-0.6457,2.7687,-1.2808,-0.6281,0.0951,-2.7798,2.7524,
15.581614,0.0272,0.2297,-0.6457,2.7687,-1.2808,-0.6281,-2.3535,-3.5088,2.5437,
15.585031,0.0272,0.2297,-0.6457,-5.5793,-5.5693,-1.8759,-2.3535,-3.5088,2.5437,
15.622728,-0.2308,0.2762,-0.8700,-5.5793,-5.5693,-1.8759,-2.3535,-3.5088,2.5437,
15.644526,-0.2308,0.2762,-0.8700,-6.8486,-3.7449,-3.6756,-2.3535,-3.5088,2.5437,
15.647769,-0.2308,0.2762,-0.8700,-6.8486,-3.7449,-3.6756,-3.7312,-3.9973,2.3887,
15.678344,-0.7876,0.5768,-1.0209,-6.8486,-3.7449,-3.6756,-3.7312,-3.9973,2.3887,
15.697819,-0.7876,0.5768,-1.0209,-6.8486,-3.7449,-3.6756,-3.2289,-6.3901,1.4504,
15.700960,-0.7876,0.5768,-1.0209,-9.7633,-2.1604,-6.9143,-3.2289,-6.3901,1.4504,
15.736280,-0.4095,0.6717,-1.3108,-9.7633,-2.1604,-6.9143,-3.2289,-6.3901,1.4504,
15.756620,-0.4095,0.6717,-1.3108,-3.1182,-1.5642,-8.0709,-3.2289,-6.3901,1.4504,
15.759112,-0.4095,0.6717,-1.3108,-3.1182,-1.5642,-8.0709,-2.3787,-5.8971,0.5079,
15.794842,-0.1174,0.8129,-0.8997,-3.1182,-1.5642,-8.0709,-2.3787,-5.8971,0.5079,
15.814217,-0.1174,0.8129,-0.8997,-3.1182,-1.5642,-8.0709,-1.9780,-3.6233,-0.7338,
15.817084,-0.1174,0.8129,-0.8997,-0.6649,-0.3588,-4.2799,-1.9780,-3.6233,-0.7338,
15.854235,0.0204,1.0156,-0.5660,-0.6649,-0.3588,-4.2799,-1.9780,-3.6233,-0.7338,
15.874434,0.1250,1.0301,-0.2571,-0.6649,-0.3588,-4.2799,-1.9780,-3.6233,-0.7338,
15.877423,0.1250,1.0301,-0.2571,-0.6649,-0.3588,-4.2799,-1.6844,-2.9527,-0.7192,
15.879199,0.1250,1.0301,-0.2571,2.0203,0.7300,-2.1378,-1.6844,-2.9527,-0.7192,
15.892208,0.0000,1.0086,-0.2256,2.0203,0.7300,-2.1378,-1.6844,-2.9527,-0.7192,
15.911936,0.0071,0.9376,-0.2058,2.0203,0.7300,-2.1378,-1.6844,-2.9527,-0.7192,
15.931900,0.0071,0.9376,-0.2058,2.0203,0.7300,-2.1378,-1.0340,-3.8894,-0.2795,
15.938439,0.1340,0.9286,-0.2327,2.0203,0.7300,-2.1378,-1.0340,-3.8894,-0.2795,
15.940933,0.1340,0.9286,-0.2327,2.1098,-0.0031,-0.9363,-1.0340,-3.8894,-0.2795,
15.953216,0.2698,0.9325,-0.3230,2.1098,-0.0031,-0.9363,-1.0340,-3.8894,-0.2795,
15.970502,0.4336,0.8421,-0.3230,2.1098,-0.0031,-0.9363,-1.0340,-3.8894,-0.2795,
15.989851,0.5682,0.7193,-0.3406,2.1098,-0.0031,-0.9363,-1.0340,-3.8894,-0.2795,
15.992680,0.5682,0.7193,-0.3406,2.1098,-0.0031,-0.9363,-0.1935,-4.5402,0.8235,
15.994794,0.5682,0.7193,-0.3406,5.5005,-1.3137,-2.4780,-0.1935,-4.5402,0.8235,
16.009641,0.6710,0.6307,-0.3816,5.5005,-1.3137,-2.4780,-0.1935,-4.5402,0.8235,
16.028664,0.6260,0.5823,-0.5081,5.5005,-1.3137,-2.4780,-0.1935,-4.5402,0.8235,
16.048669,0.6260,0.5823,-0.5081,6.1165,-2.8590,-3.6681,-0.1935,-4.5402,0.8235,
16.052049,0.6260,0.5823,-0.5081,6.1165,-2.8590,-3.6681,0.0442,-2.1869,0.9536,
16.054342,0.3306,0.8119,-0.4417,6.1165,-2.8590,-3.6681,0.0442,-2.1869,0.9536,
16.076771,0.0283,1.6476,0.2605,6.1165,-2.8590,-3.6681,0.0442,-2.1869,0.9536,
16.086811,-0.4063,2.3225,0.5347,6.1165,-2.8590,-3.6681,0.0442,-2.1869,0.9536,
16.105962,-0.4063,2.3225,0.5347,6.1165,-2.8590,-3.6681,-0.3720,1.5323,0.1959,
16.108295,-0.5794,1.1752,0.0564,6.1165,-2.8590,-3.6681,-0.3720,1.5323,0.1959,
16.109669,-0.5794,1.1752,0.0564,-2.4471,7.1909,3.2612,-0.3720,1.5323,0.1959,
16.125634,-0.3963,0.4659,-0.2471,-2.4471,7.1909,3.2612,-0.3720,1.5323,0.1959,
16.144797,-0.1968,0.7481,-0.2537,-2.4471,7.1909,3.2612,-0.3720,1.5323,0.1959,
16.164871,-0.1968,0.7481,-0.2537,-2.4471,7.1909,3.2612,0.0857,0.4494,0.9249,
16.167099,-0.0381,1.0377,-0.0088,-2.4471,7.1909,3.2612,0.0857,0.4494,0.9249,
16.168507,-0.0381,1.0377,-0.0088,-1.8816,-2.2431,-1.1041,0.0857,0.4494,0.9249,
16.197976,0.2537,1.1522,0.0454,-1.8816,-2.2431,-1.1041,0.0857,0.4494,0.9249,
16.206063,0.3306,1.0716,0.0088,-1.8816,-2.2431,-1.1041,0.0857,0.4494,0.9249,
16.222028,0.3306,1.0716,0.0088,-1.8816,-2.2431,-1.1041,-0.1751,-0.4797,0.9151,
16.223752,0.1365,0.9461,0.0015,-1.8816,-2.2431,-1.1041,-0.1751,-0.4797,0.9151,
16.224533,0.1365,0.9461,0.0015,2.0026,0.7427,0.6378,-0.1751,-0.4797,0.9151,
16.241103,0.0420,1.0377,0.0266,2.0026,0.7427,0.6378,-0.1751,-0.4797,0.9151,
16.261250,0.0024,1.0834,-0.0708,2.0026,0.7427,0.6378,-0.1751,-0.4797,0.9151,
16.280220,0.0317,1.0152,-0.0439,2.0026,0.7427,0.6378,-0.1751,-0.4797,0.9151,
16.281791,0.0317,1.0152,-0.0439,2.0026,0.7427,0.6378,-0.1130,-0.1279,0.4969,
16.282518,0.0317,1.0152,-0.0439,-0.3719,0.6332,0.1062,-0.1130,-0.1279,0.4969,
16.299893,0.0652,0.9886,0.0027,-0.3719,0.6332,0.1062,-0.1130,-0.1279,0.4969,
16.323809,0.0964,1.0243,0.0029,-0.3719,0.6332,0.1062,-0.1130,-0.1279,0.4969,
16.343265,0.0964,1.0243,0.0029,-0.0531,0.2778,0.5710,-0.1130,-0.1279,0.4969,
16.345385,0.0857,1.0106,0.0579,-0.0531,0.2778,0.5710,-0.1130,-0.1279,0.4969,
16.346230,0.0857,1.0106,0.0579,-0.0531,0.2778,0.5710,-0.0627,-0.3248,0.4435,
16.358705,0.0498,0.9981,0.0772,-0.0531,0.2778,0.5710,-0.0627,-0.3248,0.4435,
16.378799,0.0444,0.9947,0.0681,-0.0531,0.2778,0.5710,-0.0627,-0.3248,0.4435,
16.398625,0.0151,1.0221,0.0701,-0.0531,0.2778,0.5710,-0.0627,-0.3248,0.4435,
16.402229,0.0151,1.0221,0.0701,-0.0531,0.2778,0.5710,0.1242,-0.2661,0.4301,
16.405103,0.0151,1.0221,0.0701,-0.7258,0.2728,1.1325,0.1242,-0.2661,0.4301,
16.417087,0.0801,0.9955,0.0449,-0.7258,0.2728,1.1325,0.1242,-0.2661,0.4301,
16.436904,0.0842,0.9776,0.0151,-0.7258,0.2728,1.1325,0.1242,-0.2661,0.4301,
16.462943,0.0842,0.9776,0.0151,-0.5572,0.1585,0.8917,0.1242,-0.2661,0.4301,
16.465595,0.0842,0.9776,0.0151,-0.5572,0.1585,0.8917,0.3111,-0.3178,0.5748,
16.468623,0.0889,0.9920,0.0261,-0.5572,0.1585,0.8917,0.3111,-0.3178,0.5748,
16.476156,0.0999,1.0196,0.0034,-0.5572,0.1585,0.8917,0.3111,-0.3178,0.5748,
16.498277,0.0391,1.0128,-0.0029,-0.5572,0.1585,0.8917,0.3111,-0.3178,0.5748,
16.515985,0.0391,1.0128,-0.0029,-0.5572,0.1585,0.8917,0.4661,-0.3392,0.7039,
16.519089,0.0391,1.0128,-0.0029,-1.0716,0.4897,1.0260,0.4661,-0.3392,0.7039,
16.520956,0.0659,1.0106,0.0437,-1.0716,0.4897,1.0260,0.4661,-0.3392,0.7039,
16.535775,0.1279,1.0045,0.0105,-1.0716,0.4897,1.0260,0.4661,-0.3392,0.7039,
16.552876,0.1543,0.9757,-0.0776,-1.0716,0.4897,1.0260,0.4661,-0.3392,0.7039,
16.576290,0.1543,0.9757,-0.0776,-0.9745,0.3897,0.8123,0.4661,-0.3392,0.7039,
16.579835,0.0996,0.9877,-0.0735,-0.9745,0.3897,0.8123,0.4661,-0.3392,0.7039,
16.581480,0.0996,0.9877,-0.0735,-0.9745,0.3897,0.8123,0.6681,-0.3341,0.9481,
16.593635,0.0469,1.0182,-0.0430,-0.9745,0.3897,0.8123,0.6681,-0.3341,0.9481,
16.611316,0.2066,1.0599,-0.0569,-0.9745,0.3897,0.8123,0.6681,-0.3341,0.9481,
16.630477,0.3697,1.0760,-0.0942,-0.9745,0.3897,0.8123,0.6681,-0.3341,0.9481,
16.632841,0.3697,1.0760,-0.0942,-0.9745,0.3897,0.8123,0.8177,-0.5253,1.2381,
16.635105,0.3697,1.0760,-0.0942,-0.7894,1.2333,1.1345,0.8177,-0.5253,1.2381,
16.651347,0.2383,1.0760,-0.1084,-0.7894,1.2333,1.1345,0.8177,-0.5253,1.2381,
16.672018,0.0476,1.1381,-0.0952,-0.7894,1.2333,1.1345,0.8177,-0.5253,1.2381,
16.695879,0.0476,1.1381,-0.0952,-0.7894,1.2333,1.1345,1.0036,-0.4989,1.3305,
16.697773,0.0364,1.2135,-0.1030,-0.7894,1.2333,1.1345,1.0036,-0.4989,1.3305,
16.698577,0.0364,1.2135,-0.1030,-2.3625,2.4508,1.3559,1.0036,-0.4989,1.3305,
16.709096,0.1045,1.2360,-0.1521,-2.3625,2.4508,1.3559,1.0036,-0.4989,1.3305,
16.727507,-0.0525,1.3534,-0.1326,-2.3625,2.4508,1.3559,1.0036,-0.4989,1.3305,
16.746944,-0.3660,1.6952,0.1453,-2.3625,2.4508,1.3559,1.0036,-0.4989,1.3305,
16.748433,-0.3660,1.6952,0.1453,-2.3625,2.4508,1.3559,1.5105,-0.8933,1.6449,
16.749184,-0.3660,1.6952,0.1453,-5.0194,5.7624,2.7957,1.5105,-0.8933,1.6449,
16.766836,-0.9171,1.8879,0.2273,-5.0194,5.7624,2.7957,1.5105,-0.8933,1.6449,
16.787892,-1.4162,1.7827,0.1104,-5.0194,5.7624,2.7957,1.5105,-0.8933,1.6449,
16.808372,-1.0077,1.4206,-0.0601,-5.0194,5.7624,2.7957,1.5105,-0.8933,1.6449,
16.810139,-1.0077,1.4206,-0.0601,-5.0194,5.7624,2.7957,2.0519,-2.0647,2.2914,
16.811119,-1.0077,1.4206,-0.0601,-15.2006,9.2895,5.5098,2.0519,-2.0647,2.2914,
16.826736,0.1199,1.2142,-0.6546,-15.2006,9.2895,5.5098,2.0519,-2.0647,2.2914,
16.844435,1.2672,1.3178,-0.6688,-15.2006,9.2895,5.5098,2.0519,-2.0647,2.2914,
16.863435,1.2672,1.3178,-0.6688,-15.2006,9.2895,5.5098,2.2553,-2.7703,3.6457,
16.864818,1.3417,1.1051,-0.5750,-15.2006,9.2895,5.5098,2.2553,-2.7703,3.6457,
16.865504,1.3417,1.1051,-0.5750,4.0514,6.1213,0.0023,2.2553,-2.7703,3.6457,
16.883285,0.7347,0.7340,-0.8267,4.0514,6.1213,0.0023,2.2553,-2.7703,3.6457,
16.902654,0.5228,0.4888,-1.0213,4.0514,6.1213,0.0023,2.2553,-2.7703,3.6457,
16.922096,0.5228,0.4888,-1.0213,4.0514,6.1213,0.0023,0.1804,-0.1865,1.0967,
16.923784,0.4266,0.3706,-0.4942,4.0514,6.1213,0.0023,0.1804,-0.1865,1.0967,
16.924658,0.4266,0.3706,-0.4942,0.3474,-0.1697,-1.3136,0.1804,-0.1865,1.0967,
16.942173,0.2114,0.1453,-0.1541,0.3474,-0.1697,-1.3136,0.1804,-0.1865,1.0967,
16.961803,-0.0544,-0.0120,-0.0393,0.3474,-0.1697,-1.3136,0.1804,-0.1865,1.0967,
16.981954,-0.2412,0.0051,-0.1475,0.3474,-0.1697,-1.3136,0.1804,-0.1865,1.0967,
16.985807,-0.2412,0.0051,-0.1475,0.3474,-0.1697,-1.3136,-2.4592,0.9801,-1.3427,
16.988896,-0.2412,0.0051,-0.1475,-5.1962,-6.0499,4.0057,-2.4592,0.9801,-1.3427,
17.011470,-0.2461,0.1895,-0.2801,-5.1962,-6.0499,4.0057,-2.4592,0.9801,-1.3427,
17.021472,-0.0481,0.3775,-0.3387,-5.1962,-6.0499,4.0057,-2.4592,0.9801,-1.3427,
17.039517,-0.0386,0.5259,-0.3819,-5.1962,-6.0499,4.0057,-2.4592,0.9801,-1.3427,
17.044908,-0.0386,0.5259,-0.3819,-5.1962,-6.0499,4.0057,-3.2372,-0.8682,-2.9505,
17.046637,-0.0386,0.5259,-0.3819,-4.4473,-4.4389,0.6625,-3.2372,-0.8682,-2.9505,
17.060208,-0.1419,0.6256,-0.3147,-4.4473,-4.4389,0.6625,-3.2372,-0.8682,-2.9505,
17.078393,-0.0986,0.7530,-0.3724,-4.4473,-4.4389,0.6625,-3.2372,-0.8682,-2.9505,
17.098455,-0.0359,0.9613,-0.5137,-4.4473,-4.4389,0.6625,-3.2372,-0.8682,-2.9505,
17.103521,-0.0359,0.9613,-0.5137,-4.4473,-4.4389,0.6625,-4.2299,-2.7181,-3.9806,
17.106813,-0.0359,0.9613,-0.5137,-1.7344,-1.5880,-1.7885,-4.2299,-2.7181,-3.9806,
17.121688,0.0652,1.3078,-0.6827,-1.7344,-1.5880,-1.7885,-4.2299,-2.7181,-3.9806,
17.140059,0.3062,1.6779,-0.7730,-1.7344,-1.5880,-1.7885,-4.2299,-2.7181,-3.9806,
17.159030,0.3062,1.6779,-0.7730,-1.7344,-1.5880,-1.7885,-5.0647,-1.6035,-4.0484,
17.165815,0.4544,1.8454,-0.7838,-1.7344,-1.5880,-1.7885,-5.0647,-1.6035,-4.0484,
17.168169,0.4544,1.8454,-0.7838,4.1078,6.3030,-7.8488,-5.0647,-1.6035,-4.0484,
17.175969,0.4102,1.7363,-0.7889,4.1078,6.3030,-7.8488,-5.0647,-1.6035,-4.0484,
17.194635,0.3655,1.3361,-0.5362,4.1078,6.3030,-7.8488,-5.0647,-1.6035,-4.0484,
17.214416,0.5865,1.0209,-0.1870,4.1078,6.3030,-7.8488,-5.0647,-1.6035,-4.0484,
17.217136,0.5865,1.0209,-0.1870,4.1078,6.3030,-7.8488,-4.3675,0.8943,-3.5548,
17.218750,0.5865,1.0209,-0.1870,7.7303,4.7360,-7.5125,-4.3675,0.8943,-3.5548,
17.235647,0.5892,0.9210,-0.2222,7.7303,4.7360,-7.5125,-4.3675,0.8943,-3.5548,
17.254830,0.4539,0.8541,-0.5770,7.7303,4.7360,-7.5125,-4.3675,0.8943,-3.5548,
17.273339,0.5662,0.7249,-0.4405,7.7303,4.7360,-7.5125,-4.3675,0.8943,-3.5548,
17.280709,0.5662,0.7249,-0.4405,8.7811,-0.2505,-6.6811,-4.3675,0.8943,-3.5548,
17.282754,0.5662,0.7249,-0.4405,8.7811,-0.2505,-6.6811,-0.8569,1.2012,-0.3899,
17.292083,0.4495,0.9059,-0.4808,8.7811,-0.2505,-6.6811,-0.8569,1.2012,-0.3899,
17.311349,-0.1306,1.4916,-0.1416,8.7811,-0.2505,-6.6811,-0.8569,1.2012,-0.3899,
17.330647,-2.1289,1.7260,1.5412,8.7811,-0.2505,-6.6811,-0.8569,1.2012,-0.3899,
17.333099,-2.1289,1.7260,1.5412,-2.6920,4.6385,1.1119,-0.8569,1.2012,-0.3899,
17.338362,-2.1289,1.7260,1.5412,-2.6920,4.6385,1.1119,0.6111,2.2865,1.3095,
17.350197,-1.4042,1.4591,0.1384,-2.6920,4.6385,1.1119,0.6111,2.2865,1.3095,
17.371042,0.2810,1.4481,-0.9877,-2.6920,4.6385,1.1119,0.6111,2.2865,1.3095,
17.389275,0.2810,1.4481,-0.9877,0.3425,4.2022,-6.0978,0.6111,2.2865,1.3095,
17.391038,0.2810,1.4481,-0.9877,0.3425,4.2022,-6.0978,1.4192,0.7764,1.9165,
17.391742,0.5315,1.2352,-0.7413,0.3425,4.2022,-6.0978,1.4192,0.7764,1.9165,
17.408941,0.1790,0.7352,0.1616,0.3425,4.2022,-6.0978,1.4192,0.7764,1.9165,
17.427992,0.2088,0.7860,0.2696,0.3425,4.2022,-6.0978,1.4192,0.7764,1.9165,
17.447838,0.2088,0.7860,0.2696,0.3425,4.2022,-6.0978,0.5033,0.2550,1.5905,
17.450070,0.2332,1.0597,0.2193,0.3425,4.2022,-6.0978,0.5033,0.2550,1.5905,
17.451660,0.2332,1.0597,0.2193,3.3820,-1.0743,1.5028,0.5033,0.2550,1.5905,
17.467016,0.0410,1.0685,0.0173,3.3820,-1.0743,1.5028,0.5033,0.2550,1.5905,
17.489168,-0.1970,1.0470,-0.1152,3.3820,-1.0743,1.5028,0.5033,0.2550,1.5905,
17.506653,-0.2727,1.0694,-0.0007,3.3820,-1.0743,1.5028,0.5033,0.2550,1.5905,
17.510484,-0.2727,1.0694,-0.0007,3.3820,-1.0743,1.5028,0.4862,-0.1692,0.7895,
17.512400,-0.2727,1.0694,-0.0007,-0.4823,0.8190,-0.6721,0.4862,-0.1692,0.7895,
17.526966,-0.1873,0.9969,0.0628,-0.4823,0.8190,-0.6721,0.4862,-0.1692,0.7895,
17.544761,0.0847,0.9627,0.0942,-0.4823,0.8190,-0.6721,0.4862,-0.1692,0.7895,
17.564584,0.0847,0.9627,0.0942,-0.4823,0.8190,-0.6721,0.4038,-0.0387,0.7628,
17.566701,0.0146,0.9774,0.1262,-0.4823,0.8190,-0.6721,0.4038,-0.0387,0.7628,
17.567925,0.0146,0.9774,0.1262,0.1994,-0.0271,0.7866,0.4038,-0.0387,0.7628,
17.583797,-0.1980,0.9789,0.1799,0.1994,-0.0271,0.7866,0.4038,-0.0387,0.7628,
17.604453,-0.0957,0.9605,0.1926,0.1994,-0.0271,0.7866,0.4038,-0.0387,0.7628,
17.629451,-0.0957,0.9605,0.1926,0.1994,-0.0271,0.7866,0.5152,-0.2144,0.7754,
17.632454,-0.0210,0.9813,0.1528,0.1994,-0.0271,0.7866,0.5152,-0.2144,0.7754,
17.635186,-0.0210,0.9813,0.1528,-0.9606,-0.0910,1.8331,0.5152,-0.2144,0.7754,
17.648969,-0.0432,0.9935,0.0833,-0.9606,-0.0910,1.8331,0.5152,-0.2144,0.7754,
17.661474,-0.0117,1.0135,0.0261,-0.9606,-0.0910,1.8331,0.5152,-0.2144,0.7754,
17.680396,-0.0117,1.0135,0.0261,-0.9606,-0.0910,1.8331,0.7670,-0.1427,0.9499,
17.682342,-0.0549,1.0030,0.0476,-0.9606,-0.0910,1.8331,0.7670,-0.1427,0.9499,
17.683564,-0.0549,1.0030,0.0476,-0.8083,0.2230,1.0437,0.7670,-0.1427,0.9499,
17.699905,-0.0754,0.9547,0.0679,-0.8083,0.2230,1.0437,0.7670,-0.1427,0.9499,
17.719618,0.0015,0.9835,0.0020,-0.8083,0.2230,1.0437,0.7670,-0.1427,0.9499,
17.748749,0.0015,0.9835,0.0020,-0.8083,0.2230,1.0437,1.0036,-0.2616,1.2144,
17.751870,0.1221,0.9901,-0.0989,-0.8083,0.2230,1.0437,1.0036,-0.2616,1.2144,
17.754033,0.1221,0.9901,-0.0989,-0.9411,0.0580,0.9911,1.0036,-0.2616,1.2144,
17.762148,0.1167,1.0201,-0.1765,-0.9411,0.0580,0.9911,1.0036,-0.2616,1.2144,
17.777564,0.1013,1.0277,-0.2049,-0.9411,0.0580,0.9911,1.0036,-0.2616,1.2144,
17.797447,0.0977,1.0025,-0.1765,-0.9411,0.0580,0.9911,1.0036,-0.2616,1.2144,
17.799425,0.0977,1.0025,-0.1765,-0.9411,0.0580,0.9911,1.0627,-0.4811,1.2662,
17.800606,0.0977,1.0025,-0.1765,-0.7106,0.6382,-0.1102,1.0627,-0.4811,1.2662,
17.816891,0.1116,0.9862,-0.1294,-0.7106,0.6382,-0.1102,1.0627,-0.4811,1.2662,
17.836474,0.1619,1.0348,-0.0989,-0.7106,0.6382,-0.1102,1.0627,-0.4811,1.2662,
17.865053,0.1619,1.0348,-0.0989,-0.7106,0.6382,-0.1102,1.2620,-0.3219,1.3411,
17.868438,0.1624,1.0560,-0.1165,-0.7106,0.6382,-0.1102,1.2620,-0.3219,1.3411,
17.870361,0.1624,1.0560,-0.1165,-0.9816,1.0234,1.2787,1.2620,-0.3219,1.3411,
17.880827,0.0767,1.0819,-0.1448,-0.9816,1.0234,1.2787,1.2620,-0.3219,1.3411,
17.894629,0.0586,1.1178,-0.1926,-0.9816,1.0234,1.2787,1.2620,-0.3219,1.3411,
17.914664,-0.0125,1.2379,-0.1472,-0.9816,1.0234,1.2787,1.2620,-0.3219,1.3411,
17.916879,-0.0125,1.2379,-0.1472,-0.9816,1.0234,1.2787,1.5781,-0.6147,1.4887,
17.918277,-0.0125,1.2379,-0.1472,-2.6198,2.6578,1.7007,1.5781,-0.6147,1.4887,
17.934088,-0.2337,1.5214,0.0339,-2.6198,2.6578,1.7007,1.5781,-0.6147,1.4887,
17.954783,-0.5027,1.7560,0.0701,-2.6198,2.6578,1.7007,1.5781,-0.6147,1.4887,
17.976324,-0.9361,1.8913,0.0610,-2.6198,2.6578,1.7007,1.5781,-0.6147,1.4887,
17.980037,-0.9361,1.8913,0.0610,-2.6198,2.6578,1.7007,2.2865,-0.6571,1.6984,
17.981171,-0.9361,1.8913,0.0610,-8.9930,9.0134,4.9558,2.2865,-0.6571,1.6984,
17.997067,-1.0316,1.7863,0.0764,-8.9930,9.0134,4.9558,2.2865,-0.6571,1.6984,
18.010874,-0.2012,1.3009,-0.1497,-8.9930,9.0134,4.9558,2.2865,-0.6571,1.6984,
18.030436,0.8358,1.3197,-0.6263,-8.9930,9.0134,4.9558,2.2865,-0.6571,1.6984,
18.032503,0.8358,1.3197,-0.6263,-8.9930,9.0134,4.9558,2.4942,-1.7367,2.6709,
18.033877,0.8358,1.3197,-0.6263,-5.3317,7.7428,3.5174,2.4942,-1.7367,2.6709,
18.049839,1.4389,1.2225,-0.4183,-5.3317,7.7428,3.5174,2.4942,-1.7367,2.6709,
18.069518,0.8675,0.9205,-0.5948,-5.3317,7.7428,3.5174,2.4942,-1.7367,2.6709,
18.099458,0.4612,0.5933,-0.6959,-5.3317,7.7428,3.5174,2.4942,-1.7367,2.6709,
18.102897,0.4612,0.5933,-0.6959,-5.3317,7.7428,3.5174,1.9489,-0.1028,1.7724,
18.105048,0.4612,0.5933,-0.6959,4.3333,3.3775,0.9170,1.9489,-0.1028,1.7724,
18.117037,0.4017,0.4625,-0.5462,4.3333,3.3775,0.9170,1.9489,-0.1028,1.7724,
18.127551,0.3577,0.3240,-0.1795,4.3333,3.3775,0.9170,1.9489,-0.1028,1.7724,
18.147911,0.2112,0.1560,0.1133,4.3333,3.3775,0.9170,1.9489,-0.1028,1.7724,
18.150287,0.2112,0.1560,0.1133,4.3333,3.3775,0.9170,-0.8112,0.7115,-0.3288,
18.152883,0.2112,0.1560,0.1133,-1.6593,-2.8234,3.9598,-0.8112,0.7115,-0.3288,
18.171383,0.0447,0.0510,0.0132,-1.6593,-2.8234,3.9598,-0.8112,0.7115,-0.3288,
18.185789,0.0073,0.1399,-0.1831,-1.6593,-2.8234,3.9598,-0.8112,0.7115,-0.3288,
18.208646,0.0073,0.1399,-0.1831,-3.3610,-5.1146,3.4741,-0.8112,0.7115,-0.3288,
18.212293,0.0073,0.1399,-0.1831,-3.3610,-5.1146,3.4741,-2.0187,-0.1936,-2.2569,
18.224718,0.0977,0.4026,-0.3521,-3.3610,-5.1146,3.4741,-2.0187,-0.1936,-2.2569,
18.237233,0.1792,0.5770,-0.3540,-3.3610,-5.1146,3.4741,-2.0187,-0.1936,-2.2569,
18.244136,0.2156,0.6351,-0.2044,-3.3610,-5.1146,3.4741,-2.0187,-0.1936,-2.2569,
18.265165,0.2092,0.7208,-0.2659,-3.3610,-5.1146,3.4741,-2.0187,-0.1936,-2.2569,
18.268064,0.2092,0.7208,-0.2659,-3.3610,-5.1146,3.4741,-3.4087,-1.1148,-3.2245,
18.270124,0.2092,0.7208,-0.2659,-0.1120,-2.1655,1.0994,-3.4087,-1.1148,-3.2245,
18.286798,0.2385,0.8775,-0.3802,-0.1120,-2.1655,1.0994,-3.4087,-1.1148,-3.2245,
18.303408,0.3028,1.0328,-0.4085,-0.1120,-2.1655,1.0994,-3.4087,-1.1148,-3.2245,
18.323718,0.3028,1.0328,-0.4085,-0.1120,-2.1655,1.0994,-4.5174,-1.3801,-3.7265,
18.328367,0.3677,1.2689,-0.4874,-0.1120,-2.1655,1.0994,-4.5174,-1.3801,-3.7265,
18.330679,0.3677,1.2689,-0.4874,3.0104,0.9677,-2.6314,-4.5174,-1.3801,-3.7265,
18.355702,0.4014,1.5634,-0.6536,3.0104,0.9677,-2.6314,-4.5174,-1.3801,-3.7265,
18.362514,0.3453,1.6169,-0.6180,3.0104,0.9677,-2.6314,-4.5174,-1.3801,-3.7265,
18.393630,0.5496,1.5011,-0.5787,3.0104,0.9677,-2.6314,-4.5174,-1.3801,-3.7265,
18.396573,0.5496,1.5011,-0.5787,6.2594,5.9575,-7.0433,-4.5174,-1.3801,-3.7265,
18.397648,0.5496,1.5011,-0.5787,6.2594,5.9575,-7.0433,-4.8851,0.2179,-3.7692,
18.399795,0.7401,1.2824,-0.4393,6.2594,5.9575,-7.0433,-4.8851,0.2179,-3.7692,
18.419390,0.4793,1.1327,-0.3243,6.2594,5.9575,-7.0433,-4.8851,0.2179,-3.7692,
18.439761,0.4793,1.1327,-0.3243,6.2594,5.9575,-7.0433,-3.4186,1.1130,-2.3638,
18.441806,0.4041,1.0267,-0.4715,6.2594,5.9575,-7.0433,-3.4186,1.1130,-2.3638,
18.442904,0.4041,1.0267,-0.4715,8.5574,2.6040,-6.5337,-3.4186,1.1130,-2.3638,
18.463905,0.5294,0.7735,-0.5489,8.5574,2.6040,-6.5337,-3.4186,1.1130,-2.3638,
18.478622,0.6109,0.6922,-0.4612,8.5574,2.6040,-6.5337,-3.4186,1.1130,-2.3638,
18.498319,0.6109,0.6922,-0.4612,8.7424,-1.2933,-7.7767,-3.4186,1.1130,-2.3638,
18.501945,0.6109,0.6922,-0.4612,8.7424,-1.2933,-7.7767,-0.3773,1.5838,0.5533,
18.504242,0.5975,0.7913,-0.6829,8.7424,-1.2933,-7.7767,-0.3773,1.5838,0.5533,
18.518219,0.2056,1.2089,-0.8360,8.7424,-1.2933,-7.7767,-0.3773,1.5838,0.5533,
18.537066,-1.7321,1.5348,0.8338,8.7424,-1.2933,-7.7767,-0.3773,1.5838,0.5533,
18.559614,-2.7520,1.5226,0.6937,8.7424,-1.2933,-7.7767,-0.3773,1.5838,0.5533,
18.563767,-2.7520,1.5226,0.6937,8.7424,-1.2933,-7.7767,0.1297,4.0220,0.0798,
18.566100,-2.7520,1.5226,0.6937,-10.3402,5.1564,0.8285,0.1297,4.0220,0.0798,
18.593978,-0.6268,1.7424,-0.6487,-10.3402,5.1564,0.8285,0.1297,4.0220,0.0798,
18.596306,0.5145,1.2528,-1.0199,-10.3402,5.1564,0.8285,0.1297,4.0220,0.0798,
18.613807,0.5496,0.7069,0.4703,-10.3402,5.1564,0.8285,0.1297,4.0220,0.0798,
18.615724,0.5496,0.7069,0.4703,-10.3402,5.1564,0.8285,1.1391,0.5573,2.6665,
18.616590,0.5496,0.7069,0.4703,3.6392,2.7357,-4.5421,1.1391,0.5573,2.6665,
18.632863,0.0503,0.6050,0.3614,3.6392,2.7357,-4.5421,1.1391,0.5573,2.6665,
18.652195,0.0564,1.0074,0.0230,3.6392,2.7357,-4.5421,1.1391,0.5573,2.6665,
18.672298,0.0564,1.0074,0.0230,3.6392,2.7357,-4.5421,0.7226,-0.0662,1.3706,
18.673202,0.1299,1.1935,-0.1079,3.6392,2.7357,-4.5421,0.7226,-0.0662,1.3706,
18.673634,0.1299,1.1935,-0.1079,2.1910,-0.3503,0.6580,0.7226,-0.0662,1.3706,
18.691297,-0.0447,1.0301,0.0054,2.1910,-0.3503,0.6580,0.7226,-0.0662,1.3706,
18.710746,-0.3218,0.9564,0.0408,2.1910,-0.3503,0.6580,0.7226,-0.0662,1.3706,
18.730067,-0.3218,0.9564,0.0408,2.1910,-0.3503,0.6580,0.5412,0.3048,0.9057,
18.731397,-0.2124,0.9842,0.0554,2.1910,-0.3503,0.6580,0.5412,0.3048,0.9057,
18.731913,-0.2124,0.9842,0.0554,-0.9607,0.1217,0.4013,0.5412,0.3048,0.9057,
18.749854,0.0217,0.9811,0.0925,-0.9607,0.1217,0.4013,0.5412,0.3048,0.9057,
18.769037,0.0269,0.9584,0.0271,-0.9607,0.1217,0.4013,0.5412,0.3048,0.9057,
18.789719,0.0637,0.9439,0.0017,-0.9607,0.1217,0.4013,0.5412,0.3048,0.9057,
18.794135,0.0637,0.9439,0.0017,-0.9607,0.1217,0.4013,0.5805,0.0051,0.9609,
18.796331,0.0637,0.9439,0.0017,0.7470,-0.1898,0.7787,0.5805,0.0051,0.9609,
18.810587,0.0903,0.9710,-0.0112,0.7470,-0.1898,0.7787,0.5805,0.0051,0.9609,
18.828999,0.0515,1.0123,-0.0659,0.7470,-0.1898,0.7787,0.5805,0.0051,0.9609,
18.849118,0.0515,1.0123,-0.0659,0.4461,0.2428,0.1130,0.5805,0.0051,0.9609,
18.857226,0.0032,1.0314,-0.0901,0.4461,0.2428,0.1130,0.5805,0.0051,0.9609,
18.858640,0.0032,1.0314,-0.0901,0.4461,0.2428,0.1130,0.4987,-0.0456,0.7170,
18.868508,0.0352,0.9923,-0.0808,0.4461,0.2428,0.1130,0.4987,-0.0456,0.7170,
18.886113,0.0999,0.9645,-0.0559,0.4461,0.2428,0.1130,0.4987,-0.0456,0.7170,
18.905337,0.0999,0.9645,-0.0559,0.4461,0.2428,0.1130,0.3956,-0.0379,0.5783,
18.907222,0.0532,0.9962,-0.0508,0.4461,0.2428,0.1130,0.3956,-0.0379,0.5783,
18.908102,0.0532,0.9962,-0.0508,0.2610,0.0641,0.2641,0.3956,-0.0379,0.5783,
18.927889,0.0151,1.0150,-0.0715,0.2610,0.0641,0.2641,0.3956,-0.0379,0.5783,
18.944355,0.0208,1.0116,-0.1035,0.2610,0.0641,0.2641,0.3956,-0.0379,0.5783,
18.963366,0.0300,1.0023,-0.0974,0.2610,0.0641,0.2641,0.3956,-0.0379,0.5783,
18.964599,0.0300,1.0023,-0.0974,0.2610,0.0641,0.2641,0.3626,-0.2174,0.4997,
18.967519,0.0300,1.0023,-0.0974,-0.3982,0.3413,0.1922,0.3626,-0.2174,0.4997,
18.982778,0.0637,0.9845,-0.0645,-0.3982,0.3413,0.1922,0.3626,-0.2174,0.4997,
19.002490,0.1011,0.9701,-0.0400,-0.3982,0.3413,0.1922,0.3626,-0.2174,0.4997,
19.022235,0.1106,0.9745,-0.0278,-0.3982,0.3413,0.1922,0.3626,-0.2174,0.4997,
19.024941,0.1106,0.9745,-0.0278,-0.3982,0.3413,0.1922,0.4201,-0.2596,0.5272,
19.026595,0.1106,0.9745,-0.0278,0.0113,0.0666,0.8799,0.4201,-0.2596,0.5272,
19.042401,0.0850,0.9852,0.0027,0.0113,0.0666,0.8799,0.4201,-0.2596,0.5272,
19.061167,0.0254,0.9864,-0.0017,0.0113,0.0666,0.8799,0.4201,-0.2596,0.5272,
19.081641,0.0254,0.9864,-0.0017,0.0113,0.0666,0.8799,0.5972,-0.4284,0.5606,
19.083993,-0.0039,0.9615,-0.0159,0.0113,0.0666,0.8799,0.5972,-0.4284,0.5606,
19.085238,-0.0039,0.9615,-0.0159,-0.7991,0.1628,1.5919,0.5972,-0.4284,0.5606,
19.099874,0.0227,0.9366,0.0161,-0.7991,0.1628,1.5919,0.5972,-0.4284,0.5606,
19.119424,-0.0178,0.9962,0.0559,-0.7991,0.1628,1.5919,0.5972,-0.4284,0.5606,
19.139188,-0.0305,1.0904,0.1162,-0.7991,0.1628,1.5919,0.5972,-0.4284,0.5606,
19.141958,-0.0305,1.0904,0.1162,-0.7991,0.1628,1.5919,0.9749,-0.7481,0.9406,
19.144315,-0.0305,1.0904,0.1162,-1.6304,0.6313,2.7982,0.9749,-0.7481,0.9406,
19.160131,-0.0930,1.3026,0.2774,-1.6304,0.6313,2.7982,0.9749,-0.7481,0.9406,
19.178442,-0.1057,1.4357,0.1858,-1.6304,0.6313,2.7982,0.9749,-0.7481,0.9406,
19.197174,0.0496,1.5495,0.0442,-1.6304,0.6313,2.7982,0.9749,-0.7481,0.9406,
19.198752,0.0496,1.5495,0.0442,-1.6304,0.6313,2.7982,1.2885,-1.6294,1.8585,
19.199648,0.0496,1.5495,0.0442,-2.7190,5.0804,4.6260,1.2885,-1.6294,1.8585,
19.216420,0.0505,1.6134,-0.1714,-2.7190,5.0804,4.6260,1.2885,-1.6294,1.8585,
19.236110,-0.0571,1.5421,-0.2869,-2.7190,5.0804,4.6260,1.2885,-1.6294,1.8585,
19.256943,-0.0425,1.2828,-0.2469,-2.7190,5.0804,4.6260,1.2885,-1.6294,1.8585,
19.261036,-0.0425,1.2828,-0.2469,-2.7190,5.0804,4.6260,0.5665,-4.1846,3.0165,
19.262724,-0.0425,1.2828,-0.2469,-3.0151,6.0396,1.5675,0.5665,-4.1846,3.0165,
19.275633,0.0247,0.9493,-0.3616,-3.0151,6.0396,1.5675,0.5665,-4.1846,3.0165,
19.299214,0.1492,0.7008,-0.6776,-3.0151,6.0396,1.5675,0.5665,-4.1846,3.0165,
19.318028,0.1492,0.7008,-0.6776,-3.0151,6.0396,1.5675,-0.7043,-5.5670,3.4616,
19.321158,0.1492,0.7008,-0.6776,-1.6001,-0.6723,-1.9229,-0.7043,-5.5670,3.4616,
19.352530,0.0971,0.5298,-0.8644,-1.6001,-0.6723,-1.9229,-0.7043,-5.5670,3.4616,
19.371872,0.0971,0.5298,-0.8644,-1.6001,-0.6723,-1.9229,-2.3360,-4.2170,2.6777,
19.374781,0.0971,0.5298,-0.8644,-4.6553,-3.3711,-4.2119,-2.3360,-4.2170,2.6777,
19.411348,-0.4702,0.4268,-0.8686,-4.6553,-3.3711,-4.2119,-2.3360,-4.2170,2.6777,
19.433355,-0.4702,0.4268,-0.8686,-7.9589,-4.2248,-4.0359,-2.3360,-4.2170,2.6777,
19.437529,-0.4702,0.4268,-0.8686,-7.9589,-4.2248,-4.0359,-2.5966,-3.1667,1.4521,
19.469404,-0.6810,0.5320,-0.7812,-7.9589,-4.2248,-4.0359,-2.5966,-3.1667,1.4521,
19.489912,-0.6810,0.5320,-0.7812,-7.9589,-4.2248,-4.0359,-2.1776,-4.8843,0.0528,
19.493363,-0.6810,0.5320,-0.7812,-8.3633,-2.4785,-4.8001,-2.1776,-4.8843,0.0528,
19.528248,-0.2875,0.8696,-0.8996,-8.3633,-2.4785,-4.8001,-2.1776,-4.8843,0.0528,
19.547486,-0.2875,0.8696,-0.8996,-8.3633,-2.4785,-4.8001,-2.0646,-4.7933,-0.6430,
19.550105,-0.2875,0.8696,-0.8996,-1.9681,0.2942,-5.5819,-2.0646,-4.7933,-0.6430,
19.586688,-0.0615,1.0567,-0.6824,-1.9681,0.2942,-5.5819,-2.0646,-4.7933,-0.6430,
19.606639,-0.0615,1.0567,-0.6824,-1.9681,0.2942,-5.5819,-2.0081,-3.4361,-1.0519,
19.610288,-0.0615,1.0567,-0.6824,-0.1995,1.1820,-4.1296,-2.0081,-3.4361,-1.0519,
19.645640,0.0153,1.0481,-0.4423,-0.1995,1.1820,-4.1296,-2.0081,-3.4361,-1.0519,
19.664991,0.0153,1.0481,-0.4423,-0.1995,1.1820,-4.1296,-1.4461,-2.9606,-0.8416,
19.667490,0.0153,1.0481,-0.4423,1.7307,0.4054,-2.5752,-1.4461,-2.9606,-0.8416,
19.704729,0.1168,0.9510,-0.2659,1.7307,0.4054,-2.5752,-1.4461,-2.9606,-0.8416,
19.723932,0.1168,0.9510,-0.2659,1.7307,0.4054,-2.5752,-0.7355,-3.4390,-0.4986,
19.727180,0.1168,0.9510,-0.2659,2.8875,-0.7593,-2.1245,-0.7355,-3.4390,-0.4986,
19.765976,0.3329,0.7975,-0.2926,2.8875,-0.7593,-2.1245,-0.7355,-3.4390,-0.4986,
19.784745,0.3329,0.7975,-0.2926,2.8875,-0.7593,-2.1245,-0.0717,-3.2610,0.1124,
19.788525,0.3329,0.7975,-0.2926,5.8720,-1.8083,-3.3389,-0.0717,-3.2610,0.1124,
19.819694,0.7045,0.9850,-0.2810,5.8720,-1.8083,-3.3389,-0.0717,-3.2610,0.1124,
19.838358,0.7045,0.9850,-0.2810,5.8720,-1.8083,-3.3389,-0.5934,-0.3087,0.5748,
19.840640,0.7045,0.9850,-0.2810,6.2187,3.0367,1.7705,-0.5934,-0.3087,0.5748,
19.878328,-0.5067,1.3852,0.4237,6.2187,3.0367,1.7705,-0.5934,-0.3087,0.5748,
19.905338,-0.5067,1.3852,0.4237,-5.6134,0.9617,-0.2115,-0.5934,-0.3087,0.5748,
19.909716,-0.5067,1.3852,0.4237,-5.6134,0.9617,-0.2115,0.2798,0.7094,0.4887,
19.937460,0.0206,0.9408,-0.1307,-5.6134,0.9617,-0.2115,0.2798,0.7094,0.4887,
19.955349,0.0206,0.9408,-0.1307,-5.6134,0.9617,-0.2115,-0.0886,-0.5092,1.1654,
19.957568,0.0206,0.9408,-0.1307,2.4198,0.5257,-0.1739,-0.0886,-0.5092,1.1654,
19.995260,0.1115,1.0091,0.1144,2.4198,0.5257,-0.1739,-0.0886,-0.5092,1.1654,
20.015033,0.1115,1.0091,0.1144,2.4198,0.5257,-0.1739,0.1319,-0.1228,0.5844,
20.017397,0.1115,1.0091,0.1144,-0.6510,0.2601,0.3153,0.1319,-0.1228,0.5844,
20.052959,0.0855,1.0286,-0.0018,-0.6510,0.2601,0.3153,0.1319,-0.1228,0.5844,
20.072522,0.0855,1.0286,-0.0018,-0.6510,0.2601,0.3153,0.1494,-0.2372,0.5250,
20.076679,0.0855,1.0286,-0.0018,0.4951,0.3122,0.0353,0.1494,-0.2372,0.5250,
20.112141,-0.0074,1.0100,0.0515,0.4951,0.3122,0.0353,0.1494,-0.2372,0.5250,
20.131459,-0.0074,1.0100,0.0515,-1.0565,0.2130,0.7353,0.1494,-0.2372,0.5250,
20.134967,-0.0074,1.0100,0.0515,-1.0565,0.2130,0.7353,0.2844,-0.0932,0.4582,
20.169684,0.0251,0.9972,0.0433,-1.0565,0.2130,0.7353,0.2844,-0.0932,0.4582,
20.189594,0.0251,0.9972,0.0433,-0.7122,0.0938,0.8036,0.2844,-0.0932,0.4582,
20.194340,0.0251,0.9972,0.0433,-0.7122,0.0938,0.8036,0.4657,-0.2066,0.6343,
20.227788,0.0967,0.9859,0.0097,-0.7122,0.0938,0.8036,0.4657,-0.2066,0.6343,
20.253816,0.0967,0.9859,0.0097,-0.7122,0.0938,0.8036,0.5911,-0.1348,0.7510,
20.255864,0.0967,0.9859,0.0097,-0.8633,0.3289,0.5769,0.5911,-0.1348,0.7510,
20.286337,0.0340,1.0187,-0.0050,-0.8633,0.3289,0.5769,0.5911,-0.1348,0.7510,
20.307131,0.0340,1.0187,-0.0050,-0.8633,0.3289,0.5769,0.7630,-0.3706,1.0232,
20.310680,0.0340,1.0187,-0.0050,-1.2147,0.4970,0.8879,0.7630,-0.3706,1.0232,
20.344869,0.1957,1.0235,-0.1231,-1.2147,0.4970,0.8879,0.7630,-0.3706,1.0232,
20.370566,0.1957,1.0235,-0.1231,-0.8449,1.1434,0.2977,0.7630,-0.3706,1.0232,
20.373786,0.1957,1.0235,-0.1231,-0.8449,1.1434,0.2977,0.8434,-0.6381,1.1281,
20.402225,0.1170,1.0553,-0.1023,-0.8449,1.1434,0.2977,0.8434,-0.6381,1.1281,
20.422617,0.1170,1.0553,-0.1023,-0.8449,1.1434,0.2977,1.0187,-0.8279,1.3252,
20.425009,0.0232,1.1149,-0.1362,-0.8449,1.1434,0.2977,1.0187,-0.8279,1.3252,
20.426401,0.0232,1.1149,-0.1362,-2.0843,1.7021,1.1441,1.0187,-0.8279,1.3252,
20.446354,0.0381,1.1761,-0.1819,-2.0843,1.7021,1.1441,1.0187,-0.8279,1.3252,
20.463696,0.0808,1.3161,-0.1790,-2.0843,1.7021,1.1441,1.0187,-0.8279,1.3252,
20.483434,0.0808,1.3161,-0.1790,-2.0843,1.7021,1.1441,1.5066,-1.1335,1.6483,
20.486848,-0.1367,1.7175,0.0137,-2.0843,1.7021,1.1441,1.5066,-1.1335,1.6483,
20.488703,-0.1367,1.7175,0.0137,-3.8554,5.4221,2.1573,1.5066,-1.1335,1.6483,
20.500077,-0.6820,1.8933,0.0996,-3.8554,5.4221,2.1573,1.5066,-1.1335,1.6483,
20.519092,-1.0108,1.8185,0.1133,-3.8554,5.4221,2.1573,1.5066,-1.1335,1.6483,
20.538826,-0.8553,1.5663,0.0076,-3.8554,5.4221,2.1573,1.5066,-1.1335,1.6483,
20.540838,-0.8553,1.5663,0.0076,-3.8554,5.4221,2.1573,1.9026,-1.6994,2.1914,
20.541995,-0.8553,1.5663,0.0076,-12.5228,9.7117,5.2060,1.9026,-1.6994,2.1914,
20.558448,-0.1189,1.1573,-0.3326,-12.5228,9.7117,5.2060,1.9026,-1.6994,2.1914,
20.577548,0.8175,1.2242,-0.6451,-12.5228,9.7117,5.2060,1.9026,-1.6994,2.1914,
20.598818,1.1173,1.1918,-0.5833,-12.5228,9.7117,5.2060,1.9026,-1.6994,2.1914,
20.603613,1.1173,1.1918,-0.5833,-12.5228,9.7117,5.2060,1.8918,-3.1105,3.1890,
20.606065,1.1173,1.1918,-0.5833,1.3999,5.4490,0.9296,1.8918,-3.1105,3.1890,
20.624814,0.7511,0.8087,-0.6724,1.3999,5.4490,0.9296,1.8918,-3.1105,3.1890,
20.635616,0.5235,0.4673,-0.7435,1.3999,5.4490,0.9296,1.8918,-3.1105,3.1890,
20.655915,0.4854,0.3785,-0.5132,1.3999,5.4490,0.9296,1.8918,-3.1105,3.1890,
20.657985,0.4854,0.3785,-0.5132,1.3999,5.4490,0.9296,0.1885,-0.9450,1.2244,
20.659175,0.4854,0.3785,-0.5132,1.1140,-0.4203,0.0455,0.1885,-0.9450,1.2244,
20.675645,0.3504,0.2410,-0.3203,1.1140,-0.4203,0.0455,0.1885,-0.9450,1.2244,
20.696226,0.0415,0.1663,-0.1421,1.1140,-0.4203,0.0455,0.1885,-0.9450,1.2244,
20.715292,-0.1221,0.1336,-0.1082,1.1140,-0.4203,0.0455,0.1885,-0.9450,1.2244,
20.717140,-0.1221,0.1336,-0.1082,1.1140,-0.4203,0.0455,-2.1525,0.8640,-0.6668,
20.718406,-0.1221,0.1336,-0.1082,-3.7328,-4.8941,3.4025,-2.1525,0.8640,-0.6668,
20.740399,-0.0779,0.1966,-0.1934,-3.7328,-4.8941,3.4025,-2.1525,0.8640,-0.6668,
20.752079,0.0921,0.2940,-0.3282,-3.7328,-4.8941,3.4025,-2.1525,0.8640,-0.6668,
20.772793,0.1074,0.4165,-0.3382,-3.7328,-4.8941,3.4025,-2.1525,0.8640,-0.6668,
20.775954,0.1074,0.4165,-0.3382,-3.7328,-4.8941,3.4025,-3.0818,-0.1397,-2.1470,
20.778096,0.1074,0.4165,-0.3382,-3.2053,-4.9663,1.1475,-3.0818,-0.1397,-2.1470,
20.791721,0.0452,0.5206,-0.2569,-3.2053,-4.9663,1.1475,-3.0818,-0.1397,-2.1470,
20.811920,0.0581,0.6041,-0.2219,-3.2053,-4.9663,1.1475,-3.0818,-0.1397,-2.1470,
20.837232,0.0581,0.6041,-0.2219,-0.8695,-3.0438,-0.4808,-3.0818,-0.1397,-2.1470,
20.840308,0.0581,0.6041,-0.2219,-0.8695,-3.0438,-0.4808,-4.1148,-1.4630,-3.4359,
20.842108,0.1218,0.7410,-0.3147,-0.8695,-3.0438,-0.4808,-4.1148,-1.4630,-3.4359,
20.849952,0.1384,1.0233,-0.3765,-0.8695,-3.0438,-0.4808,-4.1148,-1.4630,-3.4359,
20.872511,0.1924,1.5268,-0.4498,-0.8695,-3.0438,-0.4808,-4.1148,-1.4630,-3.4359,
20.894135,0.1924,1.5268,-0.4498,-0.8695,-3.0438,-0.4808,-4.9210,-1.5129,-4.0429,
20.908930,0.2869,2.0180,-0.6375,-0.8695,-3.0438,-0.4808,-4.9210,-1.5129,-4.0429,
20.913282,0.2869,2.0180,-0.6375,2.6612,5.3573,-5.2418,-4.9210,-1.5129,-4.0429,
20.915227,0.3138,1.9199,-0.5992,2.6612,5.3573,-5.2418,-4.9210,-1.5129,-4.0429,
20.934316,0.5384,1.4223,-0.3689,2.6612,5.3573,-5.2418,-4.9210,-1.5129,-4.0429,
20.955004,0.5384,1.4223,-0.3689,2.6612,5.3573,-5.2418,-4.4679,-0.0197,-3.1873,
20.957611,0.6256,1.1058,-0.2083,2.6612,5.3573,-5.2418,-4.4679,-0.0197,-3.1873,
20.958570,0.6256,1.1058,-0.2083,7.0923,5.5919,-6.5982,-4.4679,-0.0197,-3.1873,
20.966849,0.4666,1.0567,-0.4021,7.0923,5.5919,-6.5982,-4.4679,-0.0197,-3.1873,
20.985723,0.5052,0.8360,-0.6832,7.0923,5.5919,-6.5982,-4.4679,-0.0197,-3.1873,
21.005033,0.5721,0.7022,-0.5958,7.0923,5.5919,-6.5982,-4.4679,-0.0197,-3.1873,
21.006958,0.5721,0.7022,-0.5958,7.0923,5.5919,-6.5982,-1.3075,1.1896,-0.4327,
21.007896,0.5721,0.7022,-0.5958,7.6250,-0.1659,-8.5888,-1.3075,1.1896,-0.4327,
21.025001,0.4949,0.9122,-0.7340,7.6250,-0.1659,-8.5888,-1.3075,1.1896,-0.4327,
21.051257,-0.1653,1.4977,-0.4017,7.6250,-0.1659,-8.5888,-1.3075,1.1896,-0.4327,
21.071245,-0.1653,1.4977,-0.4017,7.6250,-0.1659,-8.5888,0.4349,3.8422,1.1566,
21.074434,-0.1653,1.4977,-0.4017,-3.5029,3.9410,-1.4534,0.4349,3.8422,1.1566,
21.075381,-2.2185,1.5370,1.3815,-3.5029,3.9410,-1.4534,0.4349,3.8422,1.1566,
21.092033,-1.6996,1.3026,0.2364,-3.5029,3.9410,-1.4534,0.4349,3.8422,1.1566,
21.102776,0.1277,1.4848,-1.0506,-3.5029,3.9410,-1.4534,0.4349,3.8422,1.1566,
21.121502,0.6256,1.2316,-0.6509,-3.5029,3.9410,-1.4534,0.4349,3.8422,1.1566,
21.122854,0.6256,1.2316,-0.6509,-3.5029,3.9410,-1.4534,1.5145,1.4881,1.9577,
21.123682,0.6256,1.2316,-0.6509,-1.2844,3.7045,-5.9226,1.5145,1.4881,1.9577,
21.141221,0.2307,0.6461,0.4690,-1.2844,3.7045,-5.9226,1.5145,1.4881,1.9577,
21.161198,0.1196,0.7210,0.1033,-1.2844,3.7045,-5.9226,1.5145,1.4881,1.9577,
21.187882,0.1272,1.0702,-0.0596,-1.2844,3.7045,-5.9226,1.5145,1.4881,1.9577,
21.191718,0.1272,1.0702,-0.0596,-1.2844,3.7045,-5.9226,0.7801,0.2470,1.5315,
21.194253,0.1272,1.0702,-0.0596,2.4898,-1.6010,0.9799,0.7801,0.2470,1.5315,
21.204113,0.1587,1.1832,-0.0378,2.4898,-1.6010,0.9799,0.7801,0.2470,1.5315,
21.219285,-0.1116,0.9737,0.0696,2.4898,-1.6010,0.9799,0.7801,0.2470,1.5315,
21.239542,-0.2444,0.9728,0.0271,2.4898,-1.6010,0.9799,0.7801,0.2470,1.5315,
21.242762,-0.2444,0.9728,0.0271,2.4898,-1.6010,0.9799,0.4272,0.2676,0.9080,
21.245063,-0.2444,0.9728,0.0271,-0.2105,0.6006,-0.2496,0.4272,0.2676,0.9080,
21.259269,-0.0850,1.0528,0.0940,-0.2105,0.6006,-0.2496,0.4272,0.2676,0.9080,
21.280921,0.0330,0.9999,0.1648,-0.2105,0.6006,-0.2496,0.4272,0.2676,0.9080,
21.297448,0.0422,0.9586,0.1035,-0.2105,0.6006,-0.2496,0.4272,0.2676,0.9080,
21.299774,0.0422,0.9586,0.1035,-0.2105,0.6006,-0.2496,0.4545,-0.1906,0.9442,
21.300849,0.0422,0.9586,0.1035,-0.1295,0.1929,0.9800,0.4545,-0.1906,0.9442,
21.317609,0.0439,0.9779,0.0129,-0.1295,0.1929,0.9800,0.4545,-0.1906,0.9442,
21.336312,-0.0129,1.0267,0.0061,-0.1295,0.1929,0.9800,0.4545,-0.1906,0.9442,
21.356082,-0.0129,1.0267,0.0061,-0.1295,0.1929,0.9800,0.5569,-0.2964,0.8803,
21.359197,-0.1284,1.0502,0.0400,-0.1295,0.1929,0.9800,0.5569,-0.2964,0.8803,
21.361419,-0.1284,1.0502,0.0400,-0.8962,0.3453,0.3036,0.5569,-0.2964,0.8803,
21.375574,-0.3435,1.0541,0.0129,-0.8962,0.3453,0.3036,0.5569,-0.2964,0.8803,
21.402187,0.6922,0.9156,0.0171,-0.8962,0.3453,0.3036,0.5569,-0.2964,0.8803,
21.421179,0.1858,1.0028,-0.0439,-0.8962,0.3453,0.3036,0.5569,-0.2964,0.8803,
21.423165,0.1858,1.0028,-0.0439,-0.8962,0.3453,0.3036,0.6725,-0.6880,1.0735,
21.424181,0.1858,1.0028,-0.0439,0.5702,0.1412,0.4696,0.6725,-0.6880,1.0735,
21.434189,-0.0735,0.9874,-0.0203,0.5702,0.1412,0.4696,0.6725,-0.6880,1.0735,
21.452750,-0.0381,0.9847,-0.0012,0.5702,0.1412,0.4696,0.6725,-0.6880,1.0735,
21.471602,-0.0381,0.9847,-0.0012,0.5702,0.1412,0.4696,0.7302,-0.3015,0.9458,
21.473714,-0.0381,0.9847,-0.0012,-1.7500,0.3021,0.7901,0.7302,-0.3015,0.9458,
21.475044,0.0837,1.0174,-0.0217,-1.7500,0.3021,0.7901,0.7302,-0.3015,0.9458,
21.491360,0.1104,1.0245,-0.0723,-1.7500,0.3021,0.7901,0.7302,-0.3015,0.9458,
21.510949,0.0825,1.0003,-0.1179,-1.7500,0.3021,0.7901,0.7302,-0.3015,0.9458,
21.531749,0.0825,1.0003,-0.1179,-1.7500,0.3021,0.7901,0.8497,-0.5622,1.2401,
21.539588,0.1995,0.9767,-0.1460,-1.7500,0.3021,0.7901,0.8497,-0.5622,1.2401,
21.542057,0.1995,0.9767,-0.1460,-0.9983,0.5345,0.3566,0.8497,-0.5622,1.2401,
21.555867,0.2112,0.9984,-0.1487,-0.9983,0.5345,0.3566,0.8497,-0.5622,1.2401,
21.568847,0.1018,1.0336,-0.1633,-0.9983,0.5345,0.3566,0.8497,-0.5622,1.2401,
21.589011,0.1018,1.0336,-0.1633,-0.9983,0.5345,0.3566,0.9010,-0.5889,1.3596,
21.591832,0.1255,1.0511,-0.1870,-0.9983,0.5345,0.3566,0.9010,-0.5889,1.3596,
21.593359,0.1255,1.0511,-0.1870,-1.4868,1.0816,0.3877,0.9010,-0.5889,1.3596,
21.609651,0.1201,1.1305,-0.2146,-1.4868,1.0816,0.3877,0.9010,-0.5889,1.3596,
21.627226,0.0142,1.1769,-0.1829,-1.4868,1.0816,0.3877,0.9010,-0.5889,1.3596,
21.647541,-0.1638,1.3085,-0.0754,-1.4868,1.0816,0.3877,0.9010,-0.5889,1.3596,
21.650526,-0.1638,1.3085,-0.0754,-1.4868,1.0816,0.3877,1.1437,-0.5880,1.5641,
21.652034,-0.1638,1.3085,-0.0754,-3.6728,3.2248,1.1508,1.1437,-0.5880,1.5641,
21.668954,-0.5696,1.6093,0.0349,-3.6728,3.2248,1.1508,1.1437,-0.5880,1.5641,
21.690185,-1.0475,1.9108,-0.0151,-3.6728,3.2248,1.1508,1.1437,-0.5880,1.5641,
21.705845,-1.3490,1.9155,-0.0356,-3.6728,3.2248,1.1508,1.1437,-0.5880,1.5641,
21.707738,-1.3490,1.9155,-0.0356,-3.6728,3.2248,1.1508,1.7929,-1.5402,2.0841,
21.708643,-1.3490,1.9155,-0.0356,-13.7306,9.8278,3.7926,1.7929,-1.5402,2.0841,
21.724511,-0.7486,1.4613,-0.1597,-13.7306,9.8278,3.7926,1.7929,-1.5402,2.0841,
21.745887,0.4390,1.1617,-0.5635,-13.7306,9.8278,3.7926,1.7929,-1.5402,2.0841,
21.763782,0.4390,1.1617,-0.5635,-13.7306,9.8278,3.7926,2.0411,-2.5318,3.2362,
21.767609,1.4696,1.3329,-0.5130,-13.7306,9.8278,3.7926,2.0411,-2.5318,3.2362,
21.769718,1.4696,1.3329,-0.5130,-0.9214,6.2704,1.3043,2.0411,-2.5318,3.2362,
21.795373,1.5212,1.0797,-0.5010,-0.9214,6.2704,1.3043,2.0411,-2.5318,3.2362,
21.805601,0.9476,0.7215,-0.7962,-0.9214,6.2704,1.3043,2.0411,-2.5318,3.2362,
21.821848,0.9476,0.7215,-0.7962,-0.9214,6.2704,1.3043,1.2580,0.0157,1.0711,
21.823395,0.6414,0.4812,-0.6404,-0.9214,6.2704,1.3043,1.2580,0.0157,1.0711,
21.824167,0.6414,0.4812,-0.6404,4.9576,1.4947,-0.5279,1.2580,0.0157,1.0711,
21.841151,0.3577,0.2881,0.0017,4.9576,1.4947,-0.5279,1.2580,0.0157,1.0711,
21.861139,0.0708,0.0676,0.3079,4.9576,1.4947,-0.5279,1.2580,0.0157,1.0711,
21.881771,0.0708,0.0676,0.3079,4.9576,1.4947,-0.5279,-1.3702,0.7783,-1.5862,
21.887595,-0.1463,-0.0230,0.2180,4.9576,1.4947,-0.5279,-1.3702,0.7783,-1.5862,
21.889822,-0.1463,-0.0230,0.2180,-3.8702,-5.6783,6.6685,-1.3702,0.7783,-1.5862,
21.908893,-0.0960,0.1580,-0.0230,-3.8702,-5.6783,6.6685,-1.3702,0.7783,-1.5862,
21.924952,0.1746,0.3570,-0.1756,-3.8702,-5.6783,6.6685,-1.3702,0.7783,-1.5862,
21.939346,0.1746,0.3570,-0.1756,-3.8702,-5.6783,6.6685,-1.8174,-1.2504,-2.9633,
21.941135,0.3406,0.4590,-0.2056,-3.8702,-5.6783,6.6685,-1.8174,-1.2504,-2.9633,
21.942035,0.3406,0.4590,-0.2056,-1.7767,-4.6971,3.0735,-1.8174,-1.2504,-2.9633,
21.957670,0.3172,0.5726,-0.1748,-1.7767,-4.6971,3.0735,-1.8174,-1.2504,-2.9633,
21.977462,0.2823,0.7059,-0.2556,-1.7767,-4.6971,3.0735,-1.8174,-1.2504,-2.9633,
22.002091,0.3665,0.8282,-0.2022,-1.7767,-4.6971,3.0735,-1.8174,-1.2504,-2.9633,
22.006270,0.3665,0.8282,-0.2022,-1.7767,-4.6971,3.0735,-3.3496,-1.4903,-3.9635,
22.010333,0.3665,0.8282,-0.2022,2.2653,-2.1450,0.8194,-3.3496,-1.4903,-3.9635,
22.021863,0.3863,1.0182,-0.2388,2.2653,-2.1450,0.8194,-3.3496,-1.4903,-3.9635,
22.035508,0.3653,1.3871,-0.3731,2.2653,-2.1450,0.8194,-3.3496,-1.4903,-3.9635,
22.055973,0.3482,1.7902,-0.6068,2.2653,-2.1450,0.8194,-3.3496,-1.4903,-3.9635,
22.058162,0.3482,1.7902,-0.6068,5.0685,4.2478,-3.6481,-3.3496,-1.4903,-3.9635,
22.059508,0.3482,1.7902,-0.6068,5.0685,4.2478,-3.6481,-4.8088,-0.6031,-4.3852,
22.074561,0.2722,1.9167,-0.5223,5.0685,4.2478,-3.6481,-4.8088,-0.6031,-4.3852,
22.094301,0.5040,1.5688,-0.3643,5.0685,4.2478,-3.6481,-4.8088,-0.6031,-4.3852,
22.116249,0.5040,1.5688,-0.3643,7.7261,6.3895,-5.2002,-4.8088,-0.6031,-4.3852,
22.121961,0.5040,1.5688,-0.3643,7.7261,6.3895,-5.2002,-4.7809,1.3177,-3.3966,
22.125089,0.5921,1.1757,-0.1148,7.7261,6.3895,-5.2002,-4.7809,1.3177,-3.3966,
22.135932,0.3326,1.0641,-0.1587,7.7261,6.3895,-5.2002,-4.7809,1.3177,-3.3966,
22.152417,0.2857,1.0138,-0.2759,7.7261,6.3895,-5.2002,-4.7809,1.3177,-3.3966,
22.172831,0.2857,1.0138,-0.2759,7.7261,6.3895,-5.2002,-2.2582,1.7630,-1.1732,
22.175966,0.2447,0.8260,-0.1836,7.7261,6.3895,-5.2002,-2.2582,1.7630,-1.1732,
22.177245,0.2447,0.8260,-0.1836,6.7985,1.1874,-4.6088,-2.2582,1.7630,-1.1732,
22.191595,0.2469,0.7203,-0.2141,6.7985,1.1874,-4.6088,-2.2582,1.7630,-1.1732,
22.211228,0.3724,0.8587,-0.5645,6.7985,1.1874,-4.6088,-2.2582,1.7630,-1.1732,
22.232174,0.3724,0.8587,-0.5645,5.5111,0.5333,-6.7606,-2.2582,1.7630,-1.1732,
22.236182,0.3724,0.8587,-0.5645,5.5111,0.5333,-6.7606,0.5369,1.5264,1.6150,
22.238503,0.0576,1.2553,-0.7200,5.5111,0.5333,-6.7606,0.5369,1.5264,1.6150,
22.261655,-1.4977,1.5548,0.4493,5.5111,0.5333,-6.7606,0.5369,1.5264,1.6150,
22.269502,-2.1491,1.2655,0.4039,5.5111,0.5333,-6.7606,0.5369,1.5264,1.6150,
22.291480,-2.1491,1.2655,0.4039,-10.0479,5.2383,-0.4581,0.5369,1.5264,1.6150,
22.293471,-2.1491,1.2655,0.4039,-10.0479,5.2383,-0.4581,0.6589,2.2706,0.6260,
22.294509,-0.4529,1.5348,-0.6583,-10.0479,5.2383,-0.4581,0.6589,2.2706,0.6260,
22.313902,0.6107,1.3627,-0.6729,-10.0479,5.2383,-0.4581,0.6589,2.2706,0.6260,
22.327378,0.5438,0.8829,-0.0315,-10.0479,5.2383,-0.4581,0.6589,2.2706,0.6260,
22.348829,0.5438,0.8829,-0.0315,-10.0479,5.2383,-0.4581,0.7925,1.5168,2.3313,
22.351470,0.0139,0.7371,0.5682,-10.0479,5.2383,-0.4581,0.7925,1.5168,2.3313,
22.352712,0.0139,0.7371,0.5682,5.8775,0.3388,-0.8448,0.7925,1.5168,2.3313,
22.375050,-0.3692,0.9181,0.1572,5.8775,0.3388,-0.8448,0.7925,1.5168,2.3313,
22.385792,-0.2571,1.1092,-0.2967,5.8775,0.3388,-0.8448,0.7925,1.5168,2.3313,
22.405844,-0.2571,1.1092,-0.2967,5.8775,0.3388,-0.8448,0.6117,0.0422,1.2710,
22.408021,0.0881,1.1222,-0.2219,5.8775,0.3388,-0.8448,0.6117,0.0422,1.2710,
22.409144,0.0881,1.1222,-0.2219,-0.3903,0.7364,-1.2121,0.6117,0.0422,1.2710,
22.425072,0.0859,0.9518,-0.0977,-0.3903,0.7364,-1.2121,0.6117,0.0422,1.2710,
22.445104,0.0061,0.9715,-0.0215,-0.3903,0.7364,-1.2121,0.6117,0.0422,1.2710,
22.467533,0.0061,0.9715,-0.0215,0.8724,-0.0583,0.0455,0.6117,0.0422,1.2710,
22.470398,0.0061,0.9715,-0.0215,0.8724,-0.0583,0.0455,0.2240,0.4209,0.8807,
22.473859,-0.0879,1.0001,0.0967,0.8724,-0.0583,0.0455,0.2240,0.4209,0.8807,
22.484331,-0.2144,0.9571,0.2180,0.8724,-0.0583,0.0455,0.2240,0.4209,0.8807,
22.502654,-0.1978,0.9967,0.1201,0.8724,-0.0583,0.0455,0.2240,0.4209,0.8807,
22.522328,-0.1978,0.9967,0.1201,0.8724,-0.0583,0.0455,0.3545,0.1784,0.8809,
22.524996,-0.0894,1.0541,0.0230,0.8724,-0.0583,0.0455,0.3545,0.1784,0.8809,
22.526052,-0.0894,1.0541,0.0230,-1.2546,0.1877,1.4794,0.3545,0.1784,0.8809,
22.541435,-0.0637,0.9962,0.0498,-1.2546,0.1877,1.4794,0.3545,0.1784,0.8809,
22.560912,-0.0383,0.9781,0.0862,-1.2546,0.1877,1.4794,0.3545,0.1784,0.8809,
22.581951,-0.0383,0.9781,0.0862,-0.7210,0.0359,1.3651,0.3545,0.1784,0.8809,
22.585595,-0.0383,0.9781,0.0862,-0.7210,0.0359,1.3651,0.6752,-0.1849,1.0625,
22.587680,-0.0588,0.9830,0.0811,-0.7210,0.0359,1.3651,0.6752,-0.1849,1.0625,
22.601450,-0.0647,0.9681,0.0540,-0.7210,0.0359,1.3651,0.6752,-0.1849,1.0625,
22.619944,0.0852,0.9498,-0.0574,-0.7210,0.0359,1.3651,0.6752,-0.1849,1.0625,
22.638388,0.2129,0.9442,-0.1870,-0.7210,0.0359,1.3651,0.6752,-0.1849,1.0625,
22.640190,0.2129,0.9442,-0.1870,-0.7210,0.0359,1.3651,0.9210,-0.4259,1.2134,
22.641241,0.2129,0.9442,-0.1870,-0.0868,-0.1855,0.5531,0.9210,-0.4259,1.2134,
22.657951,0.2549,0.9527,-0.2339,-0.0868,-0.1855,0.5531,0.9210,-0.4259,1.2134,
22.677492,0.2163,0.9596,-0.2305,-0.0868,-0.1855,0.5531,0.9210,-0.4259,1.2134,
22.699169,0.2163,0.9596,-0.2305,0.7964,-0.0565,-0.6608,0.9210,-0.4259,1.2134,
22.703369,0.2163,0.9596,-0.2305,0.7964,-0.0565,-0.6608,0.7198,-0.3801,0.9727,
22.705527,0.1919,0.9520,-0.2305,0.7964,-0.0565,-0.6608,0.7198,-0.3801,0.9727,
22.718669,0.1851,0.9408,-0.2009,0.7964,-0.0565,-0.6608,0.7198,-0.3801,0.9727,
22.740070,0.1782,0.9334,-0.2049,0.7964,-0.0565,-0.6608,0.7198,-0.3801,0.9727,
22.755133,0.1819,0.9566,-0.2092,0.7964,-0.0565,-0.6608,0.7198,-0.3801,0.9727,
22.757089,0.1819,0.9566,-0.2092,0.7964,-0.0565,-0.6608,0.5003,-0.2614,0.7868,
22.758125,0.1819,0.9566,-0.2092,0.0086,-0.0416,-0.1015,0.5003,-0.2614,0.7868,
22.775534,0.1785,0.9920,-0.1909,0.0086,-0.0416,-0.1015,0.5003,-0.2614,0.7868,
22.794250,0.1839,0.9564,-0.1355,0.0086,-0.0416,-0.1015,0.5003,-0.2614,0.7868,
22.815033,0.1624,0.9593,-0.0486,0.0086,-0.0416,-0.1015,0.5003,-0.2614,0.7868,
22.818497,0.1624,0.9593,-0.0486,0.0086,-0.0416,-0.1015,0.4573,-0.5416,0.7728,
22.820615,0.1624,0.9593,-0.0486,-0.4016,0.3466,0.9741,0.4573,-0.5416,0.7728,
22.842117,0.1177,0.9732,0.0449,-0.4016,0.3466,0.9741,0.4573,-0.5416,0.7728,
22.856432,0.0796,0.9737,0.0007,-0.4016,0.3466,0.9741,0.4573,-0.5416,0.7728,
22.871629,0.0796,0.9737,0.0007,-0.4016,0.3466,0.9741,0.8300,-0.7638,1.0697,
22.873475,0.0857,0.9532,-0.0789,-0.4016,0.3466,0.9741,0.8300,-0.7638,1.0697,
22.874336,0.0857,0.9532,-0.0789,-1.6171,0.5780,2.5880,0.8300,-0.7638,1.0697,
22.890870,0.0647,1.0143,-0.0671,-1.6171,0.5780,2.5880,0.8300,-0.7638,1.0697,
22.910625,0.0913,1.1459,-0.0063,-1.6171,0.5780,2.5880,0.8300,-0.7638,1.0697,
22.932531,-0.0571,1.4818,0.0569,-1.6171,0.5780,2.5880,0.8300,-0.7638,1.0697,
22.937657,-0.0571,1.4818,0.0569,-1.6171,0.5780,2.5880,1.3799,-1.4638,1.6685,
22.939749,-0.0571,1.4818,0.0569,-2.7423,3.4732,3.5209,1.3799,-1.4638,1.6685,
22.956783,-0.1472,1.7756,-0.2312,-2.7423,3.4732,3.5209,1.3799,-1.4638,1.6685,
22.978173,-0.0364,1.6628,-0.4234,-2.7423,3.4732,3.5209,1.3799,-1.4638,1.6685,
22.988262,0.0222,1.3099,-0.4224,-2.7423,3.4732,3.5209,1.3799,-1.4638,1.6685,
22.989577,0.0222,1.3099,-0.4224,-2.7423,3.4732,3.5209,1.8876,-2.1537,2.2694,
22.990758,0.0222,1.3099,-0.4224,-4.0499,7.8641,1.3364,1.8876,-2.1537,2.2694,
23.007453,0.2935,0.9732,-0.5269,-4.0499,7.8641,1.3364,1.8876,-2.1537,2.2694,
23.026986,0.6414,0.7093,-0.8280,-4.0499,7.8641,1.3364,1.8876,-2.1537,2.2694,
23.046130,0.6414,0.7093,-0.8280,-4.0499,7.8641,1.3364,1.3698,-2.8786,2.3083,
23.047592,0.8568,0.5254,-0.9642,-4.0499,7.8641,1.3364,1.3698,-2.8786,2.3083,
23.049171,0.8568,0.5254,-0.9642,2.2451,0.4740,-1.5162,1.3698,-2.8786,2.3083,
23.068017,0.6536,0.4546,-0.8846,2.2451,0.4740,-1.5162,1.3698,-2.8786,2.3083,
23.089366,0.3135,0.3489,-0.7137,2.2451,0.4740,-1.5162,1.3698,-2.8786,2.3083,
23.106101,0.3135,0.3489,-0.7137,-0.2687,-3.2917,-0.7648,1.3698,-2.8786,2.3083,
23.109071,0.3135,0.3489,-0.7137,-0.2687,-3.2917,-0.7648,-0.6710,-2.3750,2.0778,
23.111487,0.0327,0.1778,-0.5679,-0.2687,-3.2917,-0.7648,-0.6710,-2.3750,2.0778,
23.144898,-0.0947,0.0132,-0.5911,-0.2687,-3.2917,-0.7648,-0.6710,-2.3750,2.0778,
23.146960,-0.1421,0.0999,-0.9811,-0.2687,-3.2917,-0.7648,-0.6710,-2.3750,2.0778,
23.163209,-0.2188,0.2383,-0.8263,-0.2687,-3.2917,-0.7648,-0.6710,-2.3750,2.0778,
23.165403,-0.2188,0.2383,-0.8263,-0.2687,-3.2917,-0.7648,-2.2519,-3.4447,2.1320,
23.166891,-0.2188,0.2383,-0.8263,-4.5184,-5.6577,-1.7014,-2.2519,-3.4447,2.1320,
23.183577,-0.1780,0.2564,-0.6392,-4.5184,-5.6577,-1.7014,-2.2519,-3.4447,2.1320,
23.203530,-0.0330,0.3877,-0.7110,-4.5184,-5.6577,-1.7014,-2.2519,-3.4447,2.1320,
23.223907,-0.2813,0.5486,-0.7327,-4.5184,-5.6577,-1.7014,-2.2519,-3.4447,2.1320,
23.227465,-0.2813,0.5486,-0.7327,-4.5184,-5.6577,-1.7014,-3.6591,-3.2954,1.5268,
23.229391,-0.2813,0.5486,-0.7327,-4.1148,-3.8039,-1.6591,-3.6591,-3.2954,1.5268,
23.241628,-0.6964,0.6365,-0.6822,-4.1148,-3.8039,-1.6591,-3.6591,-3.2954,1.5268,
23.260500,-0.7005,0.6214,-0.8473,-4.1148,-3.8039,-1.6591,-3.6591,-3.2954,1.5268,
23.282061,-0.5069,0.7388,-0.9645,-4.1148,-3.8039,-1.6591,-3.6591,-3.2954,1.5268,
23.287783,-0.5069,0.7388,-0.9645,-4.1148,-3.8039,-1.6591,-3.4932,-5.5872,0.5907,
23.289372,-0.5069,0.7388,-0.9645,-7.3743,-2.0181,-3.9715,-3.4932,-5.5872,0.5907,
23.300151,-0.4102,0.8172,-1.0018,-7.3743,-2.0181,-3.9715,-3.4932,-5.5872,0.5907,
23.319162,-0.2683,0.9222,-1.0018,-7.3743,-2.0181,-3.9715,-3.4932,-5.5872,0.5907,
23.338712,-0.2683,0.9222,-1.0018,-7.3743,-2.0181,-3.9715,-2.8353,-6.4164,0.2572,
23.341420,-0.1250,0.9930,-0.9244,-7.3743,-2.0181,-3.9715,-2.8353,-6.4164,0.2572,
23.343171,-0.1250,0.9930,-0.9244,-2.5428,-0.1935,-6.5417,-2.8353,-6.4164,0.2572,
23.357676,-0.1135,0.9220,-0.7611,-2.5428,-0.1935,-6.5417,-2.8353,-6.4164,0.2572,
23.377213,-0.1482,0.9222,-0.6192,-2.5428,-0.1935,-6.5417,-2.8353,-6.4164,0.2572,
23.396621,-0.1941,0.9913,-0.5225,-2.5428,-0.1935,-6.5417,-2.8353,-6.4164,0.2572,
23.398962,-0.1941,0.9913,-0.5225,-2.5428,-0.1935,-6.5417,-2.1936,-4.1769,-0.6237,
23.400642,-0.1941,0.9913,-0.5225,-0.4723,-0.1356,-4.4304,-2.1936,-4.1769,-0.6237,
23.418862,-0.1897,1.0233,-0.4266,-0.4723,-0.1356,-4.4304,-2.1936,-4.1769,-0.6237,
23.437963,-0.0955,0.9945,-0.2903,-0.4723,-0.1356,-4.4304,-2.1936,-4.1769,-0.6237,
23.457062,-0.0955,0.9945,-0.2903,-0.4723,-0.1356,-4.4304,-1.3482,-3.1781,-0.6418,
23.458852,-0.0955,0.9945,-0.2903,0.7551,0.3190,-2.1717,-1.3482,-3.1781,-0.6418,
23.459812,0.0281,0.9747,-0.2039,0.7551,0.3190,-2.1717,-1.3482,-3.1781,-0.6418,
23.474237,0.0620,0.9444,-0.1926,0.7551,0.3190,-2.1717,-1.3482,-3.1781,-0.6418,
