time,gFx,gFy,gFz,ax,ay,az,wx,wy,wz,P
0.01,-0.08,1.00,0.09,-0.07,0.03,0.26,0.01,0.04,-0.01,1005.92
0.011,-0.08,1.00,0.09,-0.07,0.03,0.26,0.08,0.00,0.00,1005.92
0.022,-0.08,1.00,0.09,-0.07,0.03,0.26,0.08,0.00,0.00,1005.92
0.029,-0.04,1.00,0.04,-0.07,0.03,0.26,0.08,0.00,0.00,1005.92
0.03,-0.04,1.00,0.06,-0.07,0.03,0.26,0.08,0.00,0.00,1005.92
0.03,-0.06,1.01,0.06,-0.07,0.03,0.26,0.08,0.00,0.00,1005.92
0.068,-0.06,1.01,0.06,-0.07,0.03,0.26,0.12,0.02,-0.02,1005.92
0.069,-0.06,1.01,0.06,0.10,-0.02,0.18,0.12,0.02,-0.02,1005.92
0.088,-0.05,1.01,0.05,0.10,-0.02,0.18,0.12,0.02,-0.02,1005.92
0.089,-0.05,1.01,0.02,0.10,-0.02,0.18,0.12,0.02,-0.02,1005.92
0.089,-0.04,1.02,0.00,0.10,-0.02,0.18,0.12,0.02,-0.02,1005.92
0.099,-0.04,1.02,0.00,0.10,-0.02,0.18,0.12,0.02,-0.02,1005.92
0.127,-0.04,1.02,0.00,0.14,0.09,-0.05,0.12,0.02,-0.02,1005.92
0.128,-0.04,1.02,0.00,0.14,0.09,-0.05,0.16,0.08,-0.09,1005.92
0.146,-0.06,1.03,-0.01,0.14,0.09,-0.05,0.16,0.08,-0.09,1005.92
0.146,-0.09,1.02,-0.02,0.14,0.09,-0.05,0.16,0.08,-0.09,1005.92
0.147,-0.09,1.01,-0.11,0.14,0.09,-0.05,0.16,0.08,-0.09,1005.92
0.18,-0.09,1.01,-0.11,0.14,0.09,-0.05,0.16,0.08,-0.09,1005.92
0.184,-0.09,1.01,-0.11,0.14,0.09,-0.05,0.32,0.30,-0.12,1005.92
0.185,-0.09,1.01,-0.11,-0.12,0.13,-0.50,0.32,0.30,-0.12,1005.92
0.205,-0.06,1.00,-0.07,-0.12,0.13,-0.50,0.32,0.30,-0.12,1005.92
0.206,-0.06,1.00,-0.00,-0.12,0.13,-0.50,0.32,0.30,-0.12,1005.92
0.206,-0.06,0.98,0.05,-0.12,0.13,-0.50,0.32,0.30,-0.12,1005.92
0.243,-0.06,0.98,0.05,0.13,-0.13,0.01,0.32,0.30,-0.12,1005.92
0.244,-0.06,0.98,0.05,0.13,-0.13,0.01,0.19,0.17,-0.09,1005.92
0.263,-0.06,0.98,0.05,0.13,-0.13,0.01,0.19,0.17,-0.09,1005.92
0.263,-0.05,0.95,0.08,0.13,-0.13,0.01,0.19,0.17,-0.09,1005.92
0.264,-0.08,0.92,0.11,0.13,-0.13,0.01,0.19,0.17,-0.09,1005.92
0.264,-0.05,0.86,0.08,0.13,-0.13,0.01,0.19,0.17,-0.09,1005.92
0.3,-0.05,0.86,0.08,0.13,-0.13,0.01,0.19,0.17,-0.09,1005.92
0.301,-0.05,0.86,0.08,0.13,-0.13,0.01,0.09,-0.24,0.13,1005.92
0.301,-0.05,0.86,0.08,0.06,-0.86,0.94,0.09,-0.24,0.13,1005.92
0.322,-0.01,0.85,0.01,0.06,-0.86,0.94,0.09,-0.24,0.13,1005.92
0.322,-0.03,0.94,0.00,0.06,-0.86,0.94,0.09,-0.24,0.13,1005.92
0.323,-0.10,1.07,0.03,0.06,-0.86,0.94,0.09,-0.24,0.13,1005.92
0.363,-0.10,1.07,0.03,0.02,-0.43,0.34,0.09,-0.24,0.13,1005.92
0.364,-0.10,1.07,0.03,0.02,-0.43,0.34,0.27,0.03,0.31,1005.92
0.379,-0.12,1.17,0.02,0.02,-0.43,0.34,0.27,0.03,0.31,1005.92
0.379,-0.08,1.14,0.04,0.02,-0.43,0.34,0.27,0.03,0.31,1005.92
0.38,-0.03,1.01,0.04,0.02,-0.43,0.34,0.27,0.03,0.31,1005.92
0.38,-0.03,1.01,0.04,0.02,-0.43,0.34,0.27,0.03,0.31,1005.93
0.418,-0.03,1.01,0.04,-0.54,1.05,0.79,0.27,0.03,0.31,1005.93
0.419,-0.03,1.01,0.04,-0.54,1.05,0.79,0.53,0.44,0.46,1005.93
0.438,-0.03,0.91,0.03,-0.54,1.05,0.79,0.53,0.44,0.46,1005.93
0.439,-0.08,0.91,0.03,-0.54,1.05,0.79,0.53,0.44,0.46,1005.93
0.439,-0.14,0.99,-0.04,-0.54,1.05,0.79,0.53,0.44,0.46,1005.93
0.462,-0.14,0.99,-0.04,-0.54,1.05,0.79,0.53,0.44,0.46,1005.92
0.477,-0.14,0.99,-0.04,-0.75,-0.60,0.74,0.53,0.44,0.46,1005.92
0.477,-0.14,0.99,-0.04,-0.75,-0.60,0.74,0.42,0.31,0.36,1005.92
0.497,-0.13,1.07,-0.11,-0.75,-0.60,0.74,0.42,0.31,0.36,1005.92
0.499,-0.03,1.07,-0.14,-0.75,-0.60,0.74,0.42,0.31,0.36,1005.92
0.5,0.04,0.99,-0.14,-0.75,-0.60,0.74,0.42,0.31,0.36,1005.92
0.503,0.04,0.99,-0.14,-0.75,-0.60,0.74,0.42,0.31,0.36,1005.93
0.535,0.04,0.99,-0.14,-0.75,-0.60,0.74,0.34,0.16,0.32,1005.93
0.536,0.04,0.99,-0.14,-0.49,0.43,-0.40,0.34,0.16,0.32,1005.93
0.555,0.09,0.97,-0.21,-0.49,0.43,-0.40,0.34,0.16,0.32,1005.93
0.557,0.10,1.02,-0.23,-0.49,0.43,-0.40,0.34,0.16,0.32,1005.93
0.557,0.05,1.03,-0.18,-0.49,0.43,-0.40,0.34,0.16,0.32,1005.93
0.581,0.05,1.03,-0.18,-0.49,0.43,-0.40,0.34,0.16,0.32,1005.93
0.594,0.05,1.03,-0.18,-0.49,0.43,-0.40,0.14,0.29,0.11,1005.93
0.595,0.05,1.03,-0.18,0.55,0.11,-1.00,0.14,0.29,0.11,1005.93
0.614,0.00,1.01,-0.11,0.55,0.11,-1.00,0.14,0.29,0.11,1005.93
0.617,0.03,1.01,-0.11,0.55,0.11,-1.00,0.14,0.29,0.11,1005.93
0.618,0.06,1.01,-0.12,0.55,0.11,-1.00,0.14,0.29,0.11,1005.93
0.651,0.06,1.01,-0.12,0.55,0.11,-1.00,0.12,0.18,0.04,1005.93
0.653,0.06,1.01,-0.12,0.04,0.12,-0.04,0.12,0.18,0.04,1005.93
0.66,0.06,1.01,-0.12,0.04,0.12,-0.04,0.12,0.18,0.04,1005.92
0.673,0.04,1.00,-0.11,0.04,0.12,-0.04,0.12,0.18,0.04,1005.92
0.675,0.15,1.03,-0.20,0.04,0.12,-0.04,0.12,0.18,0.04,1005.92
0.675,0.10,1.05,-0.16,0.04,0.12,-0.04,0.12,0.18,0.04,1005.92
0.701,0.10,1.05,-0.16,0.04,0.12,-0.04,0.12,0.18,0.04,1005.92
0.711,0.10,1.05,-0.16,0.04,0.12,-0.04,0.15,0.20,-0.20,1005.92
0.712,0.10,1.05,-0.16,0.77,0.27,-0.36,0.15,0.20,-0.20,1005.92
0.731,-0.10,1.05,-0.05,0.77,0.27,-0.36,0.15,0.20,-0.20,1005.92
0.733,-0.22,1.10,-0.08,0.77,0.27,-0.36,0.15,0.20,-0.20,1005.92
0.734,-0.25,1.21,-0.17,0.77,0.27,-0.36,0.15,0.20,-0.20,1005.92
0.769,-0.25,1.21,-0.17,0.77,0.27,-0.36,0.18,-0.43,0.07,1005.92
0.77,-0.25,1.21,-0.17,-1.92,1.15,0.26,0.18,-0.43,0.07,1005.92
0.783,-0.25,1.21,-0.17,-1.92,1.15,0.26,0.18,-0.43,0.07,1005.92
0.787,-0.17,1.28,-0.28,-1.92,1.15,0.26,0.18,-0.43,0.07,1005.92
0.788,-0.15,1.28,-0.31,-1.92,1.15,0.26,0.18,-0.43,0.07,1005.92
0.788,-0.30,1.28,-0.30,-1.92,1.15,0.26,0.18,-0.43,0.07,1005.92
0.828,-0.30,1.28,-0.30,-1.92,1.15,0.26,0.08,-0.63,0.52,1005.92
0.829,-0.30,1.28,-0.30,-2.30,2.61,-1.55,0.08,-0.63,0.52,1005.92
0.847,-0.41,1.28,-0.37,-2.30,2.61,-1.55,0.08,-0.63,0.52,1005.92
0.85,-0.37,1.19,-0.44,-2.30,2.61,-1.55,0.08,-0.63,0.52,1005.92
0.851,-0.33,1.01,-0.30,-2.30,2.61,-1.55,0.08,-0.63,0.52,1005.92
0.861,-0.33,1.01,-0.30,-2.30,2.61,-1.55,0.08,-0.63,0.52,1005.90
0.885,-0.33,1.01,-0.30,-2.30,2.61,-1.55,0.25,-0.38,1.12,1005.90
0.886,-0.33,1.01,-0.30,-4.31,1.48,-2.01,0.25,-0.38,1.12,1005.90
0.902,-0.33,1.01,-0.30,-4.31,1.48,-2.01,0.25,-0.38,1.12,1005.88
0.905,-0.26,0.90,-0.24,-4.31,1.48,-2.01,0.25,-0.38,1.12,1005.88
0.906,-0.15,0.91,-0.37,-4.31,1.48,-2.01,0.25,-0.38,1.12,1005.88
0.907,-0.10,0.83,-0.46,-4.31,1.48,-2.01,0.25,-0.38,1.12,1005.88
0.943,-0.10,0.83,-0.46,-4.31,1.48,-2.01,0.17,-1.21,0.76,1005.88
0.945,-0.10,0.83,-0.46,-2.56,-1.20,-1.65,0.17,-1.21,0.76,1005.88
0.965,-0.43,0.68,-0.08,-2.56,-1.20,-1.65,0.17,-1.21,0.76,1005.88
0.967,-0.87,0.48,-0.05,-2.56,-1.20,-1.65,0.17,-1.21,0.76,1005.88
0.968,-0.89,0.49,-0.20,-2.56,-1.20,-1.65,0.17,-1.21,0.76,1005.88
0.983,-0.89,0.49,-0.20,-2.56,-1.20,-1.65,0.17,-1.21,0.76,1005.88
1.012,-0.89,0.49,-0.20,-2.56,-1.20,-1.65,-0.02,-3.28,-0.37,1005.88
1.013,-0.89,0.49,-0.20,-7.21,-4.31,0.85,-0.02,-3.28,-0.37,1005.88
1.021,-0.49,0.69,-0.29,-7.21,-4.31,0.85,-0.02,-3.28,-0.37,1005.88
1.021,-0.23,0.85,-0.31,-7.21,-4.31,0.85,-0.02,-3.28,-0.37,1005.88
1.022,-0.09,0.90,-0.24,-7.21,-4.31,0.85,-0.02,-3.28,-0.37,1005.88
1.06,-0.09,0.90,-0.24,-7.21,-4.31,0.85,-0.58,-3.18,-1.11,1005.88
1.061,-0.09,0.90,-0.24,-1.69,-1.68,-1.16,-0.58,-3.18,-1.11,1005.88
1.062,-0.09,0.90,-0.24,-1.69,-1.68,-1.16,-0.58,-3.18,-1.11,1005.89
1.08,-0.07,0.91,-0.21,-1.69,-1.68,-1.16,-0.58,-3.18,-1.11,1005.89
1.081,-0.01,0.98,-0.27,-1.69,-1.68,-1.16,-0.58,-3.18,-1.11,1005.89
1.082,0.12,0.98,-0.33,-1.69,-1.68,-1.16,-0.58,-3.18,-1.11,1005.89
1.102,0.12,0.98,-0.33,-1.69,-1.68,-1.16,-0.58,-3.18,-1.11,1005.90
1.126,0.12,0.98,-0.33,1.72,-0.23,-1.58,-0.58,-3.18,-1.11,1005.90
1.127,0.12,0.98,-0.33,1.72,-0.23,-1.58,-0.68,-2.52,-0.86,1005.90
1.138,0.18,0.89,-0.25,1.72,-0.23,-1.58,-0.68,-2.52,-0.86,1005.90
1.139,0.20,0.79,-0.13,1.72,-0.23,-1.58,-0.68,-2.52,-0.86,1005.90
1.139,0.30,0.71,-0.11,1.72,-0.23,-1.58,-0.68,-2.52,-0.86,1005.90
1.178,0.30,0.71,-0.11,3.75,-1.77,-1.20,-0.68,-2.52,-0.86,1005.90
1.18,0.30,0.71,-0.11,3.75,-1.77,-1.20,-0.62,-3.33,0.12,1005.90
1.183,0.30,0.71,-0.11,3.75,-1.77,-1.20,-0.62,-3.33,0.12,1005.90
1.201,0.42,0.67,-0.05,3.75,-1.77,-1.20,-0.62,-3.33,0.12,1005.90
1.203,0.53,0.50,-0.23,3.75,-1.77,-1.20,-0.62,-3.33,0.12,1005.90
1.204,0.70,0.16,-0.64,3.75,-1.77,-1.20,-0.62,-3.33,0.12,1005.90
1.235,0.70,0.16,-0.64,3.75,-1.77,-1.20,-0.22,-1.56,1.33,1005.90
1.237,0.70,0.16,-0.64,6.00,-5.19,-2.74,-0.22,-1.56,1.33,1005.90
1.256,0.80,0.55,-1.67,6.00,-5.19,-2.74,-0.22,-1.56,1.33,1005.90
1.258,1.12,3.30,-0.47,6.00,-5.19,-2.74,-0.22,-1.56,1.33,1005.90
1.259,-0.33,3.54,1.17,6.00,-5.19,-2.74,-0.22,-1.56,1.33,1005.90
1.26,-0.33,3.54,1.17,6.00,-5.19,-2.74,-0.22,-1.56,1.33,1005.90
1.293,-0.33,3.54,1.17,6.00,-5.19,-2.74,0.59,2.36,1.44,1005.90
1.295,-0.33,3.54,1.17,4.76,14.16,-2.47,0.59,2.36,1.44,1005.90
1.301,-0.33,3.54,1.17,4.76,14.16,-2.47,0.59,2.36,1.44,1005.91
1.316,-0.79,0.10,-0.29,4.76,14.16,-2.47,0.59,2.36,1.44,1005.91
1.318,-0.42,-0.42,-0.63,4.76,14.16,-2.47,0.59,2.36,1.44,1005.91
1.319,0.15,1.28,0.01,4.76,14.16,-2.47,0.59,2.36,1.44,1005.91
1.351,0.15,1.28,0.01,4.76,14.16,-2.47,-0.00,-1.49,2.21,1005.91
1.353,0.15,1.28,0.01,-4.95,-6.51,-2.10,-0.00,-1.49,2.21,1005.91
1.372,0.52,1.35,-0.16,-4.95,-6.51,-2.10,-0.00,-1.49,2.21,1005.91
1.373,0.88,0.95,-0.13,-4.95,-6.51,-2.10,-0.00,-1.49,2.21,1005.91
1.374,0.82,0.86,-0.22,-4.95,-6.51,-2.10,-0.00,-1.49,2.21,1005.91
1.39,0.82,0.86,-0.22,-4.95,-6.51,-2.10,-0.00,-1.49,2.21,1005.86
1.416,0.82,0.86,-0.22,-4.95,-6.51,-2.10,0.23,0.01,0.95,1005.86
1.418,0.82,0.86,-0.22,5.09,0.76,-0.68,0.23,0.01,0.95,1005.86
1.431,0.45,0.94,-0.20,5.09,0.76,-0.68,0.23,0.01,0.95,1005.86
1.433,0.37,0.99,-0.24,5.09,0.76,-0.68,0.23,0.01,0.95,1005.86
1.434,0.24,1.01,-0.15,5.09,0.76,-0.68,0.23,0.01,0.95,1005.86
1.461,0.24,1.01,-0.15,5.09,0.76,-0.68,0.23,0.01,0.95,1005.90
1.474,0.24,1.01,-0.15,5.09,0.76,-0.68,-0.02,0.05,0.41,1005.90
1.476,0.24,1.01,-0.15,1.05,0.11,-0.93,-0.02,0.05,0.41,1005.90
1.495,-0.07,1.00,-0.03,1.05,0.11,-0.93,-0.02,0.05,0.41,1005.90
1.496,-0.02,0.99,-0.01,1.05,0.11,-0.93,-0.02,0.05,0.41,1005.90
1.497,0.30,0.95,-0.08,1.05,0.11,-0.93,-0.02,0.05,0.41,1005.90
1.505,0.30,0.95,-0.08,1.05,0.11,-0.93,-0.02,0.05,0.41,1005.92
1.527,0.30,0.95,-0.08,1.05,0.11,-0.93,0.06,-0.63,0.81,1005.92
1.528,0.30,0.95,-0.08,-2.08,0.23,0.75,0.06,-0.63,0.81,1005.92
1.546,0.50,0.93,-0.13,-2.08,0.23,0.75,0.06,-0.63,0.81,1005.92
1.547,0.47,0.92,-0.09,-2.08,0.23,0.75,0.06,-0.63,0.81,1005.92
1.547,0.26,0.98,-0.07,-2.08,0.23,0.75,0.06,-0.63,0.81,1005.92
1.589,0.26,0.98,-0.07,0.96,-0.05,0.29,0.06,-0.63,0.81,1005.92
1.59,0.26,0.98,-0.07,0.96,-0.05,0.29,0.06,-0.63,0.81,1005.93
1.591,0.26,0.98,-0.07,0.96,-0.05,0.29,0.17,-0.12,0.50,1005.93
1.611,0.10,1.04,-0.07,0.96,-0.05,0.29,0.17,-0.12,0.50,1005.93
1.612,0.12,0.98,-0.06,0.96,-0.05,0.29,0.17,-0.12,0.50,1005.93
1.612,0.26,0.94,-0.05,0.96,-0.05,0.29,0.17,-0.12,0.50,1005.93
1.643,0.26,0.94,-0.05,0.96,-0.05,0.29,0.28,-0.55,0.84,1005.93
1.644,0.26,0.94,-0.05,-1.85,0.57,0.88,0.28,-0.55,0.84,1005.93
1.661,0.26,0.94,-0.05,-1.85,0.57,0.88,0.28,-0.55,0.84,1005.92
1.663,0.39,0.97,-0.06,-1.85,0.57,0.88,0.28,-0.55,0.84,1005.92
1.664,0.38,0.98,-0.11,-1.85,0.57,0.88,0.28,-0.55,0.84,1005.92
1.665,0.24,1.01,-0.11,-1.85,0.57,0.88,0.28,-0.55,0.84,1005.92
1.702,0.24,1.01,-0.11,-1.85,0.57,0.88,0.28,-0.55,0.84,1005.92
1.703,0.24,1.01,-0.11,-1.85,0.57,0.88,0.36,-0.49,1.00,1005.92
1.704,0.24,1.01,-0.11,-0.57,0.79,0.84,0.36,-0.49,1.00,1005.92
1.721,0.13,1.04,-0.11,-0.57,0.79,0.84,0.36,-0.49,1.00,1005.92
1.722,0.21,1.01,-0.15,-0.57,0.79,0.84,0.36,-0.49,1.00,1005.92
1.723,0.25,1.08,-0.24,-0.57,0.79,0.84,0.36,-0.49,1.00,1005.92
1.76,0.25,1.08,-0.24,-2.48,1.70,0.58,0.36,-0.49,1.00,1005.92
1.761,0.25,1.08,-0.24,-2.48,1.70,0.58,0.66,-0.60,1.37,1005.92
1.782,0.15,1.17,-0.27,-2.48,1.70,0.58,0.66,-0.60,1.37,1005.92
1.784,0.02,1.22,-0.25,-2.48,1.70,0.58,0.66,-0.60,1.37,1005.92
1.785,-0.06,1.25,-0.16,-2.48,1.70,0.58,0.66,-0.60,1.37,1005.92
1.786,-0.06,1.25,-0.16,-2.48,1.70,0.58,0.66,-0.60,1.37,1005.92
1.818,-0.06,1.25,-0.16,-2.48,1.70,0.58,1.19,-0.74,1.96,1005.92
1.819,-0.06,1.25,-0.16,-4.78,4.00,0.76,1.19,-0.74,1.96,1005.92
1.837,-0.15,1.28,-0.09,-4.78,4.00,0.76,1.19,-0.74,1.96,1005.92
1.838,-0.35,1.60,-0.06,-4.78,4.00,0.76,1.19,-0.74,1.96,1005.92
1.839,-0.85,2.16,0.12,-4.78,4.00,0.76,1.19,-0.74,1.96,1005.92
1.86,-0.85,2.16,0.12,-4.78,4.00,0.76,1.19,-0.74,1.96,1005.91
1.877,-0.85,2.16,0.12,-4.78,4.00,0.76,1.39,-1.94,2.66,1005.91
1.877,-0.85,2.16,0.12,-10.01,9.51,4.02,1.39,-1.94,2.66,1005.91
1.896,-1.35,2.14,0.08,-10.01,9.51,4.02,1.39,-1.94,2.66,1005.91
1.897,-0.64,1.56,0.01,-10.01,9.51,4.02,1.39,-1.94,2.66,1005.91
1.898,0.58,1.38,-0.49,-10.01,9.51,4.02,1.39,-1.94,2.66,1005.91
1.901,0.58,1.38,-0.49,-10.01,9.51,4.02,1.39,-1.94,2.66,1005.92
1.935,0.58,1.38,-0.49,-10.01,9.51,4.02,1.88,-2.49,4.15,1005.92
1.936,0.58,1.38,-0.49,-10.76,11.34,4.24,1.88,-2.49,4.15,1005.92
1.954,1.49,1.47,-0.40,-10.76,11.34,4.24,1.88,-2.49,4.15,1005.92
1.955,1.50,1.13,-0.58,-10.76,11.34,4.24,1.88,-2.49,4.15,1005.92
1.956,0.83,0.74,-0.89,-10.76,11.34,4.24,1.88,-2.49,4.15,1005.92
1.98,0.83,0.74,-0.89,-10.76,11.34,4.24,1.88,-2.49,4.15,1005.91
1.997,0.83,0.74,-0.89,5.99,5.76,-0.59,1.88,-2.49,4.15,1005.91
2.001,0.83,0.74,-0.89,5.99,5.76,-0.59,-0.27,-0.09,0.88,1005.91
2.013,0.57,0.66,-0.92,5.99,5.76,-0.59,-0.27,-0.09,0.88,1005.91
2.014,0.28,0.37,-0.50,5.99,5.76,-0.59,-0.27,-0.09,0.88,1005.91
2.014,0.06,0.06,-0.19,5.99,5.76,-0.59,-0.27,-0.09,0.88,1005.91
2.02,0.06,0.06,-0.19,5.99,5.76,-0.59,-0.27,-0.09,0.88,1005.84
2.053,0.06,0.06,-0.19,-2.84,-2.89,-0.64,-0.27,-0.09,0.88,1005.84
2.054,0.06,0.06,-0.19,-2.84,-2.89,-0.64,-2.41,0.12,-1.90,1005.84
2.072,-0.07,-0.08,-0.11,-2.84,-2.89,-0.64,-2.41,0.12,-1.90,1005.84
2.073,-0.01,0.01,-0.20,-2.84,-2.89,-0.64,-2.41,0.12,-1.90,1005.84
2.073,0.06,0.21,-0.37,-2.84,-2.89,-0.64,-2.41,0.12,-1.90,1005.84
2.1,0.06,0.21,-0.37,-2.84,-2.89,-0.64,-2.41,0.12,-1.90,1005.91
2.109,0.06,0.21,-0.37,-2.84,-2.89,-0.64,-3.14,-0.59,-3.79,1005.91
2.11,0.06,0.21,-0.37,-4.03,-7.68,1.22,-3.14,-0.59,-3.79,1005.91
2.129,0.07,0.33,-0.39,-4.03,-7.68,1.22,-3.14,-0.59,-3.79,1005.91
2.131,0.08,0.41,-0.37,-4.03,-7.68,1.22,-3.14,-0.59,-3.79,1005.91
2.131,0.05,0.54,-0.28,-4.03,-7.68,1.22,-3.14,-0.59,-3.79,1005.91
2.173,0.05,0.54,-0.28,-0.49,-5.17,-1.73,-3.14,-0.59,-3.79,1005.91
2.174,0.05,0.54,-0.28,-0.49,-5.17,-1.73,-3.91,-1.44,-5.01,1005.91
2.18,0.05,0.54,-0.28,-0.49,-5.17,-1.73,-3.91,-1.44,-5.01,1005.94
2.188,0.05,0.74,-0.39,-0.49,-5.17,-1.73,-3.91,-1.44,-5.01,1005.94
2.191,0.31,1.07,-0.61,-0.49,-5.17,-1.73,-3.91,-1.44,-5.01,1005.94
2.191,0.66,1.39,-0.79,-0.49,-5.17,-1.73,-3.91,-1.44,-5.01,1005.94
2.227,0.66,1.39,-0.79,-0.49,-5.17,-1.73,-4.05,-1.08,-4.71,1005.94
2.228,0.66,1.39,-0.79,4.76,1.02,-6.35,-4.05,-1.08,-4.71,1005.94
2.246,0.81,1.39,-0.87,4.76,1.02,-6.35,-4.05,-1.08,-4.71,1005.94
2.248,0.96,1.37,-1.00,4.76,1.02,-6.35,-4.05,-1.08,-4.71,1005.94
2.248,1.29,1.27,-0.82,4.76,1.02,-6.35,-4.05,-1.08,-4.71,1005.94
2.26,1.29,1.27,-0.82,4.76,1.02,-6.35,-4.05,-1.08,-4.71,1005.90
2.285,1.29,1.27,-0.82,4.76,1.02,-6.35,-2.88,0.83,-3.08,1005.90
2.286,1.29,1.27,-0.82,12.91,4.27,-10.46,-2.88,0.83,-3.08,1005.90
2.302,1.29,1.27,-0.82,12.91,4.27,-10.46,-2.88,0.83,-3.08,1005.87
2.307,1.20,0.98,-0.45,12.91,4.27,-10.46,-2.88,0.83,-3.08,1005.87
2.308,0.82,0.94,-0.47,12.91,4.27,-10.46,-2.88,0.83,-3.08,1005.87
2.308,0.56,0.90,-0.38,12.91,4.27,-10.46,-2.88,0.83,-3.08,1005.87
2.343,0.56,0.90,-0.38,12.91,4.27,-10.46,-0.34,1.53,0.39,1005.87
2.344,0.56,0.90,-0.38,11.04,0.26,-5.72,-0.34,1.53,0.39,1005.87
2.364,0.49,0.77,-0.32,11.04,0.26,-5.72,-0.34,1.53,0.39,1005.87
2.365,0.55,0.73,-0.57,11.04,0.26,-5.72,-0.34,1.53,0.39,1005.87
2.365,0.47,1.06,-1.15,11.04,0.26,-5.72,-0.34,1.53,0.39,1005.87
2.382,0.47,1.06,-1.15,11.04,0.26,-5.72,-0.34,1.53,0.39,1005.89
2.402,0.47,1.06,-1.15,11.04,0.26,-5.72,0.19,3.22,0.45,1005.89
2.403,0.47,1.06,-1.15,7.42,-0.65,-7.39,0.19,3.22,0.45,1005.89
2.422,-0.82,1.93,0.43,7.42,-0.65,-7.39,0.19,3.22,0.45,1005.89
2.423,-1.78,2.80,0.58,7.42,-0.65,-7.39,0.19,3.22,0.45,1005.89
2.424,-0.24,1.68,-0.97,7.42,-0.65,-7.39,0.19,3.22,0.45,1005.89
2.461,-0.24,1.68,-0.97,7.42,-0.65,-7.39,1.01,0.45,2.61,1005.89
2.463,-0.24,1.68,-0.97,-8.07,11.41,0.03,1.01,0.45,2.61,1005.89
2.465,-0.24,1.68,-0.97,-8.07,11.41,0.03,1.01,0.45,2.61,1005.91
2.484,0.11,0.54,-0.29,-8.07,11.41,0.03,1.01,0.45,2.61,1005.91
2.486,-0.00,0.36,0.40,-8.07,11.41,0.03,1.01,0.45,2.61,1005.91
2.487,0.23,0.82,0.43,-8.07,11.41,0.03,1.01,0.45,2.61,1005.91
2.501,0.23,0.82,0.43,-8.07,11.41,0.03,1.01,0.45,2.61,1005.89
2.52,0.23,0.82,0.43,1.29,-3.96,1.98,1.01,0.45,2.61,1005.89
2.522,0.23,0.82,0.43,1.29,-3.96,1.98,0.67,-0.92,1.84,1005.89
2.539,0.46,1.22,-0.34,1.29,-3.96,1.98,0.67,-0.92,1.84,1005.89
2.54,0.81,1.11,-0.31,1.29,-3.96,1.98,0.67,-0.92,1.84,1005.89
2.54,0.22,0.90,-0.24,1.29,-3.96,1.98,0.67,-0.92,1.84,1005.89
2.577,0.22,0.90,-0.24,1.29,-3.96,1.98,0.44,0.71,0.60,1005.89
2.578,0.22,0.90,-0.24,4.62,0.97,-2.45,0.44,0.71,0.60,1005.89
2.581,0.22,0.90,-0.24,4.62,0.97,-2.45,0.44,0.71,0.60,1005.93
2.597,-0.29,1.02,-0.13,4.62,0.97,-2.45,0.44,0.71,0.60,1005.93
2.599,-0.28,1.08,0.07,4.62,0.97,-2.45,0.44,0.71,0.60,1005.93
2.6,-0.04,0.99,0.17,4.62,0.97,-2.45,0.44,0.71,0.60,1005.93
2.635,-0.04,0.99,0.17,4.62,0.97,-2.45,0.54,-0.01,0.98,1005.93
2.637,-0.04,0.99,0.17,-2.74,0.59,1.10,0.54,-0.01,0.98,1005.93
2.655,0.12,0.95,0.02,-2.74,0.59,1.10,0.54,-0.01,0.98,1005.93
2.657,0.15,0.94,-0.06,-2.74,0.59,1.10,0.54,-0.01,0.98,1005.93
2.658,0.04,0.98,-0.10,-2.74,0.59,1.10,0.54,-0.01,0.98,1005.93
2.661,0.04,0.98,-0.10,-2.74,0.59,1.10,0.54,-0.01,0.98,1005.93
2.694,0.04,0.98,-0.10,-2.74,0.59,1.10,0.64,-0.15,1.02,1005.93
2.695,0.04,0.98,-0.10,-0.31,-0.08,0.69,0.64,-0.15,1.02,1005.93
2.711,0.04,0.98,-0.10,-0.31,-0.08,0.69,0.64,-0.15,1.02,1005.94
2.713,0.05,1.02,-0.04,-0.31,-0.08,0.69,0.64,-0.15,1.02,1005.94
2.714,0.12,1.00,-0.03,-0.31,-0.08,0.69,0.64,-0.15,1.02,1005.94
2.714,0.15,0.98,-0.06,-0.31,-0.08,0.69,0.64,-0.15,1.02,1005.94
2.753,0.15,0.98,-0.06,-0.31,-0.08,0.69,0.78,-0.18,1.15,1005.94
2.754,0.15,0.98,-0.06,-0.85,0.55,1.12,0.78,-0.18,1.15,1005.94
2.771,0.13,0.98,-0.14,-0.85,0.55,1.12,0.78,-0.18,1.15,1005.94
2.772,0.12,0.98,-0.17,-0.85,0.55,1.12,0.78,-0.18,1.15,1005.94
2.772,0.14,0.99,-0.20,-0.85,0.55,1.12,0.78,-0.18,1.15,1005.94
2.781,0.14,0.99,-0.20,-0.85,0.55,1.12,0.78,-0.18,1.15,1005.92
2.809,0.14,0.99,-0.20,-0.85,0.55,1.12,0.77,-0.54,1.31,1005.92
2.811,0.14,0.99,-0.20,-1.23,0.61,0.35,0.77,-0.54,1.31,1005.92
2.829,0.15,1.00,-0.19,-1.23,0.61,0.35,0.77,-0.54,1.31,1005.92
2.831,0.20,1.03,-0.17,-1.23,0.61,0.35,0.77,-0.54,1.31,1005.92
2.832,0.20,1.02,-0.20,-1.23,0.61,0.35,0.77,-0.54,1.31,1005.92
2.861,0.20,1.02,-0.20,-1.23,0.61,0.35,0.77,-0.54,1.31,1005.93
2.869,0.20,1.02,-0.20,-1.23,0.61,0.35,1.09,-0.37,1.44,1005.93
2.871,0.20,1.02,-0.20,-1.39,1.28,0.79,1.09,-0.37,1.44,1005.93
2.889,0.14,1.04,-0.20,-1.39,1.28,0.79,1.09,-0.37,1.44,1005.93
2.89,0.12,1.14,-0.17,-1.39,1.28,0.79,1.09,-0.37,1.44,1005.93
2.891,0.12,1.18,-0.13,-1.39,1.28,0.79,1.09,-0.37,1.44,1005.93
2.905,0.12,1.18,-0.13,-1.39,1.28,0.79,1.09,-0.37,1.44,1005.93
2.927,0.12,1.18,-0.13,-1.39,1.28,0.79,1.63,-0.41,1.72,1005.93
2.928,0.12,1.18,-0.13,-2.65,2.92,1.85,1.63,-0.41,1.72,1005.93
2.946,0.05,1.24,-0.13,-2.65,2.92,1.85,1.63,-0.41,1.72,1005.93
2.947,-0.11,1.51,0.01,-2.65,2.92,1.85,1.63,-0.41,1.72,1005.93
2.947,-0.56,2.00,0.10,-2.65,2.92,1.85,1.63,-0.41,1.72,1005.93
2.981,-0.56,2.00,0.10,-2.65,2.92,1.85,1.63,-0.41,1.72,1005.93
2.993,-0.56,2.00,0.10,-2.65,2.92,1.85,2.09,-1.23,2.22,1005.93
2.994,-0.56,2.00,0.10,-6.48,8.37,4.57,2.09,-1.23,2.22,1005.93
3.01,-1.05,2.20,0.11,-6.48,8.37,4.57,2.09,-1.23,2.22,1005.93
3.011,-0.90,1.76,0.03,-6.48,8.37,4.57,2.09,-1.23,2.22,1005.93
3.012,-0.04,1.23,-0.18,-6.48,8.37,4.57,2.09,-1.23,2.22,1005.93
3.042,-0.04,1.23,-0.18,-6.48,8.37,4.57,2.23,-2.16,3.43,1005.93
3.043,-0.04,1.23,-0.18,-11.39,11.29,5.83,2.23,-2.16,3.43,1005.93
3.061,-0.04,1.23,-0.18,-11.39,11.29,5.83,2.23,-2.16,3.43,1005.92
3.063,0.92,1.21,-0.55,-11.39,11.29,5.83,2.23,-2.16,3.43,1005.92
3.064,1.38,1.12,-0.53,-11.39,11.29,5.83,2.23,-2.16,3.43,1005.92
3.066,1.06,0.80,-0.79,-11.39,11.29,5.83,2.23,-2.16,3.43,1005.92
3.101,1.06,0.80,-0.79,-11.39,11.29,5.83,2.23,-2.16,3.43,1005.91
3.103,1.06,0.80,-0.79,-11.39,11.29,5.83,0.64,0.05,0.99,1005.91
3.104,1.06,0.80,-0.79,5.66,4.95,0.00,0.64,0.05,0.99,1005.91
3.12,0.61,0.53,-0.88,5.66,4.95,0.00,0.64,0.05,0.99,1005.91
3.122,0.47,0.47,-0.55,5.66,4.95,0.00,0.64,0.05,0.99,1005.91
3.122,0.28,0.27,-0.21,5.66,4.95,0.00,0.64,0.05,0.99,1005.91
3.16,0.28,0.27,-0.21,5.66,4.95,0.00,-2.07,0.96,-1.25,1005.91
3.162,0.28,0.27,-0.21,-0.76,-2.12,-0.22,-2.07,0.96,-1.25,1005.91
3.18,0.10,0.06,-0.04,-0.76,-2.12,-0.22,-2.07,0.96,-1.25,1005.91
3.181,-0.02,0.04,-0.14,-0.76,-2.12,-0.22,-2.07,0.96,-1.25,1005.91
3.183,-0.11,0.18,-0.23,-0.76,-2.12,-0.22,-2.07,0.96,-1.25,1005.91
3.184,-0.11,0.18,-0.23,-0.76,-2.12,-0.22,-2.07,0.96,-1.25,1005.86
3.218,-0.11,0.18,-0.23,-0.76,-2.12,-0.22,-2.99,-0.01,-2.95,1005.86
3.219,-0.11,0.18,-0.23,-4.02,-6.85,2.51,-2.99,-0.01,-2.95,1005.86
3.238,-0.06,0.32,-0.29,-4.02,-6.85,2.51,-2.99,-0.01,-2.95,1005.86
3.24,0.07,0.43,-0.35,-4.02,-6.85,2.51,-2.99,-0.01,-2.95,1005.86
3.241,0.06,0.54,-0.28,-4.02,-6.85,2.51,-2.99,-0.01,-2.95,1005.86
3.261,0.06,0.54,-0.28,-4.02,-6.85,2.51,-2.99,-0.01,-2.95,1005.91
3.276,0.06,0.54,-0.28,-4.02,-6.85,2.51,-4.23,-1.77,-4.18,1005.91
3.277,0.06,0.54,-0.28,-1.27,-4.84,-0.94,-4.23,-1.77,-4.18,1005.91
3.296,0.00,0.63,-0.22,-1.27,-4.84,-0.94,-4.23,-1.77,-4.18,1005.91
3.298,-0.01,0.86,-0.44,-1.27,-4.84,-0.94,-4.23,-1.77,-4.18,1005.91
3.299,0.12,1.29,-0.61,-1.27,-4.84,-0.94,-4.23,-1.77,-4.18,1005.91
3.31,0.12,1.29,-0.61,-1.27,-4.84,-0.94,-4.23,-1.77,-4.18,1005.94
3.335,0.12,1.29,-0.61,-1.27,-4.84,-0.94,-5.07,-2.94,-4.10,1005.94
3.337,0.12,1.29,-0.61,1.20,-0.25,-4.76,-5.07,-2.94,-4.10,1005.94
3.355,0.37,1.65,-0.79,1.20,-0.25,-4.76,-5.07,-2.94,-4.10,1005.94
3.357,0.48,1.71,-0.98,1.20,-0.25,-4.76,-5.07,-2.94,-4.10,1005.94
3.358,0.62,1.59,-1.05,1.20,-0.25,-4.76,-5.07,-2.94,-4.10,1005.94
3.38,0.62,1.59,-1.05,1.20,-0.25,-4.76,-5.07,-2.94,-4.10,1005.92
3.401,0.62,1.59,-1.05,1.20,-0.25,-4.76,-3.95,-1.76,-2.31,1005.92
3.403,0.62,1.59,-1.05,6.59,7.27,-11.84,-3.95,-1.76,-2.31,1005.92
3.413,0.91,1.35,-1.01,6.59,7.27,-11.84,-3.95,-1.76,-2.31,1005.92
3.414,1.13,0.91,-0.99,6.59,7.27,-11.84,-3.95,-1.76,-2.31,1005.92
3.414,1.17,0.64,-0.84,6.59,7.27,-11.84,-3.95,-1.76,-2.31,1005.92
3.424,1.17,0.64,-0.84,6.59,7.27,-11.84,-3.95,-1.76,-2.31,1005.89
3.451,1.17,0.64,-0.84,6.59,7.27,-11.84,-0.37,2.03,0.14,1005.89
3.452,1.17,0.64,-0.84,12.31,0.63,-11.65,-0.37,2.03,0.14,1005.89
3.477,0.77,0.68,-0.64,12.31,0.63,-11.65,-0.37,2.03,0.14,1005.89
3.479,0.31,0.92,-0.78,12.31,0.63,-11.65,-0.37,2.03,0.14,1005.89
3.481,-0.51,1.53,0.07,12.31,0.63,-11.65,-0.37,2.03,0.14,1005.89
3.5,-0.51,1.53,0.07,12.31,0.63,-11.65,-0.37,2.03,0.14,1005.87
3.509,-0.51,1.53,0.07,12.31,0.63,-11.65,0.56,3.14,-0.19,1005.87
3.51,-0.51,1.53,0.07,4.10,1.33,-6.02,0.56,3.14,-0.19,1005.87
3.529,-2.11,1.64,1.19,4.10,1.33,-6.02,0.56,3.14,-0.19,1005.87
3.531,-1.44,1.89,-0.44,4.10,1.33,-6.02,0.56,3.14,-0.19,1005.87
3.531,0.49,1.36,-0.54,4.10,1.33,-6.02,0.56,3.14,-0.19,1005.87
3.569,0.49,1.36,-0.54,4.10,1.33,-6.02,1.17,0.37,2.33,1005.87
3.57,0.49,1.36,-0.54,-8.78,6.65,-0.24,1.17,0.37,2.33,1005.87
3.581,0.49,1.36,-0.54,-8.78,6.65,-0.24,1.17,0.37,2.33,1005.90
3.589,0.37,0.71,0.20,-8.78,6.65,-0.24,1.17,0.37,2.33,1005.90
3.59,-0.12,0.70,0.06,-8.78,6.65,-0.24,1.17,0.37,2.33,1005.90
3.592,0.20,1.02,0.08,-8.78,6.65,-0.24,1.17,0.37,2.33,1005.90
3.627,0.20,1.02,0.08,1.90,-1.50,0.55,1.17,0.37,2.33,1005.90
3.628,0.20,1.02,0.08,1.90,-1.50,0.55,0.74,-0.39,1.27,1005.90
3.646,0.38,1.15,-0.18,1.90,-1.50,0.55,0.74,-0.39,1.27,1005.90
3.648,0.39,1.02,-0.17,1.90,-1.50,0.55,0.74,-0.39,1.27,1005.90
3.649,0.09,0.98,-0.11,1.90,-1.50,0.55,0.74,-0.39,1.27,1005.90
3.661,0.09,0.98,-0.11,1.90,-1.50,0.55,0.74,-0.39,1.27,1005.92
3.693,0.09,0.98,-0.11,1.90,-1.50,0.55,0.31,0.13,0.43,1005.92
3.695,0.09,0.98,-0.11,2.95,0.86,-1.86,0.31,0.13,0.43,1005.92
3.716,0.09,0.98,-0.11,2.95,0.86,-1.86,0.31,0.13,0.43,1005.94
3.717,-0.10,0.99,-0.08,2.95,0.86,-1.86,0.31,0.13,0.43,1005.94
3.718,-0.10,1.05,0.03,2.95,0.86,-1.86,0.31,0.13,0.43,1005.94
3.718,-0.02,1.04,0.12,2.95,0.86,-1.86,0.31,0.13,0.43,1005.94
3.744,-0.02,1.04,0.12,2.95,0.86,-1.86,0.30,-0.25,0.48,1005.94
3.745,-0.02,1.04,0.12,-0.81,0.61,0.05,0.30,-0.25,0.48,1005.94
3.762,0.07,0.94,0.23,-0.81,0.61,0.05,0.30,-0.25,0.48,1005.94
3.763,0.13,0.94,0.13,-0.81,0.61,0.05,0.30,-0.25,0.48,1005.94
3.763,0.10,0.97,0.04,-0.81,0.61,0.05,0.30,-0.25,0.48,1005.94
3.782,0.10,0.97,0.04,-0.81,0.61,0.05,0.30,-0.25,0.48,1005.93
3.808,0.10,0.97,0.04,0.70,-0.15,1.33,0.30,-0.25,0.48,1005.93
3.81,0.10,0.97,0.04,0.70,-0.15,1.33,0.42,-0.32,0.28,1005.93
3.826,0.03,1.00,0.01,0.70,-0.15,1.33,0.42,-0.32,0.28,1005.93
3.828,0.03,1.00,0.03,0.70,-0.15,1.33,0.42,-0.32,0.28,1005.93
3.828,0.03,0.98,0.11,0.70,-0.15,1.33,0.42,-0.32,0.28,1005.93
3.829,0.03,0.98,0.11,0.70,-0.15,1.33,0.42,-0.32,0.28,1005.93
3.86,0.03,0.98,0.11,0.70,-0.15,1.33,0.54,0.01,0.25,1005.93
3.861,0.03,0.98,0.11,-0.10,0.28,0.76,0.54,0.01,0.25,1005.93
3.879,0.03,0.98,0.12,-0.10,0.28,0.76,0.54,0.01,0.25,1005.93
3.881,0.06,1.00,-0.03,-0.10,0.28,0.76,0.54,0.01,0.25,1005.93
3.882,-0.01,1.00,-0.08,-0.10,0.28,0.76,0.54,0.01,0.25,1005.93
3.902,-0.01,1.00,-0.08,-0.10,0.28,0.76,0.54,0.01,0.25,1005.92
3.921,-0.01,1.00,-0.08,-0.32,0.29,0.61,0.54,0.01,0.25,1005.92
3.922,-0.01,1.00,-0.08,-0.32,0.29,0.61,0.51,-0.21,0.35,1005.92
3.938,-0.06,0.97,-0.08,-0.32,0.29,0.61,0.51,-0.21,0.35,1005.92
3.94,0.00,1.03,-0.05,-0.32,0.29,0.61,0.51,-0.21,0.35,1005.92
3.94,0.01,1.06,-0.04,-0.32,0.29,0.61,0.51,-0.21,0.35,1005.92
3.977,0.01,1.06,-0.04,-0.98,0.63,0.42,0.51,-0.21,0.35,1005.92
3.981,0.01,1.06,-0.04,-0.98,0.63,0.42,0.70,-0.31,0.51,1005.92
3.982,0.01,1.06,-0.04,-0.98,0.63,0.42,0.70,-0.31,0.51,1005.92
3.999,-0.04,1.09,-0.00,-0.98,0.63,0.42,0.70,-0.31,0.51,1005.92
4.001,-0.14,1.11,-0.01,-0.98,0.63,0.42,0.70,-0.31,0.51,1005.92
4.002,-0.17,1.05,0.04,-0.98,0.63,0.42,0.70,-0.31,0.51,1005.92
4.022,-0.17,1.05,0.04,-0.98,0.63,0.42,0.70,-0.31,0.51,1005.92
4.036,-0.17,1.05,0.04,-0.98,0.63,0.42,1.17,-1.21,1.09,1005.92
4.038,-0.17,1.05,0.04,-2.43,1.37,1.74,1.17,-1.21,1.09,1005.92
4.056,-0.38,1.10,0.10,-2.43,1.37,1.74,1.17,-1.21,1.09,1005.92
4.057,-0.57,1.33,-0.05,-2.43,1.37,1.74,1.17,-1.21,1.09,1005.92
4.057,-0.36,1.53,-0.29,-2.43,1.37,1.74,1.17,-1.21,1.09,1005.92
4.097,-0.36,1.53,-0.29,-2.43,1.37,1.74,0.84,-2.88,2.17,1005.92
4.099,-0.36,1.53,-0.29,-6.25,3.92,1.61,0.84,-2.88,2.17,1005.92
4.107,-0.36,1.53,-0.29,-6.25,3.92,1.61,0.84,-2.88,2.17,1005.92
4.117,-0.04,1.62,-0.30,-6.25,3.92,1.61,0.84,-2.88,2.17,1005.92
4.118,0.27,1.28,-0.33,-6.25,3.92,1.61,0.84,-2.88,2.17,1005.92
4.119,0.23,0.94,-0.59,-6.25,3.92,1.61,0.84,-2.88,2.17,1005.92
4.152,0.23,0.94,-0.59,-6.25,3.92,1.61,-0.62,-3.79,2.44,1005.92
4.154,0.23,0.94,-0.59,-1.15,3.72,-1.41,-0.62,-3.79,2.44,1005.92
4.172,0.26,0.88,-0.52,-1.15,3.72,-1.41,-0.62,-3.79,2.44,1005.92
4.174,0.46,0.71,-0.35,-1.15,3.72,-1.41,-0.62,-3.79,2.44,1005.92
4.175,0.30,0.62,-0.41,-1.15,3.72,-1.41,-0.62,-3.79,2.44,1005.92
4.181,0.30,0.62,-0.41,-1.15,3.72,-1.41,-0.62,-3.79,2.44,1005.92
4.213,0.30,0.62,-0.41,-1.15,3.72,-1.41,-2.10,-4.54,1.47,1005.92
4.214,0.30,0.62,-0.41,0.55,-1.66,-1.90,-2.10,-4.54,1.47,1005.92
4.23,0.08,0.65,-0.53,0.55,-1.66,-1.90,-2.10,-4.54,1.47,1005.92
4.231,-0.06,0.64,-0.67,0.55,-1.66,-1.90,-2.10,-4.54,1.47,1005.92
4.232,-0.20,0.51,-0.71,0.55,-1.66,-1.90,-2.10,-4.54,1.47,1005.92
4.26,-0.20,0.51,-0.71,0.55,-1.66,-1.90,-2.10,-4.54,1.47,1005.92
4.271,-0.20,0.51,-0.71,0.55,-1.66,-1.90,-2.24,-5.75,0.58,1005.92
4.274,-0.20,0.51,-0.71,-2.92,-3.12,-4.17,-2.24,-5.75,0.58,1005.92
4.291,-0.33,0.44,-0.79,-2.92,-3.12,-4.17,-2.24,-5.75,0.58,1005.92
4.293,-0.23,0.53,-0.87,-2.92,-3.12,-4.17,-2.24,-5.75,0.58,1005.92
4.294,-0.15,0.63,-0.86,-2.92,-3.12,-4.17,-2.24,-5.75,0.58,1005.92
4.302,-0.15,0.63,-0.86,-2.92,-3.12,-4.17,-2.24,-5.75,0.58,1005.91
4.326,-0.15,0.63,-0.86,-2.92,-3.12,-4.17,-1.97,-5.65,-0.29,1005.91
4.327,-0.15,0.63,-0.86,-3.81,-3.97,-6.46,-1.97,-5.65,-0.29,1005.91
4.347,-0.21,0.66,-0.86,-3.81,-3.97,-6.46,-1.97,-5.65,-0.29,1005.91
4.348,-0.22,0.73,-0.87,-3.81,-3.97,-6.46,-1.97,-5.65,-0.29,1005.91
4.348,-0.17,0.80,-0.79,-3.81,-3.97,-6.46,-1.97,-5.65,-0.29,1005.91
4.381,-0.17,0.80,-0.79,-3.81,-3.97,-6.46,-1.97,-5.65,-0.29,1005.90
4.384,-0.17,0.80,-0.79,-3.81,-3.97,-6.46,-1.24,-4.25,-1.24,1005.90
4.384,-0.17,0.80,-0.79,-2.39,-2.16,-6.76,-1.24,-4.25,-1.24,1005.90
4.406,-0.15,0.86,-0.78,-2.39,-2.16,-6.76,-1.24,-4.25,-1.24,1005.90
4.407,-0.12,0.92,-0.72,-2.39,-2.16,-6.76,-1.24,-4.25,-1.24,1005.90
4.408,-0.06,0.97,-0.58,-2.39,-2.16,-6.76,-1.24,-4.25,-1.24,1005.90
4.443,-0.06,0.97,-0.58,-2.39,-2.16,-6.76,-0.43,-2.98,-1.36,1005.90
4.444,-0.06,0.97,-0.58,-0.48,-0.35,-5.49,-0.43,-2.98,-1.36,1005.90
4.465,-0.06,0.97,-0.58,-0.48,-0.35,-5.49,-0.43,-2.98,-1.36,1005.90
4.467,-0.01,1.06,-0.44,-0.48,-0.35,-5.49,-0.43,-2.98,-1.36,1005.90
4.467,0.05,1.10,-0.39,-0.48,-0.35,-5.49,-0.43,-2.98,-1.36,1005.90
4.468,0.14,1.05,-0.33,-0.48,-0.35,-5.49,-0.43,-2.98,-1.36,1005.90
4.509,0.14,1.05,-0.33,-0.48,-0.35,-5.49,-0.43,-2.98,-1.36,1005.90
4.511,0.14,1.05,-0.33,1.56,1.13,-2.58,-0.43,-2.98,-1.36,1005.90
4.513,0.14,1.05,-0.33,1.56,1.13,-2.58,-0.05,-2.68,-0.42,1005.90
4.525,0.21,1.00,-0.20,1.56,1.13,-2.58,-0.05,-2.68,-0.42,1005.90
4.527,0.17,0.93,-0.06,1.56,1.13,-2.58,-0.05,-2.68,-0.42,1005.90
4.527,0.20,0.85,0.03,1.56,1.13,-2.58,-0.05,-2.68,-0.42,1005.90
4.561,0.20,0.85,0.03,1.56,1.13,-2.58,0.13,-4.06,0.45,1005.90
4.562,0.20,0.85,0.03,2.83,-0.27,0.27,0.13,-4.06,0.45,1005.90
4.58,0.30,0.83,-0.00,2.83,-0.27,0.27,0.13,-4.06,0.45,1005.90
4.582,0.44,0.86,-0.13,2.83,-0.27,0.27,0.13,-4.06,0.45,1005.90
4.582,0.59,0.79,-0.25,2.83,-0.27,0.27,0.13,-4.06,0.45,1005.90
4.582,0.59,0.79,-0.25,2.83,-0.27,0.27,0.13,-4.06,0.45,1005.91
4.621,0.59,0.79,-0.25,2.83,-0.27,0.27,-0.31,-3.62,1.19,1005.91
4.623,0.59,0.79,-0.25,4.73,-1.31,-0.57,-0.31,-3.62,1.19,1005.91
4.625,0.59,0.79,-0.25,4.73,-1.31,-0.57,-0.31,-3.62,1.19,1005.92
4.639,0.75,0.73,-0.32,4.73,-1.31,-0.57,-0.31,-3.62,1.19,1005.92
4.641,0.61,1.24,0.01,4.73,-1.31,-0.57,-0.31,-3.62,1.19,1005.92
4.641,0.02,2.14,0.89,4.73,-1.31,-0.57,-0.31,-3.62,1.19,1005.92
4.678,0.02,2.14,0.89,4.73,-1.31,-0.57,-0.33,0.98,0.66,1005.92
4.679,0.02,2.14,0.89,4.46,3.94,2.39,-0.33,0.98,0.66,1005.92
4.697,-0.25,1.77,0.47,4.46,3.94,2.39,-0.33,0.98,0.66,1005.92
4.698,-0.26,0.78,-0.48,4.46,3.94,2.39,-0.33,0.98,0.66,1005.92
4.698,0.11,0.67,-0.33,4.46,3.94,2.39,-0.33,0.98,0.66,1005.92
4.701,0.11,0.67,-0.33,4.46,3.94,2.39,-0.33,0.98,0.66,1005.91
4.735,0.11,0.67,-0.33,4.46,3.94,2.39,-0.23,0.09,1.05,1005.91
4.737,0.11,0.67,-0.33,-1.92,1.03,-0.76,-0.23,0.09,1.05,1005.91
4.757,0.41,0.82,-0.04,-1.92,1.03,-0.76,-0.23,0.09,1.05,1005.91
4.759,0.30,1.02,0.16,-1.92,1.03,-0.76,-0.23,0.09,1.05,1005.91
4.76,0.18,1.14,0.19,-1.92,1.03,-0.76,-0.23,0.09,1.05,1005.91
4.782,0.18,1.14,0.19,-1.92,1.03,-0.76,-0.23,0.09,1.05,1005.92
4.793,0.18,1.14,0.19,-1.92,1.03,-0.76,-0.11,-0.04,0.53,1005.92
4.794,0.18,1.14,0.19,1.94,0.29,1.31,-0.11,-0.04,0.53,1005.92
4.819,0.01,1.05,-0.02,1.94,0.29,1.31,-0.11,-0.04,0.53,1005.92
4.821,-0.07,1.07,-0.08,1.94,0.29,1.31,-0.11,-0.04,0.53,1005.92
4.821,-0.05,1.11,-0.13,1.94,0.29,1.31,-0.11,-0.04,0.53,1005.92
4.851,-0.05,1.11,-0.13,1.94,0.29,1.31,0.03,-0.10,0.60,1005.92
4.853,-0.05,1.11,-0.13,-1.60,1.10,-0.46,0.03,-0.10,0.60,1005.92
4.861,-0.05,1.11,-0.13,-1.60,1.10,-0.46,0.03,-0.10,0.60,1005.91
4.874,0.03,1.02,0.03,-1.60,1.10,-0.46,0.03,-0.10,0.60,1005.91
4.876,0.10,0.95,0.16,-1.60,1.10,-0.46,0.03,-0.10,0.60,1005.91
4.877,0.11,0.99,0.09,-1.60,1.10,-0.46,0.03,-0.10,0.60,1005.91
4.91,0.11,0.99,0.09,-1.60,1.10,-0.46,0.03,-0.10,0.60,1005.91
4.911,0.11,0.99,0.09,-0.82,0.28,1.43,0.03,-0.10,0.60,1005.91
4.912,0.11,0.99,0.09,-0.82,0.28,1.43,0.36,-0.13,0.68,1005.91
4.93,0.05,0.98,0.15,-0.82,0.28,1.43,0.36,-0.13,0.68,1005.91
4.931,0.01,0.99,0.04,-0.82,0.28,1.43,0.36,-0.13,0.68,1005.91
4.931,0.08,1.02,-0.08,-0.82,0.28,1.43,0.36,-0.13,0.68,1005.91
4.969,0.08,1.02,-0.08,-0.82,0.28,1.43,0.55,-0.42,0.87,1005.91
4.97,0.08,1.02,-0.08,-1.57,0.47,1.19,0.55,-0.42,0.87,1005.91
4.981,0.08,1.02,-0.08,-1.57,0.47,1.19,0.55,-0.42,0.87,1005.92
4.987,0.12,1.01,-0.09,-1.57,0.47,1.19,0.55,-0.42,0.87,1005.92
4.987,0.10,1.00,-0.04,-1.57,0.47,1.19,0.55,-0.42,0.87,1005.92
4.987,0.15,0.96,-0.07,-1.57,0.47,1.19,0.55,-0.42,0.87,1005.92
5.026,0.15,0.96,-0.07,-1.57,0.47,1.19,0.61,-0.60,0.98,1005.92
5.027,0.15,0.96,-0.07,-1.30,0.59,0.57,0.61,-0.60,0.98,1005.92
5.045,0.22,0.97,-0.09,-1.30,0.59,0.57,0.61,-0.60,0.98,1005.92
5.047,0.18,1.02,-0.12,-1.30,0.59,0.57,0.61,-0.60,0.98,1005.92
5.047,0.16,1.00,-0.16,-1.30,0.59,0.57,0.61,-0.60,0.98,1005.92
5.063,0.16,1.00,-0.16,-1.30,0.59,0.57,0.61,-0.60,0.98,1005.93
5.084,0.16,1.00,-0.16,-1.30,0.59,0.57,0.59,-0.93,1.04,1005.93
5.085,0.16,1.00,-0.16,-1.11,0.87,0.51,0.59,-0.93,1.04,1005.93
5.102,0.16,1.00,-0.16,-1.11,0.87,0.51,0.59,-0.93,1.04,1005.95
5.108,0.24,0.98,-0.14,-1.11,0.87,0.51,0.59,-0.93,1.04,1005.95
5.11,0.31,1.00,-0.12,-1.11,0.87,0.51,0.59,-0.93,1.04,1005.95
5.11,0.33,1.03,-0.07,-1.11,0.87,0.51,0.59,-0.93,1.04,1005.95
5.144,0.33,1.03,-0.07,-1.11,0.87,0.51,0.59,-0.72,1.05,1005.95
5.145,0.33,1.03,-0.07,-0.53,1.17,1.01,0.59,-0.72,1.05,1005.95
5.162,0.26,1.06,-0.10,-0.53,1.17,1.01,0.59,-0.72,1.05,1005.95
5.163,0.09,1.10,-0.11,-0.53,1.17,1.01,0.59,-0.72,1.05,1005.95
5.164,0.01,1.12,-0.12,-0.53,1.17,1.01,0.59,-0.72,1.05,1005.95
5.181,0.01,1.12,-0.12,-0.53,1.17,1.01,0.59,-0.72,1.05,1005.96
5.201,0.01,1.12,-0.12,-0.53,1.17,1.01,0.93,-0.82,1.55,1005.96
5.203,0.01,1.12,-0.12,-2.83,2.49,1.63,0.93,-0.82,1.55,1005.96
5.222,0.03,1.15,-0.16,-2.83,2.49,1.63,0.93,-0.82,1.55,1005.96
5.224,-0.00,1.15,-0.14,-2.83,2.49,1.63,0.93,-0.82,1.55,1005.96
5.225,-0.02,1.23,-0.13,-2.83,2.49,1.63,0.93,-0.82,1.55,1005.96
5.26,-0.02,1.23,-0.13,-2.83,2.49,1.63,1.59,-0.78,2.06,1005.96
5.262,-0.02,1.23,-0.13,-4.69,4.04,2.18,1.59,-0.78,2.06,1005.96
5.262,-0.02,1.23,-0.13,-4.69,4.04,2.18,1.59,-0.78,2.06,1005.95
5.281,-0.04,1.55,-0.08,-4.69,4.04,2.18,1.59,-0.78,2.06,1005.95
5.283,-0.38,2.01,0.16,-4.69,4.04,2.18,1.59,-0.78,2.06,1005.95
5.284,-1.04,1.97,0.25,-4.69,4.04,2.18,1.59,-0.78,2.06,1005.95
5.302,-1.04,1.97,0.25,-4.69,4.04,2.18,1.59,-0.78,2.06,1005.94
5.318,-1.04,1.97,0.25,-4.69,4.04,2.18,1.93,-1.38,2.72,1005.94
5.326,-1.04,1.97,0.25,-10.06,11.68,5.76,1.93,-1.38,2.72,1005.94
5.34,-0.97,1.72,0.16,-10.06,11.68,5.76,1.93,-1.38,2.72,1005.94
5.341,-0.06,1.26,-0.16,-10.06,11.68,5.76,1.93,-1.38,2.72,1005.94
5.341,0.96,1.38,-0.47,-10.06,11.68,5.76,1.93,-1.38,2.72,1005.94
5.377,0.96,1.38,-0.47,-10.06,11.68,5.76,1.88,-0.84,3.45,1005.94
5.378,0.96,1.38,-0.47,-6.31,9.40,3.97,1.88,-0.84,3.45,1005.94
5.383,0.96,1.38,-0.47,-6.31,9.40,3.97,1.88,-0.84,3.45,1005.93
5.396,1.54,1.26,-0.33,-6.31,9.40,3.97,1.88,-0.84,3.45,1005.93
5.397,1.24,0.77,-0.61,-6.31,9.40,3.97,1.88,-0.84,3.45,1005.93
5.397,0.62,0.57,-0.83,-6.31,9.40,3.97,1.88,-0.84,3.45,1005.93
5.435,0.62,0.57,-0.83,4.81,3.41,-0.63,1.88,-0.84,3.45,1005.93
5.438,0.62,0.57,-0.83,4.81,3.41,-0.63,-0.68,0.49,0.02,1005.93
5.458,0.31,0.42,-0.56,4.81,3.41,-0.63,-0.68,0.49,0.02,1005.93
5.461,-0.02,0.17,-0.11,4.81,3.41,-0.63,-0.68,0.49,0.02,1005.93
5.463,-0.19,-0.03,0.16,4.81,3.41,-0.63,-0.68,0.49,0.02,1005.93
5.464,-0.19,-0.03,0.16,4.81,3.41,-0.63,-0.68,0.49,0.02,1005.90
5.493,-0.19,-0.03,0.16,4.81,3.41,-0.63,-2.09,-0.51,-2.47,1005.90
5.494,-0.19,-0.03,0.16,-4.91,-4.64,2.89,-2.09,-0.51,-2.47,1005.90
5.502,-0.19,-0.03,0.16,-4.91,-4.64,2.89,-2.09,-0.51,-2.47,1005.87
5.512,-0.18,0.08,-0.02,-4.91,-4.64,2.89,-2.09,-0.51,-2.47,1005.87
5.514,-0.03,0.41,-0.44,-4.91,-4.64,2.89,-2.09,-0.51,-2.47,1005.87
5.515,0.09,0.55,-0.53,-4.91,-4.64,2.89,-2.09,-0.51,-2.47,1005.87
5.552,0.09,0.55,-0.53,-3.54,-4.68,0.37,-2.09,-0.51,-2.47,1005.87
5.554,0.09,0.55,-0.53,-3.54,-4.68,0.37,-3.21,-1.76,-3.71,1005.87
5.574,0.13,0.56,-0.45,-3.54,-4.68,0.37,-3.21,-1.76,-3.71,1005.87
5.577,0.15,0.60,-0.42,-3.54,-4.68,0.37,-3.21,-1.76,-3.71,1005.87
5.579,0.20,0.73,-0.42,-3.54,-4.68,0.37,-3.21,-1.76,-3.71,1005.87
5.582,0.20,0.73,-0.42,-3.54,-4.68,0.37,-3.21,-1.76,-3.71,1005.95
5.612,0.20,0.73,-0.42,-3.54,-4.68,0.37,-4.58,-1.45,-4.50,1005.95
5.614,0.20,0.73,-0.42,0.91,-3.05,-2.72,-4.58,-1.45,-4.50,1005.95
5.637,0.21,0.89,-0.37,0.91,-3.05,-2.72,-4.58,-1.45,-4.50,1005.95
5.639,0.28,1.19,-0.55,0.91,-3.05,-2.72,-4.58,-1.45,-4.50,1005.95
5.64,0.53,1.62,-0.80,0.91,-3.05,-2.72,-4.58,-1.45,-4.50,1005.95
5.661,0.53,1.62,-0.80,0.91,-3.05,-2.72,-4.58,-1.45,-4.50,1005.93
5.668,0.53,1.62,-0.80,0.91,-3.05,-2.72,-4.58,0.27,-4.78,1005.93
5.668,0.53,1.62,-0.80,5.22,2.95,-6.51,-4.58,0.27,-4.78,1005.93
5.688,0.64,1.79,-0.93,5.22,2.95,-6.51,-4.58,0.27,-4.78,1005.93
5.69,0.64,1.64,-0.74,5.22,2.95,-6.51,-4.58,0.27,-4.78,1005.93
5.691,0.95,1.19,-0.45,5.22,2.95,-6.51,-4.58,0.27,-4.78,1005.93
5.702,0.95,1.19,-0.45,5.22,2.95,-6.51,-4.58,0.27,-4.78,1005.91
5.737,0.95,1.19,-0.45,10.18,6.34,-8.68,-4.58,0.27,-4.78,1005.91
5.741,0.95,1.19,-0.45,10.18,6.34,-8.68,-2.46,1.52,-2.04,1005.91
5.747,1.23,0.94,-0.37,10.18,6.34,-8.68,-2.46,1.52,-2.04,1005.91
5.748,1.19,0.86,-0.49,10.18,6.34,-8.68,-2.46,1.52,-2.04,1005.91
5.748,0.85,0.71,-0.57,10.18,6.34,-8.68,-2.46,1.52,-2.04,1005.91
5.781,0.85,0.71,-0.57,10.18,6.34,-8.68,-2.46,1.52,-2.04,1005.87
5.784,0.85,0.71,-0.57,10.18,6.34,-8.68,0.42,1.90,1.42,1005.87
5.784,0.85,0.71,-0.57,12.79,-0.82,-5.81,0.42,1.90,1.42,1005.87
5.818,0.77,0.85,-0.61,12.79,-0.82,-5.81,0.42,1.90,1.42,1005.87
5.819,0.11,1.56,-0.36,12.79,-0.82,-5.81,0.42,1.90,1.42,1005.87
5.821,-1.69,1.98,1.17,12.79,-0.82,-5.81,0.42,1.90,1.42,1005.87
5.843,-1.69,1.98,1.17,-0.95,5.08,0.22,0.42,1.90,1.42,1005.87
5.844,-1.69,1.98,1.17,-0.95,5.08,0.22,0.99,1.94,1.08,1005.87
5.861,-1.69,1.98,1.17,-0.95,5.08,0.22,0.99,1.94,1.08,1005.87
5.862,-1.26,1.76,0.04,-0.95,5.08,0.22,0.99,1.94,1.08,1005.87
5.862,0.39,1.22,-1.47,-0.95,5.08,0.22,0.99,1.94,1.08,1005.87
5.862,0.21,0.89,-0.56,-0.95,5.08,0.22,0.99,1.94,1.08,1005.87
5.902,0.21,0.89,-0.56,-0.95,5.08,0.22,0.36,0.11,2.08,1005.87
5.904,0.21,0.89,-0.56,-0.95,5.08,0.22,0.36,0.11,2.08,1005.92
5.905,0.21,0.89,-0.56,-1.57,3.20,-6.59,0.36,0.11,2.08,1005.92
5.922,0.29,0.65,0.48,-1.57,3.20,-6.59,0.36,0.11,2.08,1005.92
5.925,0.21,0.86,0.42,-1.57,3.20,-6.59,0.36,0.11,2.08,1005.92
5.927,0.10,1.11,-0.03,-1.57,3.20,-6.59,0.36,0.11,2.08,1005.92
5.962,0.10,1.11,-0.03,-1.57,3.20,-6.59,0.54,-0.42,1.10,1005.92
5.964,0.10,1.11,-0.03,1.89,-0.88,3.00,0.54,-0.42,1.10,1005.92
5.98,0.07,1.09,-0.12,1.89,-0.88,3.00,0.54,-0.42,1.10,1005.92
5.982,-0.05,1.06,-0.02,1.89,-0.88,3.00,0.54,-0.42,1.10,1005.92
5.982,-0.10,1.02,-0.02,1.89,-0.88,3.00,0.54,-0.42,1.10,1005.92
5.983,-0.10,1.02,-0.02,1.89,-0.88,3.00,0.54,-0.42,1.10,1005.89
6.018,-0.10,1.02,-0.02,1.89,-0.88,3.00,0.52,-0.04,0.97,1005.89
6.02,-0.10,1.02,-0.02,-0.83,0.94,-0.08,0.52,-0.04,0.97,1005.89
6.043,-0.10,1.02,-0.02,-0.83,0.94,-0.08,0.52,-0.04,0.97,1005.92
6.044,0.11,0.94,0.03,-0.83,0.94,-0.08,0.52,-0.04,0.97,1005.92
6.045,0.17,0.96,0.04,-0.83,0.94,-0.08,0.52,-0.04,0.97,1005.92
6.045,0.03,0.99,0.05,-0.83,0.94,-0.08,0.52,-0.04,0.97,1005.92
6.078,0.03,0.99,0.05,-0.83,0.94,-0.08,0.58,-0.14,0.93,1005.92
6.079,0.03,0.99,0.05,-0.07,0.06,1.16,0.58,-0.14,0.93,1005.92
6.098,-0.08,0.97,0.06,-0.07,0.06,1.16,0.58,-0.14,0.93,1005.92
6.099,-0.07,0.99,0.03,-0.07,0.06,1.16,0.58,-0.14,0.93,1005.92
6.099,0.05,1.02,-0.02,-0.07,0.06,1.16,0.58,-0.14,0.93,1005.92
6.101,0.05,1.02,-0.02,-0.07,0.06,1.16,0.58,-0.14,0.93,1005.94
6.135,0.05,1.02,-0.02,-2.02,0.52,1.43,0.58,-0.14,0.93,1005.94
6.138,0.05,1.02,-0.02,-2.02,0.52,1.43,0.76,-0.50,1.22,1005.94
6.155,0.19,0.97,-0.03,-2.02,0.52,1.43,0.76,-0.50,1.22,1005.94
6.157,0.19,0.94,-0.08,-2.02,0.52,1.43,0.76,-0.50,1.22,1005.94
6.158,0.20,0.98,-0.14,-2.02,0.52,1.43,0.76,-0.50,1.22,1005.94
6.182,0.20,0.98,-0.14,-2.02,0.52,1.43,0.76,-0.50,1.22,1005.95
6.194,0.20,0.98,-0.14,-2.02,0.52,1.43,0.75,-0.33,1.14,1005.95
6.195,0.20,0.98,-0.14,-0.37,0.41,0.76,0.75,-0.33,1.14,1005.95
6.218,0.23,0.99,-0.17,-0.37,0.41,0.76,0.75,-0.33,1.14,1005.95
6.219,0.16,0.98,-0.18,-0.37,0.41,0.76,0.75,-0.33,1.14,1005.95
6.22,0.07,0.99,-0.18,-0.37,0.41,0.76,0.75,-0.33,1.14,1005.95
6.25,0.07,0.99,-0.18,-0.37,0.41,0.76,0.80,-0.40,1.25,1005.95
6.251,0.07,0.99,-0.18,-1.36,0.88,0.33,0.80,-0.40,1.25,1005.95
6.261,0.07,0.99,-0.18,-1.36,0.88,0.33,0.80,-0.40,1.25,1005.94
6.27,0.13,1.02,-0.16,-1.36,0.88,0.33,0.80,-0.40,1.25,1005.94
6.271,0.22,1.05,-0.13,-1.36,0.88,0.33,0.80,-0.40,1.25,1005.94
6.272,0.20,1.09,-0.13,-1.36,0.88,0.33,0.80,-0.40,1.25,1005.94
6.301,0.20,1.09,-0.13,-1.36,0.88,0.33,0.80,-0.40,1.25,1005.93
6.317,0.20,1.09,-0.13,-1.36,0.88,0.33,1.18,-0.21,1.43,1005.93
6.319,0.20,1.09,-0.13,-1.72,1.95,1.31,1.18,-0.21,1.43,1005.93
6.339,0.16,1.13,-0.17,-1.72,1.95,1.31,1.18,-0.21,1.43,1005.93
6.34,0.12,1.13,-0.17,-1.72,1.95,1.31,1.18,-0.21,1.43,1005.93
6.341,0.06,1.20,-0.15,-1.72,1.95,1.31,1.18,-0.21,1.43,1005.93
6.371,0.06,1.20,-0.15,-1.72,1.95,1.31,1.62,-0.57,1.73,1005.93
6.372,0.06,1.20,-0.15,-3.04,3.57,1.96,1.62,-0.57,1.73,1005.93
6.382,0.06,1.20,-0.15,-3.04,3.57,1.96,1.62,-0.57,1.73,1005.93
6.388,-0.11,1.46,-0.06,-3.04,3.57,1.96,1.62,-0.57,1.73,1005.93
6.389,-0.38,1.81,-0.03,-3.04,3.57,1.96,1.62,-0.57,1.73,1005.93
6.389,-0.86,2.06,0.01,-3.04,3.57,1.96,1.62,-0.57,1.73,1005.93
6.428,-0.86,2.06,0.01,-9.11,10.58,4.35,1.62,-0.57,1.73,1005.93
6.43,-0.86,2.06,0.01,-9.11,10.58,4.35,2.01,-1.21,2.37,1005.93
6.445,-1.30,2.00,0.02,-9.11,10.58,4.35,2.01,-1.21,2.37,1005.93
6.446,-0.52,1.36,0.02,-9.11,10.58,4.35,2.01,-1.21,2.37,1005.93
6.447,0.59,1.17,-0.46,-9.11,10.58,4.35,2.01,-1.21,2.37,1005.93
6.461,0.59,1.17,-0.46,-9.11,10.58,4.35,2.01,-1.21,2.37,1005.93
6.484,0.59,1.17,-0.46,-9.11,10.58,4.35,2.34,-1.25,3.55,1005.93
6.485,0.59,1.17,-0.46,-9.42,9.59,4.37,2.34,-1.25,3.55,1005.93
6.502,0.59,1.17,-0.46,-9.42,9.59,4.37,2.34,-1.25,3.55,1005.92
6.504,1.51,1.15,-0.51,-9.42,9.59,4.37,2.34,-1.25,3.55,1005.92
6.505,1.51,0.96,-0.55,-9.42,9.59,4.37,2.34,-1.25,3.55,1005.92
6.505,0.66,0.67,-0.46,-9.42,9.59,4.37,2.34,-1.25,3.55,1005.92
6.543,0.66,0.67,-0.46,-9.42,9.59,4.37,0.16,0.10,0.27,1005.92
6.545,0.66,0.67,-0.46,6.38,3.96,0.80,0.16,0.10,0.27,1005.92
6.563,0.44,0.43,-0.53,6.38,3.96,0.80,0.16,0.10,0.27,1005.92
6.564,0.30,0.32,-0.32,6.38,3.96,0.80,0.16,0.10,0.27,1005.92
6.565,0.20,0.17,0.09,6.38,3.96,0.80,0.16,0.10,0.27,1005.92
6.583,0.20,0.17,0.09,6.38,3.96,0.80,0.16,0.10,0.27,1005.90
6.601,0.20,0.17,0.09,6.38,3.96,0.80,-1.83,0.38,-1.83,1005.90
6.602,0.20,0.17,0.09,-2.04,-3.23,2.48,-1.83,0.38,-1.83,1005.90
6.622,0.12,0.07,0.19,-2.04,-3.23,2.48,-1.83,0.38,-1.83,1005.90
6.624,0.09,0.14,-0.08,-2.04,-3.23,2.48,-1.83,0.38,-1.83,1005.90
6.625,0.08,0.31,-0.27,-2.04,-3.23,2.48,-1.83,0.38,-1.83,1005.90
6.627,0.08,0.31,-0.27,-2.04,-3.23,2.48,-1.83,0.38,-1.83,1005.88
6.66,0.08,0.31,-0.27,-2.04,-3.23,2.48,-2.74,-0.67,-3.31,1005.88
6.661,0.08,0.31,-0.27,-2.57,-5.99,3.44,-2.74,-0.67,-3.31,1005.88
6.678,0.10,0.45,-0.26,-2.57,-5.99,3.44,-2.74,-0.67,-3.31,1005.88
6.679,0.13,0.57,-0.22,-2.57,-5.99,3.44,-2.74,-0.67,-3.31,1005.88
6.68,0.21,0.67,-0.22,-2.57,-5.99,3.44,-2.74,-0.67,-3.31,1005.88
6.701,0.21,0.67,-0.22,-2.57,-5.99,3.44,-2.74,-0.67,-3.31,1005.96
6.718,0.21,0.67,-0.22,-2.57,-5.99,3.44,-4.04,-1.41,-4.20,1005.96
6.72,0.21,0.67,-0.22,0.24,-3.39,-0.11,-4.04,-1.41,-4.20,1005.96
6.739,0.30,0.76,-0.25,0.24,-3.39,-0.11,-4.04,-1.41,-4.20,1005.96
6.741,0.25,0.94,-0.38,0.24,-3.39,-0.11,-4.04,-1.41,-4.20,1005.96
6.741,0.29,1.32,-0.48,0.24,-3.39,-0.11,-4.04,-1.41,-4.20,1005.96
6.777,0.29,1.32,-0.48,3.90,0.68,-3.87,-4.04,-1.41,-4.20,1005.96
6.778,0.29,1.32,-0.48,3.90,0.68,-3.87,-4.64,-0.63,-4.48,1005.96
6.781,0.29,1.32,-0.48,3.90,0.68,-3.87,-4.64,-0.63,-4.48,1005.96
6.797,0.55,1.72,-0.70,3.90,0.68,-3.87,-4.64,-0.63,-4.48,1005.96
6.799,0.74,1.67,-0.84,3.90,0.68,-3.87,-4.64,-0.63,-4.48,1005.96
6.8,1.00,1.50,-0.81,3.90,0.68,-3.87,-4.64,-0.63,-4.48,1005.96
6.834,1.00,1.50,-0.81,3.90,0.68,-3.87,-3.59,1.32,-3.02,1005.96
6.835,1.00,1.50,-0.81,10.14,7.25,-9.48,-3.59,1.32,-3.02,1005.96
6.854,1.25,1.27,-0.55,10.14,7.25,-9.48,-3.59,1.32,-3.02,1005.96
6.855,1.14,1.05,-0.56,10.14,7.25,-9.48,-3.59,1.32,-3.02,1005.96
6.855,0.81,0.78,-0.82,10.14,7.25,-9.48,-3.59,1.32,-3.02,1005.96
6.861,0.81,0.78,-0.82,10.14,7.25,-9.48,-3.59,1.32,-3.02,1005.93
6.895,0.81,0.78,-0.82,12.91,1.29,-7.65,-3.59,1.32,-3.02,1005.93
6.897,0.81,0.78,-0.82,12.91,1.29,-7.65,-0.27,2.60,0.51,1005.93
6.904,0.81,0.78,-0.82,12.91,1.29,-7.65,-0.27,2.60,0.51,1005.88
6.912,0.73,0.71,-0.76,12.91,1.29,-7.65,-0.27,2.60,0.51,1005.88
6.914,0.58,1.16,-1.05,12.91,1.29,-7.65,-0.27,2.60,0.51,1005.88
6.915,-0.83,1.66,0.31,12.91,1.29,-7.65,-0.27,2.60,0.51,1005.88
6.951,-0.83,1.66,0.31,12.91,1.29,-7.65,0.53,3.13,-0.38,1005.88
6.953,-0.83,1.66,0.31,4.37,2.67,-5.42,0.53,3.13,-0.38,1005.88
6.97,-2.50,1.39,0.51,4.37,2.67,-5.42,0.53,3.13,-0.38,1005.88
6.971,-1.55,1.71,-0.43,4.37,2.67,-5.42,0.53,3.13,-0.38,1005.88
6.972,0.29,1.31,-0.76,4.37,2.67,-5.42,0.53,3.13,-0.38,1005.88
6.982,0.29,1.31,-0.76,4.37,2.67,-5.42,0.53,3.13,-0.38,1005.88
7.017,0.29,1.31,-0.76,-10.82,5.15,-2.07,0.53,3.13,-0.38,1005.88
7.019,0.29,1.31,-0.76,-10.82,5.15,-2.07,0.98,0.62,2.86,1005.88
7.039,0.77,0.78,0.35,-10.82,5.15,-2.07,0.98,0.62,2.86,1005.88
7.041,0.38,0.53,0.29,-10.82,5.15,-2.07,0.98,0.62,2.86,1005.88
7.041,0.09,0.86,-0.01,-10.82,5.15,-2.07,0.98,0.62,2.86,1005.88
7.062,0.09,0.86,-0.01,-10.82,5.15,-2.07,0.98,0.62,2.86,1005.90
7.068,0.09,0.86,-0.01,-10.82,5.15,-2.07,0.50,-0.18,1.21,1005.90
7.069,0.09,0.86,-0.01,4.76,-2.19,2.40,0.50,-0.18,1.21,1005.90
7.089,0.08,1.19,-0.28,4.76,-2.19,2.40,0.50,-0.18,1.21,1005.90
7.09,0.22,1.16,-0.19,4.76,-2.19,2.40,0.50,-0.18,1.21,1005.90
7.09,-0.10,0.99,-0.12,4.76,-2.19,2.40,0.50,-0.18,1.21,1005.90
7.102,-0.10,0.99,-0.12,4.76,-2.19,2.40,0.50,-0.18,1.21,1005.96
7.127,-0.10,0.99,-0.12,4.76,-2.19,2.40,0.32,0.46,0.70,1005.96
7.129,-0.10,0.99,-0.12,1.00,1.57,-1.37,0.32,0.46,0.70,1005.96
7.146,-0.18,0.99,-0.04,1.00,1.57,-1.37,0.32,0.46,0.70,1005.96
7.147,-0.13,1.04,0.12,1.00,1.57,-1.37,0.32,0.46,0.70,1005.96
7.147,-0.07,0.98,0.13,1.00,1.57,-1.37,0.32,0.46,0.70,1005.96
7.182,-0.07,0.98,0.13,1.00,1.57,-1.37,0.32,0.46,0.70,1005.93
7.184,-0.07,0.98,0.13,1.00,1.57,-1.37,0.47,-0.05,0.87,1005.93
7.184,-0.07,0.98,0.13,-1.37,0.51,1.48,0.47,-0.05,0.87,1005.93
7.204,0.00,0.96,0.01,-1.37,0.51,1.48,0.47,-0.05,0.87,1005.93
7.205,0.01,0.98,-0.01,-1.37,0.51,1.48,0.47,-0.05,0.87,1005.93
7.205,-0.02,0.99,0.02,-1.37,0.51,1.48,0.47,-0.05,0.87,1005.93
7.243,-0.02,0.99,0.02,-1.37,0.51,1.48,0.64,-0.10,0.87,1005.93
7.245,-0.02,0.99,0.02,-0.58,0.25,1.17,0.64,-0.10,0.87,1005.93
7.264,-0.02,0.99,0.02,-0.58,0.25,1.17,0.64,-0.10,0.87,1005.93
7.265,-0.02,0.99,-0.02,-0.58,0.25,1.17,0.64,-0.10,0.87,1005.93
7.265,0.02,0.97,0.00,-0.58,0.25,1.17,0.64,-0.10,0.87,1005.93
7.266,0.07,0.95,-0.00,-0.58,0.25,1.17,0.64,-0.10,0.87,1005.93
7.302,0.07,0.95,-0.00,-0.58,0.25,1.17,0.76,-0.25,0.90,1005.93
7.303,0.07,0.95,-0.00,-0.81,0.32,1.43,0.76,-0.25,0.90,1005.93
7.303,0.07,0.95,-0.00,-0.81,0.32,1.43,0.76,-0.25,0.90,1005.93
7.325,0.17,0.91,-0.08,-0.81,0.32,1.43,0.76,-0.25,0.90,1005.93
7.328,0.17,0.92,-0.10,-0.81,0.32,1.43,0.76,-0.25,0.90,1005.93
7.329,0.06,0.96,-0.09,-0.81,0.32,1.43,0.76,-0.25,0.90,1005.93
7.36,0.06,0.96,-0.09,-0.81,0.32,1.43,0.81,-0.26,0.89,1005.93
7.362,0.06,0.96,-0.09,-0.15,0.06,1.07,0.81,-0.26,0.89,1005.93
7.378,0.04,0.96,-0.15,-0.15,0.06,1.07,0.81,-0.26,0.89,1005.93
7.38,0.09,0.96,-0.20,-0.15,0.06,1.07,0.81,-0.26,0.89,1005.93
7.38,0.14,0.95,-0.23,-0.15,0.06,1.07,0.81,-0.26,0.89,1005.93
7.381,0.14,0.95,-0.23,-0.15,0.06,1.07,0.81,-0.26,0.89,1005.94
7.418,0.14,0.95,-0.23,-0.15,0.06,1.07,0.85,-0.62,1.10,1005.94
7.42,0.14,0.95,-0.23,-1.06,0.54,0.55,0.85,-0.62,1.10,1005.94
7.449,0.12,0.96,-0.14,-1.06,0.54,0.55,0.85,-0.62,1.10,1005.94
7.451,0.07,1.01,-0.03,-1.06,0.54,0.55,0.85,-0.62,1.10,1005.94
7.451,0.00,1.04,0.02,-1.06,0.54,0.55,0.85,-0.62,1.10,1005.94
7.462,0.00,1.04,0.02,-1.06,0.54,0.55,0.85,-0.62,1.10,1005.95
7.477,0.00,1.04,0.02,-1.06,0.54,0.55,1.24,-1.12,1.62,1005.95
7.478,0.00,1.04,0.02,-1.91,1.41,2.67,1.24,-1.12,1.62,1005.95
7.502,-0.02,1.19,-0.00,-1.91,1.41,2.67,1.24,-1.12,1.62,1005.95
7.504,0.03,1.34,-0.11,-1.91,1.41,2.67,1.24,-1.12,1.62,1005.95
7.504,0.15,1.53,-0.19,-1.91,1.41,2.67,1.24,-1.12,1.62,1005.95
7.505,0.15,1.53,-0.19,-1.91,1.41,2.67,1.24,-1.12,1.62,1005.96
7.537,0.15,1.53,-0.19,-1.91,1.41,2.67,1.02,-1.70,2.35,1005.96
7.539,0.15,1.53,-0.19,-2.74,5.33,2.91,1.02,-1.70,2.35,1005.96
7.563,0.15,1.66,-0.36,-2.74,5.33,2.91,1.02,-1.70,2.35,1005.96
7.564,0.03,1.38,-0.55,-2.74,5.33,2.91,1.02,-1.70,2.35,1005.96
7.564,0.25,1.07,-0.44,-2.74,5.33,2.91,1.02,-1.70,2.35,1005.96
7.582,0.25,1.07,-0.44,-2.74,5.33,2.91,1.02,-1.70,2.35,1005.94
7.594,0.25,1.07,-0.44,-2.74,5.33,2.91,-0.29,-2.96,2.83,1005.94
7.595,0.25,1.07,-0.44,-2.37,5.91,-0.02,-0.29,-2.96,2.83,1005.94
7.614,0.63,0.84,-0.52,-2.37,5.91,-0.02,-0.29,-2.96,2.83,1005.94
7.614,0.80,0.60,-0.64,-2.37,5.91,-0.02,-0.29,-2.96,2.83,1005.94
7.615,0.41,0.49,-0.59,-2.37,5.91,-0.02,-0.29,-2.96,2.83,1005.94
7.651,0.41,0.49,-0.59,-2.37,5.91,-0.02,-2.63,-3.75,1.86,1005.94
7.658,0.41,0.49,-0.59,2.30,-1.41,-1.62,-2.63,-3.75,1.86,1005.94
7.662,0.41,0.49,-0.59,2.30,-1.41,-1.62,-2.63,-3.75,1.86,1005.92
7.67,0.05,0.35,-0.56,2.30,-1.41,-1.62,-2.63,-3.75,1.86,1005.92
7.671,-0.33,0.30,-0.65,2.30,-1.41,-1.62,-2.63,-3.75,1.86,1005.92
7.671,-0.47,0.38,-0.68,2.30,-1.41,-1.62,-2.63,-3.75,1.86,1005.92
7.702,-0.47,0.38,-0.68,2.30,-1.41,-1.62,-2.63,-3.75,1.86,1005.90
7.711,-0.47,0.38,-0.68,2.30,-1.41,-1.62,-3.71,-5.23,0.84,1005.90
7.713,-0.47,0.38,-0.68,-5.33,-4.90,-2.75,-3.71,-5.23,0.84,1005.90
7.736,-0.33,0.50,-0.91,-5.33,-4.90,-2.75,-3.71,-5.23,0.84,1005.90
7.737,-0.43,0.58,-0.98,-5.33,-4.90,-2.75,-3.71,-5.23,0.84,1005.90
7.737,-0.58,0.66,-1.02,-5.33,-4.90,-2.75,-3.71,-5.23,0.84,1005.90
7.767,-0.58,0.66,-1.02,-5.33,-4.90,-2.75,-3.30,-6.52,-0.26,1005.90
7.769,-0.58,0.66,-1.02,-5.85,-3.14,-6.78,-3.30,-6.52,-0.26,1005.90
7.782,-0.58,0.66,-1.02,-5.85,-3.14,-6.78,-3.30,-6.52,-0.26,1005.90
7.787,-0.55,0.80,-1.13,-5.85,-3.14,-6.78,-3.30,-6.52,-0.26,1005.90
7.788,-0.41,0.85,-1.19,-5.85,-3.14,-6.78,-3.30,-6.52,-0.26,1005.90
7.789,-0.27,0.89,-1.11,-5.85,-3.14,-6.78,-3.30,-6.52,-0.26,1005.90
7.827,-0.27,0.89,-1.11,-5.85,-3.14,-6.78,-2.39,-6.03,-1.03,1005.90
7.829,-0.27,0.89,-1.11,-4.08,-0.88,-9.29,-2.39,-6.03,-1.03,1005.90
7.847,-0.20,0.94,-0.91,-4.08,-0.88,-9.29,-2.39,-6.03,-1.03,1005.90
7.848,-0.19,0.99,-0.87,-4.08,-0.88,-9.29,-2.39,-6.03,-1.03,1005.90
7.849,-0.10,1.03,-0.86,-4.08,-0.88,-9.29,-2.39,-6.03,-1.03,1005.90
7.862,-0.10,1.03,-0.86,-4.08,-0.88,-9.29,-2.39,-6.03,-1.03,1005.90
7.884,-0.10,1.03,-0.86,-4.08,-0.88,-9.29,-1.49,-4.69,-1.22,1005.90
7.885,-0.10,1.03,-0.86,-0.62,0.39,-7.56,-1.49,-4.69,-1.22,1005.90
7.902,-0.10,1.03,-0.86,-0.62,0.39,-7.56,-1.49,-4.69,-1.22,1005.91
7.904,0.06,1.07,-0.68,-0.62,0.39,-7.56,-1.49,-4.69,-1.22,1005.91
7.905,0.10,1.08,-0.54,-0.62,0.39,-7.56,-1.49,-4.69,-1.22,1005.91
7.905,0.11,1.01,-0.47,-0.62,0.39,-7.56,-1.49,-4.69,-1.22,1005.91
7.944,0.11,1.01,-0.47,-0.62,0.39,-7.56,-0.66,-3.60,-0.72,1005.91
7.957,0.11,1.01,-0.47,2.37,1.04,-4.95,-0.66,-3.60,-0.72,1005.91
7.962,0.14,0.96,-0.33,2.37,1.04,-4.95,-0.66,-3.60,-0.72,1005.91
7.963,0.15,0.95,-0.22,2.37,1.04,-4.95,-0.66,-3.60,-0.72,1005.91
7.963,0.14,0.93,-0.15,2.37,1.04,-4.95,-0.66,-3.60,-0.72,1005.91
7.982,0.14,0.93,-0.15,2.37,1.04,-4.95,-0.66,-3.60,-0.72,1005.91
8.001,0.14,0.93,-0.15,2.37,1.04,-4.95,-0.09,-3.62,0.16,1005.91
8.002,0.14,0.93,-0.15,2.85,-0.00,-2.08,-0.09,-3.62,0.16,1005.91
8.022,0.11,0.92,-0.09,2.85,-0.00,-2.08,-0.09,-3.62,0.16,1005.91
8.023,0.17,0.86,-0.09,2.85,-0.00,-2.08,-0.09,-3.62,0.16,1005.91
8.023,0.30,0.81,-0.11,2.85,-0.00,-2.08,-0.09,-3.62,0.16,1005.91
8.024,0.30,0.81,-0.11,2.85,-0.00,-2.08,-0.09,-3.62,0.16,1005.92
8.065,0.30,0.81,-0.11,2.85,-0.00,-2.08,0.28,-3.76,0.97,1005.92
8.067,0.30,0.81,-0.11,2.82,-0.89,-0.84,0.28,-3.76,0.97,1005.92
8.079,0.40,0.76,-0.12,2.82,-0.89,-0.84,0.28,-3.76,0.97,1005.92
8.081,0.41,0.67,-0.17,2.82,-0.89,-0.84,0.28,-3.76,0.97,1005.92
8.081,0.41,0.59,-0.26,2.82,-0.89,-0.84,0.28,-3.76,0.97,1005.92
8.102,0.41,0.59,-0.26,2.82,-0.89,-0.84,0.28,-3.76,0.97,1005.93
8.118,0.41,0.59,-0.26,4.38,-2.73,-1.40,0.28,-3.76,0.97,1005.93
8.12,0.41,0.59,-0.26,4.38,-2.73,-1.40,0.61,-2.31,0.81,1005.93
8.138,0.50,0.55,-0.34,4.38,-2.73,-1.40,0.61,-2.31,0.81,1005.93
8.139,0.41,0.63,-0.11,4.38,-2.73,-1.40,0.61,-2.31,0.81,1005.93
8.141,0.10,1.25,0.98,4.38,-2.73,-1.40,0.61,-2.31,0.81,1005.93
8.176,0.10,1.25,0.98,4.38,-2.73,-1.40,-0.74,0.76,0.19,1005.93
8.178,0.10,1.25,0.98,3.55,-1.39,1.71,-0.74,0.76,0.19,1005.93
8.183,0.10,1.25,0.98,3.55,-1.39,1.71,-0.74,0.76,0.19,1005.93
8.196,0.49,2.66,1.25,3.55,-1.39,1.71,-0.74,0.76,0.19,1005.93
8.199,-0.38,2.31,-0.72,3.55,-1.39,1.71,-0.74,0.76,0.19,1005.93
8.2,-1.42,0.55,0.07,3.55,-1.39,1.71,-0.74,0.76,0.19,1005.93
8.234,-1.42,0.55,0.07,3.55,-1.39,1.71,0.43,-0.40,1.30,1005.93
8.235,-1.42,0.55,0.07,-4.65,8.60,2.10,0.43,-0.40,1.30,1005.93
8.253,-0.20,0.16,-0.36,-4.65,8.60,2.10,0.43,-0.40,1.30,1005.93
8.254,0.42,0.97,-0.08,-4.65,8.60,2.10,0.43,-0.40,1.30,1005.93
8.254,0.66,1.37,0.26,-4.65,8.60,2.10,0.43,-0.40,1.30,1005.93
8.261,0.66,1.37,0.26,-4.65,8.60,2.10,0.43,-0.40,1.30,1005.94
8.292,0.66,1.37,0.26,-4.65,8.60,2.10,0.12,-0.64,0.94,1005.94
8.293,0.66,1.37,0.26,1.95,-1.20,-0.31,0.12,-0.64,0.94,1005.94
8.301,0.66,1.37,0.26,1.95,-1.20,-0.31,0.12,-0.64,0.94,1005.90
8.311,0.32,1.10,0.07,1.95,-1.20,-0.31,0.12,-0.64,0.94,1005.90
8.312,0.10,0.80,0.21,1.95,-1.20,-0.31,0.12,-0.64,0.94,1005.90
8.312,0.08,1.01,0.06,1.95,-1.20,-0.31,0.12,-0.64,0.94,1005.90
8.351,0.08,1.01,0.06,1.95,-1.20,-0.31,0.19,-0.74,0.67,1005.90
8.355,0.08,1.01,0.06,0.35,0.19,1.50,0.19,-0.74,0.67,1005.90
8.374,0.13,1.08,-0.03,0.35,0.19,1.50,0.19,-0.74,0.67,1005.90
8.374,0.27,0.99,-0.05,0.35,0.19,1.50,0.19,-0.74,0.67,1005.90
8.374,0.27,0.97,-0.02,0.35,0.19,1.50,0.19,-0.74,0.67,1005.90
8.382,0.27,0.97,-0.02,0.35,0.19,1.50,0.19,-0.74,0.67,1005.93
8.41,0.27,0.97,-0.02,0.35,0.19,1.50,0.18,-0.43,0.41,1005.93
8.412,0.27,0.97,-0.02,0.67,0.63,0.20,0.18,-0.43,0.41,1005.93
8.429,0.17,0.98,0.01,0.67,0.63,0.20,0.18,-0.43,0.41,1005.93
8.429,0.18,0.98,0.04,0.67,0.63,0.20,0.18,-0.43,0.41,1005.93
8.43,0.19,0.95,0.03,0.67,0.63,0.20,0.18,-0.43,0.41,1005.93
8.463,0.19,0.95,0.03,0.67,0.63,0.20,0.18,-0.43,0.41,1005.94
8.469,0.19,0.95,0.03,0.67,0.63,0.20,0.19,-0.46,0.31,1005.94
8.469,0.19,0.95,0.03,0.13,0.21,0.89,0.19,-0.46,0.31,1005.94
8.488,0.17,1.00,0.03,0.13,0.21,0.89,0.19,-0.46,0.31,1005.94
8.488,0.09,1.01,-0.03,0.13,0.21,0.89,0.19,-0.46,0.31,1005.94
8.489,0.07,0.98,-0.05,0.13,0.21,0.89,0.19,-0.46,0.31,1005.94
8.502,0.07,0.98,-0.05,0.13,0.21,0.89,0.19,-0.46,0.31,1005.94
8.527,0.07,0.98,-0.05,0.13,0.21,0.89,0.31,-0.28,0.47,1005.94
8.528,0.07,0.98,-0.05,-0.82,0.54,0.69,0.31,-0.28,0.47,1005.94
8.546,0.11,0.98,0.02,-0.82,0.54,0.69,0.31,-0.28,0.47,1005.94
8.547,0.13,0.97,0.02,-0.82,0.54,0.69,0.31,-0.28,0.47,1005.94
8.547,0.12,0.99,-0.03,-0.82,0.54,0.69,0.31,-0.28,0.47,1005.94
8.583,0.12,0.99,-0.03,-0.82,0.54,0.69,0.31,-0.28,0.47,1005.93
8.585,0.12,0.99,-0.03,-0.82,0.54,0.69,0.39,-0.35,0.72,1005.93
8.585,0.12,0.99,-0.03,-1.08,0.48,1.08,0.39,-0.35,0.72,1005.93
8.603,0.12,1.00,-0.07,-1.08,0.48,1.08,0.39,-0.35,0.72,1005.93
8.604,0.15,1.04,-0.09,-1.08,0.48,1.08,0.39,-0.35,0.72,1005.93
8.605,0.17,1.05,-0.09,-1.08,0.48,1.08,0.39,-0.35,0.72,1005.93
8.622,0.17,1.05,-0.09,-1.08,0.48,1.08,0.39,-0.35,0.72,1005.93
8.645,0.17,1.05,-0.09,-1.27,1.10,0.57,0.39,-0.35,0.72,1005.93
8.648,0.17,1.05,-0.09,-1.27,1.10,0.57,0.47,-0.40,0.93,1005.93
8.67,0.19,1.01,-0.13,-1.27,1.10,0.57,0.47,-0.40,0.93,1005.93
8.671,0.12,1.04,-0.15,-1.27,1.10,0.57,0.47,-0.40,0.93,1005.93
8.671,0.06,1.06,-0.12,-1.27,1.10,0.57,0.47,-0.40,0.93,1005.93
8.701,0.06,1.06,-0.12,-2.04,1.44,0.44,0.47,-0.40,0.93,1005.93
8.702,0.06,1.06,-0.12,-2.04,1.44,0.44,0.65,-0.37,1.25,1005.93
8.702,0.06,1.06,-0.12,-2.04,1.44,0.44,0.65,-0.37,1.25,1005.92
8.724,0.13,1.06,-0.06,-2.04,1.44,0.44,0.65,-0.37,1.25,1005.92
8.725,0.13,1.09,-0.02,-2.04,1.44,0.44,0.65,-0.37,1.25,1005.92
8.727,0.11,1.13,-0.05,-2.04,1.44,0.44,0.65,-0.37,1.25,1005.92
8.761,0.11,1.13,-0.05,-2.04,1.44,0.44,0.95,-0.43,1.77,1005.92
8.762,0.11,1.13,-0.05,-2.83,2.44,1.87,0.95,-0.43,1.77,1005.92
8.779,0.15,1.18,-0.14,-2.83,2.44,1.87,0.95,-0.43,1.77,1005.92
8.782,0.16,1.15,-0.26,-2.83,2.44,1.87,0.95,-0.43,1.77,1005.92
8.782,0.09,1.17,-0.31,-2.83,2.44,1.87,0.95,-0.43,1.77,1005.92
8.782,0.09,1.17,-0.31,-2.83,2.44,1.87,0.95,-0.43,1.77,1005.92
8.818,0.09,1.17,-0.31,-3.42,3.75,0.74,0.95,-0.43,1.77,1005.92
8.819,0.09,1.17,-0.31,-3.42,3.75,0.74,1.16,-0.94,1.90,1005.92
8.839,-0.14,1.36,-0.24,-3.42,3.75,0.74,1.16,-0.94,1.90,1005.92
8.84,-0.58,1.84,0.03,-3.42,3.75,0.74,1.16,-0.94,1.90,1005.92
8.84,-1.26,2.06,0.22,-3.42,3.75,0.74,1.16,-0.94,1.90,1005.92
8.863,-1.26,2.06,0.22,-3.42,3.75,0.74,1.16,-0.94,1.90,1005.92
8.875,-1.26,2.06,0.22,-3.42,3.75,0.74,1.52,-1.38,2.68,1005.92
8.875,-1.26,2.06,0.22,-11.79,10.44,4.07,1.52,-1.38,2.68,1005.92
8.894,-1.24,1.78,0.30,-11.79,10.44,4.07,1.52,-1.38,2.68,1005.92
8.895,-0.22,1.34,-0.12,-11.79,10.44,4.07,1.52,-1.38,2.68,1005.92
8.895,0.89,1.65,-0.52,-11.79,10.44,4.07,1.52,-1.38,2.68,1005.92
8.901,0.89,1.65,-0.52,-11.79,10.44,4.07,1.52,-1.38,2.68,1005.91
8.933,0.89,1.65,-0.52,-11.79,10.44,4.07,1.92,-1.48,4.05,1005.91
8.938,0.89,1.65,-0.52,-8.03,10.59,4.01,1.92,-1.48,4.05,1005.91
8.953,1.52,1.48,-0.30,-8.03,10.59,4.01,1.92,-1.48,4.05,1005.91
8.953,1.32,0.88,-0.60,-8.03,10.59,4.01,1.92,-1.48,4.05,1005.91
8.953,0.83,0.79,-0.94,-8.03,10.59,4.01,1.92,-1.48,4.05,1005.91
8.982,0.83,0.79,-0.94,-8.03,10.59,4.01,1.92,-1.48,4.05,1005.90
8.993,0.83,0.79,-0.94,-8.03,10.59,4.01,-0.81,-0.39,0.48,1005.90
8.993,0.83,0.79,-0.94,5.70,5.12,-0.97,-0.81,-0.39,0.48,1005.90
9.012,0.41,0.61,-0.40,5.70,5.12,-0.97,-0.81,-0.39,0.48,1005.90
9.013,0.13,0.15,0.12,5.70,5.12,-0.97,-0.81,-0.39,0.48,1005.90
9.013,-0.04,-0.12,0.19,5.70,5.12,-0.97,-0.81,-0.39,0.48,1005.90
9.051,-0.04,-0.12,0.19,5.70,5.12,-0.97,-1.92,-0.80,-2.18,1005.90
9.052,-0.04,-0.12,0.19,-3.62,-4.28,4.33,-1.92,-0.80,-2.18,1005.90
9.064,-0.04,-0.12,0.19,-3.62,-4.28,4.33,-1.92,-0.80,-2.18,1005.86
9.069,-0.03,-0.03,-0.08,-3.62,-4.28,4.33,-1.92,-0.80,-2.18,1005.86
9.07,0.11,0.24,-0.32,-3.62,-4.28,4.33,-1.92,-0.80,-2.18,1005.86
9.07,0.21,0.37,-0.44,-3.62,-4.28,4.33,-1.92,-0.80,-2.18,1005.86
9.101,0.21,0.37,-0.44,-3.62,-4.28,4.33,-1.92,-0.80,-2.18,1005.92
9.109,0.21,0.37,-0.44,-3.62,-4.28,4.33,-2.85,-1.23,-3.98,1005.92
9.109,0.21,0.37,-0.44,-2.27,-6.04,0.96,-2.85,-1.23,-3.98,1005.92
9.13,0.24,0.39,-0.44,-2.27,-6.04,0.96,-2.85,-1.23,-3.98,1005.92
9.136,0.19,0.41,-0.33,-2.27,-6.04,0.96,-2.85,-1.23,-3.98,1005.92
9.137,0.17,0.55,-0.27,-2.27,-6.04,0.96,-2.85,-1.23,-3.98,1005.92
9.168,0.17,0.55,-0.27,-2.27,-6.04,0.96,-4.33,-1.21,-5.03,1005.92
9.169,0.17,0.55,-0.27,1.45,-4.69,-1.74,-4.33,-1.21,-5.03,1005.92
9.181,0.17,0.55,-0.27,1.45,-4.69,-1.74,-4.33,-1.21,-5.03,1005.96
9.187,0.20,0.79,-0.26,1.45,-4.69,-1.74,-4.33,-1.21,-5.03,1005.96
9.188,0.33,1.10,-0.43,1.45,-4.69,-1.74,-4.33,-1.21,-5.03,1005.96
9.188,0.62,1.55,-0.65,1.45,-4.69,-1.74,-4.33,-1.21,-5.03,1005.96
9.226,0.62,1.55,-0.65,1.45,-4.69,-1.74,-4.80,0.62,-5.08,1005.96
9.227,0.62,1.55,-0.65,5.88,2.22,-5.13,-4.80,0.62,-5.08,1005.96
9.245,0.78,1.82,-0.84,5.88,2.22,-5.13,-4.80,0.62,-5.08,1005.96
9.246,0.89,1.86,-0.90,5.88,2.22,-5.13,-4.80,0.62,-5.08,1005.96
9.246,1.01,1.53,-0.62,5.88,2.22,-5.13,-4.80,0.62,-5.08,1005.96
9.262,1.01,1.53,-0.62,5.88,2.22,-5.13,-4.80,0.62,-5.08,1005.93
9.284,1.01,1.53,-0.62,5.88,2.22,-5.13,-3.10,2.40,-2.72,1005.93
9.285,1.01,1.53,-0.62,12.28,8.60,-9.42,-3.10,2.40,-2.72,1005.93
9.301,1.01,1.53,-0.62,12.28,8.60,-9.42,-3.10,2.40,-2.72,1005.88
9.303,1.17,1.03,-0.42,12.28,8.60,-9.42,-3.10,2.40,-2.72,1005.88
9.304,1.20,0.84,-0.46,12.28,8.60,-9.42,-3.10,2.40,-2.72,1005.88
9.304,0.73,0.75,-0.51,12.28,8.60,-9.42,-3.10,2.40,-2.72,1005.88
9.344,0.73,0.75,-0.51,12.28,8.60,-9.42,0.37,2.81,1.35,1005.88
9.345,0.73,0.75,-0.51,12.99,-0.18,-5.38,0.37,2.81,1.35,1005.88
9.362,0.61,0.82,-0.33,12.99,-0.18,-5.38,0.37,2.81,1.35,1005.88
9.362,0.42,1.19,-0.72,12.99,-0.18,-5.38,0.37,2.81,1.35,1005.88
9.363,-0.83,1.53,0.21,12.99,-0.18,-5.38,0.37,2.81,1.35,1005.88
9.382,-0.83,1.53,0.21,12.99,-0.18,-5.38,0.37,2.81,1.35,1005.87
9.401,-0.83,1.53,0.21,12.99,-0.18,-5.38,0.58,2.63,-0.06,1005.87
9.401,-0.83,1.53,0.21,3.56,2.79,-2.83,0.58,2.63,-0.06,1005.87
9.425,-2.50,1.65,0.41,3.56,2.79,-2.83,0.58,2.63,-0.06,1005.87
9.426,-1.04,2.19,-0.63,3.56,2.79,-2.83,0.58,2.63,-0.06,1005.87
9.426,0.54,1.28,-0.88,3.56,2.79,-2.83,0.58,2.63,-0.06,1005.87
9.46,0.54,1.28,-0.88,3.56,2.79,-2.83,0.58,0.69,3.22,1005.87
9.461,0.54,1.28,-0.88,-8.42,7.41,-3.24,0.58,0.69,3.22,1005.87
9.462,0.54,1.28,-0.88,-8.42,7.41,-3.24,0.58,0.69,3.22,1005.90
9.479,0.75,0.45,-0.04,-8.42,7.41,-3.24,0.58,0.69,3.22,1005.90
9.48,0.47,0.44,0.48,-8.42,7.41,-3.24,0.58,0.69,3.22,1005.90
9.48,0.15,0.89,0.54,-8.42,7.41,-3.24,0.58,0.69,3.22,1005.90
9.502,0.15,0.89,0.54,-8.42,7.41,-3.24,0.58,0.69,3.22,1005.92
9.518,0.15,0.89,0.54,-8.42,7.41,-3.24,0.57,-0.10,1.14,1005.92
9.52,0.15,0.89,0.54,5.13,-3.46,3.81,0.57,-0.10,1.14,1005.92
9.54,-0.05,1.20,-0.08,5.13,-3.46,3.81,0.57,-0.10,1.14,1005.92
9.541,-0.08,1.24,-0.52,5.13,-3.46,3.81,0.57,-0.10,1.14,1005.92
9.542,-0.00,1.10,-0.26,5.13,-3.46,3.81,0.57,-0.10,1.14,1005.92
9.577,-0.00,1.10,-0.26,5.13,-3.46,3.81,0.22,0.15,0.89,1005.92
9.578,-0.00,1.10,-0.26,-0.25,2.24,-2.05,0.22,0.15,0.89,1005.92
9.583,-0.00,1.10,-0.26,-0.25,2.24,-2.05,0.22,0.15,0.89,1005.96
9.596,0.01,0.91,-0.07,-0.25,2.24,-2.05,0.22,0.15,0.89,1005.96
9.597,0.11,0.91,-0.04,-0.25,2.24,-2.05,0.22,0.15,0.89,1005.96
9.597,0.01,1.02,-0.00,-0.25,2.24,-2.05,0.22,0.15,0.89,1005.96
9.635,0.01,1.02,-0.00,-0.25,2.24,-2.05,0.25,0.24,0.66,1005.96
9.637,0.01,1.02,-0.00,0.23,-0.01,0.50,0.25,0.24,0.66,1005.96
9.659,-0.18,1.02,0.06,0.23,-0.01,0.50,0.25,0.24,0.66,1005.96
9.66,-0.19,0.96,0.04,0.23,-0.01,0.50,0.25,0.24,0.66,1005.96
9.661,-0.04,0.99,-0.03,0.23,-0.01,0.50,0.25,0.24,0.66,1005.96
9.662,-0.04,0.99,-0.03,0.23,-0.01,0.50,0.25,0.24,0.66,1005.95
9.694,-0.04,0.99,-0.03,0.23,-0.01,0.50,0.44,-0.30,1.00,1005.95
9.695,-0.04,0.99,-0.03,-2.05,0.43,1.33,0.44,-0.30,1.00,1005.95
9.703,-0.04,0.99,-0.03,-2.05,0.43,1.33,0.44,-0.30,1.00,1005.94
9.713,0.11,1.00,-0.01,-2.05,0.43,1.33,0.44,-0.30,1.00,1005.94
9.713,0.08,0.98,0.01,-2.05,0.43,1.33,0.44,-0.30,1.00,1005.94
9.714,-0.01,0.99,-0.05,-2.05,0.43,1.33,0.44,-0.30,1.00,1005.94
9.751,-0.01,0.99,-0.05,-0.70,0.53,1.28,0.44,-0.30,1.00,1005.94
9.752,-0.01,0.99,-0.05,-0.70,0.53,1.28,0.64,-0.17,1.08,1005.94
9.771,0.02,0.98,-0.09,-0.70,0.53,1.28,0.64,-0.17,1.08,1005.94
9.772,0.07,0.99,-0.11,-0.70,0.53,1.28,0.64,-0.17,1.08,1005.94
9.772,0.10,1.01,-0.14,-0.70,0.53,1.28,0.64,-0.17,1.08,1005.94
9.784,0.10,1.01,-0.14,-0.70,0.53,1.28,0.64,-0.17,1.08,1005.94
9.809,0.10,1.01,-0.14,-0.70,0.53,1.28,0.70,-0.48,1.27,1005.94
9.811,0.10,1.01,-0.14,-1.24,0.74,0.74,0.70,-0.48,1.27,1005.94
9.83,0.10,1.02,-0.18,-1.24,0.74,0.74,0.70,-0.48,1.27,1005.94
9.831,0.03,1.02,-0.17,-1.24,0.74,0.74,0.70,-0.48,1.27,1005.94
9.832,0.09,1.05,-0.10,-1.24,0.74,0.74,0.70,-0.48,1.27,1005.94
9.863,0.09,1.05,-0.10,-1.24,0.74,0.74,0.70,-0.48,1.27,1005.93
9.867,0.09,1.05,-0.10,-1.24,0.74,0.74,1.08,-0.16,1.45,1005.93
9.867,0.09,1.05,-0.10,-1.85,1.42,0.94,1.08,-0.16,1.45,1005.93
9.886,0.19,1.08,-0.08,-1.85,1.42,0.94,1.08,-0.16,1.45,1005.93
9.888,0.15,1.14,-0.10,-1.85,1.42,0.94,1.08,-0.16,1.45,1005.93
9.888,0.10,1.14,-0.13,-1.85,1.42,0.94,1.08,-0.16,1.45,1005.93
9.902,0.10,1.14,-0.13,-1.85,1.42,0.94,1.08,-0.16,1.45,1005.94
9.925,0.10,1.14,-0.13,-1.85,1.42,0.94,1.47,-0.36,1.63,1005.94
9.927,0.10,1.14,-0.13,-1.83,2.77,2.13,1.47,-0.36,1.63,1005.94
9.946,0.08,1.16,-0.19,-1.83,2.77,2.13,1.47,-0.36,1.63,1005.94
9.946,-0.04,1.35,-0.18,-1.83,2.77,2.13,1.47,-0.36,1.63,1005.94
9.947,-0.34,1.69,-0.04,-1.83,2.77,2.13,1.47,-0.36,1.63,1005.94
9.985,-0.34,1.69,-0.04,-1.83,2.77,2.13,1.47,-0.36,1.63,1005.94
9.986,-0.34,1.69,-0.04,-4.90,6.25,2.80,1.47,-0.36,1.63,1005.94
9.986,-0.34,1.69,-0.04,-4.90,6.25,2.80,1.97,-0.64,1.97,1005.94
10.004,-0.84,1.93,0.02,-4.90,6.25,2.80,1.97,-0.64,1.97,1005.94
10.005,-1.37,1.98,0.01,-4.90,6.25,2.80,1.97,-0.64,1.97,1005.94
10.005,-0.93,1.50,0.08,-4.90,6.25,2.80,1.97,-0.64,1.97,1005.94
10.022,-0.93,1.50,0.08,-4.90,6.25,2.80,1.97,-0.64,1.97,1005.91
10.043,-0.93,1.50,0.08,-4.90,6.25,2.80,2.28,-2.03,3.53,1005.91
10.045,-0.93,1.50,0.08,-14.75,11.52,5.83,2.28,-2.03,3.53,1005.91
10.062,0.18,1.14,-0.37,-14.75,11.52,5.83,2.28,-2.03,3.53,1005.91
10.063,1.13,1.20,-0.62,-14.75,11.52,5.83,2.28,-2.03,3.53,1005.91
10.063,1.65,1.00,-0.47,-14.75,11.52,5.83,2.28,-2.03,3.53,1005.91
10.102,1.65,1.00,-0.47,-14.75,11.52,5.83,1.47,-0.18,1.98,1005.91
10.103,1.65,1.00,-0.47,4.51,5.74,1.22,1.47,-0.18,1.98,1005.91
10.103,1.65,1.00,-0.47,4.51,5.74,1.22,1.47,-0.18,1.98,1005.90
10.12,1.03,0.73,-0.50,4.51,5.74,1.22,1.47,-0.18,1.98,1005.90
10.121,0.48,0.40,-0.64,4.51,5.74,1.22,1.47,-0.18,1.98,1005.90
10.121,0.31,0.29,-0.52,4.51,5.74,1.22,1.47,-0.18,1.98,1005.90
10.161,0.31,0.29,-0.52,4.51,5.74,1.22,-1.59,0.29,-0.79,1005.90
10.162,0.31,0.29,-0.52,0.92,-1.27,-0.04,-1.59,0.29,-0.79,1005.90
10.179,0.21,0.20,-0.11,0.92,-1.27,-0.04,-1.59,0.29,-0.79,1005.90
10.18,0.12,0.08,0.22,0.92,-1.27,-0.04,-1.59,0.29,-0.79,1005.90
10.18,0.08,0.09,0.09,0.92,-1.27,-0.04,-1.59,0.29,-0.79,1005.90
10.185,0.08,0.09,0.09,0.92,-1.27,-0.04,-1.59,0.29,-0.79,1005.86
10.219,0.08,0.09,0.09,0.92,-1.27,-0.04,-2.52,-0.25,-2.52,1005.86
10.22,0.08,0.09,0.09,-2.56,-6.02,5.03,-2.52,-0.25,-2.52,1005.86
10.237,0.07,0.20,-0.15,-2.56,-6.02,5.03,-2.52,-0.25,-2.52,1005.86
10.238,0.11,0.30,-0.22,-2.56,-6.02,5.03,-2.52,-0.25,-2.52,1005.86
10.239,0.20,0.42,-0.20,-2.56,-6.02,5.03,-2.52,-0.25,-2.52,1005.86
10.266,0.20,0.42,-0.20,-2.56,-6.02,5.03,-2.52,-0.25,-2.52,1005.93
10.276,0.20,0.42,-0.20,-2.56,-6.02,5.03,-3.92,-0.97,-3.84,1005.93
10.277,0.20,0.42,-0.20,-0.66,-5.61,0.82,-3.92,-0.97,-3.84,1005.93
10.296,0.23,0.57,-0.24,-0.66,-5.61,0.82,-3.92,-0.97,-3.84,1005.93
10.297,0.25,0.70,-0.10,-0.66,-5.61,0.82,-3.92,-0.97,-3.84,1005.93
10.297,0.20,0.93,-0.22,-0.66,-5.61,0.82,-3.92,-0.97,-3.84,1005.93
10.303,0.20,0.93,-0.22,-0.66,-5.61,0.82,-3.92,-0.97,-3.84,1005.96
10.338,0.20,0.93,-0.22,-0.66,-5.61,0.82,-4.92,-1.14,-4.67,1005.96
10.339,0.20,0.93,-0.22,2.81,-2.00,-1.66,-4.92,-1.14,-4.67,1005.96
10.375,0.28,1.44,-0.41,2.81,-2.00,-1.66,-4.92,-1.14,-4.67,1005.96
10.376,0.50,2.05,-0.65,2.81,-2.00,-1.66,-4.92,-1.14,-4.67,1005.96
10.377,0.60,1.95,-0.76,2.81,-2.00,-1.66,-4.92,-1.14,-4.67,1005.96
10.383,0.60,1.95,-0.76,2.81,-2.00,-1.66,-4.92,-1.14,-4.67,1005.93
10.393,0.60,1.95,-0.76,2.81,-2.00,-1.66,-4.44,-0.02,-3.51,1005.93
10.393,0.60,1.95,-0.76,6.82,9.04,-7.93,-4.44,-0.02,-3.51,1005.93
10.412,0.81,1.45,-0.66,6.82,9.04,-7.93,-4.44,-0.02,-3.51,1005.93
10.413,0.99,1.14,-0.32,6.82,9.04,-7.93,-4.44,-0.02,-3.51,1005.93
10.413,0.90,0.97,-0.57,6.82,9.04,-7.93,-4.44,-0.02,-3.51,1005.93
10.451,0.90,0.97,-0.57,6.82,9.04,-7.93,-1.08,1.34,-0.21,1005.93
10.452,0.90,0.97,-0.57,11.25,3.02,-7.29,-1.08,1.34,-0.21,1005.93
10.462,0.90,0.97,-0.57,11.25,3.02,-7.29,-1.08,1.34,-0.21,1005.87
10.47,0.71,0.69,-0.85,11.25,3.02,-7.29,-1.08,1.34,-0.21,1005.87
10.472,0.74,0.63,-0.69,11.25,3.02,-7.29,-1.08,1.34,-0.21,1005.87
10.472,0.53,1.19,-1.13,11.25,3.02,-7.29,-1.08,1.34,-0.21,1005.87
10.503,0.53,1.19,-1.13,11.25,3.02,-7.29,-1.08,1.34,-0.21,1005.87
10.509,0.53,1.19,-1.13,11.25,3.02,-7.29,0.48,3.85,0.19,1005.87
10.51,0.53,1.19,-1.13,9.04,-0.48,-9.95,0.48,3.85,0.19,1005.87
10.529,-1.00,1.89,0.40,9.04,-0.48,-9.95,0.48,3.85,0.19,1005.87
10.531,-2.48,1.88,0.59,9.04,-0.48,-9.95,0.48,3.85,0.19,1005.87
10.532,-0.78,1.53,-1.14,9.04,-0.48,-9.95,0.48,3.85,0.19,1005.87
10.568,-0.78,1.53,-1.14,-12.34,8.13,-0.65,0.48,3.85,0.19,1005.87
10.57,-0.78,1.53,-1.14,-12.34,8.13,-0.65,1.59,1.53,2.52,1005.87
10.582,-0.78,1.53,-1.14,-12.34,8.13,-0.65,1.59,1.53,2.52,1005.90
10.587,0.35,0.88,-0.21,-12.34,8.13,-0.65,1.59,1.53,2.52,1005.90
10.588,0.50,0.53,0.50,-12.34,8.13,-0.65,1.59,1.53,2.52,1005.90
10.589,0.12,0.72,0.14,-12.34,8.13,-0.65,1.59,1.53,2.52,1005.90
10.624,0.12,0.72,0.14,-12.34,8.13,-0.65,1.59,1.53,2.52,1005.91
10.628,0.12,0.72,0.14,3.84,-2.29,1.61,1.59,1.53,2.52,1005.91
10.629,0.12,0.72,0.14,3.84,-2.29,1.61,0.76,-0.32,1.58,1005.91
10.646,0.00,1.13,-0.22,3.84,-2.29,1.61,0.76,-0.32,1.58,1005.91
10.647,0.26,1.21,-0.20,3.84,-2.29,1.61,0.76,-0.32,1.58,1005.91
10.648,0.24,0.98,-0.16,3.84,-2.29,1.61,0.76,-0.32,1.58,1005.91
10.686,0.24,0.98,-0.16,1.78,1.57,-1.45,0.76,-0.32,1.58,1005.91
10.687,0.24,0.98,-0.16,1.78,1.57,-1.45,0.40,0.18,0.90,1005.91
10.703,0.24,0.98,-0.16,1.78,1.57,-1.45,0.40,0.18,0.90,1005.92
10.704,-0.06,0.99,-0.14,1.78,1.57,-1.45,0.40,0.18,0.90,1005.92
10.704,-0.03,1.01,0.05,1.78,1.57,-1.45,0.40,0.18,0.90,1005.92
10.704,0.12,0.97,0.10,1.78,1.57,-1.45,0.40,0.18,0.90,1005.92
10.742,0.12,0.97,0.10,1.78,1.57,-1.45,0.33,-0.08,0.66,1005.92
10.743,0.12,0.97,0.10,-0.12,0.39,0.64,0.33,-0.08,0.66,1005.92
10.771,0.13,0.95,0.01,-0.12,0.39,0.64,0.33,-0.08,0.66,1005.92
10.772,0.06,1.00,-0.03,-0.12,0.39,0.64,0.33,-0.08,0.66,1005.92
10.772,0.00,1.04,0.01,-0.12,0.39,0.64,0.33,-0.08,0.66,1005.92
10.782,0.00,1.04,0.01,-0.12,0.39,0.64,0.33,-0.08,0.66,1005.93
10.802,0.00,1.04,0.01,-0.12,0.39,0.64,0.40,-0.05,0.56,1005.93
10.803,0.00,1.04,0.01,0.15,0.47,0.78,0.40,-0.05,0.56,1005.93
10.823,-0.03,1.02,-0.02,0.15,0.47,0.78,0.40,-0.05,0.56,1005.93
10.824,-0.01,1.00,-0.04,0.15,0.47,0.78,0.40,-0.05,0.56,1005.93
10.824,0.04,0.98,-0.00,0.15,0.47,0.78,0.40,-0.05,0.56,1005.93
10.86,0.04,0.98,-0.00,0.15,0.47,0.78,0.54,-0.24,0.68,1005.93
10.863,0.04,0.98,-0.00,-0.86,0.61,0.88,0.54,-0.24,0.68,1005.93
10.864,0.04,0.98,-0.00,-0.86,0.61,0.88,0.54,-0.24,0.68,1005.93
10.878,0.10,0.97,0.02,-0.86,0.61,0.88,0.54,-0.24,0.68,1005.93
10.879,0.10,0.96,-0.04,-0.86,0.61,0.88,0.54,-0.24,0.68,1005.93
10.879,0.07,0.94,-0.13,-0.86,0.61,0.88,0.54,-0.24,0.68,1005.93
10.904,0.07,0.94,-0.13,-0.86,0.61,0.88,0.54,-0.24,0.68,1005.92
10.917,0.07,0.94,-0.13,-0.33,0.22,0.94,0.54,-0.24,0.68,1005.92
10.918,0.07,0.94,-0.13,-0.33,0.22,0.94,0.56,-0.44,0.73,1005.92
10.938,0.09,0.94,-0.17,-0.33,0.22,0.94,0.56,-0.44,0.73,1005.92
10.938,0.13,0.95,-0.15,-0.33,0.22,0.94,0.56,-0.44,0.73,1005.92
10.939,0.15,0.93,-0.09,-0.33,0.22,0.94,0.56,-0.44,0.73,1005.92
10.975,0.15,0.93,-0.09,-0.33,0.22,0.94,0.54,-0.72,0.83,1005.92
10.977,0.15,0.93,-0.09,-0.38,0.20,0.39,0.54,-0.72,0.83,1005.92
10.986,0.15,0.93,-0.09,-0.38,0.20,0.39,0.54,-0.72,0.83,1005.92
10.995,0.14,0.92,-0.05,-0.38,0.20,0.39,0.54,-0.72,0.83,1005.92
10.995,0.13,0.94,-0.05,-0.38,0.20,0.39,0.54,-0.72,0.83,1005.92
10.996,0.15,1.01,-0.02,-0.38,0.20,0.39,0.54,-0.72,0.83,1005.92
11.042,0.15,1.01,-0.02,-0.62,0.53,1.85,0.54,-0.72,0.83,1005.92
11.044,0.15,1.01,-0.02,-0.62,0.53,1.85,0.78,-1.16,1.07,1005.92
11.083,0.11,1.08,-0.02,-0.62,0.53,1.85,0.78,-1.16,1.07,1005.92
11.083,-0.04,1.21,0.01,-0.62,0.53,1.85,0.78,-1.16,1.07,1005.92
11.084,-0.17,1.51,0.03,-0.62,0.53,1.85,0.78,-1.16,1.07,1005.92
11.084,-0.17,1.51,0.03,-0.62,0.53,1.85,0.78,-1.16,1.07,1005.94
11.093,-0.17,1.51,0.03,-0.62,0.53,1.85,1.04,-1.80,1.66,1005.94
11.093,-0.17,1.51,0.03,-2.84,3.88,3.01,1.04,-1.80,1.66,1005.94
11.102,-0.17,1.51,0.03,-2.84,3.88,3.01,1.04,-1.80,1.66,1005.94
11.111,-0.07,1.83,-0.04,-2.84,3.88,3.01,1.04,-1.80,1.66,1005.94
11.112,0.07,1.76,-0.24,-2.84,3.88,3.01,1.04,-1.80,1.66,1005.94
11.112,-0.00,1.34,-0.45,-2.84,3.88,3.01,1.04,-1.80,1.66,1005.94
11.15,-0.00,1.34,-0.45,-2.84,3.88,3.01,0.38,-2.93,2.43,1005.94
11.151,-0.00,1.34,-0.45,-3.06,7.95,1.21,0.38,-2.93,2.43,1005.94
11.171,0.16,0.98,-0.48,-3.06,7.95,1.21,0.38,-2.93,2.43,1005.94
11.172,0.60,0.74,-0.52,-3.06,7.95,1.21,0.38,-2.93,2.43,1005.94
11.172,0.86,0.52,-0.53,-3.06,7.95,1.21,0.38,-2.93,2.43,1005.94
11.183,0.86,0.52,-0.53,-3.06,7.95,1.21,0.38,-2.93,2.43,1005.93
11.21,0.86,0.52,-0.53,-3.06,7.95,1.21,-1.85,-3.69,2.26,1005.93
11.211,0.86,0.52,-0.53,1.90,-0.82,-1.55,-1.85,-3.69,2.26,1005.93
11.23,0.61,0.44,-0.47,1.90,-0.82,-1.55,-1.85,-3.69,2.26,1005.93
11.231,0.23,0.38,-0.40,1.90,-0.82,-1.55,-1.85,-3.69,2.26,1005.93
11.231,-0.07,0.32,-0.52,1.90,-0.82,-1.55,-1.85,-3.69,2.26,1005.93
11.263,-0.07,0.32,-0.52,1.90,-0.82,-1.55,-1.85,-3.69,2.26,1005.90
11.278,-0.07,0.32,-0.52,1.90,-0.82,-1.55,-3.14,-4.99,1.65,1005.90
11.279,-0.07,0.32,-0.52,-0.74,-4.59,-1.63,-3.14,-4.99,1.65,1005.90
11.288,-0.31,0.38,-0.53,-0.74,-4.59,-1.63,-3.14,-4.99,1.65,1005.90
11.289,-0.37,0.50,-0.65,-0.74,-4.59,-1.63,-3.14,-4.99,1.65,1005.90
11.289,-0.50,0.59,-0.81,-0.74,-4.59,-1.63,-3.14,-4.99,1.65,1005.90
11.302,-0.50,0.59,-0.81,-0.74,-4.59,-1.63,-3.14,-4.99,1.65,1005.91
11.327,-0.50,0.59,-0.81,-0.74,-4.59,-1.63,-2.94,-6.97,1.21,1005.91
11.328,-0.50,0.59,-0.81,-6.45,-3.74,-3.73,-2.94,-6.97,1.21,1005.91
11.345,-0.43,0.65,-0.99,-6.45,-3.74,-3.73,-2.94,-6.97,1.21,1005.91
11.346,-0.36,0.66,-1.00,-6.45,-3.74,-3.73,-2.94,-6.97,1.21,1005.91
11.346,-0.38,0.71,-0.93,-6.45,-3.74,-3.73,-2.94,-6.97,1.21,1005.91
11.385,-0.38,0.71,-0.93,-6.45,-3.74,-3.73,-2.94,-6.97,1.21,1005.92
11.386,-0.38,0.71,-0.93,-6.45,-3.74,-3.73,-2.48,-7.04,0.34,1005.92
11.386,-0.38,0.71,-0.93,-5.44,-2.20,-7.03,-2.48,-7.04,0.34,1005.92
11.404,-0.37,0.83,-0.96,-5.44,-2.20,-7.03,-2.48,-7.04,0.34,1005.92
11.404,-0.28,0.95,-1.01,-5.44,-2.20,-7.03,-2.48,-7.04,0.34,1005.92
11.405,-0.10,0.98,-0.88,-5.44,-2.20,-7.03,-2.48,-7.04,0.34,1005.92
11.445,-0.10,0.98,-0.88,-5.44,-2.20,-7.03,-2.02,-5.17,-0.56,1005.92
11.446,-0.10,0.98,-0.88,-3.05,-0.09,-7.37,-2.02,-5.17,-0.56,1005.92
11.466,0.06,0.98,-0.75,-3.05,-0.09,-7.37,-2.02,-5.17,-0.56,1005.92
11.467,0.06,0.98,-0.57,-3.05,-0.09,-7.37,-2.02,-5.17,-0.56,1005.92
11.468,-0.06,1.03,-0.43,-3.05,-0.09,-7.37,-2.02,-5.17,-0.56,1005.92
11.468,-0.06,1.03,-0.43,-3.05,-0.09,-7.37,-2.02,-5.17,-0.56,1005.90
11.502,-0.06,1.03,-0.43,0.66,0.55,-4.45,-2.02,-5.17,-0.56,1005.90
11.502,-0.06,1.03,-0.43,0.66,0.55,-4.45,-1.40,-4.13,-1.23,1005.90
11.503,-0.06,1.03,-0.43,0.66,0.55,-4.45,-1.40,-4.13,-1.23,1005.90
11.52,-0.13,1.05,-0.41,0.66,0.55,-4.45,-1.40,-4.13,-1.23,1005.90
11.52,-0.05,1.01,-0.42,0.66,0.55,-4.45,-1.40,-4.13,-1.23,1005.90
11.521,0.14,1.00,-0.32,0.66,0.55,-4.45,-1.40,-4.13,-1.23,1005.90
11.566,0.14,1.00,-0.32,0.66,0.55,-4.45,-0.82,-4.46,-0.51,1005.90
11.568,0.14,1.00,-0.32,0.82,0.69,-3.08,-0.82,-4.46,-0.51,1005.90
11.578,0.30,0.97,-0.21,0.82,0.69,-3.08,-0.82,-4.46,-0.51,1005.90
11.58,0.39,0.95,-0.22,0.82,0.69,-3.08,-0.82,-4.46,-0.51,1005.90
11.581,0.50,0.90,-0.34,0.82,0.69,-3.08,-0.82,-4.46,-0.51,1005.90
11.582,0.50,0.90,-0.34,0.82,0.69,-3.08,-0.82,-4.46,-0.51,1005.92
11.617,0.50,0.90,-0.34,0.82,0.69,-3.08,-0.26,-3.65,0.68,1005.92
11.618,0.50,0.90,-0.34,4.49,-0.11,-2.09,-0.26,-3.65,0.68,1005.92
11.637,0.62,0.78,-0.41,4.49,-0.11,-2.09,-0.26,-3.65,0.68,1005.92
11.639,0.80,0.69,-0.53,4.49,-0.11,-2.09,-0.26,-3.65,0.68,1005.92
11.64,0.97,0.81,-0.51,4.49,-0.11,-2.09,-0.26,-3.65,0.68,1005.92
11.663,0.97,0.81,-0.51,4.49,-0.11,-2.09,-0.26,-3.65,0.68,1005.93
11.683,0.97,0.81,-0.51,4.49,-0.11,-2.09,-0.79,0.26,0.69,1005.93
11.684,0.97,0.81,-0.51,7.90,-1.88,-4.71,-0.79,0.26,0.69,1005.93
11.695,0.37,1.40,0.73,7.90,-1.88,-4.71,-0.79,0.26,0.69,1005.93
11.695,-0.01,1.90,0.90,7.90,-1.88,-4.71,-0.79,0.26,0.69,1005.93
11.696,-0.35,1.24,0.00,7.90,-1.88,-4.71,-0.79,0.26,0.69,1005.93
11.703,-0.35,1.24,0.00,7.90,-1.88,-4.71,-0.79,0.26,0.69,1005.92
11.733,-0.35,1.24,0.00,7.90,-1.88,-4.71,0.26,0.33,0.77,1005.92
11.734,-0.35,1.24,0.00,-0.29,5.44,5.44,0.26,0.33,0.77,1005.92
11.754,-0.42,0.76,-0.20,-0.29,5.44,5.44,0.26,0.33,0.77,1005.92
11.756,-0.02,0.76,0.11,-0.29,5.44,5.44,0.26,0.33,0.77,1005.92
11.758,0.13,1.09,0.03,-0.29,5.44,5.44,0.26,0.33,0.77,1005.92
11.783,0.13,1.09,0.03,-0.29,5.44,5.44,0.26,0.33,0.77,1005.92
11.793,0.13,1.09,0.03,-0.29,5.44,5.44,0.06,-0.56,0.92,1005.92
11.794,0.13,1.09,0.03,-1.79,-0.84,-0.04,0.06,-0.56,0.92,1005.92
11.813,0.27,1.28,-0.05,-1.79,-0.84,-0.04,0.06,-0.56,0.92,1005.92
11.813,0.25,1.04,-0.15,-1.79,-0.84,-0.04,0.06,-0.56,0.92,1005.92
11.813,0.06,0.95,-0.06,-1.79,-0.84,-0.04,0.06,-0.56,0.92,1005.92
11.855,0.06,0.95,-0.06,0.84,1.33,-0.55,0.06,-0.56,0.92,1005.92
11.858,0.06,0.95,-0.06,0.84,1.33,-0.55,0.19,-0.08,0.49,1005.92
11.866,0.06,0.95,-0.06,0.84,1.33,-0.55,0.19,-0.08,0.49,1005.92
11.881,-0.03,1.03,0.04,0.84,1.33,-0.55,0.19,-0.08,0.49,1005.92
11.881,0.01,1.04,0.11,0.84,1.33,-0.55,0.19,-0.08,0.49,1005.92
11.881,0.05,0.99,0.12,0.84,1.33,-0.55,0.19,-0.08,0.49,1005.92
11.903,0.05,0.99,0.12,0.84,1.33,-0.55,0.19,-0.08,0.49,1005.91
11.909,0.05,0.99,0.12,0.84,1.33,-0.55,0.41,-0.35,0.61,1005.91
11.91,0.05,0.99,0.12,-1.25,0.68,1.37,0.41,-0.35,0.61,1005.91
11.929,0.06,0.96,0.05,-1.25,0.68,1.37,0.41,-0.35,0.61,1005.91
11.93,0.14,0.97,0.05,-1.25,0.68,1.37,0.41,-0.35,0.61,1005.91
11.931,0.18,0.96,0.03,-1.25,0.68,1.37,0.41,-0.35,0.61,1005.91
11.968,0.18,0.96,0.03,-1.25,0.68,1.37,0.52,-0.24,0.66,1005.91
11.968,0.18,0.96,0.03,-0.49,0.23,1.21,0.52,-0.24,0.66,1005.91
11.983,0.18,0.96,0.03,-0.49,0.23,1.21,0.52,-0.24,0.66,1005.92
11.992,0.07,1.00,0.05,-0.49,0.23,1.21,0.52,-0.24,0.66,1005.92
11.993,-0.00,1.02,0.03,-0.49,0.23,1.21,0.52,-0.24,0.66,1005.92
11.993,0.16,0.99,-0.03,-0.49,0.23,1.21,0.52,-0.24,0.66,1005.92
12.026,0.16,0.99,-0.03,-0.49,0.23,1.21,0.60,-0.20,0.85,1005.92
12.027,0.16,0.99,-0.03,-1.40,0.71,1.23,0.60,-0.20,0.85,1005.92
12.045,0.30,0.97,-0.10,-1.40,0.71,1.23,0.60,-0.20,0.85,1005.92
12.047,0.22,0.97,-0.09,-1.40,0.71,1.23,0.60,-0.20,0.85,1005.92
12.048,0.09,0.99,-0.04,-1.40,0.71,1.23,0.60,-0.20,0.85,1005.92
12.064,0.09,0.99,-0.04,-1.40,0.71,1.23,0.60,-0.20,0.85,1005.93
12.084,0.09,0.99,-0.04,-1.40,0.71,1.23,0.59,-0.32,0.85,1005.93
12.085,0.09,0.99,-0.04,-0.56,0.61,0.69,0.59,-0.32,0.85,1005.93
12.103,0.09,0.99,-0.04,-0.56,0.61,0.69,0.59,-0.32,0.85,1005.92
12.103,0.15,1.00,-0.06,-0.56,0.61,0.69,0.59,-0.32,0.85,1005.92
12.104,0.21,1.02,-0.09,-0.56,0.61,0.69,0.59,-0.32,0.85,1005.92
12.104,0.15,1.02,-0.10,-0.56,0.61,0.69,0.59,-0.32,0.85,1005.92
12.142,0.15,1.02,-0.10,-0.56,0.61,0.69,0.69,-0.55,1.07,1005.92
12.143,0.15,1.02,-0.10,-1.34,1.22,1.07,0.69,-0.55,1.07,1005.92
12.164,0.16,1.03,-0.14,-1.34,1.22,1.07,0.69,-0.55,1.07,1005.92
12.164,0.24,1.05,-0.12,-1.34,1.22,1.07,0.69,-0.55,1.07,1005.92
12.165,0.15,1.08,-0.13,-1.34,1.22,1.07,0.69,-0.55,1.07,1005.92
12.192,0.15,1.08,-0.13,-1.34,1.22,1.07,0.69,-0.55,1.07,1005.92
12.202,0.15,1.08,-0.13,-1.34,1.22,1.07,0.95,-0.70,1.35,1005.92
12.203,0.15,1.08,-0.13,-1.79,1.93,1.17,0.95,-0.70,1.35,1005.92
12.221,0.06,1.14,-0.18,-1.79,1.93,1.17,0.95,-0.70,1.35,1005.92
12.222,0.07,1.22,-0.21,-1.79,1.93,1.17,0.95,-0.70,1.35,1005.92
12.223,0.11,1.25,-0.21,-1.79,1.93,1.17,0.95,-0.70,1.35,1005.92
12.258,0.11,1.25,-0.21,-1.79,1.93,1.17,1.55,-0.48,1.67,1005.92
12.259,0.11,1.25,-0.21,-3.48,3.98,1.30,1.55,-0.48,1.67,1005.92
12.262,0.11,1.25,-0.21,-3.48,3.98,1.30,1.55,-0.48,1.67,1005.91
12.28,0.09,1.40,-0.13,-3.48,3.98,1.30,1.55,-0.48,1.67,1005.91
12.281,-0.14,1.86,0.12,-3.48,3.98,1.30,1.55,-0.48,1.67,1005.91
12.281,-0.86,2.05,0.30,-3.48,3.98,1.30,1.55,-0.48,1.67,1005.91
12.302,-0.86,2.05,0.30,-3.48,3.98,1.30,1.55,-0.48,1.67,1005.92
12.318,-0.86,2.05,0.30,-3.48,3.98,1.30,1.83,-1.48,2.31,1005.92
12.319,-0.86,2.05,0.30,-7.71,10.39,5.30,1.83,-1.48,2.31,1005.92
12.338,-1.18,1.74,0.19,-7.71,10.39,5.30,1.83,-1.48,2.31,1005.92
12.339,-0.82,1.38,-0.01,-7.71,10.39,5.30,1.83,-1.48,2.31,1005.92
12.339,0.15,1.14,-0.41,-7.71,10.39,5.30,1.83,-1.48,2.31,1005.92
12.385,0.15,1.14,-0.41,-7.71,10.39,5.30,1.86,-2.68,3.81,1005.92
12.387,0.15,1.14,-0.41,-11.17,8.51,5.01,1.86,-2.68,3.81,1005.92
12.388,0.15,1.14,-0.41,-11.17,8.51,5.01,1.86,-2.68,3.81,1005.92
12.397,1.05,1.19,-0.57,-11.17,8.51,5.01,1.86,-2.68,3.81,1005.92
12.397,1.35,1.07,-0.48,-11.17,8.51,5.01,1.86,-2.68,3.81,1005.92
12.398,0.84,0.76,-0.51,-11.17,8.51,5.01,1.86,-2.68,3.81,1005.92
12.434,0.84,0.76,-0.51,5.26,4.74,0.88,1.86,-2.68,3.81,1005.92
12.436,0.84,0.76,-0.51,5.26,4.74,0.88,0.20,-0.65,1.16,1005.92
12.455,0.59,0.45,-0.86,5.26,4.74,0.88,0.20,-0.65,1.16,1005.92
12.457,0.51,0.39,-0.73,5.26,4.74,0.88,0.20,-0.65,1.16,1005.92
12.458,0.26,0.31,-0.29,5.26,4.74,0.88,0.20,-0.65,1.16,1005.92
12.463,0.26,0.31,-0.29,5.26,4.74,0.88,0.20,-0.65,1.16,1005.93
12.496,0.26,0.31,-0.29,5.26,4.74,0.88,-2.49,1.09,-1.17,1005.93
12.498,0.26,0.31,-0.29,-0.82,-2.45,-1.29,-2.49,1.09,-1.17,1005.93
12.527,0.26,0.31,-0.29,-0.82,-2.45,-1.29,-2.49,1.09,-1.17,1005.87
12.528,-0.07,0.13,0.06,-0.82,-2.45,-1.29,-2.49,1.09,-1.17,1005.87
12.528,-0.21,0.10,-0.05,-0.82,-2.45,-1.29,-2.49,1.09,-1.17,1005.87
12.529,-0.13,0.26,-0.30,-0.82,-2.45,-1.29,-2.49,1.09,-1.17,1005.87
12.551,-0.13,0.26,-0.30,-0.82,-2.45,-1.29,-2.81,0.07,-2.68,1005.87
12.552,-0.13,0.26,-0.30,-5.44,-5.95,2.69,-2.81,0.07,-2.68,1005.87
12.571,0.04,0.38,-0.40,-5.44,-5.95,2.69,-2.81,0.07,-2.68,1005.87
12.572,0.10,0.45,-0.38,-5.44,-5.95,2.69,-2.81,0.07,-2.68,1005.87
12.572,0.02,0.52,-0.31,-5.44,-5.95,2.69,-2.81,0.07,-2.68,1005.87
12.582,0.02,0.52,-0.31,-5.44,-5.95,2.69,-2.81,0.07,-2.68,1005.91
12.609,0.02,0.52,-0.31,-5.44,-5.95,2.69,-3.77,-1.49,-4.29,1005.91
12.61,0.02,0.52,-0.31,-1.19,-4.44,-1.49,-3.77,-1.49,-4.29,1005.91
12.622,0.02,0.52,-0.31,-1.19,-4.44,-1.49,-3.77,-1.49,-4.29,1005.96
12.629,-0.03,0.65,-0.31,-1.19,-4.44,-1.49,-3.77,-1.49,-4.29,1005.96
12.63,0.05,0.84,-0.34,-1.19,-4.44,-1.49,-3.77,-1.49,-4.29,1005.96
12.63,0.07,1.07,-0.34,-1.19,-4.44,-1.49,-3.77,-1.49,-4.29,1005.96
12.668,0.07,1.07,-0.34,-1.19,-4.44,-1.49,-4.59,-1.39,-4.61,1005.96
12.669,0.07,1.07,-0.34,1.05,-0.87,-3.48,-4.59,-1.39,-4.61,1005.96
12.687,0.21,1.49,-0.49,1.05,-0.87,-3.48,-4.59,-1.39,-4.61,1005.96
12.688,0.56,2.00,-0.79,1.05,-0.87,-3.48,-4.59,-1.39,-4.61,1005.96
12.688,0.79,1.91,-0.97,1.05,-0.87,-3.48,-4.59,-1.39,-4.61,1005.96
12.703,0.79,1.91,-0.97,1.05,-0.87,-3.48,-4.59,-1.39,-4.61,1005.95
12.725,0.79,1.91,-0.97,1.05,-0.87,-3.48,-3.95,0.69,-3.50,1005.95
12.727,0.79,1.91,-0.97,7.66,8.90,-9.43,-3.95,0.69,-3.50,1005.95
12.745,0.96,1.31,-0.62,7.66,8.90,-9.43,-3.95,0.69,-3.50,1005.95
12.746,1.11,0.99,-0.35,7.66,8.90,-9.43,-3.95,0.69,-3.50,1005.95
12.746,1.10,0.92,-0.62,7.66,8.90,-9.43,-3.95,0.69,-3.50,1005.95
12.783,1.10,0.92,-0.62,7.66,8.90,-9.43,-3.95,0.69,-3.50,1005.90
12.784,1.10,0.92,-0.62,7.66,8.90,-9.43,0.01,2.24,0.67,1005.90
12.784,1.10,0.92,-0.62,12.60,1.69,-6.80,0.01,2.24,0.67,1005.90
12.803,1.12,0.60,-0.99,12.60,1.69,-6.80,0.01,2.24,0.67,1005.90
12.804,0.97,1.00,-1.06,12.60,1.69,-6.80,0.01,2.24,0.67,1005.90
12.804,-0.69,1.86,0.96,12.60,1.69,-6.80,0.01,2.24,0.67,1005.90
12.825,-0.69,1.86,0.96,12.60,1.69,-6.80,0.01,2.24,0.67,1005.88
12.842,-0.69,1.86,0.96,12.60,1.69,-6.80,0.90,2.81,0.11,1005.88
12.843,-0.69,1.86,0.96,6.84,2.36,-4.21,0.90,2.81,0.11,1005.88
12.862,-2.49,1.76,1.00,6.84,2.36,-4.21,0.90,2.81,0.11,1005.88
12.862,-0.94,1.61,-1.08,6.84,2.36,-4.21,0.90,2.81,0.11,1005.88
12.863,0.31,1.02,-1.13,6.84,2.36,-4.21,0.90,2.81,0.11,1005.88
12.9,0.31,1.02,-1.13,6.84,2.36,-4.21,1.02,0.59,2.81,1005.88
12.901,0.31,1.02,-1.13,-9.24,5.01,-3.97,1.02,0.59,2.81,1005.88
12.903,0.31,1.02,-1.13,-9.24,5.01,-3.97,1.02,0.59,2.81,1005.94
12.92,0.46,0.66,0.29,-9.24,5.01,-3.97,1.02,0.59,2.81,1005.94
12.921,0.14,0.68,0.11,-9.24,5.01,-3.97,1.02,0.59,2.81,1005.94
12.921,0.11,1.07,0.05,-9.24,5.01,-3.97,1.02,0.59,2.81,1005.94
12.959,0.11,1.07,0.05,-9.24,5.01,-3.97,0.67,-0.53,1.51,1005.94
12.96,0.11,1.07,0.05,2.42,-1.50,1.78,0.67,-0.53,1.51,1005.94
12.978,0.20,1.16,0.02,2.42,-1.50,1.78,0.67,-0.53,1.51,1005.94
12.979,0.18,1.00,-0.14,2.42,-1.50,1.78,0.67,-0.53,1.51,1005.94
12.98,0.13,1.00,-0.07,2.42,-1.50,1.78,0.67,-0.53,1.51,1005.94
12.982,0.13,1.00,-0.07,2.42,-1.50,1.78,0.67,-0.53,1.51,1005.98
13.018,0.13,1.00,-0.07,2.42,-1.50,1.78,0.52,0.27,0.91,1005.98
13.019,0.13,1.00,-0.07,1.26,0.98,-0.04,0.52,0.27,0.91,1005.98
13.039,0.12,0.99,-0.05,1.26,0.98,-0.04,0.52,0.27,0.91,1005.98
13.041,0.09,0.96,-0.02,1.26,0.98,-0.04,0.52,0.27,0.91,1005.98
13.042,-0.06,1.02,-0.04,1.26,0.98,-0.04,0.52,0.27,0.91,1005.98
13.062,-0.06,1.02,-0.04,1.26,0.98,-0.04,0.52,0.27,0.91,1005.96
13.084,-0.06,1.02,-0.04,-0.34,0.43,0.54,0.52,0.27,0.91,1005.96
13.086,-0.06,1.02,-0.04,-0.34,0.43,0.54,0.54,0.25,0.75,1005.96
13.109,-0.16,1.08,-0.11,-0.34,0.43,0.54,0.54,0.25,0.75,1005.96
13.11,-0.09,1.03,-0.02,-0.34,0.43,0.54,0.54,0.25,0.75,1005.96
13.11,0.09,0.99,-0.03,-0.34,0.43,0.54,0.54,0.25,0.75,1005.96
13.11,0.09,0.99,-0.03,-0.34,0.43,0.54,0.54,0.25,0.75,1005.95
13.134,0.09,0.99,-0.03,-0.34,0.43,0.54,0.62,-0.20,0.99,1005.95
13.135,0.09,0.99,-0.03,-1.84,0.92,0.70,0.62,-0.20,0.99,1005.95
13.154,0.19,0.98,-0.08,-1.84,0.92,0.70,0.62,-0.20,0.99,1005.95
13.154,0.13,1.00,-0.08,-1.84,0.92,0.70,0.62,-0.20,0.99,1005.95
13.155,0.05,0.99,-0.09,-1.84,0.92,0.70,0.62,-0.20,0.99,1005.95
13.184,0.05,0.99,-0.09,-1.84,0.92,0.70,0.62,-0.20,0.99,1005.94
13.192,0.05,0.99,-0.09,-1.84,0.92,0.70,0.68,-0.33,1.00,1005.94
13.192,0.05,0.99,-0.09,-0.61,0.65,0.81,0.68,-0.33,1.00,1005.94
13.212,0.06,1.01,-0.08,-0.61,0.65,0.81,0.68,-0.33,1.00,1005.94
13.213,0.12,1.03,-0.10,-0.61,0.65,0.81,0.68,-0.33,1.00,1005.94
13.214,0.16,1.02,-0.11,-0.61,0.65,0.81,0.68,-0.33,1.00,1005.94
13.224,0.16,1.02,-0.11,-0.61,0.65,0.81,0.68,-0.33,1.00,1005.93
13.251,0.16,1.02,-0.11,-0.61,0.65,0.81,0.84,-0.47,1.19,1005.93
13.252,0.16,1.02,-0.11,-1.28,1.13,1.13,0.84,-0.47,1.19,1005.93
13.271,0.06,1.02,-0.12,-1.28,1.13,1.13,0.84,-0.47,1.19,1005.93
13.272,-0.00,1.03,-0.10,-1.28,1.13,1.13,0.84,-0.47,1.19,1005.93
13.272,0.08,1.06,-0.15,-1.28,1.13,1.13,0.84,-0.47,1.19,1005.93
13.303,0.08,1.06,-0.15,-1.28,1.13,1.13,0.84,-0.47,1.19,1005.94
13.309,0.08,1.06,-0.15,-1.28,1.13,1.13,1.30,-0.26,1.54,1005.94
13.309,0.08,1.06,-0.15,-2.59,1.73,1.55,1.30,-0.26,1.54,1005.94
13.328,0.10,1.18,-0.18,-2.59,1.73,1.55,1.30,-0.26,1.54,1005.94
13.329,0.00,1.23,-0.14,-2.59,1.73,1.55,1.30,-0.26,1.54,1005.94
13.33,-0.06,1.23,-0.17,-2.59,1.73,1.55,1.30,-0.26,1.54,1005.94
13.367,-0.06,1.23,-0.17,-2.59,1.73,1.55,1.79,-0.48,1.92,1005.94
13.367,-0.06,1.23,-0.17,-3.67,4.12,2.06,1.79,-0.48,1.92,1005.94
13.382,-0.06,1.23,-0.17,-3.67,4.12,2.06,1.79,-0.48,1.92,1005.94
13.386,-0.05,1.23,-0.22,-3.67,4.12,2.06,1.79,-0.48,1.92,1005.94
13.387,-0.29,1.52,-0.08,-3.67,4.12,2.06,1.79,-0.48,1.92,1005.94
13.387,-0.92,2.04,0.03,-3.67,4.12,2.06,1.79,-0.48,1.92,1005.94
13.425,-0.92,2.04,0.03,-3.67,4.12,2.06,2.15,-1.31,2.28,1005.94
13.425,-0.92,2.04,0.03,-8.43,8.83,3.94,2.15,-1.31,2.28,1005.94
13.445,-1.41,2.16,0.08,-8.43,8.83,3.94,2.15,-1.31,2.28,1005.94
13.446,-0.58,1.46,0.14,-8.43,8.83,3.94,2.15,-1.31,2.28,1005.94
13.447,0.47,1.26,-0.40,-8.43,8.83,3.94,2.15,-1.31,2.28,1005.94
13.463,0.47,1.26,-0.40,-8.43,8.83,3.94,2.15,-1.31,2.28,1005.94
13.484,0.47,1.26,-0.40,-8.43,8.83,3.94,2.27,-1.42,3.72,1005.94
13.486,0.47,1.26,-0.40,-9.95,10.66,5.35,2.27,-1.42,3.72,1005.94
13.506,0.47,1.26,-0.40,-9.95,10.66,5.35,2.27,-1.42,3.72,1005.93
13.507,1.41,1.28,-0.44,-9.95,10.66,5.35,2.27,-1.42,3.72,1005.93
13.507,1.68,0.94,-0.40,-9.95,10.66,5.35,2.27,-1.42,3.72,1005.93
13.508,1.14,0.57,-0.58,-9.95,10.66,5.35,2.27,-1.42,3.72,1005.93
13.543,1.14,0.57,-0.58,-9.95,10.66,5.35,0.17,0.61,0.02,1005.93
13.544,1.14,0.57,-0.58,8.48,3.80,1.14,0.17,0.61,0.02,1005.93
13.563,0.55,0.42,-0.66,8.48,3.80,1.14,0.17,0.61,0.02,1005.93
13.564,0.20,0.31,-0.27,8.48,3.80,1.14,0.17,0.61,0.02,1005.93
13.564,0.05,0.12,0.14,8.48,3.80,1.14,0.17,0.61,0.02,1005.93
13.584,0.05,0.12,0.14,8.48,3.80,1.14,0.17,0.61,0.02,1005.87
13.611,0.05,0.12,0.14,-2.19,-3.68,2.29,0.17,0.61,0.02,1005.87
13.613,0.05,0.12,0.14,-2.19,-3.68,2.29,-1.88,0.63,-2.11,1005.87
13.62,0.04,0.04,0.28,-2.19,-3.68,2.29,-1.88,0.63,-2.11,1005.87
13.621,0.11,0.14,-0.01,-2.19,-3.68,2.29,-1.88,0.63,-2.11,1005.87
13.621,0.22,0.27,-0.22,-2.19,-3.68,2.29,-1.88,0.63,-2.11,1005.87
13.66,0.22,0.27,-0.22,-2.19,-3.68,2.29,-2.73,-0.13,-3.53,1005.87
13.66,0.22,0.27,-0.22,-2.03,-6.42,3.87,-2.73,-0.13,-3.53,1005.87
13.663,0.22,0.27,-0.22,-2.03,-6.42,3.87,-2.73,-0.13,-3.53,1005.90
13.679,0.25,0.34,-0.26,-2.03,-6.42,3.87,-2.73,-0.13,-3.53,1005.90
13.681,0.18,0.46,-0.25,-2.03,-6.42,3.87,-2.73,-0.13,-3.53,1005.90
13.682,0.21,0.60,-0.17,-2.03,-6.42,3.87,-2.73,-0.13,-3.53,1005.90
13.707,0.21,0.60,-0.17,-2.03,-6.42,3.87,-2.73,-0.13,-3.53,1005.97
13.718,0.21,0.60,-0.17,-2.03,-6.42,3.87,-4.17,-0.39,-4.66,1005.97
13.719,0.21,0.60,-0.17,1.26,-4.42,-0.56,-4.17,-0.39,-4.66,1005.97
13.738,0.29,0.74,-0.18,1.26,-4.42,-0.56,-4.17,-0.39,-4.66,1005.97
13.739,0.31,0.97,-0.23,1.26,-4.42,-0.56,-4.17,-0.39,-4.66,1005.97
13.739,0.24,1.42,-0.22,1.26,-4.42,-0.56,-4.17,-0.39,-4.66,1005.97
13.781,0.24,1.42,-0.22,1.26,-4.42,-0.56,-4.79,-0.12,-5.19,1005.97
13.782,0.24,1.42,-0.22,4.57,1.27,-2.88,-4.79,-0.12,-5.19,1005.97
13.785,0.24,1.42,-0.22,4.57,1.27,-2.88,-4.79,-0.12,-5.19,1005.95
13.804,0.27,2.01,-0.52,4.57,1.27,-2.88,-4.79,-0.12,-5.19,1005.95
13.805,0.42,2.05,-0.63,4.57,1.27,-2.88,-4.79,-0.12,-5.19,1005.95
13.806,0.59,1.72,-0.18,4.57,1.27,-2.88,-4.79,-0.12,-5.19,1005.95
13.834,0.59,1.72,-0.18,4.57,1.27,-2.88,-3.42,0.05,-2.95,1005.95
13.834,0.59,1.72,-0.18,7.34,10.54,-6.79,-3.42,0.05,-2.95,1005.95
13.854,0.87,1.25,-0.22,7.34,10.54,-6.79,-3.42,0.05,-2.95,1005.95
13.855,0.94,0.89,-0.50,7.34,10.54,-6.79,-3.42,0.05,-2.95,1005.95
13.855,0.80,0.73,-0.62,7.34,10.54,-6.79,-3.42,0.05,-2.95,1005.95
13.863,0.80,0.73,-0.62,7.34,10.54,-6.79,-3.42,0.05,-2.95,1005.90
13.9,0.80,0.73,-0.62,7.34,10.54,-6.79,-0.20,1.19,0.65,1005.90
13.902,0.80,0.73,-0.62,11.42,0.90,-6.54,-0.20,1.19,0.65,1005.90
13.906,0.80,0.73,-0.62,11.42,0.90,-6.54,-0.20,1.19,0.65,1005.87
13.932,0.64,0.71,-0.44,11.42,0.90,-6.54,-0.20,1.19,0.65,1005.87
13.934,0.56,0.81,-0.61,11.42,0.90,-6.54,-0.20,1.19,0.65,1005.87
13.934,0.10,1.41,-0.81,11.42,0.90,-6.54,-0.20,1.19,0.65,1005.87
13.951,0.10,1.41,-0.81,11.42,0.90,-6.54,0.69,3.35,0.11,1005.87
13.952,0.10,1.41,-0.81,7.25,0.99,-7.23,0.69,3.35,0.11,1005.87
13.971,-1.67,1.65,1.02,7.25,0.99,-7.23,0.69,3.35,0.11,1005.87
13.971,-2.35,2.02,0.07,7.25,0.99,-7.23,0.69,3.35,0.11,1005.87
13.972,-0.15,1.79,-1.18,7.25,0.99,-7.23,0.69,3.35,0.11,1005.87
13.983,-0.15,1.79,-1.18,7.25,0.99,-7.23,0.69,3.35,0.11,1005.89
14.01,-0.15,1.79,-1.18,7.25,0.99,-7.23,1.61,1.40,3.01,1005.89
14.011,-0.15,1.79,-1.18,-11.88,8.65,-0.39,1.61,1.40,3.01,1005.89
14.023,-0.15,1.79,-1.18,-11.88,8.65,-0.39,1.61,1.40,3.01,1005.92
14.028,0.59,0.86,0.04,-11.88,8.65,-0.39,1.61,1.40,3.01,1005.92
14.028,0.22,0.39,0.27,-11.88,8.65,-0.39,1.61,1.40,3.01,1005.92
14.029,0.26,0.63,0.08,-11.88,8.65,-0.39,1.61,1.40,3.01,1005.92
14.068,0.26,0.63,0.08,-11.88,8.65,-0.39,0.70,-0.06,1.59,1005.92
14.069,0.26,0.63,0.08,4.28,-3.11,1.55,0.70,-0.06,1.59,1005.92
14.086,0.28,1.07,-0.20,4.28,-3.11,1.55,0.70,-0.06,1.59,1005.92
14.087,0.32,1.26,-0.34,4.28,-3.11,1.55,0.70,-0.06,1.59,1005.92
14.087,0.04,1.08,-0.13,4.28,-3.11,1.55,0.70,-0.06,1.59,1005.92
14.104,0.04,1.08,-0.13,4.28,-3.11,1.55,0.70,-0.06,1.59,1005.91
14.125,0.04,1.08,-0.13,4.28,-3.11,1.55,0.28,0.20,0.77,1005.91
14.125,0.04,1.08,-0.13,2.45,1.86,-1.73,0.28,0.20,0.77,1005.91
14.146,-0.28,0.98,-0.11,2.45,1.86,-1.73,0.28,0.20,0.77,1005.91
14.147,-0.15,1.01,0.01,2.45,1.86,-1.73,0.28,0.20,0.77,1005.91
14.147,0.07,1.01,0.09,2.45,1.86,-1.73,0.28,0.20,0.77,1005.91
14.183,0.07,1.01,0.09,2.45,1.86,-1.73,0.28,0.20,0.77,1005.92
14.184,0.07,1.01,0.09,2.45,1.86,-1.73,0.30,-0.05,0.76,1005.92
14.184,0.07,1.01,0.09,-1.26,0.50,0.58,0.30,-0.05,0.76,1005.92
14.203,0.02,0.96,0.09,-1.26,0.50,0.58,0.30,-0.05,0.76,1005.92
14.204,0.00,0.98,0.04,-1.26,0.50,0.58,0.30,-0.05,0.76,1005.92
14.205,0.03,0.99,-0.02,-1.26,0.50,0.58,0.30,-0.05,0.76,1005.92
14.223,0.03,0.99,-0.02,-1.26,0.50,0.58,0.30,-0.05,0.76,1005.93
14.242,0.03,0.99,-0.02,-0.22,0.31,1.20,0.30,-0.05,0.76,1005.93
14.243,0.03,0.99,-0.02,-0.22,0.31,1.20,0.42,-0.10,0.68,1005.93
14.263,0.01,1.00,-0.02,-0.22,0.31,1.20,0.42,-0.10,0.68,1005.93
14.263,-0.04,1.03,-0.06,-0.22,0.31,1.20,0.42,-0.10,0.68,1005.93
14.264,0.01,0.99,-0.07,-0.22,0.31,1.20,0.42,-0.10,0.68,1005.93
14.301,0.01,0.99,-0.07,-0.22,0.31,1.20,0.47,-0.10,0.73,1005.93
14.302,0.01,0.99,-0.07,-0.83,0.66,0.57,0.47,-0.10,0.73,1005.93
14.304,0.01,0.99,-0.07,-0.83,0.66,0.57,0.47,-0.10,0.73,1005.94
14.32,0.09,0.94,-0.02,-0.83,0.66,0.57,0.47,-0.10,0.73,1005.94
14.321,0.12,0.93,-0.03,-0.83,0.66,0.57,0.47,-0.10,0.73,1005.94
14.322,0.06,0.95,-0.06,-0.83,0.66,0.57,0.47,-0.10,0.73,1005.94
14.36,0.06,0.95,-0.06,-0.83,0.66,0.57,0.50,-0.25,0.77,1005.94
14.361,0.06,0.95,-0.06,-0.28,0.05,1.01,0.50,-0.25,0.77,1005.94
14.383,0.02,0.98,-0.03,-0.28,0.05,1.01,0.50,-0.25,0.77,1005.94
14.384,0.04,0.99,-0.08,-0.28,0.05,1.01,0.50,-0.25,0.77,1005.94
14.385,0.12,0.99,-0.12,-0.28,0.05,1.01,0.50,-0.25,0.77,1005.94
14.387,0.12,0.99,-0.12,-0.28,0.05,1.01,0.50,-0.25,0.77,1005.94
14.421,0.12,0.99,-0.12,-0.28,0.05,1.01,0.57,-0.41,0.95,1005.94
14.422,0.12,0.99,-0.12,-1.02,0.61,0.91,0.57,-0.41,0.95,1005.94
14.438,0.23,0.93,-0.07,-1.02,0.61,0.91,0.57,-0.41,0.95,1005.94
14.438,0.21,0.88,0.00,-1.02,0.61,0.91,0.57,-0.41,0.95,1005.94
14.439,0.11,0.92,0.09,-1.02,0.61,0.91,0.57,-0.41,0.95,1005.94
14.465,0.11,0.92,0.09,-1.02,0.61,0.91,0.57,-0.41,0.95,1005.93
14.478,0.11,0.92,0.09,-1.02,0.61,0.91,0.97,-0.71,1.17,1005.93
14.479,0.11,0.92,0.09,-0.35,0.10,2.30,0.97,-0.71,1.17,1005.93
14.507,-0.06,0.97,0.09,-0.35,0.10,2.30,0.97,-0.71,1.17,1005.93
14.507,-0.03,0.98,-0.03,-0.35,0.10,2.30,0.97,-0.71,1.17,1005.93
14.508,0.16,1.03,-0.19,-0.35,0.10,2.30,0.97,-0.71,1.17,1005.93
14.508,0.16,1.03,-0.19,-0.35,0.10,2.30,0.97,-0.71,1.17,1005.94
14.534,0.16,1.03,-0.19,-0.35,0.10,2.30,1.25,-1.17,1.67,1005.94
14.535,0.16,1.03,-0.19,-2.52,1.32,2.52,1.25,-1.17,1.67,1005.94
14.554,0.17,1.39,-0.21,-2.52,1.32,2.52,1.25,-1.17,1.67,1005.94
14.554,0.13,1.87,-0.19,-2.52,1.32,2.52,1.25,-1.17,1.67,1005.94
14.555,0.29,1.81,-0.04,-2.52,1.32,2.52,1.25,-1.17,1.67,1005.94
14.588,0.29,1.81,-0.04,-2.52,1.32,2.52,1.25,-1.17,1.67,1005.94
14.592,0.29,1.81,-0.04,-2.52,1.32,2.52,0.37,-2.05,2.22,1005.94
14.592,0.29,1.81,-0.04,-1.46,8.47,2.03,0.37,-2.05,2.22,1005.94
14.614,0.19,1.40,-0.19,-1.46,8.47,2.03,0.37,-2.05,2.22,1005.94
14.615,0.07,1.13,-0.32,-1.46,8.47,2.03,0.37,-2.05,2.22,1005.94
14.615,0.31,0.89,-0.34,-1.46,8.47,2.03,0.37,-2.05,2.22,1005.94
14.627,0.31,0.89,-0.34,-1.46,8.47,2.03,0.37,-2.05,2.22,1005.93
14.651,0.31,0.89,-0.34,-1.46,8.47,2.03,-1.87,-4.56,2.69,1005.93
14.652,0.31,0.89,-0.34,-1.80,3.20,0.75,-1.87,-4.56,2.69,1005.93
14.67,0.33,0.74,-0.46,-1.80,3.20,0.75,-1.87,-4.56,2.69,1005.93
14.671,0.12,0.60,-0.62,-1.80,3.20,0.75,-1.87,-4.56,2.69,1005.93
14.671,-0.17,0.56,-0.67,-1.80,3.20,0.75,-1.87,-4.56,2.69,1005.93
14.703,-0.17,0.56,-0.67,-1.80,3.20,0.75,-1.87,-4.56,2.69,1005.93
14.713,-0.17,0.56,-0.67,-1.80,3.20,0.75,-3.58,-5.82,2.08,1005.93
14.714,-0.17,0.56,-0.67,-2.52,-1.98,-2.58,-3.58,-5.82,2.08,1005.93
14.728,-0.38,0.49,-0.67,-2.52,-1.98,-2.58,-3.58,-5.82,2.08,1005.93
14.728,-0.48,0.50,-0.92,-2.52,-1.98,-2.58,-3.58,-5.82,2.08,1005.93
14.729,-0.42,0.51,-1.10,-2.52,-1.98,-2.58,-3.58,-5.82,2.08,1005.93
14.767,-0.42,0.51,-1.10,-2.52,-1.98,-2.58,-3.37,-5.90,1.03,1005.93
14.768,-0.42,0.51,-1.10,-7.01,-3.61,-6.09,-3.37,-5.90,1.03,1005.93
14.784,-0.42,0.51,-1.10,-7.01,-3.61,-6.09,-3.37,-5.90,1.03,1005.93
14.787,-0.43,0.56,-1.06,-7.01,-3.61,-6.09,-3.37,-5.90,1.03,1005.93
14.788,-0.49,0.60,-1.01,-7.01,-3.61,-6.09,-3.37,-5.90,1.03,1005.93
14.788,-0.43,0.61,-1.00,-7.01,-3.61,-6.09,-3.37,-5.90,1.03,1005.93
14.825,-0.43,0.61,-1.00,-6.09,-3.08,-7.77,-3.37,-5.90,1.03,1005.93
14.826,-0.43,0.61,-1.00,-6.09,-3.08,-7.77,-2.68,-5.69,-0.47,1005.93
14.844,-0.32,0.67,-0.95,-6.09,-3.08,-7.77,-2.68,-5.69,-0.47,1005.93
14.845,-0.25,0.85,-0.80,-6.09,-3.08,-7.77,-2.68,-5.69,-0.47,1005.93
14.845,-0.13,1.05,-0.70,-6.09,-3.08,-7.77,-2.68,-5.69,-0.47,1005.93
14.865,-0.13,1.05,-0.70,-6.09,-3.08,-7.77,-2.68,-5.69,-0.47,1005.92
14.884,-0.13,1.05,-0.70,-6.09,-3.08,-7.77,-2.26,-5.53,-1.57,1005.92
14.884,-0.13,1.05,-0.70,-2.51,-0.80,-6.49,-2.26,-5.53,-1.57,1005.92
14.903,-0.12,1.14,-0.60,-2.51,-0.80,-6.49,-2.26,-5.53,-1.57,1005.92
14.904,-0.16,1.18,-0.52,-2.51,-0.80,-6.49,-2.26,-5.53,-1.57,1005.92
14.905,-0.11,1.23,-0.47,-2.51,-0.80,-6.49,-2.26,-5.53,-1.57,1005.92
14.905,-0.11,1.23,-0.47,-2.51,-0.80,-6.49,-2.26,-5.53,-1.57,1005.90
14.945,-0.11,1.23,-0.47,-0.45,2.31,-4.66,-2.26,-5.53,-1.57,1005.90
14.946,-0.11,1.23,-0.47,-0.45,2.31,-4.66,-1.79,-4.99,-1.38,1005.90
14.961,0.05,1.28,-0.43,-0.45,2.31,-4.66,-1.79,-4.99,-1.38,1005.90
14.962,0.30,1.28,-0.35,-0.45,2.31,-4.66,-1.79,-4.99,-1.38,1005.90
14.962,0.38,1.17,-0.25,-0.45,2.31,-4.66,-1.79,-4.99,-1.38,1005.90
14.983,0.38,1.17,-0.25,-0.45,2.31,-4.66,-1.79,-4.99,-1.38,1005.91
15.008,0.38,1.17,-0.25,3.45,2.84,-3.72,-1.79,-4.99,-1.38,1005.91
15.009,0.38,1.17,-0.25,3.45,2.84,-3.72,-1.28,-4.40,-0.50,1005.91
15.019,0.32,0.96,-0.14,3.45,2.84,-3.72,-1.28,-4.40,-0.50,1005.91
15.02,0.26,0.87,-0.07,3.45,2.84,-3.72,-1.28,-4.40,-0.50,1005.91
15.02,0.29,0.86,-0.16,3.45,2.84,-3.72,-1.28,-4.40,-0.50,1005.91
15.058,0.29,0.86,-0.16,3.45,2.84,-3.72,-0.31,-4.04,0.40,1005.91
15.059,0.29,0.86,-0.16,3.46,-0.54,-1.93,-0.31,-4.04,0.40,1005.91
15.062,0.29,0.86,-0.16,3.46,-0.54,-1.93,-0.31,-4.04,0.40,1005.92
15.077,0.38,0.79,-0.28,3.46,-0.54,-1.93,-0.31,-4.04,0.40,1005.92
15.078,0.55,0.67,-0.42,3.46,-0.54,-1.93,-0.31,-4.04,0.40,1005.92
15.078,0.66,0.51,-0.45,3.46,-0.54,-1.93,-0.31,-4.04,0.40,1005.92
15.107,0.66,0.51,-0.45,3.46,-0.54,-1.93,-0.31,-4.04,0.40,1005.92
15.116,0.66,0.51,-0.45,3.46,-0.54,-1.93,0.17,-1.36,0.63,1005.92
15.117,0.66,0.51,-0.45,5.31,-2.84,-4.35,0.17,-1.36,0.63,1005.92
15.136,0.60,0.58,-0.47,5.31,-2.84,-4.35,0.17,-1.36,0.63,1005.92
15.137,0.34,0.91,0.13,5.31,-2.84,-4.35,0.17,-1.36,0.63,1005.92
15.137,0.25,1.46,1.16,5.31,-2.84,-4.35,0.17,-1.36,0.63,1005.92
15.177,0.25,1.46,1.16,5.31,-2.84,-4.35,-0.31,1.84,-0.24,1005.92
15.177,0.25,1.46,1.16,4.16,0.34,1.91,-0.31,1.84,-0.24,1005.92
15.183,0.25,1.46,1.16,4.16,0.34,1.91,-0.31,1.84,-0.24,1005.92
15.195,0.09,1.81,0.62,4.16,0.34,1.91,-0.31,1.84,-0.24,1005.92
15.196,-0.80,1.21,-0.05,4.16,0.34,1.91,-0.31,1.84,-0.24,1005.92
15.196,-0.86,0.78,-0.11,4.16,0.34,1.91,-0.31,1.84,-0.24,1005.92
15.234,-0.86,0.78,-0.11,4.16,0.34,1.91,0.19,-0.23,0.83,1005.92
15.234,-0.86,0.78,-0.11,-5.22,3.07,0.81,0.19,-0.23,0.83,1005.92
15.254,-0.40,1.00,-0.22,-5.22,3.07,0.81,0.19,-0.23,0.83,1005.92
15.254,0.24,1.16,-0.18,-5.22,3.07,0.81,0.19,-0.23,0.83,1005.92
15.254,0.60,1.10,0.06,-5.22,3.07,0.81,0.19,-0.23,0.83,1005.92
15.265,0.60,1.10,0.06,-5.22,3.07,0.81,0.19,-0.23,0.83,1005.92
15.298,0.60,1.10,0.06,0.99,1.28,-1.73,0.19,-0.23,0.83,1005.92
15.3,0.60,1.10,0.06,0.99,1.28,-1.73,0.05,-0.09,0.60,1005.92
15.304,0.60,1.10,0.06,0.99,1.28,-1.73,0.05,-0.09,0.60,1005.90
15.326,0.21,0.97,0.12,0.99,1.28,-1.73,0.05,-0.09,0.60,1005.90
15.327,-0.13,1.02,0.18,0.99,1.28,-1.73,0.05,-0.09,0.60,1005.90
15.327,-0.09,1.09,0.10,0.99,1.28,-1.73,0.05,-0.09,0.60,1005.90
15.351,-0.09,1.09,0.10,0.99,1.28,-1.73,0.15,-0.51,0.49,1005.90
15.352,-0.09,1.09,0.10,-0.76,0.69,0.78,0.15,-0.51,0.49,1005.90
15.37,0.05,0.99,0.22,-0.76,0.69,0.78,0.15,-0.51,0.49,1005.90
15.371,0.11,0.94,0.18,-0.76,0.69,0.78,0.15,-0.51,0.49,1005.90
15.372,0.10,1.00,0.08,-0.76,0.69,0.78,0.15,-0.51,0.49,1005.90
15.385,0.10,1.00,0.08,-0.76,0.69,0.78,0.15,-0.51,0.49,1005.90
15.411,0.10,1.00,0.08,-0.09,0.17,1.18,0.15,-0.51,0.49,1005.90
15.412,0.10,1.00,0.08,-0.09,0.17,1.18,0.31,-0.03,0.38,1005.90
15.443,0.01,1.01,0.11,-0.09,0.17,1.18,0.31,-0.03,0.38,1005.90
15.444,-0.08,0.99,0.24,-0.09,0.17,1.18,0.31,-0.03,0.38,1005.90
15.444,-0.18,1.00,0.25,-0.09,0.17,1.18,0.31,-0.03,0.38,1005.90
15.464,-0.18,1.00,0.25,-0.09,0.17,1.18,0.31,-0.03,0.38,1005.90
15.469,-0.18,1.00,0.25,-0.09,0.17,1.18,0.63,-0.31,0.84,1005.90
15.469,-0.18,1.00,0.25,-2.17,0.47,1.96,0.63,-0.31,0.84,1005.90
15.486,-0.15,1.01,0.19,-2.17,0.47,1.96,0.63,-0.31,0.84,1005.90
15.486,0.40,0.94,0.05,-2.17,0.47,1.96,0.63,-0.31,0.84,1005.90
15.487,0.23,0.98,-0.05,-2.17,0.47,1.96,0.63,-0.31,0.84,1005.90
15.506,0.23,0.98,-0.05,-2.17,0.47,1.96,0.63,-0.31,0.84,1005.91
15.526,0.23,0.98,-0.05,-2.17,0.47,1.96,0.71,-0.14,0.83,1005.91
15.528,0.23,0.98,-0.05,-0.25,0.32,0.98,0.71,-0.14,0.83,1005.91
15.545,0.12,1.01,-0.05,-0.25,0.32,0.98,0.71,-0.14,0.83,1005.91
15.547,0.09,1.01,-0.01,-0.25,0.32,0.98,0.71,-0.14,0.83,1005.91
15.548,0.21,0.98,-0.07,-0.25,0.32,0.98,0.71,-0.14,0.83,1005.91
15.584,0.21,0.98,-0.07,-0.25,0.32,0.98,0.63,-0.20,0.87,1005.91
15.585,0.21,0.98,-0.07,-0.88,0.65,0.24,0.63,-0.20,0.87,1005.91
15.587,0.21,0.98,-0.07,-0.88,0.65,0.24,0.63,-0.20,0.87,1005.92
15.61,0.31,1.01,-0.10,-0.88,0.65,0.24,0.63,-0.20,0.87,1005.92
15.61,0.18,1.03,-0.05,-0.88,0.65,0.24,0.63,-0.20,0.87,1005.92
15.61,0.02,1.03,0.00,-0.88,0.65,0.24,0.63,-0.20,0.87,1005.92
15.624,0.02,1.03,0.00,-0.88,0.65,0.24,0.63,-0.20,0.87,1005.91
15.643,0.02,1.03,0.00,-0.88,0.65,0.24,0.77,-0.34,1.02,1005.91
15.644,0.02,1.03,0.00,-1.07,1.04,0.66,0.77,-0.34,1.02,1005.91
15.661,0.03,1.05,-0.02,-1.07,1.04,0.66,0.77,-0.34,1.02,1005.91
15.662,0.06,1.12,-0.00,-1.07,1.04,0.66,0.77,-0.34,1.02,1005.91
15.663,0.04,1.16,0.07,-1.07,1.04,0.66,0.77,-0.34,1.02,1005.91
15.706,0.04,1.16,0.07,-3.06,2.31,2.07,0.77,-0.34,1.02,1005.91
15.708,0.04,1.16,0.07,-3.06,2.31,2.07,1.25,-0.94,1.68,1005.91
15.709,0.04,1.16,0.07,-3.06,2.31,2.07,1.25,-0.94,1.68,1005.92
15.741,0.02,1.20,0.04,-3.06,2.31,2.07,1.25,-0.94,1.68,1005.92
15.741,0.01,1.25,-0.04,-3.06,2.31,2.07,1.25,-0.94,1.68,1005.92
15.742,0.02,1.29,-0.16,-3.06,2.31,2.07,1.25,-0.94,1.68,1005.92
15.759,0.02,1.29,-0.16,-3.06,2.31,2.07,1.69,-1.35,2.20,1005.92
15.759,0.02,1.29,-0.16,-4.09,4.32,2.49,1.69,-1.35,2.20,1005.92
15.779,-0.03,1.41,-0.19,-4.09,4.32,2.49,1.69,-1.35,2.20,1005.92
15.779,-0.38,1.72,-0.09,-4.09,4.32,2.49,1.69,-1.35,2.20,1005.92
15.779,-0.92,2.03,0.01,-4.09,4.32,2.49,1.69,-1.35,2.20,1005.92
15.783,-0.92,2.03,0.01,-4.09,4.32,2.49,1.69,-1.35,2.20,1005.95
15.817,-0.92,2.03,0.01,-4.09,4.32,2.49,1.85,-2.13,2.71,1005.95
15.819,-0.92,2.03,0.01,-9.14,9.94,3.42,1.85,-2.13,2.71,1005.95
15.837,-1.40,1.97,0.07,-9.14,9.94,3.42,1.85,-2.13,2.71,1005.95
15.838,-0.67,1.22,-0.14,-9.14,9.94,3.42,1.85,-2.13,2.71,1005.95
15.838,0.46,1.07,-0.70,-9.14,9.94,3.42,1.85,-2.13,2.71,1005.95
15.863,0.46,1.07,-0.70,-9.14,9.94,3.42,1.85,-2.13,2.71,1005.95
15.875,0.46,1.07,-0.70,-9.14,9.94,3.42,1.82,-2.58,4.11,1005.95
15.876,0.46,1.07,-0.70,-10.60,8.63,3.19,1.82,-2.58,4.11,1005.95
15.906,1.38,1.03,-0.57,-10.60,8.63,3.19,1.82,-2.58,4.11,1005.95
15.908,1.45,0.81,-0.44,-10.60,8.63,3.19,1.82,-2.58,4.11,1005.95
15.916,0.80,0.48,-0.65,-10.60,8.63,3.19,1.82,-2.58,4.11,1005.95
15.917,0.80,0.48,-0.65,-10.60,8.63,3.19,1.82,-2.58,4.11,1005.94
15.933,0.80,0.48,-0.65,-10.60,8.63,3.19,-0.22,-0.21,0.66,1005.94
15.934,0.80,0.48,-0.65,6.32,2.34,0.24,-0.22,-0.21,0.66,1005.94
15.953,0.43,0.37,-1.00,6.32,2.34,0.24,-0.22,-0.21,0.66,1005.94
15.954,0.26,0.31,-0.60,6.32,2.34,0.24,-0.22,-0.21,0.66,1005.94
15.954,0.05,0.15,-0.09,6.32,2.34,0.24,-0.22,-0.21,0.66,1005.94
15.984,0.05,0.15,-0.09,6.32,2.34,0.24,-0.22,-0.21,0.66,1005.88
15.993,0.05,0.15,-0.09,6.32,2.34,0.24,-2.77,0.45,-1.78,1005.88
15.993,0.05,0.15,-0.09,-2.62,-3.83,-0.89,-2.77,0.45,-1.78,1005.88
16.012,-0.21,0.04,0.12,-2.62,-3.83,-0.89,-2.77,0.45,-1.78,1005.88
16.012,-0.25,0.14,-0.05,-2.62,-3.83,-0.89,-2.77,0.45,-1.78,1005.88
16.012,-0.08,0.33,-0.32,-2.62,-3.83,-0.89,-2.77,0.45,-1.78,1005.88
16.051,-0.08,0.33,-0.32,-2.62,-3.83,-0.89,-3.17,-0.94,-3.26,1005.88
16.052,-0.08,0.33,-0.32,-5.07,-6.36,2.62,-3.17,-0.94,-3.26,1005.88
16.064,-0.08,0.33,-0.32,-5.07,-6.36,2.62,-3.17,-0.94,-3.26,1005.90
16.071,0.07,0.47,-0.40,-5.07,-6.36,2.62,-3.17,-0.94,-3.26,1005.90
16.072,0.04,0.58,-0.36,-5.07,-6.36,2.62,-3.17,-0.94,-3.26,1005.90
16.072,-0.04,0.68,-0.32,-5.07,-6.36,2.62,-3.17,-0.94,-3.26,1005.90
16.103,-0.04,0.68,-0.32,-5.07,-6.36,2.62,-3.17,-0.94,-3.26,1005.97
16.11,-0.04,0.68,-0.32,-5.07,-6.36,2.62,-4.35,-2.06,-4.61,1005.97
16.11,-0.04,0.68,-0.32,-0.45,-3.48,-2.02,-4.35,-2.06,-4.61,1005.97
16.139,0.03,0.80,-0.34,-0.45,-3.48,-2.02,-4.35,-2.06,-4.61,1005.97
16.14,0.09,1.03,-0.37,-0.45,-3.48,-2.02,-4.35,-2.06,-4.61,1005.97
16.14,0.16,1.51,-0.64,-0.45,-3.48,-2.02,-4.35,-2.06,-4.61,1005.97
16.167,0.16,1.51,-0.64,-0.45,-3.48,-2.02,-4.82,-0.61,-4.58,1005.97
16.168,0.16,1.51,-0.64,2.69,1.86,-5.40,-4.82,-0.61,-4.58,1005.97
16.183,0.16,1.51,-0.64,2.69,1.86,-5.40,-4.82,-0.61,-4.58,1005.96
16.185,0.50,2.06,-0.97,2.69,1.86,-5.40,-4.82,-0.61,-4.58,1005.96
16.186,0.96,1.90,-1.03,2.69,1.86,-5.40,-4.82,-0.61,-4.58,1005.96
16.186,1.16,1.30,-0.69,2.69,1.86,-5.40,-4.82,-0.61,-4.58,1005.96
16.225,1.16,1.30,-0.69,11.47,8.58,-10.81,-4.82,-0.61,-4.58,1005.96
16.227,1.16,1.30,-0.69,11.47,8.58,-10.81,-2.88,1.83,-2.25,1005.96
16.246,1.35,0.87,-0.47,11.47,8.58,-10.81,-2.88,1.83,-2.25,1005.96
16.247,1.16,0.86,-0.45,11.47,8.58,-10.81,-2.88,1.83,-2.25,1005.96
16.248,0.88,0.74,-0.69,11.47,8.58,-10.81,-2.88,1.83,-2.25,1005.96
16.263,0.88,0.74,-0.69,11.47,8.58,-10.81,-2.88,1.83,-2.25,1005.89
16.284,0.88,0.74,-0.69,11.47,8.58,-10.81,0.33,2.73,1.25,1005.89
16.285,0.88,0.74,-0.69,13.39,-0.77,-6.55,0.33,2.73,1.25,1005.89
16.304,0.77,1.07,-0.97,13.39,-0.77,-6.55,0.33,2.73,1.25,1005.89
16.304,-0.58,1.71,0.61,13.39,-0.77,-6.55,0.33,2.73,1.25,1005.89
16.305,-2.50,1.36,0.76,13.39,-0.77,-6.55,0.33,2.73,1.25,1005.89
16.305,-2.50,1.36,0.76,13.39,-0.77,-6.55,0.33,2.73,1.25,1005.89
16.342,-2.50,1.36,0.76,13.39,-0.77,-6.55,1.19,1.58,0.28,1005.89
16.343,-2.50,1.36,0.76,-5.17,4.50,0.86,1.19,1.58,0.28,1005.89
16.361,-1.85,1.84,-0.70,-5.17,4.50,0.86,1.19,1.58,0.28,1005.89
16.362,0.19,1.42,-0.88,-5.17,4.50,0.86,1.19,1.58,0.28,1005.89
16.363,0.77,0.76,0.07,-5.17,4.50,0.86,1.19,1.58,0.28,1005.89
16.386,0.77,0.76,0.07,-5.17,4.50,0.86,1.19,1.58,0.28,1005.92
16.4,0.77,0.76,0.07,-5.17,4.50,0.86,0.59,0.46,2.49,1005.92
16.4,0.77,0.76,0.07,-1.81,3.79,-4.93,0.59,0.46,2.49,1005.92
16.419,0.73,0.47,0.55,-1.81,3.79,-4.93,0.59,0.46,2.49,1005.92
16.42,-0.02,0.83,0.24,-1.81,3.79,-4.93,0.59,0.46,2.49,1005.92
16.42,-0.23,1.15,-0.13,-1.81,3.79,-4.93,0.59,0.46,2.49,1005.92
16.459,-0.23,1.15,-0.13,-1.81,3.79,-4.93,0.60,-0.50,1.27,1005.92
16.46,-0.23,1.15,-0.13,1.90,-1.34,2.43,0.60,-0.50,1.27,1005.92
16.463,-0.23,1.15,-0.13,1.90,-1.34,2.43,0.60,-0.50,1.27,1005.94
16.479,0.05,1.17,-0.32,1.90,-1.34,2.43,0.60,-0.50,1.27,1005.94
16.479,0.18,1.06,-0.18,1.90,-1.34,2.43,0.60,-0.50,1.27,1005.94
16.48,0.03,0.98,-0.15,1.90,-1.34,2.43,0.60,-0.50,1.27,1005.94
16.504,0.03,0.98,-0.15,1.90,-1.34,2.43,0.60,-0.50,1.27,1005.96
16.517,0.03,0.98,-0.15,1.90,-1.34,2.43,0.37,0.14,0.83,1005.96
16.518,0.03,0.98,-0.15,0.75,1.13,-1.62,0.37,0.14,0.83,1005.96
16.538,0.07,0.94,0.03,0.75,1.13,-1.62,0.37,0.14,0.83,1005.96
16.538,0.03,0.98,0.12,0.75,1.13,-1.62,0.37,0.14,0.83,1005.96
16.539,-0.07,1.01,0.11,0.75,1.13,-1.62,0.37,0.14,0.83,1005.96
16.576,-0.07,1.01,0.11,0.75,1.13,-1.62,0.48,-0.03,0.85,1005.96
16.577,-0.07,1.01,0.11,-0.45,0.26,1.61,0.48,-0.03,0.85,1005.96
16.584,-0.07,1.01,0.11,-0.45,0.26,1.61,0.48,-0.03,0.85,1005.95
16.595,-0.04,0.97,0.03,-0.45,0.26,1.61,0.48,-0.03,0.85,1005.95
16.596,-0.01,1.00,0.00,-0.45,0.26,1.61,0.48,-0.03,0.85,1005.95
16.597,0.00,1.02,-0.01,-0.45,0.26,1.61,0.48,-0.03,0.85,1005.95
16.625,0.00,1.02,-0.01,-0.45,0.26,1.61,0.48,-0.03,0.85,1005.94
16.634,0.00,1.02,-0.01,-1.28,0.55,1.18,0.48,-0.03,0.85,1005.94
16.634,0.00,1.02,-0.01,-1.28,0.55,1.18,0.70,-0.18,1.05,1005.94
16.665,0.07,1.01,-0.01,-1.28,0.55,1.18,0.70,-0.18,1.05,1005.94
16.666,0.10,0.98,-0.04,-1.28,0.55,1.18,0.70,-0.18,1.05,1005.94
16.666,0.12,0.97,-0.09,-1.28,0.55,1.18,0.70,-0.18,1.05,1005.94
16.692,0.12,0.97,-0.09,-1.28,0.55,1.18,0.72,-0.34,1.12,1005.94
16.693,0.12,0.97,-0.09,-0.73,0.54,1.02,0.72,-0.34,1.12,1005.94
16.704,0.12,0.97,-0.09,-0.73,0.54,1.02,0.72,-0.34,1.12,1005.94
16.726,0.17,0.97,-0.15,-0.73,0.54,1.02,0.72,-0.34,1.12,1005.94
16.726,0.17,0.97,-0.20,-0.73,0.54,1.02,0.72,-0.34,1.12,1005.94
16.727,0.14,0.99,-0.20,-0.73,0.54,1.02,0.72,-0.34,1.12,1005.94
16.75,0.14,0.99,-0.20,-0.73,0.54,1.02,0.70,-0.41,1.12,1005.94
16.751,0.14,0.99,-0.20,-0.64,0.66,0.11,0.70,-0.41,1.12,1005.94
16.769,0.17,1.04,-0.16,-0.64,0.66,0.11,0.70,-0.41,1.12,1005.94
16.77,0.21,1.00,-0.14,-0.64,0.66,0.11,0.70,-0.41,1.12,1005.94
16.771,0.13,1.03,-0.08,-0.64,0.66,0.11,0.70,-0.41,1.12,1005.94
16.786,0.13,1.03,-0.08,-0.64,0.66,0.11,0.70,-0.41,1.12,1005.93
16.81,0.13,1.03,-0.08,-1.13,1.41,1.20,0.70,-0.41,1.12,1005.93
16.811,0.13,1.03,-0.08,-1.13,1.41,1.20,1.07,-0.06,1.23,1005.93
16.829,0.04,1.10,-0.07,-1.13,1.41,1.20,1.07,-0.06,1.23,1005.93
16.831,0.01,1.21,-0.04,-1.13,1.41,1.20,1.07,-0.06,1.23,1005.93
16.831,-0.00,1.26,-0.05,-1.13,1.41,1.20,1.07,-0.06,1.23,1005.93
16.864,-0.00,1.26,-0.05,-1.13,1.41,1.20,1.07,-0.06,1.23,1005.92
16.866,-0.00,1.26,-0.05,-1.13,1.41,1.20,1.72,-0.50,1.74,1005.92
16.866,-0.00,1.26,-0.05,-3.37,3.61,2.84,1.72,-0.50,1.74,1005.92
16.887,-0.11,1.35,0.01,-3.37,3.61,2.84,1.72,-0.50,1.74,1005.92
16.888,-0.36,1.66,0.08,-3.37,3.61,2.84,1.72,-0.50,1.74,1005.92
16.888,-0.78,2.02,0.03,-3.37,3.61,2.84,1.72,-0.50,1.74,1005.92
16.904,-0.78,2.02,0.03,-3.37,3.61,2.84,1.72,-0.50,1.74,1005.93
16.928,-0.78,2.02,0.03,-3.37,3.61,2.84,2.42,-1.03,2.41,1005.93
16.93,-0.78,2.02,0.03,-8.25,9.33,4.92,2.42,-1.03,2.41,1005.93
16.952,-1.28,2.08,0.02,-8.25,9.33,4.92,2.42,-1.03,2.41,1005.93
16.953,-1.00,1.71,0.19,-8.25,9.33,4.92,2.42,-1.03,2.41,1005.93
16.953,0.13,1.38,-0.26,-8.25,9.33,4.92,2.42,-1.03,2.41,1005.93
16.985,0.13,1.38,-0.26,-8.25,9.33,4.92,2.48,-1.47,3.84,1005.93
16.986,0.13,1.38,-0.26,-8.25,9.33,4.92,2.48,-1.47,3.84,1005.93
16.986,0.13,1.38,-0.26,-11.94,11.38,5.61,2.48,-1.47,3.84,1005.93
17.003,1.10,1.34,-0.53,-11.94,11.38,5.61,2.48,-1.47,3.84,1005.93
17.004,1.60,1.02,-0.23,-11.94,11.38,5.61,2.48,-1.47,3.84,1005.93
17.004,1.05,0.67,-0.42,-11.94,11.38,5.61,2.48,-1.47,3.84,1005.93
17.041,1.05,0.67,-0.42,-11.94,11.38,5.61,0.75,0.63,0.35,1005.93
17.042,1.05,0.67,-0.42,6.86,4.65,1.93,0.75,0.63,0.35,1005.93
17.062,0.57,0.35,-0.69,6.86,4.65,1.93,0.75,0.63,0.35,1005.93
17.063,0.41,0.28,-0.61,6.86,4.65,1.93,0.75,0.63,0.35,1005.93
17.063,0.24,0.18,-0.26,6.86,4.65,1.93,0.75,0.63,0.35,1005.93
17.064,0.24,0.18,-0.26,6.86,4.65,1.93,0.75,0.63,0.35,1005.93
17.101,0.24,0.18,-0.26,6.86,4.65,1.93,-1.96,1.31,-1.88,1005.93
17.102,0.24,0.18,-0.26,-1.10,-3.70,-0.39,-1.96,1.31,-1.88,1005.93
17.103,0.24,0.18,-0.26,-1.10,-3.70,-0.39,-1.96,1.31,-1.88,1005.88
17.129,0.17,0.01,0.21,-1.10,-3.70,-0.39,-1.96,1.31,-1.88,1005.88
17.13,0.19,-0.04,0.14,-1.10,-3.70,-0.39,-1.96,1.31,-1.88,1005.88
17.13,0.14,0.11,-0.09,-1.10,-3.70,-0.39,-1.96,1.31,-1.88,1005.88
17.159,0.14,0.11,-0.09,-1.10,-3.70,-0.39,-2.84,0.00,-3.65,1005.88
17.16,0.14,0.11,-0.09,-1.92,-7.59,4.27,-2.84,0.00,-3.65,1005.88
17.179,0.11,0.25,-0.15,-1.92,-7.59,4.27,-2.84,0.00,-3.65,1005.88
17.179,0.12,0.40,-0.08,-1.92,-7.59,4.27,-2.84,0.00,-3.65,1005.88
17.18,0.09,0.61,-0.14,-1.92,-7.59,4.27,-2.84,0.00,-3.65,1005.88
17.184,0.09,0.61,-0.14,-1.92,-7.59,4.27,-2.84,0.00,-3.65,1005.92
17.224,0.09,0.61,-0.14,-1.92,-7.59,4.27,-4.16,-1.74,-4.81,1005.92
17.226,0.09,0.61,-0.14,0.12,-4.89,0.39,-4.16,-1.74,-4.81,1005.92
17.261,0.07,0.80,-0.11,0.12,-4.89,0.39,-4.16,-1.74,-4.81,1005.92
17.262,-0.01,1.03,-0.32,0.12,-4.89,0.39,-4.16,-1.74,-4.81,1005.92
17.263,0.16,1.54,-0.47,0.12,-4.89,0.39,-4.16,-1.74,-4.81,1005.92
17.263,0.16,1.54,-0.47,0.12,-4.89,0.39,-4.16,-1.74,-4.81,1005.99
17.275,0.16,1.54,-0.47,0.12,-4.89,0.39,-5.11,-1.67,-4.54,1005.99
17.276,0.16,1.54,-0.47,2.20,1.99,-4.05,-5.11,-1.67,-4.54,1005.99
17.294,0.52,2.27,-0.73,2.20,1.99,-4.05,-5.11,-1.67,-4.54,1005.99
17.294,0.68,2.12,-0.89,2.20,1.99,-4.05,-5.11,-1.67,-4.54,1005.99
17.295,0.89,1.50,-0.71,2.20,1.99,-4.05,-5.11,-1.67,-4.54,1005.99
17.304,0.89,1.50,-0.71,2.20,1.99,-4.05,-5.11,-1.67,-4.54,1005.94
17.334,0.89,1.50,-0.71,2.20,1.99,-4.05,-3.68,1.04,-2.90,1005.94
17.335,0.89,1.50,-0.71,9.76,10.90,-10.23,-3.68,1.04,-2.90,1005.94
17.353,1.01,1.02,-0.28,9.76,10.90,-10.23,-3.68,1.04,-2.90,1005.94
17.354,0.77,0.96,-0.48,9.76,10.90,-10.23,-3.68,1.04,-2.90,1005.94
17.355,0.56,0.82,-0.65,9.76,10.90,-10.23,-3.68,1.04,-2.90,1005.94
17.388,0.56,0.82,-0.65,9.76,10.90,-10.23,-3.68,1.04,-2.90,1005.87
17.392,0.56,0.82,-0.65,9.76,10.90,-10.23,-0.20,2.17,0.45,1005.87
17.393,0.56,0.82,-0.65,10.53,0.69,-6.82,-0.20,2.17,0.45,1005.87
17.413,0.59,0.72,-0.39,10.53,0.69,-6.82,-0.20,2.17,0.45,1005.87
17.414,0.59,0.89,-0.41,10.53,0.69,-6.82,-0.20,2.17,0.45,1005.87
17.416,0.30,1.43,-0.73,10.53,0.69,-6.82,-0.20,2.17,0.45,1005.87
17.45,0.30,1.43,-0.73,10.53,0.69,-6.82,0.49,3.05,0.19,1005.87
17.451,0.30,1.43,-0.73,7.80,1.36,-6.32,0.49,3.05,0.19,1005.87
17.463,0.30,1.43,-0.73,7.80,1.36,-6.32,0.49,3.05,0.19,1005.88
17.47,-1.43,1.58,1.04,7.80,1.36,-6.32,0.49,3.05,0.19,1005.88
17.471,-2.37,1.63,0.37,7.80,1.36,-6.32,0.49,3.05,0.19,1005.88
17.471,-0.20,1.71,-0.68,7.80,1.36,-6.32,0.49,3.05,0.19,1005.88
17.503,-0.20,1.71,-0.68,7.80,1.36,-6.32,0.49,3.05,0.19,1005.90
17.508,-0.20,1.71,-0.68,7.80,1.36,-6.32,1.52,1.09,2.82,1005.90
17.508,-0.20,1.71,-0.68,-11.30,6.97,1.96,1.52,1.09,2.82,1005.90
17.529,0.45,1.12,-0.99,-11.30,6.97,1.96,1.52,1.09,2.82,1005.90
17.53,0.35,0.65,0.41,-11.30,6.97,1.96,1.52,1.09,2.82,1005.90
17.531,0.11,0.62,0.13,-11.30,6.97,1.96,1.52,1.09,2.82,1005.90
17.566,0.11,0.62,0.13,-11.30,6.97,1.96,0.66,-0.19,1.55,1005.90
17.567,0.11,0.62,0.13,3.86,-1.42,-1.49,0.66,-0.19,1.55,1005.90
17.583,0.11,0.62,0.13,3.86,-1.42,-1.49,0.66,-0.19,1.55,1006.00
17.586,0.09,1.00,-0.00,3.86,-1.42,-1.49,0.66,-0.19,1.55,1006.00
17.587,0.18,1.23,-0.23,3.86,-1.42,-1.49,0.66,-0.19,1.55,1006.00
17.587,0.17,1.07,-0.08,3.86,-1.42,-1.49,0.66,-0.19,1.55,1006.00
17.625,0.17,1.07,-0.08,1.80,1.47,-0.88,0.66,-0.19,1.55,1006.00
17.626,0.17,1.07,-0.08,1.80,1.47,-0.88,0.32,-0.03,0.91,1006.00
17.647,-0.14,1.00,-0.00,1.80,1.47,-0.88,0.32,-0.03,0.91,1006.00
17.649,-0.17,1.01,0.07,1.80,1.47,-0.88,0.32,-0.03,0.91,1006.00
17.649,0.01,1.00,0.17,1.80,1.47,-0.88,0.32,-0.03,0.91,1006.00
17.664,0.01,1.00,0.17,1.80,1.47,-0.88,0.32,-0.03,0.91,1005.98
17.683,0.01,1.00,0.17,1.80,1.47,-0.88,0.47,-0.04,0.92,1005.98
17.684,0.01,1.00,0.17,-1.14,0.53,1.13,0.47,-0.04,0.92,1005.98
17.703,-0.02,0.99,0.18,-1.14,0.53,1.13,0.47,-0.04,0.92,1005.98
17.704,-0.04,0.95,0.08,-1.14,0.53,1.13,0.47,-0.04,0.92,1005.98
17.704,0.01,0.91,-0.02,-1.14,0.53,1.13,0.47,-0.04,0.92,1005.98
17.704,0.01,0.91,-0.02,-1.14,0.53,1.13,0.47,-0.04,0.92,1005.95
17.742,0.01,0.91,-0.02,-1.14,0.53,1.13,0.56,-0.32,1.04,1005.95
17.742,0.01,0.91,-0.02,-0.81,0.07,1.42,0.56,-0.32,1.04,1005.95
17.761,0.03,0.96,-0.03,-0.81,0.07,1.42,0.56,-0.32,1.04,1005.95
17.762,0.07,1.05,-0.08,-0.81,0.07,1.42,0.56,-0.32,1.04,1005.95
17.762,0.09,1.07,-0.10,-0.81,0.07,1.42,0.56,-0.32,1.04,1005.95
17.784,0.09,1.07,-0.10,-0.81,0.07,1.42,0.56,-0.32,1.04,1005.95
17.8,0.09,1.07,-0.10,-0.81,0.07,1.42,0.56,-0.30,0.99,1005.95
17.8,0.09,1.07,-0.10,-0.54,0.91,0.30,0.56,-0.30,0.99,1005.95
17.82,0.11,1.00,-0.12,-0.54,0.91,0.30,0.56,-0.30,0.99,1005.95
17.822,0.18,0.94,-0.15,-0.54,0.91,0.30,0.56,-0.30,0.99,1005.95
17.823,0.24,0.89,-0.13,-0.54,0.91,0.30,0.56,-0.30,0.99,1005.95
17.858,0.24,0.89,-0.13,-0.54,0.91,0.30,0.39,-0.33,0.85,1005.95
17.859,0.24,0.89,-0.13,0.12,0.13,-0.08,0.39,-0.33,0.85,1005.95
17.864,0.24,0.89,-0.13,0.12,0.13,-0.08,0.39,-0.33,0.85,1005.95
17.878,0.23,0.94,-0.11,0.12,0.13,-0.08,0.39,-0.33,0.85,1005.95
17.878,0.20,0.98,-0.13,0.12,0.13,-0.08,0.39,-0.33,0.85,1005.95
17.879,0.15,1.00,-0.13,0.12,0.13,-0.08,0.39,-0.33,0.85,1005.95
17.904,0.15,1.00,-0.13,0.12,0.13,-0.08,0.39,-0.33,0.85,1005.95
17.942,0.15,1.00,-0.13,0.12,0.13,-0.08,0.28,-0.45,0.78,1005.95
17.943,0.15,1.00,-0.13,-0.08,0.53,0.19,0.28,-0.45,0.78,1005.95
17.943,0.17,0.96,-0.13,-0.08,0.53,0.19,0.28,-0.45,0.78,1005.95
17.944,0.25,0.94,-0.09,-0.08,0.53,0.19,0.28,-0.45,0.78,1005.95
17.944,0.22,0.99,-0.01,-0.08,0.53,0.19,0.28,-0.45,0.78,1005.95
17.976,0.22,0.99,-0.01,-0.08,0.53,0.19,0.33,-0.75,0.86,1005.95
17.977,0.22,0.99,-0.01,-0.27,0.55,0.87,0.33,-0.75,0.86,1005.95
17.983,0.22,0.99,-0.01,-0.27,0.55,0.87,0.33,-0.75,0.86,1005.94
17.995,0.17,0.99,0.01,-0.27,0.55,0.87,0.33,-0.75,0.86,1005.94
17.996,0.15,1.00,-0.02,-0.27,0.55,0.87,0.33,-0.75,0.86,1005.94
17.996,0.13,1.00,-0.01,-0.27,0.55,0.87,0.33,-0.75,0.86,1005.94
18.035,0.13,1.00,-0.01,-0.27,0.55,0.87,0.50,-1.49,1.33,1005.94
18.036,0.13,1.00,-0.01,-1.39,1.11,2.02,0.50,-1.49,1.33,1005.94
18.059,0.12,1.06,0.06,-1.39,1.11,2.02,0.50,-1.49,1.33,1005.94
18.06,0.07,1.27,0.15,-1.39,1.11,2.02,0.50,-1.49,1.33,1005.94
18.061,-0.02,1.54,0.18,-1.39,1.11,2.02,0.50,-1.49,1.33,1005.94
18.069,-0.02,1.54,0.18,-1.39,1.11,2.02,0.50,-1.49,1.33,1005.93
18.093,-0.02,1.54,0.18,-1.39,1.11,2.02,0.33,-2.93,2.39,1005.93
18.094,-0.02,1.54,0.18,-2.99,4.42,4.03,0.33,-2.93,2.39,1005.93
18.104,-0.02,1.54,0.18,-2.99,4.42,4.03,0.33,-2.93,2.39,1005.93
18.111,-0.10,1.79,0.05,-2.99,4.42,4.03,0.33,-2.93,2.39,1005.93
18.112,-0.14,1.70,-0.27,-2.99,4.42,4.03,0.33,-2.93,2.39,1005.93
18.112,0.05,1.36,-0.42,-2.99,4.42,4.03,0.33,-2.93,2.39,1005.93
18.149,0.05,1.36,-0.42,-2.99,4.42,4.03,-0.69,-5.26,3.67,1005.93
18.15,0.05,1.36,-0.42,-4.78,8.21,1.51,-0.69,-5.26,3.67,1005.93
18.169,0.43,1.02,-0.36,-4.78,8.21,1.51,-0.69,-5.26,3.67,1005.93
18.171,0.71,0.78,-0.53,-4.78,8.21,1.51,-0.69,-5.26,3.67,1005.93
18.171,0.76,0.63,-0.69,-4.78,8.21,1.51,-0.69,-5.26,3.67,1005.93
18.184,0.76,0.63,-0.69,-4.78,8.21,1.51,-0.69,-5.26,3.67,1005.94
18.208,0.76,0.63,-0.69,-4.78,8.21,1.51,-2.37,-4.74,3.47,1005.94
18.209,0.76,0.63,-0.69,1.53,0.70,-1.34,-2.37,-4.74,3.47,1005.94
18.228,0.65,0.54,-0.81,1.53,0.70,-1.34,-2.37,-4.74,3.47,1005.94
18.229,0.20,0.42,-0.77,1.53,0.70,-1.34,-2.37,-4.74,3.47,1005.94
18.23,-0.21,0.29,-0.85,1.53,0.70,-1.34,-2.37,-4.74,3.47,1005.94
18.265,-0.21,0.29,-0.85,1.53,0.70,-1.34,-2.37,-4.74,3.47,1005.92
18.267,-0.21,0.29,-0.85,1.53,0.70,-1.34,-3.24,-3.65,2.33,1005.92
18.268,-0.21,0.29,-0.85,-2.73,-3.21,-4.38,-3.24,-3.65,2.33,1005.92
18.287,-0.38,0.32,-0.99,-2.73,-3.21,-4.38,-3.24,-3.65,2.33,1005.92
18.288,-0.28,0.38,-0.98,-2.73,-3.21,-4.38,-3.24,-3.65,2.33,1005.92
18.289,-0.20,0.40,-0.85,-2.73,-3.21,-4.38,-3.24,-3.65,2.33,1005.92
18.304,-0.20,0.40,-0.85,-2.73,-3.21,-4.38,-3.24,-3.65,2.33,1005.89
18.325,-0.20,0.40,-0.85,-2.73,-3.21,-4.38,-3.26,-3.59,1.16,1005.89
18.326,-0.20,0.40,-0.85,-7.30,-3.92,-5.97,-3.26,-3.59,1.16,1005.89
18.354,-0.26,0.40,-0.82,-7.30,-3.92,-5.97,-3.26,-3.59,1.16,1005.89
18.355,-0.35,0.43,-0.82,-7.30,-3.92,-5.97,-3.26,-3.59,1.16,1005.89
18.355,-0.41,0.49,-0.83,-7.30,-3.92,-5.97,-3.26,-3.59,1.16,1005.89
18.388,-0.41,0.49,-0.83,-7.30,-3.92,-5.97,-2.55,-4.72,-0.50,1005.89
18.389,-0.41,0.49,-0.83,-6.56,-3.74,-4.80,-2.55,-4.72,-0.50,1005.89
18.389,-0.41,0.49,-0.83,-6.56,-3.74,-4.80,-2.55,-4.72,-0.50,1005.90
18.403,-0.38,0.60,-0.86,-6.56,-3.74,-4.80,-2.55,-4.72,-0.50,1005.90
18.405,-0.26,0.72,-0.82,-6.56,-3.74,-4.80,-2.55,-4.72,-0.50,1005.90
18.406,-0.13,0.84,-0.72,-6.56,-3.74,-4.80,-2.55,-4.72,-0.50,1005.90
18.443,-0.13,0.84,-0.72,-4.15,-1.61,-4.95,-2.55,-4.72,-0.50,1005.90
18.444,-0.13,0.84,-0.72,-4.15,-1.61,-4.95,-2.28,-4.48,-1.61,1005.90
18.461,-0.07,0.91,-0.60,-4.15,-1.61,-4.95,-2.28,-4.48,-1.61,1005.90
18.462,-0.04,0.99,-0.54,-4.15,-1.61,-4.95,-2.28,-4.48,-1.61,1005.90
18.462,-0.01,1.13,-0.53,-4.15,-1.61,-4.95,-2.28,-4.48,-1.61,1005.90
18.464,-0.01,1.13,-0.53,-4.15,-1.61,-4.95,-2.28,-4.48,-1.61,1005.92
18.501,-0.01,1.13,-0.53,-4.15,-1.61,-4.95,-2.36,-3.95,-2.12,1005.92
18.502,-0.01,1.13,-0.53,-0.31,0.81,-3.56,-2.36,-3.95,-2.12,1005.92
18.504,-0.01,1.13,-0.53,-0.31,0.81,-3.56,-2.36,-3.95,-2.12,1005.94
18.519,-0.02,1.29,-0.44,-0.31,0.81,-3.56,-2.36,-3.95,-2.12,1005.94
18.52,-0.03,1.30,-0.41,-0.31,0.81,-3.56,-2.36,-3.95,-2.12,1005.94
18.521,0.08,1.18,-0.41,-0.31,0.81,-3.56,-2.36,-3.95,-2.12,1005.94
18.558,0.08,1.18,-0.41,-0.31,0.81,-3.56,-1.80,-3.85,-1.43,1005.94
18.559,0.08,1.18,-0.41,1.23,3.10,-3.25,-1.80,-3.85,-1.43,1005.94
18.578,0.25,1.09,-0.38,1.23,3.10,-3.25,-1.80,-3.85,-1.43,1005.94
18.579,0.40,1.07,-0.35,1.23,3.10,-3.25,-1.80,-3.85,-1.43,1005.94
18.579,0.52,0.97,-0.32,1.23,3.10,-3.25,-1.80,-3.85,-1.43,1005.94
18.585,0.52,0.97,-0.32,1.23,3.10,-3.25,-1.80,-3.85,-1.43,1005.93
18.626,0.52,0.97,-0.32,1.23,3.10,-3.25,-0.88,-3.32,-0.24,1005.93
18.628,0.52,0.97,-0.32,5.07,0.96,-3.24,-0.88,-3.32,-0.24,1005.93
18.628,0.52,0.97,-0.32,5.07,0.96,-3.24,-0.88,-3.32,-0.24,1005.92
18.661,0.53,0.82,-0.31,5.07,0.96,-3.24,-0.88,-3.32,-0.24,1005.92
18.662,0.59,0.71,-0.39,5.07,0.96,-3.24,-0.88,-3.32,-0.24,1005.92
18.663,0.71,0.64,-0.49,5.07,0.96,-3.24,-0.88,-3.32,-0.24,1005.92
18.675,0.71,0.64,-0.49,5.07,0.96,-3.24,-0.25,-1.12,0.99,1005.92
18.675,0.71,0.64,-0.49,6.59,-2.18,-3.84,-0.25,-1.12,0.99,1005.92
18.695,0.88,0.77,-0.54,6.59,-2.18,-3.84,-0.25,-1.12,0.99,1005.92
18.696,0.36,1.38,0.36,6.59,-2.18,-3.84,-0.25,-1.12,0.99,1005.92
18.696,-0.65,2.24,1.26,6.59,-2.18,-3.84,-0.25,-1.12,0.99,1005.92
18.705,-0.65,2.24,1.26,6.59,-2.18,-3.84,-0.25,-1.12,0.99,1005.92
18.734,-0.65,2.24,1.26,6.59,-2.18,-3.84,0.27,1.52,0.78,1005.92
18.735,-0.65,2.24,1.26,2.05,4.98,3.68,0.27,1.52,0.78,1005.92
18.761,-0.62,1.45,-0.19,2.05,4.98,3.68,0.27,1.52,0.78,1005.92
18.762,-0.54,0.72,-0.55,2.05,4.98,3.68,0.27,1.52,0.78,1005.92
18.762,0.03,0.68,-0.14,2.05,4.98,3.68,0.27,1.52,0.78,1005.92
18.784,0.03,0.68,-0.14,2.05,4.98,3.68,0.27,1.52,0.78,1005.92
18.792,0.03,0.68,-0.14,2.05,4.98,3.68,-0.05,-0.62,1.58,1005.92
18.792,0.03,0.68,-0.14,-4.33,-0.06,-2.71,-0.05,-0.62,1.58,1005.92
