time,gFx,gFy,gFz,ax,ay,az,wx,wy,wz,P
0.004,0.12,0.94,0.41,0.05,0.03,-0.37,-0.03,0.12,-0.00,1005.94
0.022,0.20,0.96,0.17,0.05,0.03,-0.37,-0.03,0.12,-0.00,1005.94
0.023,0.22,0.96,0.29,0.05,0.03,-0.37,-0.03,0.12,-0.00,1005.94
0.023,0.20,0.96,0.25,0.05,0.03,-0.37,-0.03,0.12,-0.00,1005.94
0.024,0.20,0.96,0.25,-0.09,-0.06,0.49,-0.03,0.12,-0.00,1005.94
0.024,0.20,0.96,0.25,-0.09,-0.06,0.49,0.07,-0.11,-0.02,1005.94
0.046,0.20,0.96,0.25,-0.09,-0.06,0.49,0.07,-0.11,-0.02,1005.95
0.081,0.18,0.97,0.28,-0.09,-0.06,0.49,0.07,-0.11,-0.02,1005.95
0.082,0.15,0.95,0.27,-0.09,-0.06,0.49,0.07,-0.11,-0.02,1005.95
0.082,0.15,0.93,0.25,-0.09,-0.06,0.49,0.07,-0.11,-0.02,1005.95
0.082,0.15,0.93,0.25,-0.09,-0.06,0.49,0.03,0.00,-0.03,1005.95
0.083,0.15,0.93,0.25,0.22,0.04,0.05,0.03,0.00,-0.03,1005.95
0.125,0.15,0.93,0.25,0.22,0.04,0.05,0.03,0.00,-0.03,1005.94
0.139,0.17,0.95,0.26,0.22,0.04,0.05,0.03,0.00,-0.03,1005.94
0.139,0.20,0.97,0.25,0.22,0.04,0.05,0.03,0.00,-0.03,1005.94
0.14,0.21,0.98,0.24,0.22,0.04,0.05,0.03,0.00,-0.03,1005.94
0.14,0.21,0.98,0.24,0.22,0.04,0.05,-0.02,0.03,0.00,1005.94
0.14,0.21,0.98,0.24,-0.17,-0.12,-0.10,-0.02,0.03,0.00,1005.94
0.198,0.20,0.98,0.27,-0.17,-0.12,-0.10,-0.02,0.03,0.00,1005.94
0.199,0.18,0.98,0.29,-0.17,-0.12,-0.10,-0.02,0.03,0.00,1005.94
0.199,0.16,0.95,0.30,-0.17,-0.12,-0.10,-0.02,0.03,0.00,1005.94
0.199,0.16,0.95,0.30,-0.17,-0.12,-0.10,-0.02,0.07,-0.03,1005.94
0.199,0.16,0.95,0.30,0.30,0.19,-0.16,-0.02,0.07,-0.03,1005.94
0.203,0.16,0.95,0.30,0.30,0.19,-0.16,-0.02,0.07,-0.03,1005.94
0.243,0.16,0.95,0.30,0.30,0.19,-0.16,-0.02,0.07,-0.03,1005.94
0.256,0.15,0.93,0.29,0.30,0.19,-0.16,-0.02,0.07,-0.03,1005.94
0.256,0.15,0.94,0.27,0.30,0.19,-0.16,-0.02,0.07,-0.03,1005.94
0.256,0.17,0.96,0.27,0.30,0.19,-0.16,-0.02,0.07,-0.03,1005.94
0.257,0.17,0.96,0.27,0.30,0.19,-0.16,0.01,0.08,-0.02,1005.94
0.257,0.17,0.96,0.27,-0.10,-0.07,0.22,0.01,0.08,-0.02,1005.94
0.314,0.17,0.97,0.27,-0.10,-0.07,0.22,0.01,0.08,-0.02,1005.94
0.315,0.16,0.97,0.26,-0.10,-0.07,0.22,0.01,0.08,-0.02,1005.94
0.315,0.15,0.97,0.26,-0.10,-0.07,0.22,0.01,0.08,-0.02,1005.94
0.315,0.15,0.97,0.26,-0.10,-0.07,0.22,-0.01,0.09,-0.00,1005.94
0.315,0.15,0.97,0.26,-0.05,-0.04,-0.04,-0.01,0.09,-0.00,1005.94
0.323,0.15,0.97,0.26,-0.05,-0.04,-0.04,-0.01,0.09,-0.00,1005.93
0.372,0.15,0.97,0.27,-0.05,-0.04,-0.04,-0.01,0.09,-0.00,1005.93
0.374,0.16,0.97,0.30,-0.05,-0.04,-0.04,-0.01,0.09,-0.00,1005.93
0.374,0.17,0.97,0.31,-0.05,-0.04,-0.04,-0.01,0.09,-0.00,1005.93
0.374,0.17,0.97,0.31,-0.05,-0.04,-0.04,-0.01,-0.00,0.05,1005.93
0.374,0.17,0.97,0.31,-0.17,0.13,-0.09,-0.01,-0.00,0.05,1005.93
0.403,0.17,0.97,0.31,-0.17,0.13,-0.09,-0.01,-0.00,0.05,1005.93
0.431,0.19,1.01,0.32,-0.17,0.13,-0.09,-0.01,-0.00,0.05,1005.93
0.431,0.21,1.05,0.34,-0.17,0.13,-0.09,-0.01,-0.00,0.05,1005.93
0.431,0.24,1.07,0.30,-0.17,0.13,-0.09,-0.01,-0.00,0.05,1005.93
0.432,0.24,1.07,0.30,-0.17,0.13,-0.09,0.08,0.12,0.17,1005.93
0.432,0.24,1.07,0.30,-0.05,0.24,0.38,0.08,0.12,0.17,1005.93
0.443,0.24,1.07,0.30,-0.05,0.24,0.38,0.08,0.12,0.17,1005.93
0.49,0.25,1.12,0.28,-0.05,0.24,0.38,0.08,0.12,0.17,1005.93
0.492,0.23,1.27,0.36,-0.05,0.24,0.38,0.08,0.12,0.17,1005.93
0.492,0.22,1.37,0.48,-0.05,0.24,0.38,0.08,0.12,0.17,1005.93
0.493,0.22,1.37,0.48,-0.05,0.24,0.38,-0.20,0.16,0.38,1005.93
0.494,0.22,1.37,0.48,0.32,1.23,0.24,-0.20,0.16,0.38,1005.93
0.524,0.22,1.37,0.48,0.32,1.23,0.24,-0.20,0.16,0.38,1005.91
0.549,0.34,1.32,0.33,0.32,1.23,0.24,-0.20,0.16,0.38,1005.91
0.549,0.32,1.18,0.28,0.32,1.23,0.24,-0.20,0.16,0.38,1005.91
0.55,0.05,1.06,0.35,0.32,1.23,0.24,-0.20,0.16,0.38,1005.91
0.55,0.05,1.06,0.35,0.32,1.23,0.24,-0.25,-0.05,0.64,1005.91
0.551,0.05,1.06,0.35,0.26,3.54,0.87,-0.25,-0.05,0.64,1005.91
0.604,0.05,1.06,0.35,0.26,3.54,0.87,-0.25,-0.05,0.64,1005.91
0.606,-0.29,0.99,0.15,0.26,3.54,0.87,-0.25,-0.05,0.64,1005.91
0.607,-0.60,1.14,-0.16,0.26,3.54,0.87,-0.25,-0.05,0.64,1005.91
0.608,-0.42,1.25,-0.26,0.26,3.54,0.87,-0.25,-0.05,0.64,1005.91
0.609,-0.42,1.25,-0.26,0.26,3.54,0.87,0.81,-0.31,-1.05,1005.91
0.61,-0.42,1.25,-0.26,-1.49,0.86,0.09,0.81,-0.31,-1.05,1005.91
0.645,-0.42,1.25,-0.26,-1.49,0.86,0.09,0.81,-0.31,-1.05,1005.90
0.665,-0.05,0.98,-0.03,-1.49,0.86,0.09,0.81,-0.31,-1.05,1005.90
0.667,-0.04,0.92,0.18,-1.49,0.86,0.09,0.81,-0.31,-1.05,1005.90
0.668,-0.07,0.96,0.07,-1.49,0.86,0.09,0.81,-0.31,-1.05,1005.90
0.668,-0.07,0.96,0.07,-1.49,0.86,0.09,0.49,-1.27,-1.58,1005.90
0.668,-0.07,0.96,0.07,-4.29,1.05,-3.43,0.49,-1.27,-1.58,1005.90
0.723,-0.08,0.99,0.04,-4.29,1.05,-3.43,0.49,-1.27,-1.58,1005.90
0.724,0.04,0.99,-0.05,-4.29,1.05,-3.43,0.49,-1.27,-1.58,1005.90
0.724,0.26,0.91,0.03,-4.29,1.05,-3.43,0.49,-1.27,-1.58,1005.90
0.725,0.26,0.91,0.03,-4.29,1.05,-3.43,0.74,-1.53,-2.08,1005.90
0.725,0.26,0.91,0.03,-4.29,1.05,-3.43,0.74,-1.53,-2.08,1005.89
0.725,0.26,0.91,0.03,-0.34,-0.67,-0.54,0.74,-1.53,-2.08,1005.89
0.781,0.30,0.81,0.22,-0.34,-0.67,-0.54,0.74,-1.53,-2.08,1005.89
0.782,0.26,0.78,0.17,-0.34,-0.67,-0.54,0.74,-1.53,-2.08,1005.89
0.782,0.24,0.77,0.16,-0.34,-0.67,-0.54,0.74,-1.53,-2.08,1005.89
0.783,0.24,0.77,0.16,-0.34,-0.67,-0.54,0.39,0.51,-1.95,1005.89
0.783,0.24,0.77,0.16,3.28,-1.09,-0.55,0.39,0.51,-1.95,1005.89
0.804,0.24,0.77,0.16,3.28,-1.09,-0.55,0.39,0.51,-1.95,1005.92
0.84,0.20,0.79,0.10,3.28,-1.09,-0.55,0.39,0.51,-1.95,1005.92
0.842,0.11,0.83,0.09,3.28,-1.09,-0.55,0.39,0.51,-1.95,1005.92
0.843,0.08,0.89,0.11,3.28,-1.09,-0.55,0.39,0.51,-1.95,1005.92
0.844,0.08,0.89,0.11,4.40,-2.08,0.68,0.39,0.51,-1.95,1005.92
0.845,0.08,0.89,0.11,4.40,-2.08,0.68,0.61,1.37,-1.54,1005.92
0.846,0.08,0.89,0.11,4.40,-2.08,0.68,0.61,1.37,-1.54,1005.95
0.899,0.11,0.88,0.18,4.40,-2.08,0.68,0.61,1.37,-1.54,1005.95
0.9,0.11,0.85,0.27,4.40,-2.08,0.68,0.61,1.37,-1.54,1005.95
0.901,0.08,0.86,0.31,4.40,-2.08,0.68,0.61,1.37,-1.54,1005.95
0.901,0.08,0.86,0.31,4.40,-2.08,0.68,0.19,0.10,-0.51,1005.95
0.902,0.08,0.86,0.31,3.31,-1.13,0.60,0.19,0.10,-0.51,1005.95
0.926,0.08,0.86,0.31,3.31,-1.13,0.60,0.19,0.10,-0.51,1005.93
0.957,0.01,0.91,0.36,3.31,-1.13,0.60,0.19,0.10,-0.51,1005.93
0.958,-0.05,0.97,0.36,3.31,-1.13,0.60,0.19,0.10,-0.51,1005.93
0.958,-0.11,1.01,0.34,3.31,-1.13,0.60,0.19,0.10,-0.51,1005.93
0.959,-0.11,1.01,0.34,2.88,-1.04,2.34,0.19,0.10,-0.51,1005.93
0.959,-0.11,1.01,0.34,2.88,-1.04,2.34,-0.04,0.04,-0.02,1005.93
1.004,-0.11,1.01,0.34,2.88,-1.04,2.34,-0.04,0.04,-0.02,1005.91
1.017,-0.18,0.98,0.32,2.88,-1.04,2.34,-0.04,0.04,-0.02,1005.91
1.019,-0.43,0.88,0.19,2.88,-1.04,2.34,-0.04,0.04,-0.02,1005.91
1.02,-0.81,0.89,-0.18,2.88,-1.04,2.34,-0.04,0.04,-0.02,1005.91
1.021,-0.81,0.89,-0.18,2.88,-1.04,2.34,0.44,1.70,-0.25,1005.91
1.022,-0.81,0.89,-0.18,1.24,0.11,2.98,0.44,1.70,-0.25,1005.91
1.044,-0.81,0.89,-0.18,1.24,0.11,2.98,0.44,1.70,-0.25,1005.92
1.073,-1.14,0.99,-0.34,1.24,0.11,2.98,0.44,1.70,-0.25,1005.92
1.075,-1.01,0.94,0.07,1.24,0.11,2.98,0.44,1.70,-0.25,1005.92
1.076,-0.51,0.96,-0.01,1.24,0.11,2.98,0.44,1.70,-0.25,1005.92
1.077,-0.51,0.96,-0.01,1.24,0.11,2.98,0.74,0.33,-1.47,1005.92
1.077,-0.51,0.96,-0.01,-4.46,-0.31,-0.94,0.74,0.33,-1.47,1005.92
1.125,-0.51,0.96,-0.01,-4.46,-0.31,-0.94,0.74,0.33,-1.47,1005.92
1.133,0.04,1.06,-0.12,-4.46,-0.31,-0.94,0.74,0.33,-1.47,1005.92
1.135,-0.07,0.87,-0.04,-4.46,-0.31,-0.94,0.74,0.33,-1.47,1005.92
1.136,-0.31,0.87,-0.04,-4.46,-0.31,-0.94,0.74,0.33,-1.47,1005.92
1.138,-0.31,0.87,-0.04,-4.46,-0.31,-0.94,0.58,-0.70,-1.25,1005.92
1.139,-0.31,0.87,-0.04,-0.80,0.60,0.08,0.58,-0.70,-1.25,1005.92
1.191,-0.28,0.95,-0.06,-0.80,0.60,0.08,0.58,-0.70,-1.25,1005.92
1.194,-0.22,0.94,-0.02,-0.80,0.60,0.08,0.58,-0.70,-1.25,1005.92
1.195,-0.11,0.90,0.02,-0.80,0.60,0.08,0.58,-0.70,-1.25,1005.92
1.197,-0.11,0.90,0.02,-0.80,0.60,0.08,0.52,-0.09,-0.89,1005.92
1.198,-0.11,0.90,0.02,2.29,-0.05,0.06,0.52,-0.09,-0.89,1005.92
1.204,-0.11,0.90,0.02,2.29,-0.05,0.06,0.52,-0.09,-0.89,1005.91
1.244,-0.11,0.90,0.02,2.29,-0.05,0.06,0.52,-0.09,-0.89,1005.91
1.256,-0.11,0.90,0.02,3.00,0.12,0.46,0.52,-0.09,-0.89,1005.91
1.257,-0.04,0.92,-0.03,3.00,0.12,0.46,0.52,-0.09,-0.89,1005.91
1.258,-0.09,0.95,-0.02,3.00,0.12,0.46,0.52,-0.09,-0.89,1005.91
1.259,-0.21,0.89,0.04,3.00,0.12,0.46,0.52,-0.09,-0.89,1005.91
1.259,-0.21,0.89,0.04,3.00,0.12,0.46,0.10,0.04,0.18,1005.91
1.307,-0.48,0.79,0.06,3.00,0.12,0.46,0.10,0.04,0.18,1005.91
1.309,-0.56,0.94,-0.12,3.00,0.12,0.46,0.10,0.04,0.18,1005.91
1.31,-0.23,1.04,-0.15,3.00,0.12,0.46,0.10,0.04,0.18,1005.91
1.311,-0.23,1.04,-0.15,3.00,0.12,0.46,-0.04,0.23,0.64,1005.91
1.312,-0.23,1.04,-0.15,1.32,-0.41,0.85,-0.04,0.23,0.64,1005.91
1.326,-0.23,1.04,-0.15,1.32,-0.41,0.85,-0.04,0.23,0.64,1005.91
1.365,-0.08,0.92,0.07,1.32,-0.41,0.85,-0.04,0.23,0.64,1005.91
1.366,-0.31,0.97,0.08,1.32,-0.41,0.85,-0.04,0.23,0.64,1005.91
1.367,-0.19,1.08,-0.12,1.32,-0.41,0.85,-0.04,0.23,0.64,1005.91
1.368,-0.19,1.08,-0.12,1.32,-0.41,0.85,-0.08,-0.28,1.31,1005.91
1.368,-0.19,1.08,-0.12,0.32,0.20,-0.14,-0.08,-0.28,1.31,1005.91
1.405,-0.19,1.08,-0.12,0.32,0.20,-0.14,-0.08,-0.28,1.31,1005.91
1.424,-0.03,0.93,-0.03,0.32,0.20,-0.14,-0.08,-0.28,1.31,1005.91
1.426,-0.21,0.84,0.09,0.32,0.20,-0.14,-0.08,-0.28,1.31,1005.91
1.427,-0.24,0.89,-0.02,0.32,0.20,-0.14,-0.08,-0.28,1.31,1005.91
1.428,-0.24,0.89,-0.02,0.32,0.20,-0.14,-0.03,-0.13,1.67,1005.91
1.429,-0.24,0.89,-0.02,0.48,0.17,0.24,-0.03,-0.13,1.67,1005.91
1.445,-0.24,0.89,-0.02,0.48,0.17,0.24,-0.03,-0.13,1.67,1005.91
1.481,-0.21,0.93,-0.08,0.48,0.17,0.24,-0.03,-0.13,1.67,1005.91
1.482,-0.11,0.92,-0.10,0.48,0.17,0.24,-0.03,-0.13,1.67,1005.91
1.484,-0.06,0.86,-0.05,0.48,0.17,0.24,-0.03,-0.13,1.67,1005.91
1.485,-0.06,0.86,-0.05,0.48,0.17,0.24,0.21,-0.95,2.04,1005.91
1.486,-0.06,0.86,-0.05,-1.01,-1.06,0.46,0.21,-0.95,2.04,1005.91
1.525,-0.06,0.86,-0.05,-1.01,-1.06,0.46,0.21,-0.95,2.04,1005.92
1.54,-0.12,0.80,0.00,-1.01,-1.06,0.46,0.21,-0.95,2.04,1005.92
1.542,-0.27,0.81,-0.01,-1.01,-1.06,0.46,0.21,-0.95,2.04,1005.92
1.544,-0.42,1.08,-0.12,-1.01,-1.06,0.46,0.21,-0.95,2.04,1005.92
1.544,-0.42,1.08,-0.12,-1.01,-1.06,0.46,0.40,-1.29,2.16,1005.92
1.545,-0.42,1.08,-0.12,-0.98,-1.33,0.16,0.40,-1.29,2.16,1005.92
1.598,-0.97,1.52,-0.06,-0.98,-1.33,0.16,0.40,-1.29,2.16,1005.92
1.6,-1.26,2.57,-0.93,-0.98,-1.33,0.16,0.40,-1.29,2.16,1005.92
1.601,0.35,1.44,0.39,-0.98,-1.33,0.16,0.40,-1.29,2.16,1005.92
1.601,0.35,1.44,0.39,-5.37,1.39,0.05,0.40,-1.29,2.16,1005.92
1.602,0.35,1.44,0.39,-5.37,1.39,0.05,-0.00,0.17,0.09,1005.92
1.607,0.35,1.44,0.39,-5.37,1.39,0.05,-0.00,0.17,0.09,1005.92
1.646,0.35,1.44,0.39,-5.37,1.39,0.05,-0.00,0.17,0.09,1005.94
1.657,1.22,0.22,0.46,-5.37,1.39,0.05,-0.00,0.17,0.09,1005.94
1.658,0.36,0.24,-0.46,-5.37,1.39,0.05,-0.00,0.17,0.09,1005.94
1.659,-0.12,0.79,-0.14,-5.37,1.39,0.05,-0.00,0.17,0.09,1005.94
1.66,-0.12,0.79,-0.14,-5.37,1.39,0.05,0.44,1.16,0.12,1005.94
1.661,-0.12,0.79,-0.14,0.92,3.94,0.63,0.44,1.16,0.12,1005.94
1.716,-0.12,0.79,-0.14,0.87,-2.34,-1.19,0.44,1.16,0.12,1005.94
1.719,-0.06,1.26,-0.04,0.87,-2.34,-1.19,0.44,1.16,0.12,1005.94
1.72,-0.11,1.42,-0.05,0.87,-2.34,-1.19,0.44,1.16,0.12,1005.94
1.721,-0.05,1.18,0.04,0.87,-2.34,-1.19,0.44,1.16,0.12,1005.94
1.722,-0.05,1.18,0.04,0.87,-2.34,-1.19,-0.06,-0.56,-0.66,1005.94
1.724,-0.05,1.18,0.04,0.87,-2.34,-1.19,-0.06,-0.56,-0.66,1005.93
1.773,-0.02,0.95,0.02,0.87,-2.34,-1.19,-0.06,-0.56,-0.66,1005.93
1.775,0.13,0.86,0.17,0.87,-2.34,-1.19,-0.06,-0.56,-0.66,1005.93
1.776,0.23,0.88,0.10,0.87,-2.34,-1.19,-0.06,-0.56,-0.66,1005.93
1.777,0.23,0.88,0.10,0.87,-2.34,-1.19,0.10,-0.58,-0.77,1005.93
1.777,0.23,0.88,0.10,0.16,1.79,0.94,0.10,-0.58,-0.77,1005.93
1.805,0.23,0.88,0.10,0.16,1.79,0.94,0.10,-0.58,-0.77,1005.92
1.831,0.03,0.96,-0.14,0.16,1.79,0.94,0.10,-0.58,-0.77,1005.92
1.832,-0.36,1.02,-0.24,0.16,1.79,0.94,0.10,-0.58,-0.77,1005.92
1.833,-0.45,1.01,-0.16,0.16,1.79,0.94,0.10,-0.58,-0.77,1005.92
1.834,-0.45,1.01,-0.16,0.16,1.79,0.94,0.73,0.75,-0.99,1005.92
1.835,-0.45,1.01,-0.16,2.46,-0.86,1.72,0.73,0.75,-0.99,1005.92
1.844,-0.45,1.01,-0.16,2.46,-0.86,1.72,0.73,0.75,-0.99,1005.95
1.89,-0.39,0.93,-0.15,2.46,-0.86,1.72,0.73,0.75,-0.99,1005.95
1.892,-0.22,0.96,-0.26,2.46,-0.86,1.72,0.73,0.75,-0.99,1005.95
1.892,-0.09,1.00,-0.23,2.46,-0.86,1.72,0.73,0.75,-0.99,1005.95
1.893,-0.09,1.00,-0.23,2.46,-0.86,1.72,0.69,-0.30,-0.52,1005.95
1.894,-0.09,1.00,-0.23,-2.37,0.09,-0.11,0.69,-0.30,-0.52,1005.95
1.925,-0.09,1.00,-0.23,-2.37,0.09,-0.11,0.69,-0.30,-0.52,1005.94
1.955,-0.11,0.99,-0.18,-2.37,0.09,-0.11,0.69,-0.30,-0.52,1005.94
1.956,-0.17,0.93,-0.16,-2.37,0.09,-0.11,0.69,-0.30,-0.52,1005.94
1.957,-0.24,0.94,-0.20,-2.37,0.09,-0.11,0.69,-0.30,-0.52,1005.94
1.957,-0.24,0.94,-0.20,-2.37,0.09,-0.11,0.70,-0.06,-0.51,1005.94
1.958,-0.24,0.94,-0.20,0.49,0.17,-0.12,0.70,-0.06,-0.51,1005.94
2.004,-0.24,0.94,-0.20,0.49,0.17,-0.12,0.70,-0.06,-0.51,1005.93
2.006,-0.24,0.96,-0.32,0.49,0.17,-0.12,0.70,-0.06,-0.51,1005.93
2.006,-0.31,0.96,-0.35,0.49,0.17,-0.12,0.70,-0.06,-0.51,1005.93
2.007,-0.46,0.93,-0.34,0.49,0.17,-0.12,0.70,-0.06,-0.51,1005.93
2.008,-0.46,0.93,-0.34,0.49,0.17,-0.12,0.71,0.38,-0.40,1005.93
2.008,-0.46,0.93,-0.34,-0.09,-0.11,0.28,0.71,0.38,-0.40,1005.93
2.045,-0.46,0.93,-0.34,-0.09,-0.11,0.28,0.71,0.38,-0.40,1005.93
2.075,-0.50,0.94,-0.36,-0.09,-0.11,0.28,0.71,0.38,-0.40,1005.93
2.077,-0.37,0.93,-0.35,-0.09,-0.11,0.28,0.71,0.38,-0.40,1005.93
2.078,-0.19,0.98,-0.32,-0.09,-0.11,0.28,0.71,0.38,-0.40,1005.93
2.078,-0.19,0.98,-0.32,-0.09,-0.11,0.28,0.46,-0.27,0.04,1005.93
2.08,-0.19,0.98,-0.32,-2.04,-0.04,-0.70,0.46,-0.27,0.04,1005.93
2.123,-0.18,0.99,-0.23,-2.04,-0.04,-0.70,0.46,-0.27,0.04,1005.93
2.125,-0.34,0.93,-0.27,-2.04,-0.04,-0.70,0.46,-0.27,0.04,1005.93
2.126,-0.32,0.92,-0.30,-2.04,-0.04,-0.70,0.46,-0.27,0.04,1005.93
2.127,-0.32,0.92,-0.30,-0.44,0.24,0.04,0.46,-0.27,0.04,1005.93
2.128,-0.32,0.92,-0.30,-0.44,0.24,0.04,0.45,0.01,0.24,1005.93
2.129,-0.32,0.92,-0.30,-0.44,0.24,0.04,0.45,0.01,0.24,1005.92
2.183,-0.29,0.95,-0.26,-0.44,0.24,0.04,0.45,0.01,0.24,1005.92
2.186,-0.25,1.02,-0.27,-0.44,0.24,0.04,0.45,0.01,0.24,1005.92
2.187,-0.17,0.98,-0.44,-0.44,0.24,0.04,0.45,0.01,0.24,1005.92
2.188,-0.17,0.98,-0.44,-1.40,-0.05,0.52,0.45,0.01,0.24,1005.92
2.189,-0.17,0.98,-0.44,-1.40,-0.05,0.52,0.52,-0.15,0.63,1005.92
2.205,-0.17,0.98,-0.44,-1.40,-0.05,0.52,0.52,-0.15,0.63,1005.93
2.24,-0.05,0.96,-0.60,-1.40,-0.05,0.52,0.52,-0.15,0.63,1005.93
2.241,0.11,0.90,-0.35,-1.40,-0.05,0.52,0.52,-0.15,0.63,1005.93
2.242,0.12,0.99,-0.27,-1.40,-0.05,0.52,0.52,-0.15,0.63,1005.93
2.242,0.12,0.99,-0.27,-1.40,-0.05,0.52,0.49,0.16,0.69,1005.93
2.243,0.12,0.99,-0.27,-0.23,0.50,-0.72,0.49,0.16,0.69,1005.93
2.245,0.12,0.99,-0.27,-0.23,0.50,-0.72,0.49,0.16,0.69,1005.92
2.3,0.06,1.14,-0.08,-0.23,0.50,-0.72,0.49,0.16,0.69,1005.92
2.302,0.02,1.22,-0.03,-0.23,0.50,-0.72,0.49,0.16,0.69,1005.92
2.302,0.25,1.24,-0.04,-0.23,0.50,-0.72,0.49,0.16,0.69,1005.92
2.303,0.25,1.24,-0.04,-0.23,0.50,-0.72,1.07,0.73,0.30,1005.92
2.304,0.25,1.24,-0.04,1.87,0.97,1.83,1.07,0.73,0.30,1005.92
2.325,0.25,1.24,-0.04,1.87,0.97,1.83,1.07,0.73,0.30,1005.93
2.356,0.50,1.60,-0.27,1.87,0.97,1.83,1.07,0.73,0.30,1005.93
2.357,0.64,1.93,-0.19,1.87,0.97,1.83,1.07,0.73,0.30,1005.93
2.358,0.41,1.71,0.01,1.87,0.97,1.83,1.07,0.73,0.30,1005.93
2.358,0.41,1.71,0.01,1.87,0.97,1.83,2.30,-0.80,-0.45,1005.93
2.359,0.41,1.71,0.01,3.82,4.86,4.02,2.30,-0.80,-0.45,1005.93
2.405,0.41,1.71,0.01,3.82,4.86,4.02,2.30,-0.80,-0.45,1005.94
2.416,-0.19,1.45,0.53,3.82,4.86,4.02,2.30,-0.80,-0.45,1005.94
2.418,-0.77,1.27,0.62,3.82,4.86,4.02,2.30,-0.80,-0.45,1005.94
2.419,-1.22,1.19,0.24,3.82,4.86,4.02,2.30,-0.80,-0.45,1005.94
2.42,-1.22,1.19,0.24,3.82,4.86,4.02,2.77,-1.74,-0.61,1005.94
2.421,-1.22,1.19,0.24,4.88,9.05,7.27,2.77,-1.74,-0.61,1005.94
2.445,-1.22,1.19,0.24,4.88,9.05,7.27,2.77,-1.74,-0.61,1005.92
2.477,-1.22,1.19,0.24,-6.99,6.40,9.15,2.77,-1.74,-0.61,1005.92
2.48,-1.37,1.47,-0.04,-6.99,6.40,9.15,2.77,-1.74,-0.61,1005.92
2.481,-0.64,1.50,-0.39,-6.99,6.40,9.15,2.77,-1.74,-0.61,1005.92
2.482,-0.09,1.37,-0.48,-6.99,6.40,9.15,2.77,-1.74,-0.61,1005.92
2.483,-0.09,1.37,-0.48,-6.99,6.40,9.15,2.97,-3.88,-0.75,1005.92
2.523,0.14,1.08,-0.19,-6.99,6.40,9.15,2.97,-3.88,-0.75,1005.92
2.525,-0.07,0.70,0.08,-6.99,6.40,9.15,2.97,-3.88,-0.75,1005.92
2.525,-0.07,0.70,0.08,-6.99,6.40,9.15,2.97,-3.88,-0.75,1005.93
2.531,-0.07,0.70,0.08,3.15,6.75,2.57,2.97,-3.88,-0.75,1005.93
2.532,-0.07,0.70,0.08,3.15,6.75,2.57,1.12,-3.10,0.05,1005.93
2.589,-0.36,0.60,-0.10,3.15,6.75,2.57,1.12,-3.10,0.05,1005.93
2.59,-0.35,0.54,-0.22,3.15,6.75,2.57,1.12,-3.10,0.05,1005.93
2.591,-0.20,0.40,-0.20,3.15,6.75,2.57,1.12,-3.10,0.05,1005.93
2.591,-0.10,0.32,-0.22,3.15,6.75,2.57,1.12,-3.10,0.05,1005.93
2.591,-0.10,0.32,-0.22,3.15,6.75,2.57,-0.37,-2.64,2.32,1005.93
2.591,-0.10,0.32,-0.22,2.41,-0.95,4.22,-0.37,-2.64,2.32,1005.93
2.607,-0.10,0.32,-0.22,2.41,-0.95,4.22,-0.37,-2.64,2.32,1005.92
2.645,-0.10,0.32,-0.22,2.41,-0.95,4.22,-0.37,-2.64,2.32,1005.93
2.648,-0.15,0.37,-0.25,2.41,-0.95,4.22,-0.37,-2.64,2.32,1005.93
2.649,-0.18,0.46,-0.24,2.41,-0.95,4.22,-0.37,-2.64,2.32,1005.93
2.651,-0.21,0.55,-0.23,2.41,-0.95,4.22,-0.37,-2.64,2.32,1005.93
2.652,-0.21,0.55,-0.23,1.87,-4.82,1.67,-0.37,-2.64,2.32,1005.93
2.653,-0.21,0.55,-0.23,1.87,-4.82,1.67,-1.42,-1.87,4.59,1005.93
2.707,-0.25,0.66,-0.25,1.87,-4.82,1.67,-1.42,-1.87,4.59,1005.93
2.71,-0.29,0.87,-0.30,1.87,-4.82,1.67,-1.42,-1.87,4.59,1005.93
2.711,-0.30,1.14,-0.56,1.87,-4.82,1.67,-1.42,-1.87,4.59,1005.93
2.712,-0.30,1.14,-0.56,1.87,-4.82,1.67,-2.15,-0.57,5.79,1005.93
2.714,-0.30,1.14,-0.56,-1.64,-3.93,0.27,-2.15,-0.57,5.79,1005.93
2.725,-0.30,1.14,-0.56,-1.64,-3.93,0.27,-2.15,-0.57,5.79,1005.92
2.764,-0.51,1.27,-0.62,-1.64,-3.93,0.27,-2.15,-0.57,5.79,1005.92
2.765,-0.90,1.48,-0.43,-1.64,-3.93,0.27,-2.15,-0.57,5.79,1005.92
2.765,-1.03,1.44,-0.45,-1.64,-3.93,0.27,-2.15,-0.57,5.79,1005.92
2.766,-1.03,1.44,-0.45,-1.64,-3.93,0.27,-2.79,-0.02,5.54,1005.92
2.766,-1.03,1.44,-0.45,-6.04,1.34,-3.71,-2.79,-0.02,5.54,1005.92
2.804,-1.03,1.44,-0.45,-6.04,1.34,-3.71,-2.79,-0.02,5.54,1005.93
2.825,-0.99,1.10,-0.46,-6.04,1.34,-3.71,-2.79,-0.02,5.54,1005.93
2.826,-0.89,0.93,-0.24,-6.04,1.34,-3.71,-2.79,-0.02,5.54,1005.93
2.827,-1.02,0.76,-0.42,-6.04,1.34,-3.71,-2.79,-0.02,5.54,1005.93
2.828,-1.02,0.76,-0.42,-13.51,4.23,-4.04,-2.79,-0.02,5.54,1005.93
2.829,-1.02,0.76,-0.42,-13.51,4.23,-4.04,-1.98,-0.93,3.24,1005.93
2.845,-1.02,0.76,-0.42,-13.51,4.23,-4.04,-1.98,-0.93,3.24,1005.91
2.882,-1.10,0.55,-0.77,-13.51,4.23,-4.04,-1.98,-0.93,3.24,1005.91
2.888,-1.06,1.17,-1.26,-13.51,4.23,-4.04,-1.98,-0.93,3.24,1005.91
2.89,0.22,2.61,-0.09,-13.51,4.23,-4.04,-1.98,-0.93,3.24,1005.91
2.89,0.22,2.61,-0.09,-13.51,4.23,-4.04,-0.19,-1.55,-2.07,1005.91
2.891,0.22,2.61,-0.09,-12.44,-1.98,-4.01,-0.19,-1.55,-2.07,1005.91
2.925,0.22,2.61,-0.09,-12.44,-1.98,-4.01,-0.19,-1.55,-2.07,1005.91
2.939,1.69,2.40,1.04,-12.44,-1.98,-4.01,-0.19,-1.55,-2.07,1005.91
2.941,0.30,0.96,-1.70,-12.44,-1.98,-4.01,-0.19,-1.55,-2.07,1005.91
2.941,-0.98,0.34,-0.29,-12.44,-1.98,-4.01,-0.19,-1.55,-2.07,1005.91
2.942,-0.98,0.34,-0.29,-12.44,-1.98,-4.01,0.59,-1.51,-2.53,1005.91
2.942,-0.98,0.34,-0.29,1.62,10.48,0.13,0.59,-1.51,-2.53,1005.91
2.997,-0.92,0.45,0.36,1.62,10.48,0.13,0.59,-1.51,-2.53,1005.91
2.998,-0.65,1.04,0.19,1.62,10.48,0.13,0.59,-1.51,-2.53,1005.91
2.998,-0.44,1.42,-0.13,1.62,10.48,0.13,0.59,-1.51,-2.53,1005.91
2.999,-0.44,1.42,-0.13,-5.43,-3.97,-4.18,0.59,-1.51,-2.53,1005.91
2.999,-0.44,1.42,-0.13,-5.43,-3.97,-4.18,-0.08,0.34,-1.58,1005.91
3.004,-0.44,1.42,-0.13,-5.43,-3.97,-4.18,-0.08,0.34,-1.58,1005.91
3.044,-0.44,1.42,-0.13,-5.43,-3.97,-4.18,-0.08,0.34,-1.58,1005.94
3.057,-0.05,1.17,-0.28,-5.43,-3.97,-4.18,-0.08,0.34,-1.58,1005.94
3.057,0.16,1.00,-0.16,-5.43,-3.97,-4.18,-0.08,0.34,-1.58,1005.94
3.057,0.16,1.04,-0.19,-5.43,-3.97,-4.18,-0.08,0.34,-1.58,1005.94
3.058,0.16,1.04,-0.19,-5.43,-3.97,-4.18,0.18,-0.75,-0.74,1005.94
3.058,0.16,1.04,-0.19,-3.37,2.14,0.53,0.18,-0.75,-0.74,1005.94
3.115,0.07,1.03,-0.09,-3.37,2.14,0.53,0.18,-0.75,-0.74,1005.94
3.116,-0.06,1.00,-0.06,-3.37,2.14,0.53,0.18,-0.75,-0.74,1005.94
3.116,-0.16,0.96,-0.07,-3.37,2.14,0.53,0.18,-0.75,-0.74,1005.94
3.116,-0.16,0.96,-0.07,-3.37,2.14,0.53,0.19,0.11,-0.90,1005.94
3.117,-0.16,0.96,-0.07,2.06,0.37,-0.07,0.19,0.11,-0.90,1005.94
3.125,-0.16,0.96,-0.07,2.06,0.37,-0.07,0.19,0.11,-0.90,1005.93
3.177,-0.16,0.99,-0.10,2.06,0.37,-0.07,0.19,0.11,-0.90,1005.93
3.179,-0.15,1.00,-0.14,2.06,0.37,-0.07,0.19,0.11,-0.90,1005.93
3.18,-0.11,0.97,-0.10,2.06,0.37,-0.07,0.19,0.11,-0.90,1005.93
3.181,-0.11,0.97,-0.10,2.06,0.37,-0.07,0.26,0.18,-0.89,1005.93
3.182,-0.11,0.97,-0.10,0.02,0.03,0.77,0.26,0.18,-0.89,1005.93
3.205,-0.11,0.97,-0.10,0.02,0.03,0.77,0.26,0.18,-0.89,1005.94
3.231,-0.05,0.97,-0.06,0.02,0.03,0.77,0.26,0.18,-0.89,1005.94
3.232,-0.11,1.00,-0.04,0.02,0.03,0.77,0.26,0.18,-0.89,1005.94
3.233,-0.17,0.95,-0.01,0.02,0.03,0.77,0.26,0.18,-0.89,1005.94
3.233,-0.17,0.95,-0.01,0.02,0.03,0.77,0.36,0.46,-0.97,1005.94
3.234,-0.17,0.95,-0.01,0.74,0.11,0.75,0.36,0.46,-0.97,1005.94
3.244,-0.17,0.95,-0.01,0.74,0.11,0.75,0.36,0.46,-0.97,1005.93
3.29,-0.21,0.93,-0.02,0.74,0.11,0.75,0.36,0.46,-0.97,1005.93
3.292,-0.17,1.02,-0.09,0.74,0.11,0.75,0.36,0.46,-0.97,1005.93
3.294,-0.02,1.04,-0.16,0.74,0.11,0.75,0.36,0.46,-0.97,1005.93
3.295,-0.02,1.04,-0.16,0.78,0.13,1.84,0.36,0.46,-0.97,1005.93
3.296,-0.02,1.04,-0.16,0.78,0.13,1.84,0.58,0.31,-1.18,1005.93
3.324,-0.02,1.04,-0.16,0.78,0.13,1.84,0.58,0.31,-1.18,1005.93
3.348,-0.03,1.01,-0.17,0.78,0.13,1.84,0.58,0.31,-1.18,1005.93
3.349,-0.16,1.09,-0.22,0.78,0.13,1.84,0.58,0.31,-1.18,1005.93
3.35,-0.20,1.28,-0.19,0.78,0.13,1.84,0.58,0.31,-1.18,1005.93
3.35,-0.20,1.28,-0.19,0.78,0.13,1.84,0.88,0.18,-1.60,1005.93
3.351,-0.20,1.28,-0.19,2.44,1.09,1.18,0.88,0.18,-1.60,1005.93
3.409,-0.20,1.28,-0.19,2.44,1.09,1.18,0.88,0.18,-1.60,1005.93
3.411,-0.08,1.36,-0.12,2.44,1.09,1.18,0.88,0.18,-1.60,1005.93
3.412,0.15,1.42,-0.05,2.44,1.09,1.18,0.88,0.18,-1.60,1005.93
3.413,0.55,1.63,0.21,2.44,1.09,1.18,0.88,0.18,-1.60,1005.93
3.414,0.55,1.63,0.21,2.62,3.85,1.48,0.88,0.18,-1.60,1005.93
3.415,0.55,1.63,0.21,2.62,3.85,1.48,1.41,-0.10,-1.91,1005.93
3.445,0.55,1.63,0.21,2.62,3.85,1.48,1.41,-0.10,-1.91,1005.93
3.465,0.55,1.63,0.21,9.88,8.78,5.11,1.41,-0.10,-1.91,1005.93
3.467,0.81,1.91,0.16,9.88,8.78,5.11,1.41,-0.10,-1.91,1005.93
3.468,1.02,2.03,0.18,9.88,8.78,5.11,1.41,-0.10,-1.91,1005.93
3.469,0.67,1.58,0.18,9.88,8.78,5.11,1.41,-0.10,-1.91,1005.93
3.47,0.67,1.58,0.18,9.88,8.78,5.11,1.53,0.84,-2.69,1005.93
3.525,-0.53,1.11,-0.17,9.88,8.78,5.11,1.53,0.84,-2.69,1005.93
3.527,-1.29,1.25,-0.21,9.88,8.78,5.11,1.53,0.84,-2.69,1005.93
3.528,-1.66,1.29,-0.52,9.88,8.78,5.11,1.53,0.84,-2.69,1005.93
3.53,-1.66,1.29,-0.52,9.88,8.78,5.11,2.23,2.45,-3.90,1005.93
3.53,-1.66,1.29,-0.52,9.38,9.70,6.21,2.23,2.45,-3.90,1005.93
3.532,-1.66,1.29,-0.52,9.38,9.70,6.21,2.23,2.45,-3.90,1005.94
3.586,-1.43,0.83,-0.78,9.38,9.70,6.21,2.23,2.45,-3.90,1005.94
3.592,-0.74,0.56,-0.42,9.38,9.70,6.21,2.23,2.45,-3.90,1005.94
3.593,-0.35,0.34,-0.46,9.38,9.70,6.21,2.23,2.45,-3.90,1005.94
3.594,-0.35,0.34,-0.46,-7.86,5.71,0.36,2.23,2.45,-3.90,1005.94
3.596,-0.35,0.34,-0.46,-7.86,5.71,0.36,0.58,-1.31,-0.92,1005.94
3.614,-0.35,0.34,-0.46,-7.86,5.71,0.36,0.58,-1.31,-0.92,1005.89
3.64,-0.20,0.15,-0.04,-7.86,5.71,0.36,0.58,-1.31,-0.92,1005.89
3.641,-0.06,-0.06,0.00,-7.86,5.71,0.36,0.58,-1.31,-0.92,1005.89
3.642,0.01,-0.04,-0.14,-7.86,5.71,0.36,0.58,-1.31,-0.92,1005.89
3.642,0.01,-0.04,-0.14,1.81,-3.09,1.19,0.58,-1.31,-0.92,1005.89
3.643,0.01,-0.04,-0.14,1.81,-3.09,1.19,-1.30,-1.63,2.47,1005.89
3.646,0.01,-0.04,-0.14,1.81,-3.09,1.19,-1.30,-1.63,2.47,1005.85
3.699,-0.23,0.14,-0.15,1.81,-3.09,1.19,-1.30,-1.63,2.47,1005.85
3.7,-0.29,0.30,-0.24,1.81,-3.09,1.19,-1.30,-1.63,2.47,1005.85
3.701,-0.29,0.45,-0.33,1.81,-3.09,1.19,-1.30,-1.63,2.47,1005.85
3.702,-0.29,0.45,-0.33,1.81,-3.09,1.19,-1.53,-1.30,4.21,1005.85
3.704,-0.29,0.45,-0.33,3.49,-7.91,2.17,-1.53,-1.30,4.21,1005.85
3.727,-0.29,0.45,-0.33,3.49,-7.91,2.17,-1.53,-1.30,4.21,1005.92
3.756,-0.32,0.51,-0.14,3.49,-7.91,2.17,-1.53,-1.30,4.21,1005.92
3.757,-0.24,0.56,-0.11,3.49,-7.91,2.17,-1.53,-1.30,4.21,1005.92
3.758,-0.19,0.82,-0.24,3.49,-7.91,2.17,-1.53,-1.30,4.21,1005.92
3.758,-0.19,0.82,-0.24,3.49,-7.91,2.17,-2.29,-0.46,5.76,1005.92
3.759,-0.19,0.82,-0.24,-1.39,-5.14,-0.47,-2.29,-0.46,5.76,1005.92
3.805,-0.19,0.82,-0.24,-1.39,-5.14,-0.47,-2.29,-0.46,5.76,1005.93
3.814,-0.28,1.28,-0.48,-1.39,-5.14,-0.47,-2.29,-0.46,5.76,1005.93
3.815,-0.60,1.73,-0.57,-1.39,-5.14,-0.47,-2.29,-0.46,5.76,1005.93
3.815,-0.85,1.92,-0.46,-1.39,-5.14,-0.47,-2.29,-0.46,5.76,1005.93
3.816,-0.85,1.92,-0.46,-1.39,-5.14,-0.47,-2.85,0.78,6.10,1005.93
3.816,-0.85,1.92,-0.46,-4.14,-0.68,-2.43,-2.85,0.78,6.10,1005.93
3.845,-0.85,1.92,-0.46,-4.14,-0.68,-2.43,-2.85,0.78,6.10,1005.92
3.88,-0.85,1.92,-0.46,-11.73,8.96,-5.54,-2.85,0.78,6.10,1005.92
3.882,-0.98,1.76,-0.27,-11.73,8.96,-5.54,-2.85,0.78,6.10,1005.92
3.883,-0.80,1.33,-0.11,-11.73,8.96,-5.54,-2.85,0.78,6.10,1005.92
3.884,-0.53,0.97,-0.47,-11.73,8.96,-5.54,-2.85,0.78,6.10,1005.92
3.884,-0.53,0.97,-0.47,-11.73,8.96,-5.54,-2.74,1.20,4.31,1005.92
3.926,-0.53,0.97,-0.47,-11.73,8.96,-5.54,-2.74,1.20,4.31,1005.91
3.932,-0.84,0.69,-0.66,-11.73,8.96,-5.54,-2.74,1.20,4.31,1005.91
3.933,-1.11,0.55,-0.48,-11.73,8.96,-5.54,-2.74,1.20,4.31,1005.91
3.934,-1.04,0.69,-0.50,-11.73,8.96,-5.54,-2.74,1.20,4.31,1005.91
3.935,-1.04,0.69,-0.50,-11.73,8.96,-5.54,-0.18,-0.01,-0.78,1005.91
3.936,-1.04,0.69,-0.50,-10.35,0.87,-5.32,-0.18,-0.01,-0.78,1005.91
3.99,-0.47,1.73,-0.37,-10.35,0.87,-5.32,-0.18,-0.01,-0.78,1005.91
3.991,1.89,2.14,0.99,-10.35,0.87,-5.32,-0.18,-0.01,-0.78,1005.91
3.992,2.11,1.40,-0.08,-10.35,0.87,-5.32,-0.18,-0.01,-0.78,1005.91
3.993,2.11,1.40,-0.08,-10.35,0.87,-5.32,-0.06,-3.16,-0.93,1005.91
3.994,2.11,1.40,-0.08,-11.32,0.65,-5.09,-0.06,-3.16,-0.93,1005.91
4.007,2.11,1.40,-0.08,-11.32,0.65,-5.09,-0.06,-3.16,-0.93,1005.91
4.045,2.11,1.40,-0.08,-11.32,0.65,-5.09,-0.06,-3.16,-0.93,1005.91
4.048,-0.10,1.45,-1.46,-11.32,0.65,-5.09,-0.06,-3.16,-0.93,1005.91
4.049,-0.98,1.08,-0.17,-11.32,0.65,-5.09,-0.06,-3.16,-0.93,1005.91
4.049,-0.25,0.65,0.63,-11.32,0.65,-5.09,-0.06,-3.16,-0.93,1005.91
4.05,-0.25,0.65,0.63,-11.32,0.65,-5.09,0.40,0.38,-2.76,1005.91
4.051,-0.25,0.65,0.63,11.28,6.77,-2.22,0.40,0.38,-2.76,1005.91
4.107,-0.38,0.95,0.06,11.28,6.77,-2.22,0.40,0.38,-2.76,1005.91
4.108,-0.53,1.13,0.04,11.28,6.77,-2.22,0.40,0.38,-2.76,1005.91
4.109,-0.14,1.10,-0.09,11.28,6.77,-2.22,0.40,0.38,-2.76,1005.91
4.109,-0.14,1.10,-0.09,-5.84,-0.85,1.50,0.40,0.38,-2.76,1005.91
4.11,-0.14,1.10,-0.09,-5.84,-0.85,1.50,0.38,-0.31,-1.42,1005.91
4.125,-0.14,1.10,-0.09,-5.84,-0.85,1.50,0.38,-0.31,-1.42,1005.92
4.166,0.17,1.05,-0.02,-5.84,-0.85,1.50,0.38,-0.31,-1.42,1005.92
4.167,0.19,1.08,-0.00,-5.84,-0.85,1.50,0.38,-0.31,-1.42,1005.92
4.168,-0.06,1.04,0.09,-5.84,-0.85,1.50,0.38,-0.31,-1.42,1005.92
4.169,-0.06,1.04,0.09,-5.84,-0.85,1.50,0.23,-0.06,-0.78,1005.92
4.171,-0.06,1.04,0.09,-1.73,1.11,-0.33,0.23,-0.06,-0.78,1005.92
4.206,-0.06,1.04,0.09,-1.73,1.11,-0.33,0.23,-0.06,-0.78,1005.93
4.227,-0.12,0.94,0.15,-1.73,1.11,-0.33,0.23,-0.06,-0.78,1005.93
4.23,0.09,0.94,0.18,-1.73,1.11,-0.33,0.23,-0.06,-0.78,1005.93
4.231,0.24,0.96,0.20,-1.73,1.11,-0.33,0.23,-0.06,-0.78,1005.93
4.232,0.24,0.96,0.20,-1.73,1.11,-0.33,0.36,-0.27,-0.92,1005.93
4.233,0.24,0.96,0.20,0.42,0.33,0.88,0.36,-0.27,-0.92,1005.93
4.244,0.24,0.96,0.20,0.42,0.33,0.88,0.36,-0.27,-0.92,1005.93
4.282,0.14,0.95,0.12,0.42,0.33,0.88,0.36,-0.27,-0.92,1005.93
4.284,-0.07,0.96,-0.01,0.42,0.33,0.88,0.36,-0.27,-0.92,1005.93
4.285,-0.20,1.03,-0.07,0.42,0.33,0.88,0.36,-0.27,-0.92,1005.93
4.285,-0.20,1.03,-0.07,0.42,0.33,0.88,0.57,0.26,-1.39,1005.93
4.286,-0.20,1.03,-0.07,2.66,-0.27,2.04,0.57,0.26,-1.39,1005.93
4.325,-0.20,1.03,-0.07,2.66,-0.27,2.04,0.57,0.26,-1.39,1005.93
4.339,-0.24,1.05,-0.07,2.66,-0.27,2.04,0.57,0.26,-1.39,1005.93
4.342,-0.20,0.99,-0.05,2.66,-0.27,2.04,0.57,0.26,-1.39,1005.93
4.343,-0.13,0.95,-0.05,2.66,-0.27,2.04,0.57,0.26,-1.39,1005.93
4.345,-0.13,0.95,-0.05,2.66,-0.27,2.04,0.61,0.41,-1.33,1005.93
4.346,-0.13,0.95,-0.05,0.20,0.49,0.24,0.61,0.41,-1.33,1005.93
4.399,-0.08,0.95,-0.08,0.20,0.49,0.24,0.61,0.41,-1.33,1005.93
4.4,-0.06,0.98,-0.06,0.20,0.49,0.24,0.61,0.41,-1.33,1005.93
4.401,-0.10,1.05,-0.04,0.20,0.49,0.24,0.61,0.41,-1.33,1005.93
4.401,-0.10,1.05,-0.04,0.20,0.49,0.24,0.62,0.52,-1.53,1005.93
4.402,-0.10,1.05,-0.04,1.28,0.24,0.58,0.62,0.52,-1.53,1005.93
4.408,-0.10,1.05,-0.04,1.28,0.24,0.58,0.62,0.52,-1.53,1005.93
4.445,-0.10,1.05,-0.04,1.28,0.24,0.58,0.62,0.52,-1.53,1005.94
4.458,-0.24,1.14,-0.09,1.28,0.24,0.58,0.62,0.52,-1.53,1005.94
4.46,-0.26,1.21,-0.10,1.28,0.24,0.58,0.62,0.52,-1.53,1005.94
4.461,-0.04,1.26,-0.06,1.28,0.24,0.58,0.62,0.52,-1.53,1005.94
4.462,-0.04,1.26,-0.06,1.28,0.24,0.58,0.94,0.39,-1.87,1005.94
4.463,-0.04,1.26,-0.06,2.25,1.53,1.09,0.94,0.39,-1.87,1005.94
4.514,0.18,1.34,-0.05,2.25,1.53,1.09,0.94,0.39,-1.87,1005.94
4.515,0.15,1.41,-0.18,2.25,1.53,1.09,0.94,0.39,-1.87,1005.94
4.516,0.28,1.67,-0.11,2.25,1.53,1.09,0.94,0.39,-1.87,1005.94
4.516,0.28,1.67,-0.11,2.25,1.53,1.09,1.33,0.82,-2.35,1005.94
4.517,0.28,1.67,-0.11,4.13,4.29,1.85,1.33,0.82,-2.35,1005.94
4.528,0.28,1.67,-0.11,4.13,4.29,1.85,1.33,0.82,-2.35,1005.94
4.575,0.81,1.80,-0.06,4.13,4.29,1.85,1.33,0.82,-2.35,1005.94
4.575,0.97,1.59,-0.09,4.13,4.29,1.85,1.33,0.82,-2.35,1005.94
4.576,-0.04,1.03,-0.08,4.13,4.29,1.85,1.33,0.82,-2.35,1005.94
4.576,-0.04,1.03,-0.08,9.23,8.64,2.59,1.33,0.82,-2.35,1005.94
4.577,-0.04,1.03,-0.08,9.23,8.64,2.59,1.34,2.16,-2.70,1005.94
4.605,-0.04,1.03,-0.08,9.23,8.64,2.59,1.34,2.16,-2.70,1005.94
4.631,-1.07,1.00,-0.32,9.23,8.64,2.59,1.34,2.16,-2.70,1005.94
4.632,-1.50,1.26,-0.36,9.23,8.64,2.59,1.34,2.16,-2.70,1005.94
4.633,-1.20,0.91,-0.44,9.23,8.64,2.59,1.34,2.16,-2.70,1005.94
4.633,-1.20,0.91,-0.44,9.23,8.64,2.59,1.99,1.85,-3.16,1005.94
4.634,-1.20,0.91,-0.44,5.37,6.00,3.40,1.99,1.85,-3.16,1005.94
4.646,-1.20,0.91,-0.44,5.37,6.00,3.40,1.99,1.85,-3.16,1005.93
4.69,-1.20,0.91,-0.44,-5.42,2.88,0.75,1.99,1.85,-3.16,1005.93
4.692,-0.90,0.49,-0.39,-5.42,2.88,0.75,1.99,1.85,-3.16,1005.93
4.694,-0.80,0.47,-0.48,-5.42,2.88,0.75,1.99,1.85,-3.16,1005.93
4.695,-0.53,0.31,-0.19,-5.42,2.88,0.75,1.99,1.85,-3.16,1005.93
4.696,-0.53,0.31,-0.19,-5.42,2.88,0.75,0.27,-1.31,-0.06,1005.93
4.726,-0.53,0.31,-0.19,-5.42,2.88,0.75,0.27,-1.31,-0.06,1005.88
4.749,-0.26,0.07,0.11,-5.42,2.88,0.75,0.27,-1.31,-0.06,1005.88
4.751,-0.05,-0.15,0.01,-5.42,2.88,0.75,0.27,-1.31,-0.06,1005.88
4.752,0.04,-0.10,-0.12,-5.42,2.88,0.75,0.27,-1.31,-0.06,1005.88
4.754,0.04,-0.10,-0.12,-5.42,2.88,0.75,-0.39,-2.07,3.05,1005.88
4.755,0.04,-0.10,-0.12,0.50,-4.13,1.89,-0.39,-2.07,3.05,1005.88
4.805,0.04,-0.10,-0.12,0.50,-4.13,1.89,-0.39,-2.07,3.05,1005.89
4.808,0.04,-0.10,-0.12,3.32,-8.31,2.02,-0.39,-2.07,3.05,1005.89
4.809,-0.10,0.19,-0.26,3.32,-8.31,2.02,-0.39,-2.07,3.05,1005.89
4.81,-0.38,0.53,-0.39,3.32,-8.31,2.02,-0.39,-2.07,3.05,1005.89
4.811,-0.56,0.54,-0.09,3.32,-8.31,2.02,-0.39,-2.07,3.05,1005.89
4.812,-0.56,0.54,-0.09,3.32,-8.31,2.02,0.26,-2.08,5.23,1005.89
4.845,-0.56,0.54,-0.09,3.32,-8.31,2.02,0.26,-2.08,5.23,1005.96
4.866,-0.51,0.44,-0.18,3.32,-8.31,2.02,0.26,-2.08,5.23,1005.96
4.867,-0.57,0.72,-0.40,3.32,-8.31,2.02,0.26,-2.08,5.23,1005.96
4.868,-0.88,1.10,-0.22,3.32,-8.31,2.02,0.26,-2.08,5.23,1005.96
4.869,-0.88,1.10,-0.22,3.32,-8.31,2.02,0.66,-4.97,7.21,1005.96
4.872,-0.88,1.10,-0.22,-3.74,-4.02,0.72,0.66,-4.97,7.21,1005.96
4.922,-1.02,1.33,-0.50,-3.74,-4.02,0.72,0.66,-4.97,7.21,1005.96
4.924,-0.83,1.58,-0.57,-3.74,-4.02,0.72,0.66,-4.97,7.21,1005.96
4.924,-0.58,1.70,-0.19,-3.74,-4.02,0.72,0.66,-4.97,7.21,1005.96
4.925,-0.58,1.70,-0.19,-3.74,-4.02,0.72,1.78,-9.57,7.21,1005.96
4.926,-0.58,1.70,-0.19,-8.82,1.68,0.19,1.78,-9.57,7.21,1005.96
4.926,-0.58,1.70,-0.19,-8.82,1.68,0.19,1.78,-9.57,7.21,1005.93
4.981,-0.26,1.42,0.50,-8.82,1.68,0.19,1.78,-9.57,7.21,1005.93
4.982,-0.14,0.95,0.61,-8.82,1.68,0.19,1.78,-9.57,7.21,1005.93
4.983,-0.70,1.33,-0.20,-8.82,1.68,0.19,1.78,-9.57,7.21,1005.93
4.983,-0.70,1.33,-0.20,-8.82,1.68,0.19,-0.03,-7.22,2.55,1005.93
4.984,-0.70,1.33,-0.20,-5.62,6.74,3.26,-0.03,-7.22,2.55,1005.93
5.005,-0.70,1.33,-0.20,-5.62,6.74,3.26,-0.03,-7.22,2.55,1005.89
5.041,-0.70,1.33,-0.20,-3.46,2.42,9.73,-0.03,-7.22,2.55,1005.89
5.044,-0.24,1.16,1.50,-3.46,2.42,9.73,-0.03,-7.22,2.55,1005.89
5.045,0.54,0.75,0.99,-3.46,2.42,9.73,-0.03,-7.22,2.55,1005.89
5.046,-0.02,1.29,0.02,-3.46,2.42,9.73,-0.03,-7.22,2.55,1005.89
5.046,-0.02,1.29,0.02,-3.46,2.42,9.73,-0.91,0.97,-0.82,1005.89
5.046,-0.02,1.29,0.02,-3.46,2.42,9.73,-0.91,0.97,-0.82,1005.92
5.098,-0.22,1.81,-1.18,-3.46,2.42,9.73,-0.91,0.97,-0.82,1005.92
5.099,-0.09,1.39,-0.97,-3.46,2.42,9.73,-0.91,0.97,-0.82,1005.92
5.099,-0.39,1.04,-0.40,-3.46,2.42,9.73,-0.91,0.97,-0.82,1005.92
5.1,-0.39,1.04,-0.40,-3.46,2.42,9.73,-0.48,-0.08,-0.71,1005.92
5.1,-0.39,1.04,-0.40,1.44,3.58,2.65,-0.48,-0.08,-0.71,1005.92
5.125,-0.39,1.04,-0.40,1.44,3.58,2.65,-0.48,-0.08,-0.71,1005.93
5.156,0.12,0.82,-0.26,1.44,3.58,2.65,-0.48,-0.08,-0.71,1005.93
5.158,0.23,0.80,0.11,1.44,3.58,2.65,-0.48,-0.08,-0.71,1005.93
5.158,0.05,1.01,0.05,1.44,3.58,2.65,-0.48,-0.08,-0.71,1005.93
5.159,0.05,1.01,0.05,1.44,3.58,2.65,-0.53,-2.14,-0.08,1005.93
5.159,0.05,1.01,0.05,-0.30,1.53,-2.46,-0.53,-2.14,-0.08,1005.93
5.208,0.05,1.01,0.05,-0.30,1.53,-2.46,-0.53,-2.14,-0.08,1005.87
5.215,0.05,1.01,0.05,1.53,0.18,2.86,-0.53,-2.14,-0.08,1005.87
5.216,-0.09,1.04,-0.13,1.53,0.18,2.86,-0.53,-2.14,-0.08,1005.87
5.217,-0.28,0.98,-0.26,1.53,0.18,2.86,-0.53,-2.14,-0.08,1005.87
5.217,-0.40,0.94,-0.36,1.53,0.18,2.86,-0.53,-2.14,-0.08,1005.87
5.218,-0.40,0.94,-0.36,1.53,0.18,2.86,-0.06,-0.09,-0.13,1005.87
5.245,-0.40,0.94,-0.36,1.53,0.18,2.86,-0.06,-0.09,-0.13,1005.92
5.273,-0.44,0.98,-0.37,1.53,0.18,2.86,-0.06,-0.09,-0.13,1005.92
5.274,-0.29,1.00,-0.36,1.53,0.18,2.86,-0.06,-0.09,-0.13,1005.92
5.275,-0.07,0.97,-0.27,1.53,0.18,2.86,-0.06,-0.09,-0.13,1005.92
5.276,-0.07,0.97,-0.27,1.53,0.18,2.86,-0.11,-1.12,0.48,1005.92
5.277,-0.07,0.97,-0.27,-2.76,0.33,-0.58,-0.11,-1.12,0.48,1005.92
5.326,-0.07,0.97,-0.27,-2.76,0.33,-0.58,-0.11,-1.12,0.48,1005.91
5.334,0.13,0.94,-0.21,-2.76,0.33,-0.58,-0.11,-1.12,0.48,1005.91
5.335,0.10,0.94,-0.14,-2.76,0.33,-0.58,-0.11,-1.12,0.48,1005.91
5.336,-0.00,0.96,-0.14,-2.76,0.33,-0.58,-0.11,-1.12,0.48,1005.91
5.339,-0.00,0.96,-0.14,-2.76,0.33,-0.58,-0.09,-0.88,0.54,1005.91
5.343,-0.00,0.96,-0.14,-0.03,0.31,-0.15,-0.09,-0.88,0.54,1005.91
5.39,-0.01,0.98,-0.18,-0.03,0.31,-0.15,-0.09,-0.88,0.54,1005.91
5.393,0.08,0.98,-0.13,-0.03,0.31,-0.15,-0.09,-0.88,0.54,1005.91
5.394,0.13,0.95,-0.10,-0.03,0.31,-0.15,-0.09,-0.88,0.54,1005.91
5.395,0.13,0.95,-0.10,-0.03,0.31,-0.15,0.12,-0.46,0.25,1005.91
5.396,0.13,0.95,-0.10,0.97,0.24,1.06,0.12,-0.46,0.25,1005.91
5.406,0.13,0.95,-0.10,0.97,0.24,1.06,0.12,-0.46,0.25,1005.92
5.445,0.13,0.95,-0.10,0.97,0.24,1.06,0.12,-0.46,0.25,1005.93
5.448,0.08,0.93,-0.08,0.97,0.24,1.06,0.12,-0.46,0.25,1005.93
5.449,-0.09,0.95,-0.21,0.97,0.24,1.06,0.12,-0.46,0.25,1005.93
5.45,-0.12,0.97,-0.30,0.97,0.24,1.06,0.12,-0.46,0.25,1005.93
5.451,-0.12,0.97,-0.30,0.97,0.24,1.06,0.46,-0.46,-0.08,1005.93
5.452,-0.12,0.97,-0.30,1.67,0.23,1.76,0.46,-0.46,-0.08,1005.93
5.507,0.02,1.00,-0.21,1.67,0.23,1.76,0.46,-0.46,-0.08,1005.93
5.509,0.02,0.99,-0.18,1.67,0.23,1.76,0.46,-0.46,-0.08,1005.93
5.51,-0.14,0.97,-0.25,1.67,0.23,1.76,0.46,-0.46,-0.08,1005.93
5.511,-0.14,0.97,-0.25,1.67,0.23,1.76,0.67,-0.07,-0.06,1005.93
5.512,-0.14,0.97,-0.25,0.18,0.54,0.80,0.67,-0.07,-0.06,1005.93
5.526,-0.14,0.97,-0.25,0.18,0.54,0.80,0.67,-0.07,-0.06,1005.93
5.564,-0.14,0.97,-0.27,0.18,0.54,0.80,0.67,-0.07,-0.06,1005.93
5.566,0.08,0.98,-0.22,0.18,0.54,0.80,0.67,-0.07,-0.06,1005.93
5.567,0.13,1.04,-0.21,0.18,0.54,0.80,0.67,-0.07,-0.06,1005.93
5.568,0.13,1.04,-0.21,0.18,0.54,0.80,1.01,0.39,-0.02,1005.93
5.568,0.13,1.04,-0.21,-0.14,0.75,1.39,1.01,0.39,-0.02,1005.93
5.615,0.13,1.04,-0.21,-0.14,0.75,1.39,1.01,0.39,-0.02,1005.93
5.628,0.08,1.07,-0.33,-0.14,0.75,1.39,1.01,0.39,-0.02,1005.93
5.63,0.01,1.09,-0.37,-0.14,0.75,1.39,1.01,0.39,-0.02,1005.93
5.63,-0.00,1.16,-0.37,-0.14,0.75,1.39,1.01,0.39,-0.02,1005.93
5.631,-0.00,1.16,-0.37,-0.14,0.75,1.39,1.59,0.40,-0.19,1005.93
5.631,-0.00,1.16,-0.37,1.64,1.63,1.92,1.59,0.40,-0.19,1005.93
5.645,-0.00,1.16,-0.37,1.64,1.63,1.92,1.59,0.40,-0.19,1005.93
5.683,-0.00,1.16,-0.37,1.46,4.41,2.27,1.59,0.40,-0.19,1005.93
5.685,0.06,1.50,-0.24,1.46,4.41,2.27,1.59,0.40,-0.19,1005.93
5.685,0.33,1.81,0.09,1.46,4.41,2.27,1.59,0.40,-0.19,1005.93
5.686,0.44,1.74,0.22,1.46,4.41,2.27,1.59,0.40,-0.19,1005.93
5.686,0.44,1.74,0.22,1.46,4.41,2.27,2.52,-1.81,-0.01,1005.93
5.727,0.44,1.74,0.22,1.46,4.41,2.27,2.52,-1.81,-0.01,1005.92
5.74,0.12,1.52,0.45,1.46,4.41,2.27,2.52,-1.81,-0.01,1005.92
5.74,-0.48,1.46,0.49,1.46,4.41,2.27,2.52,-1.81,-0.01,1005.92
5.741,-1.04,1.60,-0.14,1.46,4.41,2.27,2.52,-1.81,-0.01,1005.92
5.741,-1.04,1.60,-0.14,1.46,4.41,2.27,2.78,-3.38,-1.08,1005.92
5.741,-1.04,1.60,-0.14,5.65,9.70,8.61,2.78,-3.38,-1.08,1005.92
5.798,-1.12,1.49,-0.19,5.65,9.70,8.61,2.78,-3.38,-1.08,1005.92
5.799,-0.65,1.43,-0.52,5.65,9.70,8.61,2.78,-3.38,-1.08,1005.92
5.8,-0.10,1.12,-0.37,5.65,9.70,8.61,2.78,-3.38,-1.08,1005.92
5.8,-0.10,1.12,-0.37,5.65,9.70,8.61,2.15,-4.62,-1.05,1005.92
5.801,-0.10,1.12,-0.37,-3.78,8.85,6.32,2.15,-4.62,-1.05,1005.92
5.805,-0.10,1.12,-0.37,-3.78,8.85,6.32,2.15,-4.62,-1.05,1005.91
5.845,-0.10,1.12,-0.37,-3.78,8.85,6.32,2.15,-4.62,-1.05,1005.91
5.857,0.06,0.74,0.03,-3.78,8.85,6.32,2.15,-4.62,-1.05,1005.91
5.858,-0.08,0.53,0.24,-3.78,8.85,6.32,2.15,-4.62,-1.05,1005.91
5.859,-0.28,0.57,0.11,-3.78,8.85,6.32,2.15,-4.62,-1.05,1005.91
5.86,-0.28,0.57,0.11,-3.78,8.85,6.32,0.53,-4.77,0.65,1005.91
5.861,-0.28,0.57,0.11,3.75,4.60,1.60,0.53,-4.77,0.65,1005.91
5.914,-0.26,0.61,0.09,3.75,4.60,1.60,0.53,-4.77,0.65,1005.91
5.916,-0.21,0.56,0.09,3.75,4.60,1.60,0.53,-4.77,0.65,1005.91
5.916,-0.25,0.56,0.05,3.75,4.60,1.60,0.53,-4.77,0.65,1005.91
5.917,-0.25,0.56,0.05,3.75,4.60,1.60,-0.15,-2.01,2.58,1005.91
5.917,-0.25,0.56,0.05,3.42,-1.46,5.03,-0.15,-2.01,2.58,1005.91
5.927,-0.25,0.56,0.05,3.42,-1.46,5.03,-0.15,-2.01,2.58,1005.90
5.973,-0.30,0.68,0.00,3.42,-1.46,5.03,-0.15,-2.01,2.58,1005.90
5.975,-0.35,0.82,-0.06,3.42,-1.46,5.03,-0.15,-2.01,2.58,1005.90
5.975,-0.40,0.88,-0.08,3.42,-1.46,5.03,-0.15,-2.01,2.58,1005.90
5.976,-0.40,0.88,-0.08,3.42,-1.46,5.03,-1.17,0.23,4.30,1005.90
5.977,-0.40,0.88,-0.08,0.93,-2.46,3.46,-1.17,0.23,4.30,1005.90
6.005,-0.40,0.88,-0.08,0.93,-2.46,3.46,-1.17,0.23,4.30,1005.94
6.031,-0.46,0.95,-0.13,0.93,-2.46,3.46,-1.17,0.23,4.30,1005.94
6.032,-0.50,1.04,-0.19,0.93,-2.46,3.46,-1.17,0.23,4.30,1005.94
6.032,-0.55,1.22,-0.24,0.93,-2.46,3.46,-1.17,0.23,4.30,1005.94
6.033,-0.55,1.22,-0.24,-3.19,-0.70,0.75,-1.17,0.23,4.30,1005.94
6.035,-0.55,1.22,-0.24,-3.19,-0.70,0.75,-2.64,0.19,5.18,1005.94
6.047,-0.55,1.22,-0.24,-3.19,-0.70,0.75,-2.64,0.19,5.18,1005.92
6.09,-0.61,1.48,-0.39,-3.19,-0.70,0.75,-2.64,0.19,5.18,1005.92
6.092,-0.60,1.47,-0.47,-3.19,-0.70,0.75,-2.64,0.19,5.18,1005.92
6.092,-0.58,1.27,-0.44,-3.19,-0.70,0.75,-2.64,0.19,5.18,1005.92
6.094,-0.58,1.27,-0.44,-3.19,-0.70,0.75,-3.42,-0.36,5.53,1005.92
6.095,-0.58,1.27,-0.44,-7.57,2.94,-2.81,-3.42,-0.36,5.53,1005.92
6.126,-0.58,1.27,-0.44,-7.57,2.94,-2.81,-3.42,-0.36,5.53,1005.88
6.148,-0.74,1.26,-0.55,-7.57,2.94,-2.81,-3.42,-0.36,5.53,1005.88
6.15,-1.02,1.19,-0.62,-7.57,2.94,-2.81,-3.42,-0.36,5.53,1005.88
6.151,-1.31,0.88,-0.78,-7.57,2.94,-2.81,-3.42,-0.36,5.53,1005.88
6.152,-1.31,0.88,-0.78,-7.57,2.94,-2.81,-2.04,1.03,2.93,1005.88
6.153,-1.31,0.88,-0.78,-9.75,4.27,-6.07,-2.04,1.03,2.93,1005.88
6.205,-1.31,0.88,-0.78,-9.75,4.27,-6.07,-2.04,1.03,2.93,1005.88
6.209,-1.62,0.51,-0.71,-9.75,4.27,-6.07,-2.04,1.03,2.93,1005.88
6.21,-1.61,0.57,-0.83,-9.75,4.27,-6.07,-2.04,1.03,2.93,1005.88
6.211,-0.59,1.65,-0.85,-9.75,4.27,-6.07,-2.04,1.03,2.93,1005.88
6.212,-0.59,1.65,-0.85,-9.75,4.27,-6.07,-0.02,-1.72,-1.69,1005.88
6.213,-0.59,1.65,-0.85,-15.34,-0.65,-7.78,-0.02,-1.72,-1.69,1005.88
6.246,-0.59,1.65,-0.85,-15.34,-0.65,-7.78,-0.02,-1.72,-1.69,1005.87
6.266,1.82,2.14,0.79,-15.34,-0.65,-7.78,-0.02,-1.72,-1.69,1005.87
6.268,2.42,1.79,-0.10,-15.34,-0.65,-7.78,-0.02,-1.72,-1.69,1005.87
6.269,0.02,1.57,-1.40,-15.34,-0.65,-7.78,-0.02,-1.72,-1.69,1005.87
6.27,0.02,1.57,-1.40,-3.50,5.02,-3.31,-0.02,-1.72,-1.69,1005.87
6.271,0.02,1.57,-1.40,-3.50,5.02,-3.31,0.02,-2.97,-0.47,1005.87
6.322,-0.68,0.83,0.08,-3.50,5.02,-3.31,0.02,-2.97,-0.47,1005.87
6.324,-0.38,0.36,0.73,-3.50,5.02,-3.31,0.02,-2.97,-0.47,1005.87
6.325,-0.33,0.90,0.23,-3.50,5.02,-3.31,0.02,-2.97,-0.47,1005.87
6.327,-0.33,0.90,0.23,4.93,4.12,-4.79,0.02,-2.97,-0.47,1005.87
6.327,-0.33,0.90,0.23,4.93,4.12,-4.79,0.32,0.22,-2.75,1005.87
6.328,-0.33,0.90,0.23,4.93,4.12,-4.79,0.32,0.22,-2.75,1005.88
6.381,-0.24,1.24,-0.04,4.93,4.12,-4.79,0.32,0.22,-2.75,1005.88
6.383,-0.19,1.16,-0.22,4.93,4.12,-4.79,0.32,0.22,-2.75,1005.88
6.384,-0.04,1.05,-0.14,4.93,4.12,-4.79,0.32,0.22,-2.75,1005.88
6.385,-0.04,1.05,-0.14,4.93,4.12,-4.79,0.38,-0.04,-1.23,1005.88
6.386,-0.04,1.05,-0.14,-3.19,-1.39,3.01,0.38,-0.04,-1.23,1005.88
6.405,-0.04,1.05,-0.14,-3.19,-1.39,3.01,0.38,-0.04,-1.23,1005.96
6.44,-0.00,1.04,-0.15,-3.19,-1.39,3.01,0.38,-0.04,-1.23,1005.96
6.441,-0.09,1.06,0.04,-3.19,-1.39,3.01,0.38,-0.04,-1.23,1005.96
6.441,-0.03,1.03,0.11,-3.19,-1.39,3.01,0.38,-0.04,-1.23,1005.96
6.441,-0.03,1.03,0.11,-3.19,-1.39,3.01,0.23,-0.15,-0.84,1005.96
6.442,-0.03,1.03,0.11,-0.35,1.06,-1.53,0.23,-0.15,-0.84,1005.96
6.445,-0.03,1.03,0.11,-0.35,1.06,-1.53,0.23,-0.15,-0.84,1005.94
6.503,0.12,0.97,0.13,-0.35,1.06,-1.53,0.23,-0.15,-0.84,1005.94
6.505,0.15,0.93,0.13,-0.35,1.06,-1.53,0.23,-0.15,-0.84,1005.94
6.506,0.03,0.97,0.06,-0.35,1.06,-1.53,0.23,-0.15,-0.84,1005.94
6.506,0.03,0.97,0.06,-0.35,1.06,-1.53,0.45,-0.02,-0.98,1005.94
6.507,0.03,0.97,0.06,0.93,0.47,1.32,0.45,-0.02,-0.98,1005.94
6.525,0.03,0.97,0.06,0.93,0.47,1.32,0.45,-0.02,-0.98,1005.94
6.556,-0.06,0.99,-0.01,0.93,0.47,1.32,0.45,-0.02,-0.98,1005.94
6.559,-0.05,1.01,-0.01,0.93,0.47,1.32,0.45,-0.02,-0.98,1005.94
6.56,-0.14,1.01,-0.05,0.93,0.47,1.32,0.45,-0.02,-0.98,1005.94
6.561,-0.14,1.01,-0.05,0.93,0.47,1.32,0.62,0.49,-1.31,1005.94
6.562,-0.14,1.01,-0.05,2.00,0.04,1.35,0.62,0.49,-1.31,1005.94
6.606,-0.14,1.01,-0.05,2.00,0.04,1.35,0.62,0.49,-1.31,1005.94
6.629,-0.23,1.00,-0.06,2.00,0.04,1.35,0.62,0.49,-1.31,1005.94
6.63,-0.16,1.01,-0.06,2.00,0.04,1.35,0.62,0.49,-1.31,1005.94
6.63,-0.11,0.99,-0.12,2.00,0.04,1.35,0.62,0.49,-1.31,1005.94
6.631,-0.11,0.99,-0.12,0.87,0.69,0.78,0.62,0.49,-1.31,1005.94
6.631,-0.11,0.99,-0.12,0.87,0.69,0.78,0.70,0.42,-1.35,1005.94
6.645,-0.11,0.99,-0.12,0.87,0.69,0.78,0.70,0.42,-1.35,1005.93
6.672,-0.10,0.97,-0.18,0.87,0.69,0.78,0.70,0.42,-1.35,1005.93
6.674,-0.10,1.02,-0.13,0.87,0.69,0.78,0.70,0.42,-1.35,1005.93
6.675,-0.20,1.16,-0.10,0.87,0.69,0.78,0.70,0.42,-1.35,1005.93
6.675,-0.20,1.16,-0.10,0.87,0.69,0.78,0.78,0.52,-1.54,1005.93
6.676,-0.20,1.16,-0.10,1.81,0.79,0.50,0.78,0.52,-1.54,1005.93
6.725,-0.20,1.16,-0.10,1.81,0.79,0.50,0.78,0.52,-1.54,1005.94
6.733,-0.19,1.29,-0.12,1.81,0.79,0.50,0.78,0.52,-1.54,1005.94
6.734,0.01,1.32,-0.09,1.81,0.79,0.50,0.78,0.52,-1.54,1005.94
6.735,0.23,1.38,-0.06,1.81,0.79,0.50,0.78,0.52,-1.54,1005.94
6.735,0.23,1.38,-0.06,1.81,0.79,0.50,1.14,-0.12,-1.76,1005.94
6.736,0.23,1.38,-0.06,2.31,2.88,1.04,1.14,-0.12,-1.76,1005.94
6.789,0.54,1.64,0.19,2.31,2.88,1.04,1.14,-0.12,-1.76,1005.94
6.791,1.05,1.85,0.16,2.31,2.88,1.04,1.14,-0.12,-1.76,1005.94
6.792,1.09,1.78,0.21,2.31,2.88,1.04,1.14,-0.12,-1.76,1005.94
6.793,1.09,1.78,0.21,2.31,2.88,1.04,1.40,0.49,-2.31,1005.94
6.794,1.09,1.78,0.21,7.33,6.39,3.05,1.40,0.49,-2.31,1005.94
6.806,1.09,1.78,0.21,7.33,6.39,3.05,1.40,0.49,-2.31,1005.93
6.848,1.09,1.78,0.21,7.33,6.39,3.05,1.40,0.49,-2.31,1005.93
6.849,0.44,1.37,0.26,7.33,6.39,3.05,1.40,0.49,-2.31,1005.93
6.849,-0.58,1.16,-0.14,7.33,6.39,3.05,1.40,0.49,-2.31,1005.93
6.85,-1.15,1.50,-0.30,7.33,6.39,3.05,1.40,0.49,-2.31,1005.93
6.85,-1.15,1.50,-0.30,7.33,6.39,3.05,1.57,2.79,-3.70,1005.93
6.85,-1.15,1.50,-0.30,13.92,9.85,6.42,1.57,2.79,-3.70,1005.93
6.914,-1.23,1.40,-0.43,13.92,9.85,6.42,1.57,2.79,-3.70,1005.93
6.917,-0.92,0.87,-0.43,13.92,9.85,6.42,1.57,2.79,-3.70,1005.93
6.918,-0.60,0.60,-0.29,13.92,9.85,6.42,1.57,2.79,-3.70,1005.93
6.919,-0.60,0.60,-0.29,13.92,9.85,6.42,1.32,0.42,-2.08,1005.93
6.92,-0.60,0.60,-0.29,-3.53,7.70,2.07,1.32,0.42,-2.08,1005.93
6.926,-0.60,0.60,-0.29,-3.53,7.70,2.07,1.32,0.42,-2.08,1005.92
6.965,-0.37,0.39,-0.31,-3.53,7.70,2.07,1.32,0.42,-2.08,1005.92
6.968,-0.30,0.26,-0.12,-3.53,7.70,2.07,1.32,0.42,-2.08,1005.92
6.969,-0.23,0.12,-0.04,-3.53,7.70,2.07,1.32,0.42,-2.08,1005.92
6.97,-0.23,0.12,-0.04,-0.18,-0.15,0.87,1.32,0.42,-2.08,1005.92
6.971,-0.23,0.12,-0.04,-0.18,-0.15,0.87,-1.03,-0.81,1.12,1005.92
7.005,-0.23,0.12,-0.04,-0.18,-0.15,0.87,-1.03,-0.81,1.12,1005.89
7.022,-0.16,0.12,-0.12,-0.18,-0.15,0.87,-1.03,-0.81,1.12,1005.89
7.023,-0.21,0.20,-0.19,-0.18,-0.15,0.87,-1.03,-0.81,1.12,1005.89
7.023,-0.24,0.35,-0.30,-0.18,-0.15,0.87,-1.03,-0.81,1.12,1005.89
7.023,-0.24,0.35,-0.30,-0.18,-0.15,0.87,-1.64,-1.01,3.46,1005.89
7.024,-0.24,0.35,-0.30,2.49,-5.93,2.27,-1.64,-1.01,3.46,1005.89
7.046,-0.24,0.35,-0.30,2.49,-5.93,2.27,-1.64,-1.01,3.46,1005.93
7.081,-0.18,0.50,-0.41,2.49,-5.93,2.27,-1.64,-1.01,3.46,1005.93
7.082,-0.11,0.60,-0.28,2.49,-5.93,2.27,-1.64,-1.01,3.46,1005.93
7.083,-0.08,0.69,-0.05,2.49,-5.93,2.27,-1.64,-1.01,3.46,1005.93
7.084,-0.08,0.69,-0.05,2.49,-5.93,2.27,-2.49,-0.66,5.40,1005.93
7.085,-0.08,0.69,-0.05,0.13,-5.56,-1.09,-2.49,-0.66,5.40,1005.93
7.126,-0.08,0.69,-0.05,0.13,-5.56,-1.09,-2.49,-0.66,5.40,1005.94
7.141,-0.10,0.90,-0.32,0.13,-5.56,-1.09,-2.49,-0.66,5.40,1005.94
7.141,-0.20,1.40,-0.56,0.13,-5.56,-1.09,-2.49,-0.66,5.40,1005.94
7.142,-0.39,1.94,-0.70,0.13,-5.56,-1.09,-2.49,-0.66,5.40,1005.94
7.143,-0.39,1.94,-0.70,0.13,-5.56,-1.09,-2.51,0.56,6.13,1005.94
7.143,-0.39,1.94,-0.70,-2.03,-2.13,-1.56,-2.51,0.56,6.13,1005.94
7.204,-0.64,1.93,-0.60,-2.03,-2.13,-1.56,-2.51,0.56,6.13,1005.94
7.206,-0.92,1.60,-0.34,-2.03,-2.13,-1.56,-2.51,0.56,6.13,1005.94
7.206,-0.94,1.25,-0.24,-2.03,-2.13,-1.56,-2.51,0.56,6.13,1005.94
7.206,-0.94,1.25,-0.24,-2.03,-2.13,-1.56,-2.87,1.09,5.08,1005.94
7.207,-0.94,1.25,-0.24,-7.63,8.55,-7.10,-2.87,1.09,5.08,1005.94
7.208,-0.94,1.25,-0.24,-7.63,8.55,-7.10,-2.87,1.09,5.08,1005.92
7.246,-0.94,1.25,-0.24,-7.63,8.55,-7.10,-2.87,1.09,5.08,1005.87
7.256,-0.70,1.13,-0.57,-7.63,8.55,-7.10,-2.87,1.09,5.08,1005.87
7.256,-0.81,0.82,-0.67,-7.63,8.55,-7.10,-2.87,1.09,5.08,1005.87
7.256,-0.95,0.58,-0.34,-7.63,8.55,-7.10,-2.87,1.09,5.08,1005.87
7.257,-0.95,0.58,-0.34,-7.63,8.55,-7.10,-0.86,0.30,1.24,1005.87
7.257,-0.95,0.58,-0.34,-12.38,4.60,-5.18,-0.86,0.30,1.24,1005.87
7.316,-0.88,0.83,-0.44,-12.38,4.60,-5.18,-0.86,0.30,1.24,1005.87
7.318,-0.15,1.53,-0.21,-12.38,4.60,-5.18,-0.86,0.30,1.24,1005.87
7.319,2.11,1.74,1.13,-12.38,4.60,-5.18,-0.86,0.30,1.24,1005.87
7.32,2.11,1.74,1.13,-12.38,4.60,-5.18,0.19,-0.91,-1.92,1005.87
7.321,2.11,1.74,1.13,-11.52,-1.49,-5.76,0.19,-0.91,-1.92,1005.87
7.325,2.11,1.74,1.13,-11.52,-1.49,-5.76,0.19,-0.91,-1.92,1005.88
7.375,2.29,1.40,0.51,-11.52,-1.49,-5.76,0.19,-0.91,-1.92,1005.88
7.377,-0.44,1.60,-0.92,-11.52,-1.49,-5.76,0.19,-0.91,-1.92,1005.88
7.378,-1.09,1.30,-1.01,-11.52,-1.49,-5.76,0.19,-0.91,-1.92,1005.88
7.379,-1.09,1.30,-1.01,-11.52,-1.49,-5.76,0.74,-0.06,-2.26,1005.88
7.38,-1.09,1.30,-1.01,11.94,6.03,4.00,0.74,-0.06,-2.26,1005.88
7.407,-1.09,1.30,-1.01,11.94,6.03,4.00,0.74,-0.06,-2.26,1005.91
7.431,-0.05,0.52,0.59,11.94,6.03,4.00,0.74,-0.06,-2.26,1005.91
7.432,-0.05,0.75,0.37,11.94,6.03,4.00,0.74,-0.06,-2.26,1005.91
7.433,-0.26,1.07,0.24,11.94,6.03,4.00,0.74,-0.06,-2.26,1005.91
7.433,-0.26,1.07,0.24,11.94,6.03,4.00,0.39,-0.51,-2.14,1005.91
7.434,-0.26,1.07,0.24,-5.84,1.72,-4.73,0.39,-0.51,-2.14,1005.91
7.445,-0.26,1.07,0.24,-5.84,1.72,-4.73,0.39,-0.51,-2.14,1005.93
7.489,-0.20,1.15,0.03,-5.84,1.72,-4.73,0.39,-0.51,-2.14,1005.93
7.491,-0.03,0.97,-0.12,-5.84,1.72,-4.73,0.39,-0.51,-2.14,1005.93
7.492,0.02,0.94,-0.09,-5.84,1.72,-4.73,0.39,-0.51,-2.14,1005.93
7.493,0.02,0.94,-0.09,-5.84,1.72,-4.73,0.55,-0.20,-1.41,1005.93
7.494,0.02,0.94,-0.09,-1.56,0.21,1.99,0.55,-0.20,-1.41,1005.93
7.525,0.02,0.94,-0.09,-1.56,0.21,1.99,0.55,-0.20,-1.41,1005.97
7.548,-0.07,1.06,-0.02,-1.56,0.21,1.99,0.55,-0.20,-1.41,1005.97
7.55,-0.27,1.08,-0.04,-1.56,0.21,1.99,0.55,-0.20,-1.41,1005.97
7.551,-0.30,1.03,-0.03,-1.56,0.21,1.99,0.55,-0.20,-1.41,1005.97
7.552,-0.30,1.03,-0.03,-1.56,0.21,1.99,0.38,0.13,-1.14,1005.97
7.553,-0.30,1.03,-0.03,0.47,0.27,-0.63,0.38,0.13,-1.14,1005.97
7.613,-0.30,1.03,-0.03,0.47,0.27,-0.63,0.38,0.13,-1.14,1005.96
7.615,-0.11,1.01,-0.02,0.47,0.27,-0.63,0.38,0.13,-1.14,1005.96
7.616,0.06,0.99,0.01,0.47,0.27,-0.63,0.38,0.13,-1.14,1005.96
7.617,0.07,1.00,0.03,0.47,0.27,-0.63,0.38,0.13,-1.14,1005.96
7.618,0.07,1.00,0.03,0.47,0.27,-0.63,0.35,-0.18,-0.81,1005.96
7.619,0.07,1.00,0.03,-1.03,0.79,0.03,0.35,-0.18,-0.81,1005.96
7.645,0.07,1.00,0.03,-1.03,0.79,0.03,0.35,-0.18,-0.81,1005.95
7.666,-0.05,1.01,0.01,-1.03,0.79,0.03,0.35,-0.18,-0.81,1005.95
7.669,-0.20,0.99,-0.02,-1.03,0.79,0.03,0.35,-0.18,-0.81,1005.95
7.67,-0.28,0.99,-0.04,-1.03,0.79,0.03,0.35,-0.18,-0.81,1005.95
7.671,-0.28,0.99,-0.04,-1.03,0.79,0.03,0.42,0.54,-1.03,1005.95
7.672,-0.28,0.99,-0.04,1.97,0.45,0.75,0.42,0.54,-1.03,1005.95
7.722,-0.24,0.99,-0.04,1.97,0.45,0.75,0.42,0.54,-1.03,1005.95
7.724,-0.16,0.98,-0.04,1.97,0.45,0.75,0.42,0.54,-1.03,1005.95
7.725,-0.08,0.97,-0.05,1.97,0.45,0.75,0.42,0.54,-1.03,1005.95
7.725,-0.08,0.97,-0.05,1.97,0.45,0.75,0.45,0.14,-0.93,1005.95
7.726,-0.08,0.97,-0.05,-0.14,0.49,0.53,0.45,0.14,-0.93,1005.95
7.727,-0.08,0.97,-0.05,-0.14,0.49,0.53,0.45,0.14,-0.93,1005.94
7.781,-0.03,1.00,-0.09,-0.14,0.49,0.53,0.45,0.14,-0.93,1005.94
7.783,-0.06,1.04,-0.08,-0.14,0.49,0.53,0.45,0.14,-0.93,1005.94
7.784,-0.12,1.07,-0.07,-0.14,0.49,0.53,0.45,0.14,-0.93,1005.94
7.785,-0.12,1.07,-0.07,-0.14,0.49,0.53,0.54,0.29,-1.30,1005.94
7.786,-0.12,1.07,-0.07,1.96,0.65,0.52,0.54,0.29,-1.30,1005.94
7.806,-0.12,1.07,-0.07,1.96,0.65,0.52,0.54,0.29,-1.30,1005.93
7.839,-0.20,1.09,-0.07,1.96,0.65,0.52,0.54,0.29,-1.30,1005.93
7.84,-0.22,1.10,-0.08,1.96,0.65,0.52,0.54,0.29,-1.30,1005.93
7.841,-0.15,1.10,-0.10,1.96,0.65,0.52,0.54,0.29,-1.30,1005.93
7.841,-0.15,1.10,-0.10,1.96,0.65,0.52,0.80,0.20,-1.72,1005.93
7.842,-0.15,1.10,-0.10,2.41,1.83,0.85,0.80,0.20,-1.72,1005.93
7.845,-0.15,1.10,-0.10,2.41,1.83,0.85,0.80,0.20,-1.72,1005.93
7.907,-0.10,1.18,-0.13,2.41,1.83,0.85,0.80,0.20,-1.72,1005.93
7.908,0.03,1.43,-0.09,2.41,1.83,0.85,0.80,0.20,-1.72,1005.93
7.909,0.31,1.73,-0.03,2.41,1.83,0.85,0.80,0.20,-1.72,1005.93
7.909,0.31,1.73,-0.03,2.41,1.83,0.85,0.96,0.72,-2.05,1005.93
7.91,0.31,1.73,-0.03,3.00,2.93,1.22,0.96,0.72,-2.05,1005.93
7.933,0.31,1.73,-0.03,3.00,2.93,1.22,0.96,0.72,-2.05,1005.93
7.957,0.74,1.89,-0.18,3.00,2.93,1.22,0.96,0.72,-2.05,1005.93
7.958,0.97,1.72,-0.21,3.00,2.93,1.22,0.96,0.72,-2.05,1005.93
7.959,0.16,1.01,-0.18,3.00,2.93,1.22,0.96,0.72,-2.05,1005.93
7.959,0.16,1.01,-0.18,3.00,2.93,1.22,1.15,1.98,-2.58,1005.93
7.959,0.16,1.01,-0.18,8.73,9.17,2.30,1.15,1.98,-2.58,1005.93
8.009,0.16,1.01,-0.18,8.73,9.17,2.30,1.15,1.98,-2.58,1005.93
8.028,-0.97,0.81,-0.29,8.73,9.17,2.30,1.15,1.98,-2.58,1005.93
8.029,-1.66,1.04,-0.35,8.73,9.17,2.30,1.15,1.98,-2.58,1005.93
8.03,-1.80,0.98,-0.49,8.73,9.17,2.30,1.15,1.98,-2.58,1005.93
8.031,-1.80,0.98,-0.49,6.70,5.78,2.14,1.15,1.98,-2.58,1005.93
8.031,-1.80,0.98,-0.49,6.70,5.78,2.14,1.89,1.21,-3.50,1005.93
8.048,-1.80,0.98,-0.49,6.70,5.78,2.14,1.89,1.21,-3.50,1005.92
8.074,-1.20,0.60,-0.50,6.70,5.78,2.14,1.89,1.21,-3.50,1005.92
8.075,-0.66,0.42,-0.29,6.70,5.78,2.14,1.89,1.21,-3.50,1005.92
8.075,-0.12,0.09,0.02,6.70,5.78,2.14,1.89,1.21,-3.50,1005.92
8.076,-0.12,0.09,0.02,6.70,5.78,2.14,0.35,-1.63,0.10,1005.92
8.076,-0.12,0.09,0.02,-8.54,2.78,-0.52,0.35,-1.63,0.10,1005.92
8.126,-0.12,0.09,0.02,-8.54,2.78,-0.52,0.35,-1.63,0.10,1005.87
8.132,0.28,-0.23,0.27,-8.54,2.78,-0.52,0.35,-1.63,0.10,1005.87
8.133,0.34,-0.31,-0.14,-8.54,2.78,-0.52,0.35,-1.63,0.10,1005.87
8.133,-0.09,0.09,-0.27,-8.54,2.78,-0.52,0.35,-1.63,0.10,1005.87
8.134,-0.09,0.09,-0.27,-8.54,2.78,-0.52,0.55,-1.54,2.92,1005.87
8.134,-0.09,0.09,-0.27,4.22,-5.75,3.44,0.55,-1.54,2.92,1005.87
8.19,-0.35,0.29,-0.14,4.22,-5.75,3.44,0.55,-1.54,2.92,1005.87
8.192,-0.51,0.42,-0.24,4.22,-5.75,3.44,0.55,-1.54,2.92,1005.87
8.194,-0.63,0.49,-0.20,4.22,-5.75,3.44,0.55,-1.54,2.92,1005.87
8.195,-0.63,0.49,-0.20,4.22,-5.75,3.44,0.76,-1.53,4.59,1005.87
8.196,-0.63,0.49,-0.20,3.82,-7.50,1.47,0.76,-1.53,4.59,1005.87
8.206,-0.63,0.49,-0.20,3.82,-7.50,1.47,0.76,-1.53,4.59,1005.92
8.246,-0.63,0.49,-0.20,3.82,-7.50,1.47,0.76,-1.53,4.59,1005.98
8.247,-0.63,0.49,-0.20,-4.09,-4.14,0.63,0.76,-1.53,4.59,1005.98
8.248,-0.66,0.49,-0.21,-4.09,-4.14,0.63,0.76,-1.53,4.59,1005.98
8.248,-0.69,0.67,-0.27,-4.09,-4.14,0.63,0.76,-1.53,4.59,1005.98
8.249,-0.74,1.00,-0.38,-4.09,-4.14,0.63,0.76,-1.53,4.59,1005.98
8.249,-0.74,1.00,-0.38,-4.09,-4.14,0.63,0.78,-5.10,6.83,1005.98
8.318,-0.74,1.00,-0.38,-6.78,0.86,-0.38,0.78,-5.10,6.83,1005.98
8.32,-0.66,1.28,-0.45,-6.78,0.86,-0.38,0.78,-5.10,6.83,1005.98
8.321,-0.74,1.59,-0.32,-6.78,0.86,-0.38,0.78,-5.10,6.83,1005.98
8.321,-0.86,1.62,-0.05,-6.78,0.86,-0.38,0.78,-5.10,6.83,1005.98
8.322,-0.86,1.62,-0.05,-6.78,0.86,-0.38,1.49,-8.71,6.46,1005.98
8.326,-0.86,1.62,-0.05,-6.78,0.86,-0.38,1.49,-8.71,6.46,1005.92
8.364,-0.92,1.31,0.32,-6.78,0.86,-0.38,1.49,-8.71,6.46,1005.92
8.366,-1.21,1.38,0.08,-6.78,0.86,-0.38,1.49,-8.71,6.46,1005.92
8.367,-0.50,1.27,0.65,-6.78,0.86,-0.38,1.49,-8.71,6.46,1005.92
8.367,-0.50,1.27,0.65,-6.78,0.86,-0.38,0.18,-6.99,2.20,1005.92
8.368,-0.50,1.27,0.65,-7.81,5.95,3.06,0.18,-6.99,2.20,1005.92
8.406,-0.50,1.27,0.65,-7.81,5.95,3.06,0.18,-6.99,2.20,1005.89
8.432,1.05,0.65,0.91,-7.81,5.95,3.06,0.18,-6.99,2.20,1005.89
8.434,1.30,0.67,0.18,-7.81,5.95,3.06,0.18,-6.99,2.20,1005.89
8.434,-0.07,1.44,0.03,-7.81,5.95,3.06,0.18,-6.99,2.20,1005.89
8.435,-0.07,1.44,0.03,-7.81,5.95,3.06,-0.66,0.82,0.12,1005.89
8.435,-0.07,1.44,0.03,-1.91,1.81,8.11,-0.66,0.82,0.12,1005.89
8.445,-0.07,1.44,0.03,-1.91,1.81,8.11,-0.66,0.82,0.12,1005.90
8.483,-0.78,1.71,-0.68,-1.91,1.81,8.11,-0.66,0.82,0.12,1005.90
8.484,-0.69,1.15,-0.82,-1.91,1.81,8.11,-0.66,0.82,0.12,1005.90
8.484,0.08,1.04,-0.62,-1.91,1.81,8.11,-0.66,0.82,0.12,1005.90
8.485,0.08,1.04,-0.62,-1.91,1.81,8.11,-0.38,0.31,-0.31,1005.90
8.485,0.08,1.04,-0.62,1.80,3.40,1.00,-0.38,0.31,-0.31,1005.90
8.527,0.08,1.04,-0.62,1.80,3.40,1.00,-0.38,0.31,-0.31,1005.94
8.54,0.85,1.20,-0.33,1.80,3.40,1.00,-0.38,0.31,-0.31,1005.94
8.541,0.61,0.99,-0.11,1.80,3.40,1.00,-0.38,0.31,-0.31,1005.94
8.542,-0.12,0.78,0.24,1.80,3.40,1.00,-0.38,0.31,-0.31,1005.94
8.542,-0.12,0.78,0.24,1.80,3.40,1.00,-0.62,-2.00,-0.14,1005.94
8.543,-0.12,0.78,0.24,1.43,1.86,-3.58,-0.62,-2.00,-0.14,1005.94
8.598,-0.38,0.89,0.07,1.43,1.86,-3.58,-0.62,-2.00,-0.14,1005.94
8.6,-0.36,1.03,-0.17,1.43,1.86,-3.58,-0.62,-2.00,-0.14,1005.94
8.601,-0.22,1.02,-0.22,1.43,1.86,-3.58,-0.62,-2.00,-0.14,1005.94
8.602,-0.22,1.02,-0.22,1.43,1.86,-3.58,-0.17,0.26,-0.29,1005.94
8.603,-0.22,1.02,-0.22,1.11,-0.48,2.71,-0.17,0.26,-0.29,1005.94
8.606,-0.22,1.02,-0.22,1.11,-0.48,2.71,-0.17,0.26,-0.29,1005.90
8.645,-0.22,1.02,-0.22,1.11,-0.48,2.71,-0.17,0.26,-0.29,1005.94
8.655,-0.15,1.02,-0.18,1.11,-0.48,2.71,-0.17,0.26,-0.29,1005.94
8.656,-0.25,0.99,-0.16,1.11,-0.48,2.71,-0.17,0.26,-0.29,1005.94
8.657,-0.28,0.97,-0.15,1.11,-0.48,2.71,-0.17,0.26,-0.29,1005.94
8.657,-0.28,0.97,-0.15,1.11,-0.48,2.71,-0.02,-0.70,0.13,1005.94
8.658,-0.28,0.97,-0.15,-1.55,0.78,0.18,-0.02,-0.70,0.13,1005.94
8.724,-0.13,0.93,-0.16,-1.55,0.78,0.18,-0.02,-0.70,0.13,1005.94
8.726,0.11,0.93,-0.17,-1.55,0.78,0.18,-0.02,-0.70,0.13,1005.94
8.727,0.20,1.04,-0.17,-1.55,0.78,0.18,-0.02,-0.70,0.13,1005.94
8.727,0.20,1.04,-0.17,-1.44,0.23,0.50,-0.02,-0.70,0.13,1005.94
8.727,0.20,1.04,-0.17,-1.44,0.23,0.50,0.11,-0.91,0.40,1005.94
8.728,0.20,1.04,-0.17,-1.44,0.23,0.50,0.11,-0.91,0.40,1005.93
8.773,0.12,1.03,-0.17,-1.44,0.23,0.50,0.11,-0.91,0.40,1005.93
8.774,-0.02,0.90,-0.15,-1.44,0.23,0.50,0.11,-0.91,0.40,1005.93
8.774,-0.13,0.91,-0.16,-1.44,0.23,0.50,0.11,-0.91,0.40,1005.93
8.775,-0.13,0.91,-0.16,-1.44,0.23,0.50,0.35,-0.09,-0.04,1005.93
8.775,-0.13,0.91,-0.16,2.13,0.60,0.56,0.35,-0.09,-0.04,1005.93
8.805,-0.13,0.91,-0.16,2.13,0.60,0.56,0.35,-0.09,-0.04,1005.93
8.832,-0.14,1.00,-0.19,2.13,0.60,0.56,0.35,-0.09,-0.04,1005.93
8.835,-0.06,0.99,-0.20,2.13,0.60,0.56,0.35,-0.09,-0.04,1005.93
8.836,-0.05,0.94,-0.18,2.13,0.60,0.56,0.35,-0.09,-0.04,1005.93
8.837,-0.05,0.94,-0.18,2.13,0.60,0.56,0.51,-0.44,-0.06,1005.93
8.838,-0.05,0.94,-0.18,-0.15,0.07,0.84,0.51,-0.44,-0.06,1005.93
8.846,-0.05,0.94,-0.18,-0.15,0.07,0.84,0.51,-0.44,-0.06,1005.93
8.889,-0.14,0.95,-0.19,-0.15,0.07,0.84,0.51,-0.44,-0.06,1005.93
8.891,-0.18,0.98,-0.20,-0.15,0.07,0.84,0.51,-0.44,-0.06,1005.93
8.892,-0.18,1.00,-0.28,-0.15,0.07,0.84,0.51,-0.44,-0.06,1005.93
8.894,-0.18,1.00,-0.28,-0.15,0.07,0.84,0.70,-0.17,0.06,1005.93
8.895,-0.18,1.00,-0.28,-0.03,0.38,0.95,0.70,-0.17,0.06,1005.93
8.926,-0.18,1.00,-0.28,-0.03,0.38,0.95,0.70,-0.17,0.06,1005.93
8.947,-0.06,1.01,-0.25,-0.03,0.38,0.95,0.70,-0.17,0.06,1005.93
8.949,0.07,1.05,-0.26,-0.03,0.38,0.95,0.70,-0.17,0.06,1005.93
8.95,0.09,1.07,-0.34,-0.03,0.38,0.95,0.70,-0.17,0.06,1005.93
8.95,0.09,1.07,-0.34,-0.03,0.38,0.95,0.99,-0.12,0.30,1005.93
8.951,0.09,1.07,-0.34,-0.69,0.90,0.91,0.99,-0.12,0.30,1005.93
9.006,0.21,1.13,-0.34,-0.69,0.90,0.91,0.99,-0.12,0.30,1005.93
9.007,0.23,1.25,-0.38,-0.69,0.90,0.91,0.99,-0.12,0.30,1005.93
9.007,0.21,1.42,-0.27,-0.69,0.90,0.91,0.99,-0.12,0.30,1005.93
9.008,0.21,1.42,-0.27,-0.69,0.90,0.91,1.58,-0.07,0.12,1005.93
9.008,0.21,1.42,-0.27,1.79,2.05,1.02,1.58,-0.07,0.12,1005.93
9.008,0.21,1.42,-0.27,1.79,2.05,1.02,1.58,-0.07,0.12,1005.94
9.046,0.21,1.42,-0.27,1.79,2.05,1.02,1.58,-0.07,0.12,1005.92
9.067,0.40,1.56,-0.03,1.79,2.05,1.02,1.58,-0.07,0.12,1005.92
9.069,0.58,1.62,0.18,1.79,2.05,1.02,1.58,-0.07,0.12,1005.92
9.07,0.37,1.52,0.25,1.79,2.05,1.02,1.58,-0.07,0.12,1005.92
9.07,0.37,1.52,0.25,3.71,5.82,2.94,1.58,-0.07,0.12,1005.92
9.071,0.37,1.52,0.25,3.71,5.82,2.94,2.50,-1.40,-0.06,1005.92
9.125,-0.20,1.47,0.51,3.71,5.82,2.94,2.50,-1.40,-0.06,1005.92
9.127,-0.56,1.33,0.57,3.71,5.82,2.94,2.50,-1.40,-0.06,1005.92
9.128,-0.94,1.39,0.22,3.71,5.82,2.94,2.50,-1.40,-0.06,1005.92
9.129,-0.94,1.39,0.22,3.71,5.82,2.94,2.37,-2.37,-0.67,1005.92
9.131,-0.94,1.39,0.22,4.39,7.76,8.96,2.37,-2.37,-0.67,1005.92
9.132,-0.94,1.39,0.22,4.39,7.76,8.96,2.37,-2.37,-0.67,1005.90
9.181,-1.15,1.39,-0.17,4.39,7.76,8.96,2.37,-2.37,-0.67,1005.90
9.182,-0.88,1.15,-0.42,4.39,7.76,8.96,2.37,-2.37,-0.67,1005.90
9.182,-0.40,1.14,-0.56,4.39,7.76,8.96,2.37,-2.37,-0.67,1005.90
9.184,-0.40,1.14,-0.56,4.39,7.76,8.96,1.90,-4.59,-0.75,1005.90
9.187,-0.40,1.14,-0.56,-4.71,6.80,7.74,1.90,-4.59,-0.75,1005.90
9.206,-0.40,1.14,-0.56,-4.71,6.80,7.74,1.90,-4.59,-0.75,1005.92
9.241,0.07,0.98,-0.20,-4.71,6.80,7.74,1.90,-4.59,-0.75,1005.92
9.245,0.09,0.67,0.19,-4.71,6.80,7.74,1.90,-4.59,-0.75,1005.92
9.246,-0.27,0.59,0.24,-4.71,6.80,7.74,1.90,-4.59,-0.75,1005.92
9.248,-0.27,0.59,0.24,-4.71,6.80,7.74,0.55,-4.33,0.79,1005.92
9.25,-0.27,0.59,0.24,1.00,3.96,0.94,0.55,-4.33,0.79,1005.92
9.251,-0.27,0.59,0.24,1.00,3.96,0.94,0.55,-4.33,0.79,1005.92
9.298,-0.45,0.63,0.05,1.00,3.96,0.94,0.55,-4.33,0.79,1005.92
9.299,-0.38,0.57,0.06,1.00,3.96,0.94,0.55,-4.33,0.79,1005.92
9.299,-0.29,0.52,0.03,1.00,3.96,0.94,0.55,-4.33,0.79,1005.92
9.3,-0.29,0.52,0.03,1.00,3.96,0.94,-0.32,-2.85,2.60,1005.92
9.301,-0.29,0.52,0.03,2.52,-1.34,5.27,-0.32,-2.85,2.60,1005.92
9.327,-0.29,0.52,0.03,2.52,-1.34,5.27,-0.32,-2.85,2.60,1005.92
9.355,-0.21,0.56,-0.02,2.52,-1.34,5.27,-0.32,-2.85,2.60,1005.92
9.356,-0.16,0.64,-0.05,2.52,-1.34,5.27,-0.32,-2.85,2.60,1005.92
9.357,-0.20,0.78,-0.07,2.52,-1.34,5.27,-0.32,-2.85,2.60,1005.92
9.357,-0.20,0.78,-0.07,2.52,-1.34,5.27,-1.02,-1.35,4.57,1005.92
9.357,-0.20,0.78,-0.07,-0.23,-3.23,3.08,-1.02,-1.35,4.57,1005.92
9.407,-0.20,0.78,-0.07,-0.23,-3.23,3.08,-1.02,-1.35,4.57,1005.94
9.415,-0.26,0.94,-0.09,-0.23,-3.23,3.08,-1.02,-1.35,4.57,1005.94
9.416,-0.34,1.13,-0.11,-0.23,-3.23,3.08,-1.02,-1.35,4.57,1005.94
9.417,-0.49,1.38,-0.20,-0.23,-3.23,3.08,-1.02,-1.35,4.57,1005.94
9.418,-0.49,1.38,-0.20,-0.23,-3.23,3.08,-2.02,-0.35,5.50,1005.94
9.419,-0.49,1.38,-0.20,-2.18,-1.58,1.08,-2.02,-0.35,5.50,1005.94
9.447,-0.49,1.38,-0.20,-2.18,-1.58,1.08,-2.02,-0.35,5.50,1005.93
9.472,-0.71,1.60,-0.31,-2.18,-1.58,1.08,-2.02,-0.35,5.50,1005.93
9.473,-0.76,1.51,-0.34,-2.18,-1.58,1.08,-2.02,-0.35,5.50,1005.93
9.473,-0.88,1.35,-0.31,-2.18,-1.58,1.08,-2.02,-0.35,5.50,1005.93
9.474,-0.88,1.35,-0.31,-7.95,4.40,-1.64,-2.02,-0.35,5.50,1005.93
9.475,-0.88,1.35,-0.31,-7.95,4.40,-1.64,-2.79,-1.03,5.56,1005.93
9.525,-0.88,1.35,-0.31,-7.95,4.40,-1.64,-2.79,-1.03,5.56,1005.89
9.53,-0.87,1.29,-0.14,-7.95,4.40,-1.64,-2.79,-1.03,5.56,1005.89
9.531,-0.79,1.13,-0.30,-7.95,4.40,-1.64,-2.79,-1.03,5.56,1005.89
9.531,-1.04,0.89,-0.44,-7.95,4.40,-1.64,-2.79,-1.03,5.56,1005.89
9.532,-1.04,0.89,-0.44,-12.41,5.11,-3.00,-2.79,-1.03,5.56,1005.89
9.533,-1.04,0.89,-0.44,-12.41,5.11,-3.00,-1.97,-0.54,2.86,1005.89
9.589,-1.21,0.69,-0.43,-12.41,5.11,-3.00,-1.97,-0.54,2.86,1005.89
9.59,-1.12,0.71,-0.58,-12.41,5.11,-3.00,-1.97,-0.54,2.86,1005.89
9.591,-0.55,1.44,-0.95,-12.41,5.11,-3.00,-1.97,-0.54,2.86,1005.89
9.591,-0.55,1.44,-0.95,-12.41,5.11,-3.00,-0.06,-0.80,-1.75,1005.89
9.592,-0.55,1.44,-0.95,-13.05,-0.02,-4.04,-0.06,-0.80,-1.75,1005.89
9.605,-0.55,1.44,-0.95,-13.05,-0.02,-4.04,-0.06,-0.80,-1.75,1005.88
9.645,-0.55,1.44,-0.95,-13.05,-0.02,-4.04,-0.06,-0.80,-1.75,1005.89
9.647,1.25,1.95,-0.15,-13.05,-0.02,-4.04,-0.06,-0.80,-1.75,1005.89
9.648,2.32,1.42,-0.32,-13.05,-0.02,-4.04,-0.06,-0.80,-1.75,1005.89
9.648,0.47,1.70,-1.08,-13.05,-0.02,-4.04,-0.06,-0.80,-1.75,1005.89
9.649,0.47,1.70,-1.08,-13.05,-0.02,-4.04,0.11,-3.17,-0.82,1005.89
9.649,0.47,1.70,-1.08,-3.95,4.35,-5.07,0.11,-3.17,-0.82,1005.89
9.707,-0.75,1.20,-0.43,-3.95,4.35,-5.07,0.11,-3.17,-0.82,1005.89
9.708,-0.46,0.43,0.50,-3.95,4.35,-5.07,0.11,-3.17,-0.82,1005.89
9.708,-0.34,0.59,0.80,-3.95,4.35,-5.07,0.11,-3.17,-0.82,1005.89
9.708,-0.34,0.59,0.80,5.51,4.64,-5.42,0.11,-3.17,-0.82,1005.89
9.709,-0.34,0.59,0.80,5.51,4.64,-5.42,-0.14,-0.60,-2.82,1005.89
9.729,-0.34,0.59,0.80,5.51,4.64,-5.42,-0.14,-0.60,-2.82,1005.90
9.764,-0.01,1.07,0.23,5.51,4.64,-5.42,-0.14,-0.60,-2.82,1005.90
9.765,0.20,1.27,-0.17,5.51,4.64,-5.42,-0.14,-0.60,-2.82,1005.90
9.766,-0.05,1.11,-0.08,5.51,4.64,-5.42,-0.14,-0.60,-2.82,1005.90
9.766,-0.05,1.11,-0.08,-3.01,-2.63,5.63,-0.14,-0.60,-2.82,1005.90
9.766,-0.05,1.11,-0.08,-3.01,-2.63,5.63,0.36,0.14,-1.30,1005.90
9.806,-0.05,1.11,-0.08,-3.01,-2.63,5.63,0.36,0.14,-1.30,1005.95
9.825,-0.21,1.03,-0.26,-3.01,-2.63,5.63,0.36,0.14,-1.30,1005.95
9.827,-0.25,1.05,-0.21,-3.01,-2.63,5.63,0.36,0.14,-1.30,1005.95
9.828,-0.14,1.01,-0.07,-3.01,-2.63,5.63,0.36,0.14,-1.30,1005.95
9.829,-0.14,1.01,-0.07,-3.01,-2.63,5.63,0.34,-0.57,-1.08,1005.95
9.83,-0.14,1.01,-0.07,0.05,1.67,-0.83,0.34,-0.57,-1.08,1005.95
9.866,-0.14,1.01,-0.07,0.05,1.67,-0.83,0.34,-0.57,-1.08,1005.95
9.882,0.12,0.99,-0.08,0.05,1.67,-0.83,0.34,-0.57,-1.08,1005.95
9.883,0.27,0.98,-0.04,0.05,1.67,-0.83,0.34,-0.57,-1.08,1005.95
9.884,-0.01,0.99,-0.05,0.05,1.67,-0.83,0.34,-0.57,-1.08,1005.95
9.884,-0.01,0.99,-0.05,0.05,1.67,-0.83,0.28,-0.34,-0.88,1005.95
9.885,-0.01,0.99,-0.05,-0.14,0.55,-0.17,0.28,-0.34,-0.88,1005.95
9.927,-0.01,0.99,-0.05,-0.14,0.55,-0.17,0.28,-0.34,-0.88,1005.93
9.949,-0.01,0.99,-0.05,1.55,0.31,0.68,0.28,-0.34,-0.88,1005.93
9.949,-0.19,0.99,-0.07,1.55,0.31,0.68,0.28,-0.34,-0.88,1005.93
9.95,-0.13,1.01,-0.07,1.55,0.31,0.68,0.28,-0.34,-0.88,1005.93
9.95,-0.17,1.05,-0.10,1.55,0.31,0.68,0.28,-0.34,-0.88,1005.93
9.95,-0.17,1.05,-0.10,1.55,0.31,0.68,0.35,0.18,-1.11,1005.93
9.998,-0.21,1.05,-0.13,1.55,0.31,0.68,0.35,0.18,-1.11,1005.93
9.999,-0.06,1.00,-0.12,1.55,0.31,0.68,0.35,0.18,-1.11,1005.93
9.999,0.00,0.99,-0.08,1.55,0.31,0.68,0.35,0.18,-1.11,1005.93
9.999,0.00,0.99,-0.08,1.55,0.31,0.68,0.46,0.14,-1.03,1005.93
9.999,0.00,0.99,-0.08,0.18,0.91,0.46,0.46,0.14,-1.03,1005.93
10.006,0.00,0.99,-0.08,0.18,0.91,0.46,0.46,0.14,-1.03,1005.93
10.046,0.00,0.99,-0.08,0.18,0.91,0.46,0.46,0.14,-1.03,1005.92
10.077,-0.01,1.02,-0.04,0.18,0.91,0.46,0.46,0.14,-1.03,1005.92
10.078,-0.04,1.04,0.01,0.18,0.91,0.46,0.46,0.14,-1.03,1005.92
10.078,-0.02,1.12,-0.01,0.18,0.91,0.46,0.46,0.14,-1.03,1005.92
10.079,-0.02,1.12,-0.01,0.18,0.91,0.46,0.75,0.42,-1.40,1005.92
10.079,-0.02,1.12,-0.01,2.29,0.87,1.08,0.75,0.42,-1.40,1005.92
10.116,-0.03,1.22,-0.08,2.29,0.87,1.08,0.75,0.42,-1.40,1005.92
10.117,-0.05,1.27,-0.15,2.29,0.87,1.08,0.75,0.42,-1.40,1005.92
10.117,0.06,1.33,-0.17,2.29,0.87,1.08,0.75,0.42,-1.40,1005.92
10.118,0.06,1.33,-0.17,3.06,2.53,2.33,0.75,0.42,-1.40,1005.92
10.118,0.06,1.33,-0.17,3.06,2.53,2.33,1.35,0.43,-1.86,1005.92
10.127,0.06,1.33,-0.17,3.06,2.53,2.33,1.35,0.43,-1.86,1005.92
10.175,0.28,1.47,-0.08,3.06,2.53,2.33,1.35,0.43,-1.86,1005.92
10.177,0.68,1.69,0.08,3.06,2.53,2.33,1.35,0.43,-1.86,1005.92
10.178,1.09,1.80,0.18,3.06,2.53,2.33,1.35,0.43,-1.86,1005.92
10.178,1.09,1.80,0.18,3.06,2.53,2.33,1.86,0.48,-2.11,1005.92
10.178,1.09,1.80,0.18,5.14,5.46,2.23,1.86,0.48,-2.11,1005.92
10.205,1.09,1.80,0.18,5.14,5.46,2.23,1.86,0.48,-2.11,1005.93
10.235,0.83,1.56,0.30,5.14,5.46,2.23,1.86,0.48,-2.11,1005.93
10.237,-0.26,1.23,0.11,5.14,5.46,2.23,1.86,0.48,-2.11,1005.93
10.238,-1.03,1.46,-0.13,5.14,5.46,2.23,1.86,0.48,-2.11,1005.93
10.238,-1.03,1.46,-0.13,13.32,9.86,6.66,1.86,0.48,-2.11,1005.93
10.24,-1.03,1.46,-0.13,13.32,9.86,6.66,1.88,2.10,-3.35,1005.93
10.251,-1.03,1.46,-0.13,13.32,9.86,6.66,1.88,2.10,-3.35,1005.94
10.291,-1.27,1.54,-0.31,13.32,9.86,6.66,1.88,2.10,-3.35,1005.94
10.293,-1.12,1.05,-0.60,13.32,9.86,6.66,1.88,2.10,-3.35,1005.94
10.294,-0.58,0.72,-0.36,13.32,9.86,6.66,1.88,2.10,-3.35,1005.94
10.295,-0.58,0.72,-0.36,-2.55,8.30,4.16,1.88,2.10,-3.35,1005.94
10.296,-0.58,0.72,-0.36,-2.55,8.30,4.16,1.61,-0.12,-2.47,1005.94
10.335,-0.58,0.72,-0.36,-2.55,8.30,4.16,1.61,-0.12,-2.47,1005.92
10.348,-0.27,0.46,-0.43,-2.55,8.30,4.16,1.61,-0.12,-2.47,1005.92
10.348,-0.18,0.31,-0.32,-2.55,8.30,4.16,1.61,-0.12,-2.47,1005.92
10.349,-0.19,0.14,-0.10,-2.55,8.30,4.16,1.61,-0.12,-2.47,1005.92
10.349,-0.19,0.14,-0.10,-2.55,8.30,4.16,-1.10,-0.95,0.79,1005.92
10.349,-0.19,0.14,-0.10,-0.64,1.16,-0.02,-1.10,-0.95,0.79,1005.92
10.407,-0.17,0.08,-0.18,-0.64,1.16,-0.02,-1.10,-0.95,0.79,1005.92
10.408,-0.19,0.15,-0.25,-0.64,1.16,-0.02,-1.10,-0.95,0.79,1005.92
10.408,-0.15,0.29,-0.32,-0.64,1.16,-0.02,-1.10,-0.95,0.79,1005.92
10.409,-0.15,0.29,-0.32,-0.64,1.16,-0.02,-2.08,-0.86,3.01,1005.92
10.409,-0.15,0.29,-0.32,3.02,-5.70,1.45,-2.08,-0.86,3.01,1005.92
10.409,-0.15,0.29,-0.32,3.02,-5.70,1.45,-2.08,-0.86,3.01,1005.89
10.447,-0.15,0.29,-0.32,3.02,-5.70,1.45,-2.08,-0.86,3.01,1005.94
10.469,-0.05,0.46,-0.42,3.02,-5.70,1.45,-2.08,-0.86,3.01,1005.94
10.47,-0.08,0.61,-0.31,3.02,-5.70,1.45,-2.08,-0.86,3.01,1005.94
10.471,-0.12,0.70,-0.21,3.02,-5.70,1.45,-2.08,-0.86,3.01,1005.94
10.471,-0.12,0.70,-0.21,1.18,-5.88,-1.31,-2.08,-0.86,3.01,1005.94
10.471,-0.12,0.70,-0.21,1.18,-5.88,-1.31,-2.97,-0.48,4.89,1005.94
10.524,-0.12,0.82,-0.47,1.18,-5.88,-1.31,-2.97,-0.48,4.89,1005.94
10.526,-0.11,1.15,-0.52,1.18,-5.88,-1.31,-2.97,-0.48,4.89,1005.94
10.528,-0.03,1.59,-0.54,1.18,-5.88,-1.31,-2.97,-0.48,4.89,1005.94
10.529,-0.03,1.59,-0.54,-1.72,-2.35,-2.76,-2.97,-0.48,4.89,1005.94
10.53,-0.03,1.59,-0.54,-1.72,-2.35,-2.76,-2.87,1.02,5.80,1005.94
10.531,-0.03,1.59,-0.54,-1.72,-2.35,-2.76,-2.87,1.02,5.80,1005.95
10.582,-0.26,1.99,-0.63,-1.72,-2.35,-2.76,-2.87,1.02,5.80,1005.95
10.583,-0.84,2.01,-0.58,-1.72,-2.35,-2.76,-2.87,1.02,5.80,1005.95
10.583,-1.21,1.45,-0.36,-1.72,-2.35,-2.76,-2.87,1.02,5.80,1005.95
10.584,-1.21,1.45,-0.36,-1.72,-2.35,-2.76,-3.11,1.27,5.04,1005.95
10.584,-1.21,1.45,-0.36,-4.57,6.69,-6.76,-3.11,1.27,5.04,1005.95
10.607,-1.21,1.45,-0.36,-4.57,6.69,-6.76,-3.11,1.27,5.04,1005.94
10.64,-1.23,0.90,-0.29,-4.57,6.69,-6.76,-3.11,1.27,5.04,1005.94
10.642,-0.88,0.78,-0.45,-4.57,6.69,-6.76,-3.11,1.27,5.04,1005.94
10.642,-0.88,0.73,-0.47,-4.57,6.69,-6.76,-3.11,1.27,5.04,1005.94
10.642,-0.88,0.73,-0.47,-14.41,5.77,-5.66,-3.11,1.27,5.04,1005.94
10.643,-0.88,0.73,-0.47,-14.41,5.77,-5.66,-1.13,-0.21,1.34,1005.94
10.651,-0.88,0.73,-0.47,-14.41,5.77,-5.66,-1.13,-0.21,1.34,1005.89
10.698,-1.02,0.76,-0.51,-14.41,5.77,-5.66,-1.13,-0.21,1.34,1005.89
10.699,-0.35,1.75,-0.25,-14.41,5.77,-5.66,-1.13,-0.21,1.34,1005.89
10.699,2.20,1.93,1.54,-14.41,5.77,-5.66,-1.13,-0.21,1.34,1005.89
10.699,2.20,1.93,1.54,-11.73,-1.39,-6.00,-1.13,-0.21,1.34,1005.89
10.699,2.20,1.93,1.54,-11.73,-1.39,-6.00,-0.02,-1.06,-1.90,1005.89
10.726,2.20,1.93,1.54,-11.73,-1.39,-6.00,-0.02,-1.06,-1.90,1005.88
10.756,1.67,1.49,-0.03,-11.73,-1.39,-6.00,-0.02,-1.06,-1.90,1005.88
10.757,-0.62,1.48,-1.86,-11.73,-1.39,-6.00,-0.02,-1.06,-1.90,1005.88
10.757,-0.72,0.99,-0.31,-11.73,-1.39,-6.00,-0.02,-1.06,-1.90,1005.88
10.757,-0.72,0.99,-0.31,-11.73,-1.39,-6.00,0.96,-0.60,-2.38,1005.88
10.757,-0.72,0.99,-0.31,9.88,7.61,3.30,0.96,-0.60,-2.38,1005.88
10.806,-0.72,0.99,-0.31,9.88,7.61,3.30,0.96,-0.60,-2.38,1005.90
10.815,0.10,0.48,0.78,9.88,7.61,3.30,0.96,-0.60,-2.38,1005.90
10.816,-0.22,0.98,0.25,9.88,7.61,3.30,0.96,-0.60,-2.38,1005.90
10.816,-0.33,1.16,0.17,9.88,7.61,3.30,0.96,-0.60,-2.38,1005.90
10.817,-0.33,1.16,0.17,9.88,7.61,3.30,0.35,-0.52,-1.94,1005.90
10.817,-0.33,1.16,0.17,-4.54,0.23,-5.05,0.35,-0.52,-1.94,1005.90
10.847,-0.33,1.16,0.17,-4.54,0.23,-5.05,0.35,-0.52,-1.94,1005.94
10.874,-0.18,1.06,-0.07,-4.54,0.23,-5.05,0.35,-0.52,-1.94,1005.94
10.875,0.06,0.95,-0.06,-4.54,0.23,-5.05,0.35,-0.52,-1.94,1005.94
10.876,0.10,1.02,-0.02,-4.54,0.23,-5.05,0.35,-0.52,-1.94,1005.94
10.876,0.10,1.02,-0.02,-4.54,0.23,-5.05,0.44,-0.01,-1.24,1005.94
10.876,0.10,1.02,-0.02,-2.15,1.02,0.86,0.44,-0.01,-1.24,1005.94
10.926,0.10,1.02,-0.02,-2.15,1.02,0.86,0.44,-0.01,-1.24,1005.96
10.931,0.10,1.02,-0.02,0.88,0.64,-0.26,0.44,-0.01,-1.24,1005.96
10.932,-0.14,1.11,0.02,0.88,0.64,-0.26,0.44,-0.01,-1.24,1005.96
10.933,-0.36,1.04,0.07,0.88,0.64,-0.26,0.44,-0.01,-1.24,1005.96
10.934,-0.25,0.94,0.04,0.88,0.64,-0.26,0.44,-0.01,-1.24,1005.96
10.935,-0.25,0.94,0.04,0.88,0.64,-0.26,0.37,0.07,-1.09,1005.96
10.991,0.05,0.98,0.05,0.88,0.64,-0.26,0.37,0.07,-1.09,1005.96
10.992,0.19,1.04,0.08,0.88,0.64,-0.26,0.37,0.07,-1.09,1005.96
10.992,0.06,1.00,0.05,0.88,0.64,-0.26,0.37,0.07,-1.09,1005.96
10.992,0.06,1.00,0.05,0.88,0.64,-0.26,0.39,-0.16,-0.94,1005.96
10.993,0.06,1.00,0.05,-0.49,0.30,0.65,0.39,-0.16,-0.94,1005.96
11.006,0.06,1.00,0.05,-0.49,0.30,0.65,0.39,-0.16,-0.94,1005.95
11.046,0.06,1.00,0.05,-0.49,0.30,0.65,0.39,-0.16,-0.94,1005.95
11.049,-0.14,0.98,0.01,-0.49,0.30,0.65,0.39,-0.16,-0.94,1005.95
11.051,-0.22,1.01,-0.02,-0.49,0.30,0.65,0.39,-0.16,-0.94,1005.95
11.052,-0.26,1.04,-0.06,-0.49,0.30,0.65,0.39,-0.16,-0.94,1005.95
11.053,-0.26,1.04,-0.06,-0.49,0.30,0.65,0.48,0.48,-1.32,1005.95
11.054,-0.26,1.04,-0.06,2.38,0.60,0.88,0.48,0.48,-1.32,1005.95
11.106,-0.24,1.03,-0.07,2.38,0.60,0.88,0.48,0.48,-1.32,1005.95
11.107,-0.15,0.99,-0.09,2.38,0.60,0.88,0.48,0.48,-1.32,1005.95
11.108,-0.12,0.90,-0.16,2.38,0.60,0.88,0.48,0.48,-1.32,1005.95
11.108,-0.12,0.90,-0.16,2.38,0.60,0.88,0.42,0.35,-1.30,1005.95
11.109,-0.12,0.90,-0.16,0.33,0.96,0.17,0.42,0.35,-1.30,1005.95
11.127,-0.12,0.90,-0.16,0.33,0.96,0.17,0.42,0.35,-1.30,1005.94
11.165,-0.15,0.90,-0.14,0.33,0.96,0.17,0.42,0.35,-1.30,1005.94
11.166,-0.24,1.01,-0.05,0.33,0.96,0.17,0.42,0.35,-1.30,1005.94
11.166,-0.33,1.19,0.02,0.33,0.96,0.17,0.42,0.35,-1.30,1005.94
11.167,-0.33,1.19,0.02,0.33,0.96,0.17,0.46,0.42,-1.60,1005.94
11.167,-0.33,1.19,0.02,2.08,0.34,-0.26,0.46,0.42,-1.60,1005.94
11.206,-0.33,1.19,0.02,2.08,0.34,-0.26,0.46,0.42,-1.60,1005.94
11.222,-0.22,1.24,0.04,2.08,0.34,-0.26,0.46,0.42,-1.60,1005.94
11.223,-0.05,1.19,-0.02,2.08,0.34,-0.26,0.46,0.42,-1.60,1005.94
11.224,0.03,1.24,-0.15,2.08,0.34,-0.26,0.46,0.42,-1.60,1005.94
11.225,0.03,1.24,-0.15,2.08,0.34,-0.26,0.74,0.15,-1.85,1005.94
11.226,0.03,1.24,-0.15,1.76,2.91,1.40,0.74,0.15,-1.85,1005.94
11.246,0.03,1.24,-0.15,1.76,2.91,1.40,0.74,0.15,-1.85,1005.95
11.281,0.15,1.51,-0.16,1.76,2.91,1.40,0.74,0.15,-1.85,1005.95
11.282,0.57,1.91,0.01,1.76,2.91,1.40,0.74,0.15,-1.85,1005.95
11.282,1.12,1.86,-0.15,1.76,2.91,1.40,0.74,0.15,-1.85,1005.95
11.283,1.12,1.86,-0.15,1.76,2.91,1.40,0.94,1.67,-2.20,1005.95
11.283,1.12,1.86,-0.15,5.52,5.13,1.21,0.94,1.67,-2.20,1005.95
11.327,1.12,1.86,-0.15,5.52,5.13,1.21,0.94,1.67,-2.20,1005.93
11.34,0.73,1.21,-0.28,5.52,5.13,1.21,0.94,1.67,-2.20,1005.93
11.341,-0.44,0.74,-0.26,5.52,5.13,1.21,0.94,1.67,-2.20,1005.93
11.341,-1.30,1.01,-0.46,5.52,5.13,1.21,0.94,1.67,-2.20,1005.93
11.342,-1.30,1.01,-0.46,5.52,5.13,1.21,1.39,3.14,-3.16,1005.93
11.342,-1.30,1.01,-0.46,13.50,9.67,2.45,1.39,3.14,-3.16,1005.93
11.398,-1.53,1.44,-0.39,13.50,9.67,2.45,1.39,3.14,-3.16,1005.93
11.399,-1.15,0.89,-0.25,13.50,9.67,2.45,1.39,3.14,-3.16,1005.93
11.399,-0.95,0.53,-0.35,13.50,9.67,2.45,1.39,3.14,-3.16,1005.93
11.4,-0.95,0.53,-0.35,13.50,9.67,2.45,1.32,0.36,-1.79,1005.93
11.4,-0.95,0.53,-0.35,-4.45,4.67,0.74,1.32,0.36,-1.79,1005.93
11.406,-0.95,0.53,-0.35,-4.45,4.67,0.74,1.32,0.36,-1.79,1005.92
11.447,-0.95,0.53,-0.35,-4.45,4.67,0.74,1.32,0.36,-1.79,1005.89
11.468,-0.73,0.49,-0.10,-4.45,4.67,0.74,1.32,0.36,-1.79,1005.89
11.469,-0.35,0.26,0.19,-4.45,4.67,0.74,1.32,0.36,-1.79,1005.89
11.47,0.00,-0.05,0.28,-4.45,4.67,0.74,1.32,0.36,-1.79,1005.89
11.47,0.00,-0.05,0.28,-4.45,4.67,0.74,-0.59,-2.26,1.47,1005.89
11.47,0.00,-0.05,0.28,-2.92,-0.19,1.03,-0.59,-2.26,1.47,1005.89
11.515,0.14,-0.09,0.05,-2.92,-0.19,1.03,-0.59,-2.26,1.47,1005.89
11.516,0.07,0.22,-0.12,-2.92,-0.19,1.03,-0.59,-2.26,1.47,1005.89
11.516,-0.05,0.48,-0.19,-2.92,-0.19,1.03,-0.59,-2.26,1.47,1005.89
11.517,-0.05,0.48,-0.19,4.28,-7.11,4.53,-0.59,-2.26,1.47,1005.89
11.517,-0.05,0.48,-0.19,4.28,-7.11,4.53,0.15,-1.44,3.73,1005.89
11.527,-0.05,0.48,-0.19,4.28,-7.11,4.53,0.15,-1.44,3.73,1005.88
11.573,-0.40,0.58,-0.13,4.28,-7.11,4.53,0.15,-1.44,3.73,1005.88
11.574,-0.54,0.64,-0.16,4.28,-7.11,4.53,0.15,-1.44,3.73,1005.88
11.574,-0.67,0.83,-0.17,4.28,-7.11,4.53,0.15,-1.44,3.73,1005.88
11.575,-0.67,0.83,-0.17,4.28,-7.11,4.53,0.39,-1.43,5.31,1005.88
11.575,-0.67,0.83,-0.17,1.39,-4.39,1.25,0.39,-1.43,5.31,1005.88
11.608,-0.67,0.83,-0.17,1.39,-4.39,1.25,0.39,-1.43,5.31,1005.97
11.632,-0.97,1.11,-0.02,1.39,-4.39,1.25,0.39,-1.43,5.31,1005.97
11.633,-1.01,1.14,-0.14,1.39,-4.39,1.25,0.39,-1.43,5.31,1005.97
11.634,-0.74,1.28,-0.28,1.39,-4.39,1.25,0.39,-1.43,5.31,1005.97
11.634,-0.74,1.28,-0.28,-6.99,-0.58,1.35,0.39,-1.43,5.31,1005.97
11.635,-0.74,1.28,-0.28,-6.99,-0.58,1.35,0.54,-6.24,6.84,1005.97
11.648,-0.74,1.28,-0.28,-6.99,-0.58,1.35,0.54,-6.24,6.84,1005.96
11.691,-0.60,1.55,-0.33,-6.99,-0.58,1.35,0.54,-6.24,6.84,1005.96
11.691,-0.55,1.55,-0.01,-6.99,-0.58,1.35,0.54,-6.24,6.84,1005.96
11.692,-0.47,1.38,0.40,-6.99,-0.58,1.35,0.54,-6.24,6.84,1005.96
11.692,-0.47,1.38,0.40,-6.99,-0.58,1.35,0.99,-9.80,5.46,1005.96
11.693,-0.47,1.38,0.40,-8.57,4.29,0.93,0.99,-9.80,5.46,1005.96
11.727,-0.47,1.38,0.40,-8.57,4.29,0.93,0.99,-9.80,5.46,1005.91
11.747,-0.14,1.15,0.54,-8.57,4.29,0.93,0.99,-9.80,5.46,1005.91
11.748,0.11,0.86,0.73,-8.57,4.29,0.93,0.99,-9.80,5.46,1005.91
11.748,-0.93,1.03,-0.07,-8.57,4.29,0.93,0.99,-9.80,5.46,1005.91
11.748,-0.93,1.03,-0.07,-8.57,4.29,0.93,-0.33,-4.93,1.67,1005.91
11.748,-0.93,1.03,-0.07,-4.44,4.56,6.39,-0.33,-4.93,1.67,1005.91
11.806,-1.85,1.60,0.99,-4.44,4.56,6.39,-0.33,-4.93,1.67,1005.91
11.807,-0.27,0.69,0.69,-4.44,4.56,6.39,-0.33,-4.93,1.67,1005.91
11.807,0.50,0.91,-0.71,-4.44,4.56,6.39,-0.33,-4.93,1.67,1005.91
11.807,0.50,0.91,-0.71,-4.44,4.56,6.39,-0.66,0.42,-1.26,1005.91
11.808,0.50,0.91,-0.71,-4.44,4.56,6.39,-0.66,0.42,-1.26,1005.92
11.811,0.50,0.91,-0.71,-8.66,2.47,8.29,-0.66,0.42,-1.26,1005.92
11.846,0.50,0.91,-0.71,-8.66,2.47,8.29,-0.66,0.42,-1.26,1005.96
11.872,0.30,1.99,-1.21,-8.66,2.47,8.29,-0.66,0.42,-1.26,1005.96
11.874,-0.21,1.53,-0.59,-8.66,2.47,8.29,-0.66,0.42,-1.26,1005.96
11.874,-0.20,0.83,-0.32,-8.66,2.47,8.29,-0.66,0.42,-1.26,1005.96
11.874,-0.20,0.83,-0.32,-8.66,2.47,8.29,-0.60,-1.33,-0.50,1005.96
11.875,-0.20,0.83,-0.32,2.25,2.63,-1.45,-0.60,-1.33,-0.50,1005.96
11.923,0.33,0.75,-0.13,2.25,2.63,-1.45,-0.60,-1.33,-0.50,1005.96
11.925,0.20,0.87,0.02,2.25,2.63,-1.45,-0.60,-1.33,-0.50,1005.96
11.926,-0.20,0.98,0.10,2.25,2.63,-1.45,-0.60,-1.33,-0.50,1005.96
11.926,-0.20,0.98,0.10,2.25,2.63,-1.45,-0.60,-0.86,-0.35,1005.96
11.927,-0.20,0.98,0.10,0.52,1.02,-1.20,-0.60,-0.86,-0.35,1005.96
11.927,-0.20,0.98,0.10,0.52,1.02,-1.20,-0.60,-0.86,-0.35,1005.93
11.982,-0.43,1.00,-0.03,0.52,1.02,-1.20,-0.60,-0.86,-0.35,1005.93
11.983,-0.44,0.99,-0.19,0.52,1.02,-1.20,-0.60,-0.86,-0.35,1005.93
11.984,-0.28,0.96,-0.27,0.52,1.02,-1.20,-0.60,-0.86,-0.35,1005.93
11.984,-0.28,0.96,-0.27,0.52,1.02,-1.20,-0.19,-0.11,-0.15,1005.93
11.984,-0.28,0.96,-0.27,-0.51,0.12,2.35,-0.19,-0.11,-0.15,1005.93
12.01,-0.28,0.96,-0.27,-0.51,0.12,2.35,-0.19,-0.11,-0.15,1005.97
12.043,-0.14,0.96,-0.24,-0.51,0.12,2.35,-0.19,-0.11,-0.15,1005.97
12.043,-0.07,0.99,-0.22,-0.51,0.12,2.35,-0.19,-0.11,-0.15,1005.97
12.044,-0.00,1.00,-0.23,-0.51,0.12,2.35,-0.19,-0.11,-0.15,1005.97
12.044,-0.00,1.00,-0.23,-0.51,0.12,2.35,-0.11,-1.07,0.31,1005.97
12.044,-0.00,1.00,-0.23,-1.91,0.31,-0.34,-0.11,-1.07,0.31,1005.97
12.052,-0.00,1.00,-0.23,-1.91,0.31,-0.34,-0.11,-1.07,0.31,1005.97
12.099,0.04,0.96,-0.17,-1.91,0.31,-0.34,-0.11,-1.07,0.31,1005.97
12.1,-0.04,0.93,-0.16,-1.91,0.31,-0.34,-0.11,-1.07,0.31,1005.97
12.1,-0.15,0.98,-0.14,-1.91,0.31,-0.34,-0.11,-1.07,0.31,1005.97
12.1,-0.15,0.98,-0.14,-1.91,0.31,-0.34,0.03,-0.32,0.23,1005.97
12.101,-0.15,0.98,-0.14,0.70,0.42,-0.04,0.03,-0.32,0.23,1005.97
12.128,-0.15,0.98,-0.14,0.70,0.42,-0.04,0.03,-0.32,0.23,1005.96
12.159,-0.15,0.98,-0.14,-0.49,0.27,0.49,0.03,-0.32,0.23,1005.96
12.16,-0.18,1.00,-0.16,-0.49,0.27,0.49,0.03,-0.32,0.23,1005.96
12.161,-0.12,0.96,-0.18,-0.49,0.27,0.49,0.03,-0.32,0.23,1005.96
12.161,-0.06,0.96,-0.17,-0.49,0.27,0.49,0.03,-0.32,0.23,1005.96
12.162,-0.06,0.96,-0.17,-0.49,0.27,0.49,0.13,-0.43,0.28,1005.96
12.206,-0.06,0.96,-0.17,-0.49,0.27,0.49,0.13,-0.43,0.28,1005.97
12.213,-0.07,0.98,-0.17,-0.49,0.27,0.49,0.13,-0.43,0.28,1005.97
12.214,-0.09,0.98,-0.19,-0.49,0.27,0.49,0.13,-0.43,0.28,1005.97
12.214,-0.08,0.96,-0.23,-0.49,0.27,0.49,0.13,-0.43,0.28,1005.97
12.214,-0.08,0.96,-0.23,-0.49,0.27,0.49,0.20,-0.61,0.34,1005.97
12.214,-0.08,0.96,-0.23,-0.23,0.26,0.41,0.20,-0.61,0.34,1005.97
12.247,-0.08,0.96,-0.23,-0.23,0.26,0.41,0.20,-0.61,0.34,1005.96
12.272,-0.03,0.98,-0.22,-0.23,0.26,0.41,0.20,-0.61,0.34,1005.96
12.273,0.03,0.98,-0.26,-0.23,0.26,0.41,0.20,-0.61,0.34,1005.96
12.273,-0.04,1.01,-0.19,-0.23,0.26,0.41,0.20,-0.61,0.34,1005.96
12.273,-0.04,1.01,-0.19,-0.23,0.26,0.41,0.21,-0.24,0.39,1005.96
12.273,-0.04,1.01,-0.19,-0.22,0.32,0.12,0.21,-0.24,0.39,1005.96
12.328,-0.04,1.01,-0.19,-0.22,0.32,0.12,0.21,-0.24,0.39,1005.96
12.33,-0.14,1.00,-0.14,-0.22,0.32,0.12,0.21,-0.24,0.39,1005.96
12.33,-0.04,0.96,-0.15,-0.22,0.32,0.12,0.21,-0.24,0.39,1005.96
12.33,0.10,0.94,-0.05,-0.22,0.32,0.12,0.21,-0.24,0.39,1005.96
12.331,0.10,0.94,-0.05,-0.22,0.32,0.12,0.39,-0.20,0.43,1005.96
12.331,0.10,0.94,-0.05,-0.26,0.59,0.49,0.39,-0.20,0.43,1005.96
12.39,0.18,0.96,-0.08,-0.26,0.59,0.49,0.39,-0.20,0.43,1005.96
12.391,0.16,0.96,-0.09,-0.26,0.59,0.49,0.39,-0.20,0.43,1005.96
12.391,-0.02,0.92,-0.24,-0.26,0.59,0.49,0.39,-0.20,0.43,1005.96
12.391,-0.02,0.92,-0.24,-0.26,0.59,0.49,0.92,-0.06,0.21,1005.96
12.391,-0.02,0.92,-0.24,0.86,0.31,1.93,0.92,-0.06,0.21,1005.96
12.407,-0.02,0.92,-0.24,0.86,0.31,1.93,0.92,-0.06,0.21,1005.96
12.452,-0.02,0.92,-0.24,-0.10,0.41,1.82,0.92,-0.06,0.21,1005.96
12.452,-0.02,0.92,-0.24,-0.10,0.41,1.82,0.92,-0.06,0.21,1005.96
12.453,-0.19,0.94,-0.20,-0.10,0.41,1.82,0.92,-0.06,0.21,1005.96
12.453,-0.22,1.01,-0.19,-0.10,0.41,1.82,0.92,-0.06,0.21,1005.96
12.454,-0.00,1.18,-0.36,-0.10,0.41,1.82,0.92,-0.06,0.21,1005.96
12.454,-0.00,1.18,-0.36,-0.10,0.41,1.82,1.39,-0.42,0.22,1005.96
12.506,0.37,1.34,-0.42,-0.10,0.41,1.82,1.39,-0.42,0.22,1005.96
12.507,0.65,1.63,-0.20,-0.10,0.41,1.82,1.39,-0.42,0.22,1005.96
12.508,0.48,1.75,0.03,-0.10,0.41,1.82,1.39,-0.42,0.22,1005.96
12.508,0.48,1.75,0.03,-0.10,0.41,1.82,2.26,-1.76,0.22,1005.96
12.508,0.48,1.75,0.03,0.84,3.22,1.44,2.26,-1.76,0.22,1005.96
12.526,0.48,1.75,0.03,0.84,3.22,1.44,2.26,-1.76,0.22,1005.94
12.568,0.10,1.57,0.04,0.84,3.22,1.44,2.26,-1.76,0.22,1005.94
12.569,-0.12,1.27,0.21,0.84,3.22,1.44,2.26,-1.76,0.22,1005.94
12.569,-0.56,1.17,-0.08,0.84,3.22,1.44,2.26,-1.76,0.22,1005.94
12.57,-0.56,1.17,-0.08,5.16,8.52,5.26,2.26,-1.76,0.22,1005.94
12.57,-0.56,1.17,-0.08,5.16,8.52,5.26,2.64,-2.44,-0.29,1005.94
12.607,-0.56,1.17,-0.08,5.16,8.52,5.26,2.64,-2.44,-0.29,1005.93
12.622,-1.07,1.25,-0.33,5.16,8.52,5.26,2.64,-2.44,-0.29,1005.93
12.623,-1.24,1.50,-0.56,5.16,8.52,5.26,2.64,-2.44,-0.29,1005.93
12.624,-0.67,1.21,-0.18,5.16,8.52,5.26,2.64,-2.44,-0.29,1005.93
12.624,-0.67,1.21,-0.18,5.16,8.52,5.26,2.12,-4.76,-0.56,1005.93
12.624,-0.67,1.21,-0.18,-2.65,5.14,5.21,2.12,-4.76,-0.56,1005.93
12.647,-0.67,1.21,-0.18,-2.65,5.14,5.21,2.12,-4.76,-0.56,1005.92
12.681,-0.19,0.78,0.08,-2.65,5.14,5.21,2.12,-4.76,-0.56,1005.92
12.682,0.18,0.63,0.10,-2.65,5.14,5.21,2.12,-4.76,-0.56,1005.92
12.682,0.39,0.71,0.02,-2.65,5.14,5.21,2.12,-4.76,-0.56,1005.92
12.682,0.39,0.71,0.02,-2.65,5.14,5.21,0.40,-7.37,1.18,1005.92
12.682,0.39,0.71,0.02,-1.97,4.26,2.09,0.40,-7.37,1.18,1005.92
12.728,0.39,0.71,0.02,-1.97,4.26,2.09,0.40,-7.37,1.18,1005.90
12.74,0.31,0.67,0.04,-1.97,4.26,2.09,0.40,-7.37,1.18,1005.90
12.74,0.10,0.59,0.05,-1.97,4.26,2.09,0.40,-7.37,1.18,1005.90
12.741,-0.05,0.68,-0.03,-1.97,4.26,2.09,0.40,-7.37,1.18,1005.90
12.741,-0.05,0.68,-0.03,-1.97,4.26,2.09,-0.09,-2.58,2.00,1005.90
12.742,-0.05,0.68,-0.03,7.33,-1.14,3.93,-0.09,-2.58,2.00,1005.90
12.799,-0.11,0.76,-0.01,7.33,-1.14,3.93,-0.09,-2.58,2.00,1005.90
12.8,-0.17,0.83,-0.01,7.33,-1.14,3.93,-0.09,-2.58,2.00,1005.90
12.801,-0.23,0.89,-0.08,7.33,-1.14,3.93,-0.09,-2.58,2.00,1005.90
12.801,-0.23,0.89,-0.08,7.33,-1.14,3.93,-0.85,-0.32,3.53,1005.90
12.801,-0.23,0.89,-0.08,2.60,-1.97,2.91,-0.85,-0.32,3.53,1005.90
12.808,-0.23,0.89,-0.08,2.60,-1.97,2.91,-0.85,-0.32,3.53,1005.96
12.846,-0.23,0.89,-0.08,2.60,-1.97,2.91,-0.85,-0.32,3.53,1005.95
12.854,-0.27,1.00,-0.14,2.60,-1.97,2.91,-0.85,-0.32,3.53,1005.95
12.855,-0.26,1.10,-0.16,2.60,-1.97,2.91,-0.85,-0.32,3.53,1005.95
12.855,-0.26,1.25,-0.20,2.60,-1.97,2.91,-0.85,-0.32,3.53,1005.95
12.855,-0.26,1.25,-0.20,2.60,-1.97,2.91,-1.94,-0.42,4.85,1005.95
12.855,-0.26,1.25,-0.20,-1.85,-0.43,1.03,-1.94,-0.42,4.85,1005.95
12.915,-0.26,1.25,-0.20,-4.75,3.20,-1.43,-1.94,-0.42,4.85,1005.95
12.916,-0.19,1.44,-0.20,-4.75,3.20,-1.43,-1.94,-0.42,4.85,1005.95
12.916,-0.12,1.60,-0.37,-4.75,3.20,-1.43,-1.94,-0.42,4.85,1005.95
12.916,-0.29,1.45,-0.37,-4.75,3.20,-1.43,-1.94,-0.42,4.85,1005.95
12.916,-0.29,1.45,-0.37,-4.75,3.20,-1.43,-2.67,-0.27,5.26,1005.95
12.926,-0.29,1.45,-0.37,-4.75,3.20,-1.43,-2.67,-0.27,5.26,1005.92
12.973,-0.75,1.29,-0.19,-4.75,3.20,-1.43,-2.67,-0.27,5.26,1005.92
12.974,-1.21,1.30,-0.26,-4.75,3.20,-1.43,-2.67,-0.27,5.26,1005.92
12.974,-1.30,1.05,-0.39,-4.75,3.20,-1.43,-2.67,-0.27,5.26,1005.92
12.974,-1.30,1.05,-0.39,-4.75,3.20,-1.43,-2.11,1.12,2.85,1005.92
12.975,-1.30,1.05,-0.39,-7.56,5.47,-3.91,-2.11,1.12,2.85,1005.92
13.007,-1.30,1.05,-0.39,-7.56,5.47,-3.91,-2.11,1.12,2.85,1005.89
13.031,-1.07,0.71,-0.45,-7.56,5.47,-3.91,-2.11,1.12,2.85,1005.89
13.032,-1.07,0.63,-0.68,-7.56,5.47,-3.91,-2.11,1.12,2.85,1005.89
13.033,-1.11,0.99,-0.95,-7.56,5.47,-3.91,-2.11,1.12,2.85,1005.89
13.033,-1.11,0.99,-0.95,-7.56,5.47,-3.91,-0.31,-0.16,-0.86,1005.89
13.034,-1.11,0.99,-0.95,-14.77,1.09,-4.53,-0.31,-0.16,-0.86,1005.89
13.047,-1.11,0.99,-0.95,-14.77,1.09,-4.53,-0.31,-0.16,-0.86,1005.88
13.088,0.02,1.84,-0.55,-14.77,1.09,-4.53,-0.31,-0.16,-0.86,1005.88
13.089,2.02,1.69,0.39,-14.77,1.09,-4.53,-0.31,-0.16,-0.86,1005.88
13.089,1.70,1.41,-0.54,-14.77,1.09,-4.53,-0.31,-0.16,-0.86,1005.88
13.09,1.70,1.41,-0.54,-14.77,1.09,-4.53,-0.14,-4.07,-0.74,1005.88
13.09,1.70,1.41,-0.54,-9.76,2.23,-7.33,-0.14,-4.07,-0.74,1005.88
13.127,1.70,1.41,-0.54,-9.76,2.23,-7.33,-0.14,-4.07,-0.74,1005.87
13.147,-0.57,1.45,-0.87,-9.76,2.23,-7.33,-0.14,-4.07,-0.74,1005.87
13.149,-0.44,0.72,0.37,-9.76,2.23,-7.33,-0.14,-4.07,-0.74,1005.87
13.15,-0.08,0.51,0.73,-9.76,2.23,-7.33,-0.14,-4.07,-0.74,1005.87
13.151,-0.08,0.51,0.73,-9.76,2.23,-7.33,0.03,-0.41,-2.89,1005.87
13.152,-0.08,0.51,0.73,9.02,5.39,-3.36,0.03,-0.41,-2.89,1005.87
13.207,-0.11,1.01,0.11,9.02,5.39,-3.36,0.03,-0.41,-2.89,1005.87
13.208,-0.19,1.20,-0.14,9.02,5.39,-3.36,0.03,-0.41,-2.89,1005.87
13.208,-0.31,1.09,-0.12,9.02,5.39,-3.36,0.03,-0.41,-2.89,1005.87
13.208,-0.31,1.09,-0.12,9.02,5.39,-3.36,0.32,0.48,-1.59,1005.87
13.209,-0.31,1.09,-0.12,-2.39,-2.17,4.00,0.32,0.48,-1.59,1005.87
13.209,-0.31,1.09,-0.12,-2.39,-2.17,4.00,0.32,0.48,-1.59,1005.92
13.246,-0.31,1.09,-0.12,-2.39,-2.17,4.00,0.32,0.48,-1.59,1005.96
13.27,-0.12,1.07,-0.14,-2.39,-2.17,4.00,0.32,0.48,-1.59,1005.96
13.271,0.07,1.08,-0.11,-2.39,-2.17,4.00,0.32,0.48,-1.59,1005.96
13.271,-0.02,1.04,0.08,-2.39,-2.17,4.00,0.32,0.48,-1.59,1005.96
13.272,-0.02,1.04,0.08,-2.39,-2.17,4.00,0.18,-0.38,-1.02,1005.96
13.272,-0.02,1.04,0.08,-1.77,1.44,-1.14,0.18,-0.38,-1.02,1005.96
13.323,-0.17,0.98,0.10,-1.77,1.44,-1.14,0.18,-0.38,-1.02,1005.96
13.324,-0.04,0.96,0.05,-1.77,1.44,-1.14,0.18,-0.38,-1.02,1005.96
13.324,0.05,1.00,0.01,-1.77,1.44,-1.14,0.18,-0.38,-1.02,1005.96
13.324,0.05,1.00,0.01,-1.77,1.44,-1.14,0.25,-0.21,-0.91,1005.96
13.325,0.05,1.00,0.01,0.38,0.63,0.54,0.25,-0.21,-0.91,1005.96
13.327,0.05,1.00,0.01,0.38,0.63,0.54,0.25,-0.21,-0.91,1005.94
13.38,-0.06,1.03,-0.03,0.38,0.63,0.54,0.25,-0.21,-0.91,1005.94
13.381,-0.20,1.00,-0.04,0.38,0.63,0.54,0.25,-0.21,-0.91,1005.94
13.382,-0.13,1.01,0.01,0.38,0.63,0.54,0.25,-0.21,-0.91,1005.94
13.382,-0.13,1.01,0.01,0.38,0.63,0.54,0.30,0.26,-0.98,1005.94
13.383,-0.13,1.01,0.01,1.08,0.30,0.56,0.30,0.26,-0.98,1005.94
13.407,-0.13,1.01,0.01,1.08,0.30,0.56,0.30,0.26,-0.98,1005.94
13.439,-0.07,1.02,0.04,1.08,0.30,0.56,0.30,0.26,-0.98,1005.94
13.44,-0.11,0.99,0.02,1.08,0.30,0.56,0.30,0.26,-0.98,1005.94
13.44,-0.08,0.98,-0.03,1.08,0.30,0.56,0.30,0.26,-0.98,1005.94
13.441,-0.08,0.98,-0.03,1.08,0.30,0.56,0.38,0.24,-1.04,1005.94
13.441,-0.08,0.98,-0.03,0.53,0.53,0.73,0.38,0.24,-1.04,1005.94
13.447,-0.08,0.98,-0.03,0.53,0.53,0.73,0.38,0.24,-1.04,1005.94
13.497,-0.02,0.97,-0.09,0.53,0.53,0.73,0.38,0.24,-1.04,1005.94
13.499,-0.06,0.95,-0.10,0.53,0.53,0.73,0.38,0.24,-1.04,1005.94
13.5,-0.15,1.00,-0.01,0.53,0.53,0.73,0.38,0.24,-1.04,1005.94
13.501,-0.15,1.00,-0.01,0.53,0.53,0.73,0.40,0.84,-1.37,1005.94
13.503,-0.15,1.00,-0.01,1.80,0.45,0.68,0.40,0.84,-1.37,1005.94
13.528,-0.15,1.00,-0.01,1.80,0.45,0.68,0.40,0.84,-1.37,1005.94
13.555,-0.27,1.16,0.02,1.80,0.45,0.68,0.40,0.84,-1.37,1005.94
13.556,-0.20,1.25,-0.05,1.80,0.45,0.68,0.40,0.84,-1.37,1005.94
13.556,0.02,1.27,-0.12,1.80,0.45,0.68,0.40,0.84,-1.37,1005.94
13.557,0.02,1.27,-0.12,1.80,0.45,0.68,0.66,0.22,-1.70,1005.94
13.557,0.02,1.27,-0.12,1.78,1.30,1.07,0.66,0.22,-1.70,1005.94
13.607,0.02,1.27,-0.12,1.78,1.30,1.07,0.66,0.22,-1.70,1005.94
13.614,0.12,1.27,-0.15,1.78,1.30,1.07,0.66,0.22,-1.70,1005.94
13.615,0.13,1.39,-0.10,1.78,1.30,1.07,0.66,0.22,-1.70,1005.94
13.615,0.36,1.73,0.17,1.78,1.30,1.07,0.66,0.22,-1.70,1005.94
13.616,0.36,1.73,0.17,1.78,1.30,1.07,1.05,0.48,-2.06,1005.94
13.616,0.36,1.73,0.17,4.09,4.01,0.93,1.05,0.48,-2.06,1005.94
13.648,0.36,1.73,0.17,4.09,4.01,0.93,1.05,0.48,-2.06,1005.92
13.671,0.95,1.82,0.14,4.09,4.01,0.93,1.05,0.48,-2.06,1005.92
13.674,1.09,1.54,0.01,4.09,4.01,0.93,1.05,0.48,-2.06,1005.92
13.674,0.36,1.12,-0.02,4.09,4.01,0.93,1.05,0.48,-2.06,1005.92
13.675,0.36,1.12,-0.02,4.09,4.01,0.93,1.18,1.45,-2.59,1005.92
13.675,0.36,1.12,-0.02,9.78,8.54,3.57,1.18,1.45,-2.59,1005.92
13.728,0.36,1.12,-0.02,9.78,8.54,3.57,1.18,1.45,-2.59,1005.91
13.73,-0.67,1.20,-0.30,9.78,8.54,3.57,1.18,1.45,-2.59,1005.91
13.73,-1.19,1.58,-0.37,9.78,8.54,3.57,1.18,1.45,-2.59,1005.91
13.731,-0.95,1.28,-0.31,9.78,8.54,3.57,1.18,1.45,-2.59,1005.91
13.731,-0.95,1.28,-0.31,8.42,6.40,3.27,1.18,1.45,-2.59,1005.91
13.732,-0.95,1.28,-0.31,8.42,6.40,3.27,1.53,2.50,-3.64,1005.91
13.788,-0.61,0.77,-0.19,8.42,6.40,3.27,1.53,2.50,-3.64,1005.91
13.789,-0.54,0.56,-0.24,8.42,6.40,3.27,1.53,2.50,-3.64,1005.91
13.79,-0.49,0.40,-0.30,8.42,6.40,3.27,1.53,2.50,-3.64,1005.91
13.79,-0.49,0.40,-0.30,8.42,6.40,3.27,0.20,0.13,-0.87,1005.91
13.791,-0.49,0.40,-0.30,-2.79,5.88,1.52,0.20,0.13,-0.87,1005.91
13.807,-0.49,0.40,-0.30,-2.79,5.88,1.52,0.20,0.13,-0.87,1005.91
13.848,-0.32,0.27,-0.03,-2.79,5.88,1.52,0.20,0.13,-0.87,1005.91
13.849,-0.16,0.11,0.03,-2.79,5.88,1.52,0.20,0.13,-0.87,1005.91
13.849,-0.11,0.13,-0.03,-2.79,5.88,1.52,0.20,0.13,-0.87,1005.91
13.849,-0.11,0.13,-0.03,-2.79,5.88,1.52,-1.26,-1.00,2.14,1005.91
13.85,-0.11,0.13,-0.03,1.20,-2.94,1.66,-1.26,-1.00,2.14,1005.91
13.85,-0.11,0.13,-0.03,1.20,-2.94,1.66,-1.26,-1.00,2.14,1005.89
13.906,-0.23,0.33,-0.14,1.20,-2.94,1.66,-1.26,-1.00,2.14,1005.89
13.907,-0.20,0.51,-0.17,1.20,-2.94,1.66,-1.26,-1.00,2.14,1005.89
13.908,-0.09,0.65,-0.19,1.20,-2.94,1.66,-1.26,-1.00,2.14,1005.89
13.908,-0.09,0.65,-0.19,1.20,-2.94,1.66,-1.62,-0.59,4.15,1005.89
13.909,-0.09,0.65,-0.19,2.19,-6.41,2.15,-1.62,-0.59,4.15,1005.89
13.927,-0.09,0.65,-0.19,2.19,-6.41,2.15,-1.62,-0.59,4.15,1005.93
13.964,-0.11,0.75,-0.05,2.19,-6.41,2.15,-1.62,-0.59,4.15,1005.93
13.965,-0.18,0.84,0.01,2.19,-6.41,2.15,-1.62,-0.59,4.15,1005.93
13.965,-0.22,1.06,-0.14,2.19,-6.41,2.15,-1.62,-0.59,4.15,1005.93
13.965,-0.22,1.06,-0.14,2.19,-6.41,2.15,-2.40,0.63,5.41,1005.93
13.965,-0.22,1.06,-0.14,-0.34,-3.03,0.05,-2.40,0.63,5.41,1005.93
14.007,-0.22,1.06,-0.14,-0.34,-3.03,0.05,-2.40,0.63,5.41,1005.95
14.022,-0.26,1.51,-0.29,-0.34,-3.03,0.05,-2.40,0.63,5.41,1005.95
14.022,-0.37,1.91,-0.46,-0.34,-3.03,0.05,-2.40,0.63,5.41,1005.95
14.023,-0.67,1.90,-0.54,-0.34,-3.03,0.05,-2.40,0.63,5.41,1005.95
14.023,-0.67,1.90,-0.54,-0.34,-3.03,0.05,-3.03,0.99,5.64,1005.95
14.024,-0.67,1.90,-0.54,-4.21,1.96,-1.66,-3.03,0.99,5.64,1005.95
14.049,-0.67,1.90,-0.54,-4.21,1.96,-1.66,-3.03,0.99,5.64,1005.93
14.08,-0.92,1.60,-0.43,-4.21,1.96,-1.66,-3.03,0.99,5.64,1005.93
14.081,-1.07,1.24,-0.38,-4.21,1.96,-1.66,-3.03,0.99,5.64,1005.93
14.081,-1.09,0.94,-0.70,-4.21,1.96,-1.66,-3.03,0.99,5.64,1005.93
14.082,-1.09,0.94,-0.70,-4.21,1.96,-1.66,-2.28,0.33,3.50,1005.93
14.082,-1.09,0.94,-0.70,-10.09,9.07,-6.03,-2.28,0.33,3.50,1005.93
14.128,-1.09,0.94,-0.70,-10.09,9.07,-6.03,-2.28,0.33,3.50,1005.88
14.139,-1.17,0.69,-0.72,-10.09,9.07,-6.03,-2.28,0.33,3.50,1005.88
14.14,-1.25,0.69,-0.87,-10.09,9.07,-6.03,-2.28,0.33,3.50,1005.88
14.14,-0.59,1.74,-0.62,-10.09,9.07,-6.03,-2.28,0.33,3.50,1005.88
14.141,-0.59,1.74,-0.62,-10.09,9.07,-6.03,-0.02,-1.13,-1.25,1005.88
14.141,-0.59,1.74,-0.62,-13.81,0.52,-6.94,-0.02,-1.13,-1.25,1005.88
14.197,1.76,1.99,0.93,-13.81,0.52,-6.94,-0.02,-1.13,-1.25,1005.88
14.198,1.97,1.45,0.27,-13.81,0.52,-6.94,-0.02,-1.13,-1.25,1005.88
14.198,-0.57,1.36,-1.11,-13.81,0.52,-6.94,-0.02,-1.13,-1.25,1005.88
14.198,-0.57,1.36,-1.11,-13.81,0.52,-6.94,0.24,-2.37,-1.58,1005.88
14.199,-0.57,1.36,-1.11,-2.42,5.24,-2.34,0.24,-2.37,-1.58,1005.88
14.207,-0.57,1.36,-1.11,-2.42,5.24,-2.34,0.24,-2.37,-1.58,1005.86
14.249,-0.57,1.36,-1.11,-2.42,5.24,-2.34,0.24,-2.37,-1.58,1005.88
14.255,-0.73,0.85,-0.37,-2.42,5.24,-2.34,0.24,-2.37,-1.58,1005.88
14.256,-0.28,0.55,0.66,-2.42,5.24,-2.34,0.24,-2.37,-1.58,1005.88
14.256,-0.21,0.98,-0.02,-2.42,5.24,-2.34,0.24,-2.37,-1.58,1005.88
14.257,-0.21,0.98,-0.02,-2.42,5.24,-2.34,0.32,0.18,-2.39,1005.88
14.257,-0.21,0.98,-0.02,1.32,2.50,-4.24,0.32,0.18,-2.39,1005.88
14.314,-0.08,1.24,0.06,1.32,2.50,-4.24,0.32,0.18,-2.39,1005.88
14.315,-0.15,1.12,-0.07,1.32,2.50,-4.24,0.32,0.18,-2.39,1005.88
14.315,-0.16,1.02,-0.01,1.32,2.50,-4.24,0.32,0.18,-2.39,1005.88
14.316,-0.16,1.02,-0.01,1.32,2.50,-4.24,0.22,0.09,-1.15,1005.88
14.316,-0.16,1.02,-0.01,-2.07,-0.44,2.09,0.22,0.09,-1.15,1005.88
14.327,-0.16,1.02,-0.01,-2.07,-0.44,2.09,0.22,0.09,-1.15,1005.97
14.372,0.04,1.06,-0.02,-2.07,-0.44,2.09,0.22,0.09,-1.15,1005.97
14.372,0.04,1.04,0.06,-2.07,-0.44,2.09,0.22,0.09,-1.15,1005.97
14.373,-0.01,0.98,0.11,-2.07,-0.44,2.09,0.22,0.09,-1.15,1005.97
14.373,-0.01,0.98,0.11,-2.07,-0.44,2.09,0.20,-0.24,-0.78,1005.97
14.374,-0.01,0.98,0.11,-0.65,0.95,-0.41,0.20,-0.24,-0.78,1005.97
14.408,-0.01,0.98,0.11,-0.65,0.95,-0.41,0.20,-0.24,-0.78,1005.96
14.43,0.10,1.00,0.10,-0.65,0.95,-0.41,0.20,-0.24,-0.78,1005.96
14.431,0.13,1.00,0.11,-0.65,0.95,-0.41,0.20,-0.24,-0.78,1005.96
14.432,0.05,0.94,0.10,-0.65,0.95,-0.41,0.20,-0.24,-0.78,1005.96
14.432,0.05,0.94,0.10,-0.65,0.95,-0.41,0.40,-0.17,-1.03,1005.96
14.432,0.05,0.94,0.10,1.22,0.34,1.04,0.40,-0.17,-1.03,1005.96
14.447,0.05,0.94,0.10,1.22,0.34,1.04,0.40,-0.17,-1.03,1005.94
14.49,-0.03,0.96,0.07,1.22,0.34,1.04,0.40,-0.17,-1.03,1005.94
14.491,-0.12,1.01,-0.00,1.22,0.34,1.04,0.40,-0.17,-1.03,1005.94
14.491,-0.18,1.04,-0.07,1.22,0.34,1.04,0.40,-0.17,-1.03,1005.94
14.491,-0.18,1.04,-0.07,1.22,0.34,1.04,0.54,0.30,-1.34,1005.94
14.492,-0.18,1.04,-0.07,2.01,0.09,1.33,0.54,0.30,-1.34,1005.94
14.528,-0.18,1.04,-0.07,2.01,0.09,1.33,0.54,0.30,-1.34,1005.93
14.547,-0.22,1.02,-0.11,2.01,0.09,1.33,0.54,0.30,-1.34,1005.93
14.547,-0.23,0.97,-0.13,2.01,0.09,1.33,0.54,0.30,-1.34,1005.93
14.548,-0.20,0.95,-0.10,2.01,0.09,1.33,0.54,0.30,-1.34,1005.93
14.548,-0.20,0.95,-0.10,2.01,0.09,1.33,0.51,0.37,-1.29,1005.93
14.548,-0.20,0.95,-0.10,0.45,0.77,0.17,0.51,0.37,-1.29,1005.93
14.607,-0.17,0.96,-0.07,0.45,0.77,0.17,0.51,0.37,-1.29,1005.93
14.608,-0.15,1.03,-0.03,0.45,0.77,0.17,0.51,0.37,-1.29,1005.93
14.608,-0.14,1.12,-0.02,0.45,0.77,0.17,0.51,0.37,-1.29,1005.93
14.608,-0.14,1.12,-0.02,0.45,0.77,0.17,0.53,0.25,-1.35,1005.93
14.609,-0.14,1.12,-0.02,0.91,0.40,0.10,0.53,0.25,-1.35,1005.93
14.609,-0.14,1.12,-0.02,0.91,0.40,0.10,0.53,0.25,-1.35,1005.93
14.649,-0.14,1.12,-0.02,0.91,0.40,0.10,0.53,0.25,-1.35,1005.93
14.663,-0.13,1.18,-0.04,0.91,0.40,0.10,0.53,0.25,-1.35,1005.93
14.665,-0.07,1.21,-0.03,0.91,0.40,0.10,0.53,0.25,-1.35,1005.93
14.665,0.05,1.26,-0.00,0.91,0.40,0.10,0.53,0.25,-1.35,1005.93
14.666,0.05,1.26,-0.00,2.34,2.17,1.16,0.53,0.25,-1.35,1005.93
14.667,0.05,1.26,-0.00,2.34,2.17,1.16,0.85,0.02,-1.75,1005.93
14.722,0.13,1.27,-0.04,2.34,2.17,1.16,0.85,0.02,-1.75,1005.93
14.723,0.11,1.32,-0.15,2.34,2.17,1.16,0.85,0.02,-1.75,1005.93
14.723,0.23,1.51,-0.14,2.34,2.17,1.16,0.85,0.02,-1.75,1005.93
14.724,0.23,1.51,-0.14,2.34,2.17,1.16,1.24,0.90,-2.27,1005.93
14.724,0.23,1.51,-0.14,5.00,4.17,2.04,1.24,0.90,-2.27,1005.93
14.727,0.23,1.51,-0.14,5.00,4.17,2.04,1.24,0.90,-2.27,1005.94
14.78,0.70,1.67,-0.00,5.00,4.17,2.04,1.24,0.90,-2.27,1005.94
14.781,0.75,1.49,-0.01,5.00,4.17,2.04,1.24,0.90,-2.27,1005.94
14.781,-0.20,1.11,-0.12,5.00,4.17,2.04,1.24,0.90,-2.27,1005.94
14.782,-0.20,1.11,-0.12,5.00,4.17,2.04,1.30,2.05,-2.58,1005.94
14.782,-0.20,1.11,-0.12,8.68,7.52,2.47,1.30,2.05,-2.58,1005.94
14.808,-0.20,1.11,-0.12,8.68,7.52,2.47,1.30,2.05,-2.58,1005.94
14.839,-1.02,1.23,-0.26,8.68,7.52,2.47,1.30,2.05,-2.58,1005.94
14.84,-1.24,1.41,-0.41,8.68,7.52,2.47,1.30,2.05,-2.58,1005.94
14.84,-0.97,1.02,-0.42,8.68,7.52,2.47,1.30,2.05,-2.58,1005.94
14.841,-0.97,1.02,-0.42,8.68,7.52,2.47,1.73,1.72,-3.06,1005.94
14.841,-0.97,1.02,-0.42,4.43,6.64,3.32,1.73,1.72,-3.06,1005.94
14.848,-0.97,1.02,-0.42,4.43,6.64,3.32,1.73,1.72,-3.06,1005.92
14.897,-0.67,0.63,-0.28,4.43,6.64,3.32,1.73,1.72,-3.06,1005.92
14.899,-0.46,0.45,-0.36,4.43,6.64,3.32,1.73,1.72,-3.06,1005.92
14.9,-0.27,0.27,-0.19,4.43,6.64,3.32,1.73,1.72,-3.06,1005.92
14.9,-0.27,0.27,-0.19,4.43,6.64,3.32,-0.12,-0.39,-0.19,1005.92
14.902,-0.27,0.27,-0.19,-3.22,4.07,0.77,-0.12,-0.39,-0.19,1005.92
14.928,-0.27,0.27,-0.19,-3.22,4.07,0.77,-0.12,-0.39,-0.19,1005.89
14.956,-0.09,0.07,-0.02,-3.22,4.07,0.77,-0.12,-0.39,-0.19,1005.89
14.957,-0.08,0.01,-0.13,-3.22,4.07,0.77,-0.12,-0.39,-0.19,1005.89
14.957,-0.21,0.19,-0.19,-3.22,4.07,0.77,-0.12,-0.39,-0.19,1005.89
14.957,-0.21,0.19,-0.19,-3.22,4.07,0.77,-1.04,-0.90,2.46,1005.89
14.958,-0.21,0.19,-0.19,2.73,-4.37,1.80,-1.04,-0.90,2.46,1005.89
15.008,-0.21,0.19,-0.19,2.73,-4.37,1.80,-1.04,-0.90,2.46,1005.93
15.015,-0.22,0.36,-0.26,2.73,-4.37,1.80,-1.04,-0.90,2.46,1005.93
15.016,-0.17,0.46,-0.48,2.73,-4.37,1.80,-1.04,-0.90,2.46,1005.93
15.016,-0.29,0.52,-0.09,2.73,-4.37,1.80,-1.04,-0.90,2.46,1005.93
15.017,-0.29,0.52,-0.09,2.73,-4.37,1.80,-1.19,-1.19,4.65,1005.93
15.017,-0.29,0.52,-0.09,1.87,-6.47,0.88,-1.19,-1.19,4.65,1005.93
15.049,-0.29,0.52,-0.09,1.87,-6.47,0.88,-1.19,-1.19,4.65,1005.95
15.073,-0.33,0.59,-0.50,1.87,-6.47,0.88,-1.19,-1.19,4.65,1005.95
15.074,-0.70,0.84,-0.51,1.87,-6.47,0.88,-1.19,-1.19,4.65,1005.95
15.074,-1.06,1.13,-0.41,1.87,-6.47,0.88,-1.19,-1.19,4.65,1005.95
15.075,-1.06,1.13,-0.41,1.87,-6.47,0.88,-0.63,-2.84,5.91,1005.95
15.075,-1.06,1.13,-0.41,-1.68,-3.96,-1.33,-0.63,-2.84,5.91,1005.95
15.128,-1.06,1.13,-0.41,-1.68,-3.96,-1.33,-0.63,-2.84,5.91,1005.93
15.132,-1.06,1.13,-0.41,-10.89,1.91,-2.11,-0.63,-2.84,5.91,1005.93
15.133,-1.18,1.34,-0.51,-10.89,1.91,-2.11,-0.63,-2.84,5.91,1005.93
15.134,-1.01,1.38,-0.50,-10.89,1.91,-2.11,-0.63,-2.84,5.91,1005.93
15.134,-0.78,1.43,-0.36,-10.89,1.91,-2.11,-0.63,-2.84,5.91,1005.93
15.134,-0.78,1.43,-0.36,-10.89,1.91,-2.11,0.35,-8.06,6.51,1005.93
15.188,-0.50,1.41,-0.11,-10.89,1.91,-2.11,0.35,-8.06,6.51,1005.93
15.189,-0.16,1.25,0.20,-10.89,1.91,-2.11,0.35,-8.06,6.51,1005.93
15.19,-0.06,0.83,0.59,-10.89,1.91,-2.11,0.35,-8.06,6.51,1005.93
15.19,-0.06,0.83,0.59,-10.89,1.91,-2.11,-0.16,-9.97,3.29,1005.93
15.191,-0.06,0.83,0.59,-8.62,5.07,0.20,-0.16,-9.97,3.29,1005.93
15.207,-0.06,0.83,0.59,-8.62,5.07,0.20,-0.16,-9.97,3.29,1005.88
15.248,-0.45,1.05,-0.20,-8.62,5.07,0.20,-0.16,-9.97,3.29,1005.88
15.249,0.04,1.26,0.95,-8.62,5.07,0.20,-0.16,-9.97,3.29,1005.88
15.249,0.35,0.78,1.04,-8.62,5.07,0.20,-0.16,-9.97,3.29,1005.88
15.249,0.35,0.78,1.04,-8.62,5.07,0.20,-0.48,-2.45,-0.47,1005.88
15.25,0.35,0.78,1.04,-2.53,1.36,5.11,-0.48,-2.45,-0.47,1005.88
15.25,0.35,0.78,1.04,-2.53,1.36,5.11,-0.48,-2.45,-0.47,1005.90
15.305,-0.06,1.05,0.38,-2.53,1.36,5.11,-0.48,-2.45,-0.47,1005.90
15.306,-0.18,1.54,-0.70,-2.53,1.36,5.11,-0.48,-2.45,-0.47,1005.90
15.307,-0.21,1.61,-0.85,-2.53,1.36,5.11,-0.48,-2.45,-0.47,1005.90
15.307,-0.21,1.61,-0.85,-2.53,1.36,5.11,-0.73,1.27,-1.27,1005.90
15.308,-0.21,1.61,-0.85,1.17,1.06,10.33,-0.73,1.27,-1.27,1005.90
15.328,-0.21,1.61,-0.85,1.17,1.06,10.33,-0.73,1.27,-1.27,1005.92
15.366,-0.36,1.24,-0.44,1.17,1.06,10.33,-0.73,1.27,-1.27,1005.92
15.367,0.06,1.05,-0.37,1.17,1.06,10.33,-0.73,1.27,-1.27,1005.92
15.367,0.41,0.95,-0.23,1.17,1.06,10.33,-0.73,1.27,-1.27,1005.92
15.368,0.41,0.95,-0.23,1.17,1.06,10.33,-0.59,-2.27,-0.32,1005.92
15.368,0.41,0.95,-0.23,-1.85,5.18,-4.20,-0.59,-2.27,-0.32,1005.92
15.407,0.41,0.95,-0.23,-1.85,5.18,-4.20,-0.59,-2.27,-0.32,1005.90
15.422,0.18,0.85,-0.02,-1.85,5.18,-4.20,-0.59,-2.27,-0.32,1005.90
15.423,-0.16,0.94,0.04,-1.85,5.18,-4.20,-0.59,-2.27,-0.32,1005.90
15.424,-0.42,1.02,-0.12,-1.85,5.18,-4.20,-0.59,-2.27,-0.32,1005.90
15.424,-0.42,1.02,-0.12,-1.85,5.18,-4.20,-0.39,-0.23,-0.46,1005.90
15.424,-0.42,1.02,-0.12,2.93,0.10,0.07,-0.39,-0.23,-0.46,1005.90
15.448,-0.42,1.02,-0.12,2.93,0.10,0.07,-0.39,-0.23,-0.46,1005.92
15.484,-0.48,1.02,-0.19,2.93,0.10,0.07,-0.39,-0.23,-0.46,1005.92
15.484,-0.37,0.96,-0.21,2.93,0.10,0.07,-0.39,-0.23,-0.46,1005.92
15.485,-0.26,0.97,-0.24,2.93,0.10,0.07,-0.39,-0.23,-0.46,1005.92
15.485,-0.26,0.97,-0.24,-2.64,0.46,1.10,-0.39,-0.23,-0.46,1005.92
15.485,-0.26,0.97,-0.24,-2.64,0.46,1.10,-0.14,-0.33,0.15,1005.92
15.528,-0.26,0.97,-0.24,-2.64,0.46,1.10,-0.14,-0.33,0.15,1005.94
15.539,-0.11,1.04,-0.18,-2.64,0.46,1.10,-0.14,-0.33,0.15,1005.94
15.54,0.11,1.01,-0.17,-2.64,0.46,1.10,-0.14,-0.33,0.15,1005.94
15.54,0.22,0.91,-0.18,-2.64,0.46,1.10,-0.14,-0.33,0.15,1005.94
15.54,0.22,0.91,-0.18,-2.64,0.46,1.10,-0.12,-0.71,0.56,1005.94
15.541,0.22,0.91,-0.18,-1.78,0.41,-0.19,-0.12,-0.71,0.56,1005.94
15.597,0.05,0.93,-0.14,-1.78,0.41,-0.19,-0.12,-0.71,0.56,1005.94
15.598,-0.14,1.00,-0.15,-1.78,0.41,-0.19,-0.12,-0.71,0.56,1005.94
15.598,-0.14,1.01,-0.17,-1.78,0.41,-0.19,-0.12,-0.71,0.56,1005.94
15.599,-0.14,1.01,-0.17,-1.78,0.41,-0.19,-0.04,0.04,0.18,1005.94
15.599,-0.14,1.01,-0.17,1.75,-0.01,0.27,-0.04,0.04,0.18,1005.94
15.608,-0.14,1.01,-0.17,1.75,-0.01,0.27,-0.04,0.04,0.18,1005.94
15.647,-0.14,1.01,-0.17,1.75,-0.01,0.27,-0.04,0.04,0.18,1005.93
15.656,-0.07,0.98,-0.11,1.75,-0.01,0.27,-0.04,0.04,0.18,1005.93
15.657,0.05,0.95,-0.13,1.75,-0.01,0.27,-0.04,0.04,0.18,1005.93
15.657,0.01,0.97,-0.11,1.75,-0.01,0.27,-0.04,0.04,0.18,1005.93
15.657,0.01,0.97,-0.11,1.75,-0.01,0.27,0.08,-0.44,0.18,1005.93
15.658,0.01,0.97,-0.11,-0.67,0.45,0.50,0.08,-0.44,0.18,1005.93
15.713,-0.07,0.98,-0.14,-0.67,0.45,0.50,0.08,-0.44,0.18,1005.93
15.714,-0.06,0.96,-0.12,-0.67,0.45,0.50,0.08,-0.44,0.18,1005.93
15.715,-0.03,1.01,-0.12,-0.67,0.45,0.50,0.08,-0.44,0.18,1005.93
15.715,-0.03,1.01,-0.12,-0.67,0.45,0.50,0.25,-0.47,0.05,1005.93
15.715,-0.03,1.01,-0.12,0.46,0.18,0.75,0.25,-0.47,0.05,1005.93
15.727,-0.03,1.01,-0.12,0.46,0.18,0.75,0.25,-0.47,0.05,1005.93
15.773,-0.02,1.04,-0.14,0.46,0.18,0.75,0.25,-0.47,0.05,1005.93
15.774,-0.02,0.97,-0.18,0.46,0.18,0.75,0.25,-0.47,0.05,1005.93
15.774,-0.04,1.00,-0.14,0.46,0.18,0.75,0.25,-0.47,0.05,1005.93
15.775,-0.04,1.00,-0.14,0.46,0.18,0.75,0.49,-0.44,0.02,1005.93
15.775,-0.04,1.00,-0.14,0.16,0.60,0.99,0.49,-0.44,0.02,1005.93
15.808,-0.04,1.00,-0.14,0.16,0.60,0.99,0.49,-0.44,0.02,1005.93
15.831,0.02,1.04,-0.13,0.16,0.60,0.99,0.49,-0.44,0.02,1005.93
15.831,0.05,1.02,-0.11,0.16,0.60,0.99,0.49,-0.44,0.02,1005.93
15.832,0.04,1.01,-0.13,0.16,0.60,0.99,0.49,-0.44,0.02,1005.93
15.832,0.04,1.01,-0.13,0.16,0.60,0.99,0.84,-0.09,-0.01,1005.93
15.832,0.04,1.01,-0.13,0.41,0.70,1.21,0.84,-0.09,-0.01,1005.93
15.847,0.04,1.01,-0.13,0.41,0.70,1.21,0.84,-0.09,-0.01,1005.94
15.888,0.07,1.05,-0.16,0.41,0.70,1.21,0.84,-0.09,-0.01,1005.94
15.89,-0.04,1.08,-0.21,0.41,0.70,1.21,0.84,-0.09,-0.01,1005.94
15.89,-0.15,1.08,-0.27,0.41,0.70,1.21,0.84,-0.09,-0.01,1005.94
15.89,-0.15,1.08,-0.27,1.05,1.16,1.98,0.84,-0.09,-0.01,1005.94
15.89,-0.15,1.08,-0.27,1.05,1.16,1.98,1.30,0.22,-0.08,1005.94
15.929,-0.15,1.08,-0.27,1.05,1.16,1.98,1.30,0.22,-0.08,1005.94
15.946,-0.01,1.13,-0.26,1.05,1.16,1.98,1.30,0.22,-0.08,1005.94
15.947,0.19,1.28,-0.24,1.05,1.16,1.98,1.30,0.22,-0.08,1005.94
15.947,0.35,1.39,-0.10,1.05,1.16,1.98,1.30,0.22,-0.08,1005.94
15.947,0.35,1.39,-0.10,1.05,1.16,1.98,1.88,-0.91,0.13,1005.94
15.948,0.35,1.39,-0.10,0.00,2.23,1.79,1.88,-0.91,0.13,1005.94
16.008,0.35,1.39,-0.10,4.13,5.63,4.16,1.88,-0.91,0.13,1005.94
16.009,0.38,1.49,0.02,4.13,5.63,4.16,1.88,-0.91,0.13,1005.94
16.01,0.33,1.46,0.22,4.13,5.63,4.16,1.88,-0.91,0.13,1005.94
16.01,0.07,1.31,0.36,4.13,5.63,4.16,1.88,-0.91,0.13,1005.94
16.011,0.07,1.31,0.36,4.13,5.63,4.16,2.45,-1.62,-0.12,1005.94
16.011,0.07,1.31,0.36,4.13,5.63,4.16,2.45,-1.62,-0.12,1005.93
16.05,0.07,1.31,0.36,4.13,5.63,4.16,2.45,-1.62,-0.12,1005.92
16.066,-0.40,1.27,0.32,4.13,5.63,4.16,2.45,-1.62,-0.12,1005.92
16.067,-0.98,1.43,0.05,4.13,5.63,4.16,2.45,-1.62,-0.12,1005.92
16.067,-1.24,1.38,-0.18,4.13,5.63,4.16,2.45,-1.62,-0.12,1005.92
16.067,-1.24,1.38,-0.18,4.13,5.63,4.16,2.45,-2.97,-1.06,1005.92
16.068,-1.24,1.38,-0.18,2.52,6.08,8.78,2.45,-2.97,-1.06,1005.92
16.124,-0.98,1.09,-0.42,2.52,6.08,8.78,2.45,-2.97,-1.06,1005.92
16.125,-0.48,1.12,-0.60,2.52,6.08,8.78,2.45,-2.97,-1.06,1005.92
16.126,0.00,1.04,-0.38,2.52,6.08,8.78,2.45,-2.97,-1.06,1005.92
16.126,0.00,1.04,-0.38,2.52,6.08,8.78,1.84,-5.46,0.03,1005.92
16.128,0.00,1.04,-0.38,-6.00,6.10,3.63,1.84,-5.46,0.03,1005.92
16.13,0.00,1.04,-0.38,-6.00,6.10,3.63,1.84,-5.46,0.03,1005.94
16.18,0.19,0.71,0.09,-6.00,6.10,3.63,1.84,-5.46,0.03,1005.94
16.181,-0.02,0.59,0.24,-6.00,6.10,3.63,1.84,-5.46,0.03,1005.94
16.181,-0.22,0.63,0.12,-6.00,6.10,3.63,1.84,-5.46,0.03,1005.94
16.181,-0.22,0.63,0.12,-6.00,6.10,3.63,0.52,-4.74,1.41,1005.94
16.182,-0.22,0.63,0.12,4.21,2.44,1.32,0.52,-4.74,1.41,1005.94
16.208,-0.22,0.63,0.12,4.21,2.44,1.32,0.52,-4.74,1.41,1005.93
16.243,-0.24,0.63,0.13,4.21,2.44,1.32,0.52,-4.74,1.41,1005.93
16.244,-0.22,0.59,0.12,4.21,2.44,1.32,0.52,-4.74,1.41,1005.93
16.245,-0.26,0.64,0.09,4.21,2.44,1.32,0.52,-4.74,1.41,1005.93
16.245,-0.26,0.64,0.09,4.21,2.44,1.32,-0.03,-2.22,3.14,1005.93
16.246,-0.26,0.64,0.09,2.72,-1.77,5.06,-0.03,-2.22,3.14,1005.93
16.248,-0.26,0.64,0.09,2.72,-1.77,5.06,-0.03,-2.22,3.14,1005.93
16.299,-0.26,0.75,0.04,2.72,-1.77,5.06,-0.03,-2.22,3.14,1005.93
16.3,-0.31,0.87,0.04,2.72,-1.77,5.06,-0.03,-2.22,3.14,1005.93
16.3,-0.39,0.99,0.03,2.72,-1.77,5.06,-0.03,-2.22,3.14,1005.93
16.301,-0.39,0.99,0.03,2.72,-1.77,5.06,-0.76,-0.66,4.72,1005.93
16.301,-0.39,0.99,0.03,-0.32,-2.34,3.70,-0.76,-0.66,4.72,1005.93
16.328,-0.39,0.99,0.03,-0.32,-2.34,3.70,-0.76,-0.66,4.72,1005.95
16.355,-0.46,1.14,0.00,-0.32,-2.34,3.70,-0.76,-0.66,4.72,1005.95
16.356,-0.50,1.29,0.04,-0.32,-2.34,3.70,-0.76,-0.66,4.72,1005.95
16.357,-0.57,1.48,-0.02,-0.32,-2.34,3.70,-0.76,-0.66,4.72,1005.95
16.357,-0.57,1.48,-0.02,-0.32,-2.34,3.70,-2.21,-1.09,5.38,1005.95
16.358,-0.57,1.48,-0.02,-4.34,0.47,1.90,-2.21,-1.09,5.38,1005.95
16.408,-0.57,1.48,-0.02,-4.34,0.47,1.90,-2.21,-1.09,5.38,1005.92
16.413,-0.59,1.57,-0.14,-4.34,0.47,1.90,-2.21,-1.09,5.38,1005.92
16.413,-0.57,1.34,-0.04,-4.34,0.47,1.90,-2.21,-1.09,5.38,1005.92
16.414,-0.66,1.32,-0.02,-4.34,0.47,1.90,-2.21,-1.09,5.38,1005.92
16.424,-0.66,1.32,-0.02,-4.34,0.47,1.90,-2.91,-1.15,5.23,1005.92
16.425,-0.66,1.32,-0.02,-8.54,5.19,-0.15,-2.91,-1.15,5.23,1005.92
16.447,-0.66,1.32,-0.02,-8.54,5.19,-0.15,-2.91,-1.15,5.23,1005.89
16.472,-0.73,1.41,-0.23,-8.54,5.19,-0.15,-2.91,-1.15,5.23,1005.89
16.473,-0.91,1.19,-0.34,-8.54,5.19,-0.15,-2.91,-1.15,5.23,1005.89
16.474,-1.15,0.78,-0.42,-8.54,5.19,-0.15,-2.91,-1.15,5.23,1005.89
16.474,-1.15,0.78,-0.42,-8.54,5.19,-0.15,-1.85,1.05,2.23,1005.89
16.474,-1.15,0.78,-0.42,-10.44,4.75,-1.90,-1.85,1.05,2.23,1005.89
16.528,-1.15,0.78,-0.42,-10.44,4.75,-1.90,-1.85,1.05,2.23,1005.88
16.531,-1.34,0.56,-0.64,-10.44,4.75,-1.90,-1.85,1.05,2.23,1005.88
16.531,-1.48,0.68,-0.60,-10.44,4.75,-1.90,-1.85,1.05,2.23,1005.88
16.531,-0.68,1.45,-0.90,-10.44,4.75,-1.90,-1.85,1.05,2.23,1005.88
16.532,-0.68,1.45,-0.90,-10.44,4.75,-1.90,-0.02,-0.39,-2.02,1005.88
16.532,-0.68,1.45,-0.90,-13.91,-0.69,-5.35,-0.02,-0.39,-2.02,1005.88
16.589,1.45,1.92,0.14,-13.91,-0.69,-5.35,-0.02,-0.39,-2.02,1005.88
16.59,2.59,1.53,-0.35,-13.91,-0.69,-5.35,-0.02,-0.39,-2.02,1005.88
16.59,0.44,1.97,-1.58,-13.91,-0.69,-5.35,-0.02,-0.39,-2.02,1005.88
16.59,0.44,1.97,-1.58,-13.91,-0.69,-5.35,-0.16,-4.52,-0.35,1005.88
16.591,0.44,1.97,-1.58,-5.00,4.18,-4.49,-0.16,-4.52,-0.35,1005.88
16.621,0.44,1.97,-1.58,-5.00,4.18,-4.49,-0.16,-4.52,-0.35,1005.87
16.647,-0.57,1.14,-0.05,-5.00,4.18,-4.49,-0.16,-4.52,-0.35,1005.87
16.648,0.12,0.24,1.03,-5.00,4.18,-4.49,-0.16,-4.52,-0.35,1005.87
16.649,-0.05,0.70,0.43,-5.00,4.18,-4.49,-0.16,-4.52,-0.35,1005.87
16.649,-0.05,0.70,0.43,-5.00,4.18,-4.49,-0.14,-0.58,-2.68,1005.87
16.649,-0.05,0.70,0.43,6.71,5.69,-6.39,-0.14,-0.58,-2.68,1005.87
16.649,-0.05,0.70,0.43,6.71,5.69,-6.39,-0.14,-0.58,-2.68,1005.88
16.706,-0.18,1.19,0.11,6.71,5.69,-6.39,-0.14,-0.58,-2.68,1005.88
16.707,-0.21,1.18,-0.15,6.71,5.69,-6.39,-0.14,-0.58,-2.68,1005.88
16.707,0.01,1.05,-0.14,6.71,5.69,-6.39,-0.14,-0.58,-2.68,1005.88
16.707,0.01,1.05,-0.14,6.71,5.69,-6.39,0.33,0.34,-1.50,1005.88
16.708,0.01,1.05,-0.14,-0.83,-2.56,5.27,0.33,0.34,-1.50,1005.88
16.727,0.01,1.05,-0.14,-0.83,-2.56,5.27,0.33,0.34,-1.50,1005.91
16.765,0.01,1.05,-0.14,-0.16,1.29,-1.07,0.33,0.34,-1.50,1005.91
16.766,0.09,1.08,-0.14,-0.16,1.29,-1.07,0.33,0.34,-1.50,1005.91
16.766,-0.01,1.05,0.05,-0.16,1.29,-1.07,0.33,0.34,-1.50,1005.91
16.767,-0.23,0.93,0.15,-0.16,1.29,-1.07,0.33,0.34,-1.50,1005.91
16.767,-0.23,0.93,0.15,-0.16,1.29,-1.07,0.29,-0.28,-1.21,1005.91
16.807,-0.23,0.93,0.15,-0.16,1.29,-1.07,0.29,-0.28,-1.21,1005.94
16.837,-0.14,0.91,0.05,-0.16,1.29,-1.07,0.29,-0.28,-1.21,1005.94
16.838,0.12,1.04,-0.03,-0.16,1.29,-1.07,0.29,-0.28,-1.21,1005.94
16.838,0.06,1.06,-0.06,-0.16,1.29,-1.07,0.29,-0.28,-1.21,1005.94
16.838,0.06,1.06,-0.06,-0.16,1.29,-1.07,0.33,-0.30,-0.99,1005.94
16.839,0.06,1.06,-0.06,-0.51,-0.07,1.30,0.33,-0.30,-0.99,1005.94
16.848,0.06,1.06,-0.06,-0.51,-0.07,1.30,0.33,-0.30,-0.99,1005.93
16.88,-0.16,0.99,-0.06,-0.51,-0.07,1.30,0.33,-0.30,-0.99,1005.93
16.881,-0.20,1.03,-0.07,-0.51,-0.07,1.30,0.33,-0.30,-0.99,1005.93
16.882,-0.08,1.07,-0.06,-0.51,-0.07,1.30,0.33,-0.30,-0.99,1005.93
16.882,-0.08,1.07,-0.06,-0.51,-0.07,1.30,0.34,0.06,-1.10,1005.93
16.882,-0.08,1.07,-0.06,1.40,0.67,0.15,0.34,0.06,-1.10,1005.93
16.928,-0.08,1.07,-0.06,1.40,0.67,0.15,0.34,0.06,-1.10,1005.94
16.938,-0.01,1.02,-0.02,1.40,0.67,0.15,0.34,0.06,-1.10,1005.94
16.939,-0.11,0.96,-0.03,1.40,0.67,0.15,0.34,0.06,-1.10,1005.94
16.939,-0.15,0.96,-0.07,1.40,0.67,0.15,0.34,0.06,-1.10,1005.94
16.939,-0.15,0.96,-0.07,1.40,0.67,0.15,0.38,0.28,-1.17,1005.94
16.94,-0.15,0.96,-0.07,1.01,0.91,0.41,0.38,0.28,-1.17,1005.94
16.998,-0.10,0.97,-0.07,1.01,0.91,0.41,0.38,0.28,-1.17,1005.94
16.999,-0.09,0.98,-0.03,1.01,0.91,0.41,0.38,0.28,-1.17,1005.94
16.999,-0.22,1.06,-0.01,1.01,0.91,0.41,0.38,0.28,-1.17,1005.94
17.0,-0.22,1.06,-0.01,1.45,0.34,0.64,0.38,0.28,-1.17,1005.94
17.0,-0.22,1.06,-0.01,1.45,0.34,0.64,0.46,0.52,-1.40,1005.94
17.008,-0.22,1.06,-0.01,1.45,0.34,0.64,0.46,0.52,-1.40,1005.92
17.048,-0.22,1.06,-0.01,1.45,0.34,0.64,0.46,0.52,-1.40,1005.92
17.055,-0.29,1.15,-0.04,1.45,0.34,0.64,0.46,0.52,-1.40,1005.92
17.057,-0.09,1.21,-0.04,1.45,0.34,0.64,0.46,0.52,-1.40,1005.92
17.058,0.11,1.25,-0.04,1.45,0.34,0.64,0.46,0.52,-1.40,1005.92
17.059,0.11,1.25,-0.04,1.53,1.66,1.31,0.46,0.52,-1.40,1005.92
17.06,0.11,1.25,-0.04,1.53,1.66,1.31,0.79,-0.17,-1.63,1005.92
17.113,0.20,1.31,-0.01,1.53,1.66,1.31,0.79,-0.17,-1.63,1005.92
17.114,0.34,1.48,0.12,1.53,1.66,1.31,0.79,-0.17,-1.63,1005.92
17.114,0.51,1.73,0.10,1.53,1.66,1.31,0.79,-0.17,-1.63,1005.92
17.115,0.51,1.73,0.10,1.53,1.66,1.31,1.21,0.62,-2.18,1005.92
17.115,0.51,1.73,0.10,5.14,4.11,1.97,1.21,0.62,-2.18,1005.92
17.128,0.51,1.73,0.10,5.14,4.11,1.97,1.21,0.62,-2.18,1005.91
17.172,0.79,1.77,0.09,5.14,4.11,1.97,1.21,0.62,-2.18,1005.91
17.173,0.87,1.52,0.08,5.14,4.11,1.97,1.21,0.62,-2.18,1005.91
17.173,-0.02,1.19,-0.11,5.14,4.11,1.97,1.21,0.62,-2.18,1005.91
17.174,-0.02,1.19,-0.11,5.14,4.11,1.97,1.23,1.96,-2.86,1005.91
17.174,-0.02,1.19,-0.11,10.52,8.94,4.33,1.23,1.96,-2.86,1005.91
17.207,-0.02,1.19,-0.11,10.52,8.94,4.33,1.23,1.96,-2.86,1005.92
17.23,-0.83,1.31,-0.29,10.52,8.94,4.33,1.23,1.96,-2.86,1005.92
17.232,-1.00,1.43,-0.27,10.52,8.94,4.33,1.23,1.96,-2.86,1005.92
17.233,-0.95,1.05,-0.44,10.52,8.94,4.33,1.23,1.96,-2.86,1005.92
17.233,-0.95,1.05,-0.44,10.52,8.94,4.33,1.67,2.59,-3.38,1005.92
17.234,-0.95,1.05,-0.44,5.84,7.19,3.69,1.67,2.59,-3.38,1005.92
17.248,-0.95,1.05,-0.44,5.84,7.19,3.69,1.67,2.59,-3.38,1005.91
17.293,-0.79,0.66,-0.38,5.84,7.19,3.69,1.67,2.59,-3.38,1005.91
17.294,-0.53,0.48,-0.49,5.84,7.19,3.69,1.67,2.59,-3.38,1005.91
17.295,-0.28,0.31,-0.27,5.84,7.19,3.69,1.67,2.59,-3.38,1005.91
17.295,-0.28,0.31,-0.27,5.84,7.19,3.69,-0.26,-0.21,-0.54,1005.91
17.295,-0.28,0.31,-0.27,-2.92,4.33,0.97,-0.26,-0.21,-0.54,1005.91
17.327,-0.28,0.31,-0.27,-2.92,4.33,0.97,-0.26,-0.21,-0.54,1005.91
17.347,-0.12,0.07,-0.03,-2.92,4.33,0.97,-0.26,-0.21,-0.54,1005.91
17.347,-0.01,0.01,-0.19,-2.92,4.33,0.97,-0.26,-0.21,-0.54,1005.91
17.347,-0.07,0.18,-0.26,-2.92,4.33,0.97,-0.26,-0.21,-0.54,1005.91
17.348,-0.07,0.18,-0.26,-2.92,4.33,0.97,-1.58,-1.06,2.46,1005.91
17.348,-0.07,0.18,-0.26,2.29,-4.26,1.00,-1.58,-1.06,2.46,1005.91
17.404,-0.08,0.37,-0.27,2.29,-4.26,1.00,-1.58,-1.06,2.46,1005.91
17.405,-0.05,0.55,-0.26,2.29,-4.26,1.00,-1.58,-1.06,2.46,1005.91
17.405,-0.11,0.70,-0.25,2.29,-4.26,1.00,-1.58,-1.06,2.46,1005.91
17.405,-0.11,0.70,-0.25,2.84,-6.63,0.10,-1.58,-1.06,2.46,1005.91
17.405,-0.11,0.70,-0.25,2.84,-6.63,0.10,-2.07,-0.68,4.39,1005.91
17.407,-0.11,0.70,-0.25,2.84,-6.63,0.10,-2.07,-0.68,4.39,1005.89
17.448,-0.11,0.70,-0.25,2.84,-6.63,0.10,-2.07,-0.68,4.39,1005.95
17.464,-0.06,0.76,-0.11,2.84,-6.63,0.10,-2.07,-0.68,4.39,1005.95
17.464,0.00,0.93,-0.22,2.84,-6.63,0.10,-2.07,-0.68,4.39,1005.95
17.465,-0.07,1.29,-0.39,2.84,-6.63,0.10,-2.07,-0.68,4.39,1005.95
17.465,-0.07,1.29,-0.39,2.84,-6.63,0.10,-2.34,0.96,5.58,1005.95
17.466,-0.07,1.29,-0.39,-0.35,-2.72,-0.70,-2.34,0.96,5.58,1005.95
17.521,-0.26,1.76,-0.40,-0.35,-2.72,-0.70,-2.34,0.96,5.58,1005.95
17.523,-0.61,2.12,-0.44,-0.35,-2.72,-0.70,-2.34,0.96,5.58,1005.95
17.523,-0.79,1.86,-0.35,-0.35,-2.72,-0.70,-2.34,0.96,5.58,1005.95
17.524,-0.79,1.86,-0.35,-0.35,-2.72,-0.70,-3.26,1.15,5.33,1005.95
17.525,-0.79,1.86,-0.35,-3.54,3.95,-3.74,-3.26,1.15,5.33,1005.95
17.528,-0.79,1.86,-0.35,-3.54,3.95,-3.74,-3.26,1.15,5.33,1005.92
17.581,-0.85,1.34,-0.17,-3.54,3.95,-3.74,-3.26,1.15,5.33,1005.92
17.582,-0.68,1.08,-0.35,-3.54,3.95,-3.74,-3.26,1.15,5.33,1005.92
17.582,-0.56,1.08,-0.39,-3.54,3.95,-3.74,-3.26,1.15,5.33,1005.92
17.583,-0.56,1.08,-0.39,-11.44,9.00,-4.66,-3.26,1.15,5.33,1005.92
17.583,-0.56,1.08,-0.39,-11.44,9.00,-4.66,-2.26,0.12,3.57,1005.92
17.608,-0.56,1.08,-0.39,-11.44,9.00,-4.66,-2.26,0.12,3.57,1005.87
17.639,-0.73,0.87,-0.46,-11.44,9.00,-4.66,-2.26,0.12,3.57,1005.87
17.64,-0.99,0.67,-0.60,-11.44,9.00,-4.66,-2.26,0.12,3.57,1005.87
17.641,-1.26,0.73,-0.53,-11.44,9.00,-4.66,-2.26,0.12,3.57,1005.87
17.641,-1.26,0.73,-0.53,-11.44,9.00,-4.66,-0.06,-0.51,-0.77,1005.87
17.641,-1.26,0.73,-0.53,-10.00,1.28,-5.25,-0.06,-0.51,-0.77,1005.87
17.648,-1.26,0.73,-0.53,-10.00,1.28,-5.25,-0.06,-0.51,-0.77,1005.89
17.698,-0.71,1.50,-0.50,-10.00,1.28,-5.25,-0.06,-0.51,-0.77,1005.89
17.699,1.56,1.86,0.94,-10.00,1.28,-5.25,-0.06,-0.51,-0.77,1005.89
17.699,2.80,1.34,0.36,-10.00,1.28,-5.25,-0.06,-0.51,-0.77,1005.89
17.699,2.80,1.34,0.36,-10.00,1.28,-5.25,-0.24,-3.20,-0.99,1005.89
17.7,2.80,1.34,0.36,-12.73,0.71,-6.07,-0.24,-3.20,-0.99,1005.89
17.727,2.80,1.34,0.36,-12.73,0.71,-6.07,-0.24,-3.20,-0.99,1005.89
17.757,0.39,1.46,-1.04,-12.73,0.71,-6.07,-0.24,-3.20,-0.99,1005.89
17.758,-0.72,1.34,-0.62,-12.73,0.71,-6.07,-0.24,-3.20,-0.99,1005.89
17.758,-0.21,0.68,0.42,-12.73,0.71,-6.07,-0.24,-3.20,-0.99,1005.89
17.759,-0.21,0.68,0.42,-12.73,0.71,-6.07,0.41,-0.14,-2.66,1005.89
17.759,-0.21,0.68,0.42,13.60,5.97,0.41,0.41,-0.14,-2.66,1005.89
17.808,-0.21,0.68,0.42,13.60,5.97,0.41,0.41,-0.14,-2.66,1005.96
17.814,-0.13,0.79,0.38,13.60,5.97,0.41,0.41,-0.14,-2.66,1005.96
17.814,-0.29,1.02,0.19,13.60,5.97,0.41,0.41,-0.14,-2.66,1005.96
17.815,-0.13,1.09,0.09,13.60,5.97,0.41,0.41,-0.14,-2.66,1005.96
17.815,-0.13,1.09,0.09,13.60,5.97,0.41,0.27,-0.11,-1.71,1005.96
17.816,-0.13,1.09,0.09,-4.40,-0.26,0.28,0.27,-0.11,-1.71,1005.96
17.848,-0.13,1.09,0.09,-4.40,-0.26,0.28,0.27,-0.11,-1.71,1005.97
17.871,0.06,0.99,0.02,-4.40,-0.26,0.28,0.27,-0.11,-1.71,1005.97
17.873,0.18,1.04,0.01,-4.40,-0.26,0.28,0.27,-0.11,-1.71,1005.97
17.874,0.16,1.08,-0.02,-4.40,-0.26,0.28,0.27,-0.11,-1.71,1005.97
17.874,0.16,1.08,-0.02,-4.40,-0.26,0.28,0.32,-0.20,-1.14,1005.97
17.875,0.16,1.08,-0.02,-1.47,0.68,0.81,0.32,-0.20,-1.14,1005.97
17.927,0.16,1.08,-0.02,-1.47,0.68,0.81,0.32,-0.20,-1.14,1005.94
17.93,-0.15,1.05,0.02,-1.47,0.68,0.81,0.32,-0.20,-1.14,1005.94
17.931,-0.28,0.97,0.01,-1.47,0.68,0.81,0.32,-0.20,-1.14,1005.94
17.931,-0.00,0.97,0.02,-1.47,0.68,0.81,0.32,-0.20,-1.14,1005.94
17.932,-0.00,0.97,0.02,-1.47,0.68,0.81,0.34,-0.26,-1.10,1005.94
17.932,-0.00,0.97,0.02,0.96,0.88,0.07,0.34,-0.26,-1.10,1005.94
17.988,0.14,1.02,0.03,0.96,0.88,0.07,0.34,-0.26,-1.10,1005.94
17.989,0.02,1.01,0.03,0.96,0.88,0.07,0.34,-0.26,-1.10,1005.94
17.99,-0.09,0.99,-0.03,0.96,0.88,0.07,0.34,-0.26,-1.10,1005.94
17.99,-0.09,0.99,-0.03,0.41,0.23,0.41,0.34,-0.26,-1.10,1005.94
17.99,-0.09,0.99,-0.03,0.41,0.23,0.41,0.34,-0.05,-1.01,1005.94
18.017,-0.09,0.99,-0.03,0.41,0.23,0.41,0.34,-0.05,-1.01,1005.93
18.048,-0.11,1.02,-0.04,0.41,0.23,0.41,0.34,-0.05,-1.01,1005.93
18.049,-0.19,1.04,-0.07,0.41,0.23,0.41,0.34,-0.05,-1.01,1005.93
18.049,-0.17,1.02,-0.08,0.41,0.23,0.41,0.34,-0.05,-1.01,1005.93
18.049,-0.17,1.02,-0.08,0.41,0.23,0.41,0.31,0.23,-1.06,1005.93
18.05,-0.17,1.02,-0.08,0.86,0.48,0.27,0.31,0.23,-1.06,1005.93
18.05,-0.17,1.02,-0.08,0.86,0.48,0.27,0.31,0.23,-1.06,1005.93
18.109,-0.07,1.00,-0.06,0.86,0.48,0.27,0.31,0.23,-1.06,1005.93
18.11,-0.01,0.96,-0.02,0.86,0.48,0.27,0.31,0.23,-1.06,1005.93
18.11,-0.05,0.94,0.02,0.86,0.48,0.27,0.31,0.23,-1.06,1005.93
18.111,-0.05,0.94,0.02,0.86,0.48,0.27,0.30,0.35,-1.08,1005.93
18.111,-0.05,0.94,0.02,0.58,0.70,-0.05,0.30,0.35,-1.08,1005.93
18.141,-0.05,0.94,0.02,0.58,0.70,-0.05,0.30,0.35,-1.08,1005.92
18.163,-0.11,0.99,0.04,0.58,0.70,-0.05,0.30,0.35,-1.08,1005.92
18.164,-0.12,1.12,0.03,0.58,0.70,-0.05,0.30,0.35,-1.08,1005.92
18.164,-0.08,1.21,0.01,0.58,0.70,-0.05,0.30,0.35,-1.08,1005.92
18.165,-0.08,1.21,0.01,0.58,0.70,-0.05,0.50,0.07,-1.55,1005.92
18.165,-0.08,1.21,0.01,2.24,0.44,1.01,0.50,0.07,-1.55,1005.92
18.207,-0.08,1.21,0.01,2.24,0.44,1.01,0.50,0.07,-1.55,1005.92
18.256,-0.02,1.18,0.01,2.24,0.44,1.01,0.50,0.07,-1.55,1005.92
18.257,-0.02,1.18,0.02,2.24,0.44,1.01,0.50,0.07,-1.55,1005.92
18.257,-0.04,1.24,-0.02,2.24,0.44,1.01,0.50,0.07,-1.55,1005.92
18.257,-0.04,1.24,-0.02,2.24,0.44,1.01,0.90,0.19,-2.04,1005.92
18.258,-0.04,1.24,-0.02,3.06,2.87,1.51,0.90,0.19,-2.04,1005.92
18.258,-0.04,1.24,-0.02,3.06,2.87,1.51,0.90,0.19,-2.04,1005.93
18.28,-0.00,1.38,-0.08,3.06,2.87,1.51,0.90,0.19,-2.04,1005.93
18.28,0.23,1.62,-0.01,3.06,2.87,1.51,0.90,0.19,-2.04,1005.93
18.28,0.73,1.78,-0.02,3.06,2.87,1.51,0.90,0.19,-2.04,1005.93
18.281,0.73,1.78,-0.02,3.06,2.87,1.51,1.12,1.06,-2.31,1005.93
18.281,0.73,1.78,-0.02,4.51,4.39,1.88,1.12,1.06,-2.31,1005.93
18.328,0.73,1.78,-0.02,4.51,4.39,1.88,1.12,1.06,-2.31,1005.94
18.338,1.06,1.72,-0.13,4.51,4.39,1.88,1.12,1.06,-2.31,1005.94
18.339,0.33,1.11,-0.18,4.51,4.39,1.88,1.12,1.06,-2.31,1005.94
18.339,-0.88,1.02,-0.36,4.51,4.39,1.88,1.12,1.06,-2.31,1005.94
18.34,-0.88,1.02,-0.36,4.51,4.39,1.88,1.21,2.50,-3.11,1005.94
18.34,-0.88,1.02,-0.36,12.07,9.69,2.82,1.21,2.50,-3.11,1005.94
18.397,-1.43,1.22,-0.35,12.07,9.69,2.82,1.21,2.50,-3.11,1005.94
18.398,-1.21,1.07,-0.27,12.07,9.69,2.82,1.21,2.50,-3.11,1005.94
18.398,-0.70,0.55,-0.27,12.07,9.69,2.82,1.21,2.50,-3.11,1005.94
18.398,-0.70,0.55,-0.27,12.07,9.69,2.82,1.19,1.40,-2.60,1005.94
18.398,-0.70,0.55,-0.27,-0.30,5.00,1.35,1.19,1.40,-2.60,1005.94
18.415,-0.70,0.55,-0.27,-0.30,5.00,1.35,1.19,1.40,-2.60,1005.93
18.447,-0.70,0.55,-0.27,-0.30,5.00,1.35,1.19,1.40,-2.60,1005.89
18.454,-0.60,0.37,-0.37,-0.30,5.00,1.35,1.19,1.40,-2.60,1005.89
18.455,-0.40,0.28,-0.19,-0.30,5.00,1.35,1.19,1.40,-2.60,1005.89
18.455,-0.17,0.06,0.08,-0.30,5.00,1.35,1.19,1.40,-2.60,1005.89
18.455,-0.17,0.06,0.08,-0.30,5.00,1.35,-0.49,-0.77,0.84,1005.89
18.456,-0.17,0.06,0.08,-2.17,0.09,0.84,-0.49,-0.77,0.84,1005.89
18.513,-0.16,-0.04,-0.08,-2.17,0.09,0.84,-0.49,-0.77,0.84,1005.89
18.514,-0.21,0.08,-0.24,-2.17,0.09,0.84,-0.49,-0.77,0.84,1005.89
18.514,-0.19,0.18,-0.28,-2.17,0.09,0.84,-0.49,-0.77,0.84,1005.89
18.514,-0.19,0.18,-0.28,-2.17,0.09,0.84,-0.40,-1.72,3.39,1005.89
18.515,-0.19,0.18,-0.28,2.60,-6.47,2.43,-0.40,-1.72,3.39,1005.89
18.532,-0.19,0.18,-0.28,2.60,-6.47,2.43,-0.40,-1.72,3.39,1005.91
18.572,-0.23,0.28,-0.30,2.60,-6.47,2.43,-0.40,-1.72,3.39,1005.91
18.573,-0.43,0.37,-0.08,2.60,-6.47,2.43,-0.40,-1.72,3.39,1005.91
18.574,-0.55,0.45,-0.04,2.60,-6.47,2.43,-0.40,-1.72,3.39,1005.91
18.574,-0.55,0.45,-0.04,2.60,-6.47,2.43,-0.25,-2.60,5.58,1005.91
18.575,-0.55,0.45,-0.04,0.64,-6.91,-0.33,-0.25,-2.60,5.58,1005.91
18.608,-0.55,0.45,-0.04,0.64,-6.91,-0.33,-0.25,-2.60,5.58,1005.97
18.631,-0.64,0.74,-0.31,0.64,-6.91,-0.33,-0.25,-2.60,5.58,1005.97
18.635,-0.80,1.26,-0.32,0.64,-6.91,-0.33,-0.25,-2.60,5.58,1005.97
18.636,-0.88,1.56,-0.28,0.64,-6.91,-0.33,-0.25,-2.60,5.58,1005.97
18.636,-0.88,1.56,-0.28,-5.28,-3.89,0.87,-0.25,-2.60,5.58,1005.97
18.636,-0.88,1.56,-0.28,-5.28,-3.89,0.87,0.74,-6.32,6.85,1005.97
18.647,-0.88,1.56,-0.28,-5.28,-3.89,0.87,0.74,-6.32,6.85,1005.94
18.689,-0.75,1.67,-0.39,-5.28,-3.89,0.87,0.74,-6.32,6.85,1005.94
18.69,-0.56,1.72,-0.16,-5.28,-3.89,0.87,0.74,-6.32,6.85,1005.94
18.69,-0.41,1.46,0.26,-5.28,-3.89,0.87,0.74,-6.32,6.85,1005.94
18.69,-0.41,1.46,0.26,-5.28,-3.89,0.87,0.83,-9.24,5.41,1005.94
18.69,-0.41,1.46,0.26,-9.15,5.96,-0.09,0.83,-9.24,5.41,1005.94
18.733,-0.41,1.46,0.26,-9.15,5.96,-0.09,0.83,-9.24,5.41,1005.89
18.751,-0.27,1.08,0.57,-9.15,5.96,-0.09,0.83,-9.24,5.41,1005.89
