time,gFx,gFy,gFz,ax,ay,az,wx,wy,wz,P
0.004,-0.05,1.02,0.04,-0.06,0.04,0.03,0.01,-0.00,-0.01,1005.93
0.045,-0.05,1.02,0.04,-0.06,0.04,0.03,0.01,-0.00,-0.01,1005.93
0.046,-0.05,1.00,0.06,-0.06,0.04,0.03,0.01,-0.00,-0.01,1005.93
0.046,-0.05,1.00,0.06,-0.06,0.04,0.03,0.01,-0.00,-0.01,1005.93
0.047,-0.06,1.01,0.06,-0.06,0.04,0.03,0.01,-0.00,-0.01,1005.93
0.047,-0.06,1.01,0.06,0.04,0.01,0.07,0.01,-0.00,-0.01,1005.93
0.047,-0.06,1.01,0.06,0.04,0.01,0.07,0.01,0.03,-0.02,1005.93
0.106,-0.06,1.01,0.06,0.17,0.11,-0.11,0.01,0.03,-0.02,1005.93
0.106,-0.04,1.02,0.05,0.17,0.11,-0.11,0.01,0.03,-0.02,1005.93
0.106,-0.04,1.02,0.04,0.17,0.11,-0.11,0.01,0.03,-0.02,1005.93
0.107,-0.03,1.02,0.04,0.17,0.11,-0.11,0.01,0.03,-0.02,1005.93
0.107,-0.03,1.02,0.04,0.17,0.11,-0.11,0.00,0.06,-0.06,1005.93
0.125,-0.03,1.02,0.04,0.17,0.11,-0.11,0.00,0.06,-0.06,1005.92
0.163,-0.10,1.02,0.06,0.17,0.11,-0.11,0.00,0.06,-0.06,1005.92
0.164,-0.07,1.00,0.05,0.17,0.11,-0.11,0.00,0.06,-0.06,1005.92
0.164,-0.01,1.01,0.03,0.17,0.11,-0.11,0.00,0.06,-0.06,1005.92
0.164,-0.01,1.01,0.03,0.17,0.11,-0.11,0.02,0.12,-0.11,1005.92
0.164,-0.01,1.01,0.03,0.01,0.04,-0.06,0.02,0.12,-0.11,1005.92
0.205,-0.01,1.01,0.03,0.01,0.04,-0.06,0.02,0.12,-0.11,1005.91
0.222,-0.01,1.01,0.03,0.80,-0.28,-0.14,0.02,0.12,-0.11,1005.91
0.223,0.01,0.98,0.03,0.80,-0.28,-0.14,0.02,0.12,-0.11,1005.91
0.223,0.01,0.97,0.02,0.80,-0.28,-0.14,0.02,0.12,-0.11,1005.91
0.223,0.01,0.98,0.05,0.80,-0.28,-0.14,0.02,0.12,-0.11,1005.91
0.224,0.01,0.98,0.05,0.80,-0.28,-0.14,0.05,0.28,-0.24,1005.91
0.247,0.01,0.98,0.05,0.80,-0.28,-0.14,0.05,0.28,-0.24,1005.91
0.28,-0.04,0.98,0.08,0.80,-0.28,-0.14,0.05,0.28,-0.24,1005.91
0.28,-0.10,0.98,0.12,0.80,-0.28,-0.14,0.05,0.28,-0.24,1005.91
0.281,-0.13,0.93,0.09,0.80,-0.28,-0.14,0.05,0.28,-0.24,1005.91
0.281,-0.13,0.93,0.09,0.80,-0.28,-0.14,0.15,0.49,-0.40,1005.91
0.281,-0.13,0.93,0.09,0.06,-0.35,0.57,0.15,0.49,-0.40,1005.91
0.325,-0.13,0.93,0.09,0.06,-0.35,0.57,0.15,0.49,-0.40,1005.91
0.339,-0.13,0.93,0.09,-0.09,-1.29,0.11,0.15,0.49,-0.40,1005.91
0.339,-0.13,0.87,0.09,-0.09,-1.29,0.11,0.15,0.49,-0.40,1005.91
0.34,-0.11,0.85,0.03,-0.09,-1.29,0.11,0.15,0.49,-0.40,1005.91
0.34,-0.09,0.87,-0.00,-0.09,-1.29,0.11,0.15,0.49,-0.40,1005.91
0.34,-0.09,0.87,-0.00,-0.09,-1.29,0.11,0.15,0.21,-0.06,1005.91
0.396,-0.11,1.00,0.04,-0.09,-1.29,0.11,0.15,0.21,-0.06,1005.91
0.397,-0.28,1.22,0.13,-0.09,-1.29,0.11,0.15,0.21,-0.06,1005.91
0.397,-0.38,1.27,0.12,-0.09,-1.29,0.11,0.15,0.21,-0.06,1005.91
0.397,-0.38,1.27,0.12,-0.09,-1.29,0.11,0.10,0.30,0.23,1005.91
0.397,-0.38,1.27,0.12,-1.59,1.55,0.68,0.10,0.30,0.23,1005.91
0.405,-0.38,1.27,0.12,-1.59,1.55,0.68,0.10,0.30,0.23,1005.91
0.448,-0.38,1.27,0.12,-1.59,1.55,0.68,0.10,0.30,0.23,1005.92
0.455,-0.16,1.06,-0.01,-1.59,1.55,0.68,0.10,0.30,0.23,1005.92
0.455,-0.02,0.94,-0.04,-1.59,1.55,0.68,0.10,0.30,0.23,1005.92
0.455,0.00,0.88,0.01,-1.59,1.55,0.68,0.10,0.30,0.23,1005.92
0.456,0.00,0.88,0.01,-1.59,1.55,0.68,0.49,0.15,0.53,1005.92
0.456,0.00,0.88,0.01,0.08,-0.42,-0.09,0.49,0.15,0.53,1005.92
0.514,-0.08,0.93,-0.00,0.08,-0.42,-0.09,0.49,0.15,0.53,1005.92
0.516,-0.19,1.06,0.04,0.08,-0.42,-0.09,0.49,0.15,0.53,1005.92
0.517,-0.21,1.07,0.15,0.08,-0.42,-0.09,0.49,0.15,0.53,1005.92
0.518,-0.21,1.07,0.15,0.08,-0.42,-0.09,0.32,0.26,0.62,1005.92
0.52,-0.21,1.07,0.15,-1.25,0.16,0.82,0.32,0.26,0.62,1005.92
0.525,-0.21,1.07,0.15,-1.25,0.16,0.82,0.32,0.26,0.62,1005.91
0.572,-0.01,1.01,-0.03,-1.25,0.16,0.82,0.32,0.26,0.62,1005.91
0.574,0.02,0.96,-0.08,-1.25,0.16,0.82,0.32,0.26,0.62,1005.91
0.574,-0.01,0.95,0.03,-1.25,0.16,0.82,0.32,0.26,0.62,1005.91
0.574,-0.01,0.95,0.03,-1.25,0.16,0.82,0.33,-0.03,0.58,1005.91
0.575,-0.01,0.95,0.03,0.01,-0.28,0.12,0.33,-0.03,0.58,1005.91
0.606,-0.01,0.95,0.03,0.01,-0.28,0.12,0.33,-0.03,0.58,1005.92
0.631,0.03,0.99,-0.06,0.01,-0.28,0.12,0.33,-0.03,0.58,1005.92
0.633,0.04,1.04,-0.09,0.01,-0.28,0.12,0.33,-0.03,0.58,1005.92
0.634,0.08,1.03,-0.11,0.01,-0.28,0.12,0.33,-0.03,0.58,1005.92
0.636,0.08,1.03,-0.11,0.01,-0.28,0.12,0.31,-0.21,0.50,1005.92
0.637,0.08,1.03,-0.11,0.22,0.19,-0.26,0.31,-0.21,0.50,1005.92
0.648,0.08,1.03,-0.11,0.22,0.19,-0.26,0.31,-0.21,0.50,1005.93
0.69,0.11,1.00,-0.14,0.22,0.19,-0.26,0.31,-0.21,0.50,1005.93
0.693,0.15,1.00,-0.16,0.22,0.19,-0.26,0.31,-0.21,0.50,1005.93
0.694,0.09,1.01,-0.08,0.22,0.19,-0.26,0.31,-0.21,0.50,1005.93
0.695,0.09,1.01,-0.08,0.22,0.19,-0.26,0.30,-0.04,0.36,1005.93
0.696,0.09,1.01,-0.08,0.64,0.03,-0.49,0.30,-0.04,0.36,1005.93
0.725,0.09,1.01,-0.08,0.64,0.03,-0.49,0.30,-0.04,0.36,1005.92
0.755,0.00,1.04,-0.06,0.64,0.03,-0.49,0.30,-0.04,0.36,1005.92
0.757,0.07,1.01,-0.05,0.64,0.03,-0.49,0.30,-0.04,0.36,1005.92
0.758,0.08,0.99,-0.07,0.64,0.03,-0.49,0.30,-0.04,0.36,1005.92
0.759,0.08,0.99,-0.07,0.64,0.03,-0.49,0.23,-0.01,0.16,1005.92
0.76,0.08,0.99,-0.07,-0.08,0.12,0.31,0.23,-0.01,0.16,1005.92
0.806,0.08,1.01,-0.07,-0.08,0.12,0.31,0.23,-0.01,0.16,1005.92
0.808,0.11,1.04,-0.06,-0.08,0.12,0.31,0.23,-0.01,0.16,1005.92
0.809,0.13,1.06,-0.21,-0.08,0.12,0.31,0.23,-0.01,0.16,1005.92
0.81,0.13,1.06,-0.21,-0.08,0.12,0.31,0.18,0.05,0.11,1005.92
0.811,0.13,1.06,-0.21,0.37,0.35,-0.12,0.18,0.05,0.11,1005.92
0.812,0.13,1.06,-0.21,0.37,0.35,-0.12,0.18,0.05,0.11,1005.92
0.854,0.13,1.06,-0.21,0.37,0.35,-0.12,0.18,0.05,0.11,1005.92
0.88,0.09,1.14,-0.31,0.37,0.35,-0.12,0.18,0.05,0.11,1005.92
0.882,0.06,1.18,-0.24,0.37,0.35,-0.12,0.18,0.05,0.11,1005.92
0.882,-0.06,1.25,-0.22,0.37,0.35,-0.12,0.18,0.05,0.11,1005.92
0.883,-0.06,1.25,-0.22,0.37,0.35,-0.12,0.05,-0.07,-0.16,1005.92
0.884,-0.06,1.25,-0.22,-0.29,1.81,-1.45,0.05,-0.07,-0.16,1005.92
0.922,-0.14,1.35,-0.31,-0.29,1.81,-1.45,0.05,-0.07,-0.16,1005.92
0.924,-0.30,1.48,-0.36,-0.29,1.81,-1.45,0.05,-0.07,-0.16,1005.92
0.925,-0.53,1.41,-0.33,-0.29,1.81,-1.45,0.05,-0.07,-0.16,1005.92
0.926,-0.53,1.41,-0.33,-0.29,1.81,-1.45,-0.21,-0.58,-0.14,1005.92
0.926,-0.53,1.41,-0.33,-3.53,3.81,-2.21,-0.21,-0.58,-0.14,1005.92
0.927,-0.53,1.41,-0.33,-3.53,3.81,-2.21,-0.21,-0.58,-0.14,1005.90
0.981,-0.39,1.04,-0.25,-3.53,3.81,-2.21,-0.21,-0.58,-0.14,1005.90
0.983,-0.14,0.82,-0.25,-3.53,3.81,-2.21,-0.21,-0.58,-0.14,1005.90
0.984,-0.26,0.82,-0.18,-3.53,3.81,-2.21,-0.21,-0.58,-0.14,1005.90
0.984,-0.26,0.82,-0.18,-3.53,3.81,-2.21,-0.11,-0.87,0.54,1005.90
0.985,-0.26,0.82,-0.18,-3.08,-1.19,-1.16,-0.11,-0.87,0.54,1005.90
1.006,-0.26,0.82,-0.18,-3.08,-1.19,-1.16,-0.11,-0.87,0.54,1005.88
1.039,-0.58,0.72,0.08,-3.08,-1.19,-1.16,-0.11,-0.87,0.54,1005.88
1.041,-0.98,0.46,0.15,-3.08,-1.19,-1.16,-0.11,-0.87,0.54,1005.88
1.042,-1.28,0.40,-0.12,-3.08,-1.19,-1.16,-0.11,-0.87,0.54,1005.88
1.043,-1.28,0.40,-0.12,-3.08,-1.19,-1.16,-0.26,-2.62,-0.13,1005.88
1.044,-1.28,0.40,-0.12,-9.22,-4.66,1.26,-0.26,-2.62,-0.13,1005.88
1.045,-1.28,0.40,-0.12,-9.22,-4.66,1.26,-0.26,-2.62,-0.13,1005.89
1.098,-1.01,0.55,-0.16,-9.22,-4.66,1.26,-0.26,-2.62,-0.13,1005.89
1.1,-0.71,0.71,-0.28,-9.22,-4.66,1.26,-0.26,-2.62,-0.13,1005.89
1.101,-0.41,0.93,-0.47,-9.22,-4.66,1.26,-0.26,-2.62,-0.13,1005.89
1.102,-0.41,0.93,-0.47,-9.22,-4.66,1.26,-0.18,-4.70,-1.07,1005.89
1.103,-0.41,0.93,-0.47,-5.87,-2.61,-2.22,-0.18,-4.70,-1.07,1005.89
1.127,-0.41,0.93,-0.47,-5.87,-2.61,-2.22,-0.18,-4.70,-1.07,1005.90
1.156,-0.04,1.03,-0.51,-5.87,-2.61,-2.22,-0.18,-4.70,-1.07,1005.90
1.157,0.09,0.99,-0.39,-5.87,-2.61,-2.22,-0.18,-4.70,-1.07,1005.90
1.158,0.01,0.97,-0.31,-5.87,-2.61,-2.22,-0.18,-4.70,-1.07,1005.90
1.158,0.01,0.97,-0.31,-5.87,-2.61,-2.22,-0.52,-2.88,-1.51,1005.90
1.158,0.01,0.97,-0.31,2.17,0.14,-3.61,-0.52,-2.88,-1.51,1005.90
1.206,0.01,0.97,-0.31,2.17,0.14,-3.61,-0.52,-2.88,-1.51,1005.90
1.216,-0.05,0.93,-0.23,2.17,0.14,-3.61,-0.52,-2.88,-1.51,1005.90
1.218,0.00,0.87,-0.15,2.17,0.14,-3.61,-0.52,-2.88,-1.51,1005.90
1.219,0.15,0.84,-0.16,2.17,0.14,-3.61,-0.52,-2.88,-1.51,1005.90
1.22,0.15,0.84,-0.16,2.17,0.14,-3.61,-0.00,-1.75,-1.14,1005.90
1.22,0.15,0.84,-0.16,2.87,-0.80,-1.59,-0.00,-1.75,-1.14,1005.90
1.245,0.15,0.84,-0.16,2.87,-0.80,-1.59,-0.00,-1.75,-1.14,1005.91
1.273,0.36,0.85,-0.26,2.87,-0.80,-1.59,-0.00,-1.75,-1.14,1005.91
1.275,0.67,0.73,-0.56,2.87,-0.80,-1.59,-0.00,-1.75,-1.14,1005.91
1.276,1.26,0.53,-1.00,2.87,-0.80,-1.59,-0.00,-1.75,-1.14,1005.91
1.277,1.26,0.53,-1.00,2.87,-0.80,-1.59,0.42,-2.59,1.08,1005.91
1.278,1.26,0.53,-1.00,9.14,-2.60,-5.74,0.42,-2.59,1.08,1005.91
1.326,1.26,0.53,-1.00,9.14,-2.60,-5.74,0.42,-2.59,1.08,1005.92
1.333,2.00,1.75,-0.14,9.14,-2.60,-5.74,0.42,-2.59,1.08,1005.92
1.336,0.72,3.30,1.01,9.14,-2.60,-5.74,0.42,-2.59,1.08,1005.92
1.337,-1.19,1.10,-0.35,9.14,-2.60,-5.74,0.42,-2.59,1.08,1005.92
1.338,-1.19,1.10,-0.35,9.14,-2.60,-5.74,0.18,0.74,2.18,1005.92
1.339,-1.19,1.10,-0.35,5.28,10.18,2.00,0.18,0.74,2.18,1005.92
1.389,-1.17,-0.15,-0.95,5.28,10.18,2.00,0.18,0.74,2.18,1005.92
1.391,0.34,1.02,-0.21,5.28,10.18,2.00,0.18,0.74,2.18,1005.92
1.392,0.90,1.40,-0.10,5.28,10.18,2.00,0.18,0.74,2.18,1005.92
1.393,0.90,1.40,-0.10,5.28,10.18,2.00,0.75,0.01,1.79,1005.92
1.394,0.90,1.40,-0.10,-0.53,-2.41,-3.32,0.75,0.01,1.79,1005.92
1.406,0.90,1.40,-0.10,-0.53,-2.41,-3.32,0.75,0.01,1.79,1005.89
1.445,0.90,1.40,-0.10,-0.53,-2.41,-3.32,0.75,0.01,1.79,1005.89
1.448,0.67,0.99,-0.05,-0.53,-2.41,-3.32,0.75,0.01,1.79,1005.89
1.449,0.21,0.85,-0.17,-0.53,-2.41,-3.32,0.75,0.01,1.79,1005.89
1.45,0.25,0.99,-0.02,-0.53,-2.41,-3.32,0.75,0.01,1.79,1005.89
1.451,0.25,0.99,-0.02,2.31,-0.48,0.21,0.75,0.01,1.79,1005.89
1.452,0.25,0.99,-0.02,2.31,-0.48,0.21,0.31,-0.24,1.03,1005.89
1.507,0.27,1.04,-0.05,2.31,-0.48,0.21,0.31,-0.24,1.03,1005.89
1.508,0.32,0.97,-0.12,2.31,-0.48,0.21,0.31,-0.24,1.03,1005.89
1.51,0.29,0.97,-0.02,2.31,-0.48,0.21,0.31,-0.24,1.03,1005.89
1.51,0.29,0.97,-0.02,1.15,0.08,0.44,0.31,-0.24,1.03,1005.89
1.511,0.29,0.97,-0.02,1.15,0.08,0.44,0.08,-0.41,0.58,1005.89
1.525,0.29,0.97,-0.02,1.15,0.08,0.44,0.08,-0.41,0.58,1005.91
1.563,0.13,1.01,0.00,1.15,0.08,0.44,0.08,-0.41,0.58,1005.91
1.564,0.16,1.01,0.00,1.15,0.08,0.44,0.08,-0.41,0.58,1005.91
1.565,0.20,0.98,-0.02,1.15,0.08,0.44,0.08,-0.41,0.58,1005.91
1.565,0.20,0.98,-0.02,-0.31,0.18,1.12,0.08,-0.41,0.58,1005.91
1.565,0.20,0.98,-0.02,-0.31,0.18,1.12,0.14,-0.51,0.36,1005.91
1.606,0.20,0.98,-0.02,-0.31,0.18,1.12,0.14,-0.51,0.36,1005.92
1.623,0.20,0.98,-0.02,-1.34,0.09,1.05,0.14,-0.51,0.36,1005.92
1.626,0.14,0.98,-0.03,-1.34,0.09,1.05,0.14,-0.51,0.36,1005.92
1.627,0.07,0.99,-0.03,-1.34,0.09,1.05,0.14,-0.51,0.36,1005.92
1.628,0.02,0.97,-0.03,-1.34,0.09,1.05,0.14,-0.51,0.36,1005.92
1.629,0.02,0.97,-0.03,-1.34,0.09,1.05,0.26,-0.50,0.49,1005.92
1.645,0.02,0.97,-0.03,-1.34,0.09,1.05,0.26,-0.50,0.49,1005.93
1.681,0.12,0.94,-0.07,-1.34,0.09,1.05,0.26,-0.50,0.49,1005.93
1.684,0.29,0.91,-0.14,-1.34,0.09,1.05,0.26,-0.50,0.49,1005.93
1.685,0.29,0.92,-0.18,-1.34,0.09,1.05,0.26,-0.50,0.49,1005.93
1.686,0.29,0.92,-0.18,-1.34,0.09,1.05,0.40,-0.57,0.86,1005.93
1.687,0.29,0.92,-0.18,-0.19,-0.34,0.37,0.40,-0.57,0.86,1005.93
1.73,0.29,0.92,-0.18,-0.19,-0.34,0.37,0.40,-0.57,0.86,1005.92
1.738,0.17,0.96,-0.22,-0.19,-0.34,0.37,0.40,-0.57,0.86,1005.92
1.74,0.09,1.02,-0.20,-0.19,-0.34,0.37,0.40,-0.57,0.86,1005.92
1.741,0.18,1.05,-0.17,-0.19,-0.34,0.37,0.40,-0.57,0.86,1005.92
1.742,0.18,1.05,-0.17,-0.19,-0.34,0.37,0.52,-0.41,0.92,1005.92
1.743,0.18,1.05,-0.17,-1.46,0.70,0.04,0.52,-0.41,0.92,1005.92
1.801,0.24,1.08,-0.17,-1.46,0.70,0.04,0.52,-0.41,0.92,1005.92
1.802,0.19,1.09,-0.16,-1.46,0.70,0.04,0.52,-0.41,0.92,1005.92
1.803,0.12,1.19,-0.16,-1.46,0.70,0.04,0.52,-0.41,0.92,1005.92
1.803,0.12,1.19,-0.16,-1.46,0.70,0.04,0.64,-0.50,1.18,1005.92
1.804,0.12,1.19,-0.16,-1.64,2.00,0.79,0.64,-0.50,1.18,1005.92
1.807,0.12,1.19,-0.16,-1.64,2.00,0.79,0.64,-0.50,1.18,1005.92
1.845,0.12,1.19,-0.16,-1.64,2.00,0.79,0.64,-0.50,1.18,1005.93
1.861,0.12,1.19,-0.16,-5.76,4.17,0.88,0.64,-0.50,1.18,1005.93
1.862,-0.02,1.29,-0.25,-5.76,4.17,0.88,0.64,-0.50,1.18,1005.93
1.862,-0.19,1.32,-0.26,-5.76,4.17,0.88,0.64,-0.50,1.18,1005.93
1.863,-0.33,1.29,-0.13,-5.76,4.17,0.88,0.64,-0.50,1.18,1005.93
1.863,-0.33,1.29,-0.13,-5.76,4.17,0.88,0.98,-0.48,1.47,1005.93
1.913,-0.49,1.38,-0.00,-5.76,4.17,0.88,0.98,-0.48,1.47,1005.93
1.915,-0.84,1.80,0.19,-5.76,4.17,0.88,0.98,-0.48,1.47,1005.93
1.915,-1.43,2.25,0.33,-5.76,4.17,0.88,0.98,-0.48,1.47,1005.93
1.916,-1.43,2.25,0.33,-5.76,4.17,0.88,1.46,-1.22,2.05,1005.93
1.916,-1.43,2.25,0.33,-13.43,9.75,5.52,1.46,-1.22,2.05,1005.93
1.925,-1.43,2.25,0.33,-13.43,9.75,5.52,1.46,-1.22,2.05,1005.92
1.977,-1.03,1.71,0.26,-13.43,9.75,5.52,1.46,-1.22,2.05,1005.92
1.978,0.32,1.52,-0.44,-13.43,9.75,5.52,1.46,-1.22,2.05,1005.92
1.98,1.30,1.91,-0.37,-13.43,9.75,5.52,1.46,-1.22,2.05,1005.92
1.98,1.30,1.91,-0.37,-13.43,9.75,5.52,2.21,-1.81,3.86,1005.92
1.981,1.30,1.91,-0.37,-3.49,10.30,3.42,2.21,-1.81,3.86,1005.92
2.005,1.30,1.91,-0.37,-3.49,10.30,3.42,2.21,-1.81,3.86,1005.91
2.031,1.51,1.57,-0.55,-3.49,10.30,3.42,2.21,-1.81,3.86,1005.91
2.032,0.79,1.08,-0.70,-3.49,10.30,3.42,2.21,-1.81,3.86,1005.91
2.033,0.45,0.93,-0.60,-3.49,10.30,3.42,2.21,-1.81,3.86,1005.91
2.033,0.45,0.93,-0.60,-3.49,10.30,3.42,1.08,-0.49,2.56,1005.91
2.034,0.45,0.93,-0.60,2.77,6.26,-0.27,1.08,-0.49,2.56,1005.91
2.045,0.45,0.93,-0.60,2.77,6.26,-0.27,1.08,-0.49,2.56,1005.88
2.09,0.05,0.45,-0.15,2.77,6.26,-0.27,1.08,-0.49,2.56,1005.88
2.092,-0.16,0.01,-0.06,2.77,6.26,-0.27,1.08,-0.49,2.56,1005.88
2.092,-0.10,-0.04,-0.18,2.77,6.26,-0.27,1.08,-0.49,2.56,1005.88
2.093,-0.10,-0.04,-0.18,2.77,6.26,-0.27,-1.48,-0.47,-0.34,1005.88
2.094,-0.10,-0.04,-0.18,-6.52,-4.53,4.07,-1.48,-0.47,-0.34,1005.88
2.126,-0.10,-0.04,-0.18,-6.52,-4.53,4.07,-1.48,-0.47,-0.34,1005.87
2.148,0.02,0.16,-0.32,-6.52,-4.53,4.07,-1.48,-0.47,-0.34,1005.87
2.15,0.12,0.28,-0.36,-6.52,-4.53,4.07,-1.48,-0.47,-0.34,1005.87
2.151,0.19,0.34,-0.48,-6.52,-4.53,4.07,-1.48,-0.47,-0.34,1005.87
2.152,0.19,0.34,-0.48,-6.52,-4.53,4.07,-2.78,-1.43,-2.35,1005.87
2.153,0.19,0.34,-0.48,-3.35,-4.81,0.90,-2.78,-1.43,-2.35,1005.87
2.206,0.20,0.37,-0.60,-3.35,-4.81,0.90,-2.78,-1.43,-2.35,1005.87
2.208,0.21,0.38,-0.46,-3.35,-4.81,0.90,-2.78,-1.43,-2.35,1005.87
2.209,0.20,0.45,-0.34,-3.35,-4.81,0.90,-2.78,-1.43,-2.35,1005.87
2.21,0.20,0.45,-0.34,-3.35,-4.81,0.90,-4.42,-0.70,-4.19,1005.87
2.211,0.20,0.45,-0.34,-0.25,-5.12,-1.85,-4.42,-0.70,-4.19,1005.87
2.212,0.20,0.45,-0.34,-0.25,-5.12,-1.85,-4.42,-0.70,-4.19,1005.95
2.246,0.20,0.45,-0.34,-0.25,-5.12,-1.85,-4.42,-0.70,-4.19,1005.94
2.264,0.16,0.60,-0.23,-0.25,-5.12,-1.85,-4.42,-0.70,-4.19,1005.94
2.265,0.07,0.92,-0.46,-0.25,-5.12,-1.85,-4.42,-0.70,-4.19,1005.94
2.266,0.31,1.48,-0.89,-0.25,-5.12,-1.85,-4.42,-0.70,-4.19,1005.94
2.267,0.31,1.48,-0.89,-0.25,-5.12,-1.85,-5.12,-0.72,-5.12,1005.94
2.268,0.31,1.48,-0.89,2.42,0.18,-5.15,-5.12,-0.72,-5.12,1005.94
2.322,0.78,1.81,-1.19,2.42,0.18,-5.15,-5.12,-0.72,-5.12,1005.94
2.324,1.04,1.80,-1.32,2.42,0.18,-5.15,-5.12,-0.72,-5.12,1005.94
2.325,1.32,1.46,-1.04,2.42,0.18,-5.15,-5.12,-0.72,-5.12,1005.94
2.326,1.32,1.46,-1.04,2.42,0.18,-5.15,-4.30,0.16,-4.04,1005.94
2.326,1.32,1.46,-1.04,12.91,7.45,-13.63,-4.30,0.16,-4.04,1005.94
2.328,1.32,1.46,-1.04,12.91,7.45,-13.63,-4.30,0.16,-4.04,1005.93
2.381,1.56,0.84,-0.75,12.91,7.45,-13.63,-4.30,0.16,-4.04,1005.93
2.383,1.38,0.59,-0.80,12.91,7.45,-13.63,-4.30,0.16,-4.04,1005.93
2.384,0.45,0.92,-0.78,12.91,7.45,-13.63,-4.30,0.16,-4.04,1005.93
2.385,0.45,0.92,-0.78,12.91,7.45,-13.63,-0.76,3.34,-0.07,1005.93
2.385,0.45,0.92,-0.78,13.89,-1.27,-9.28,-0.76,3.34,-0.07,1005.93
2.411,0.45,0.92,-0.78,13.89,-1.27,-9.28,-0.76,3.34,-0.07,1005.88
2.44,-0.06,1.36,-0.65,13.89,-1.27,-9.28,-0.76,3.34,-0.07,1005.88
2.442,-1.46,2.40,1.93,13.89,-1.27,-9.28,-0.76,3.34,-0.07,1005.88
2.442,-1.08,2.84,0.35,13.89,-1.27,-9.28,-0.76,3.34,-0.07,1005.88
2.443,-1.08,2.84,0.35,13.89,-1.27,-9.28,0.21,2.43,1.27,1005.88
2.444,-1.08,2.84,0.35,-6.06,12.16,4.08,0.21,2.43,1.27,1005.88
2.446,-1.08,2.84,0.35,-6.06,12.16,4.08,0.21,2.43,1.27,1005.86
2.501,-0.19,0.95,-2.17,-6.06,12.16,4.08,0.21,2.43,1.27,1005.86
2.504,-0.03,0.17,-0.09,-6.06,12.16,4.08,0.21,2.43,1.27,1005.86
2.504,0.71,0.57,0.22,-6.06,12.16,4.08,0.21,2.43,1.27,1005.86
2.511,0.71,0.57,0.22,-6.06,12.16,4.08,1.74,-0.60,3.07,1005.86
2.513,0.71,0.57,0.22,2.27,-4.18,-6.84,1.74,-0.60,3.07,1005.86
2.525,0.71,0.57,0.22,2.27,-4.18,-6.84,1.74,-0.60,3.07,1005.91
2.563,0.61,0.96,0.03,2.27,-4.18,-6.84,1.74,-0.60,3.07,1005.91
2.564,0.51,1.24,-0.13,2.27,-4.18,-6.84,1.74,-0.60,3.07,1005.91
2.565,0.15,1.10,-0.07,2.27,-4.18,-6.84,1.74,-0.60,3.07,1005.91
2.566,0.15,1.10,-0.07,2.27,-4.18,-6.84,0.69,-0.38,1.27,1005.91
2.566,0.15,1.10,-0.07,4.04,1.03,-0.35,0.69,-0.38,1.27,1005.91
2.606,0.15,1.10,-0.07,4.04,1.03,-0.35,0.69,-0.38,1.27,1005.91
2.614,-0.15,1.01,-0.14,4.04,1.03,-0.35,0.69,-0.38,1.27,1005.91
2.615,-0.10,1.04,-0.11,4.04,1.03,-0.35,0.69,-0.38,1.27,1005.91
2.616,0.05,0.98,-0.01,4.04,1.03,-0.35,0.69,-0.38,1.27,1005.91
2.617,0.05,0.98,-0.01,4.04,1.03,-0.35,0.57,0.19,0.67,1005.91
2.618,0.05,0.98,-0.01,-1.12,0.18,-0.31,0.57,0.19,0.67,1005.91
2.646,0.05,0.98,-0.01,-1.12,0.18,-0.31,0.57,0.19,0.67,1005.93
2.673,0.09,1.00,0.03,-1.12,0.18,-0.31,0.57,0.19,0.67,1005.93
2.675,0.03,1.00,-0.01,-1.12,0.18,-0.31,0.57,0.19,0.67,1005.93
2.676,0.04,0.95,-0.05,-1.12,0.18,-0.31,0.57,0.19,0.67,1005.93
2.677,0.04,0.95,-0.05,-1.12,0.18,-0.31,0.61,-0.18,0.78,1005.93
2.679,0.04,0.95,-0.05,-0.42,-0.03,0.80,0.61,-0.18,0.78,1005.93
2.725,0.04,0.95,-0.05,-0.42,-0.03,0.80,0.61,-0.18,0.78,1005.94
2.73,0.06,0.99,-0.08,-0.42,-0.03,0.80,0.61,-0.18,0.78,1005.94
2.73,0.08,1.01,-0.10,-0.42,-0.03,0.80,0.61,-0.18,0.78,1005.94
2.731,0.10,1.00,-0.08,-0.42,-0.03,0.80,0.61,-0.18,0.78,1005.94
2.731,0.10,1.00,-0.08,-0.42,-0.03,0.80,0.66,-0.62,0.92,1005.94
2.739,0.10,1.00,-0.08,-0.58,0.24,0.45,0.66,-0.62,0.92,1005.94
2.788,0.13,0.97,-0.04,-0.58,0.24,0.45,0.66,-0.62,0.92,1005.94
2.789,0.20,0.93,-0.05,-0.58,0.24,0.45,0.66,-0.62,0.92,1005.94
2.79,0.24,0.94,-0.10,-0.58,0.24,0.45,0.66,-0.62,0.92,1005.94
2.79,0.24,0.94,-0.10,-0.58,0.24,0.45,0.81,-0.38,1.04,1005.94
2.791,0.24,0.94,-0.10,-0.05,-0.08,1.14,0.81,-0.38,1.04,1005.94
2.805,0.24,0.94,-0.10,-0.05,-0.08,1.14,0.81,-0.38,1.04,1005.95
2.846,0.24,0.94,-0.10,-0.05,-0.08,1.14,0.81,-0.38,1.04,1005.94
2.849,0.14,1.02,-0.14,-0.05,-0.08,1.14,0.81,-0.38,1.04,1005.94
2.85,-0.01,1.05,-0.18,-0.05,-0.08,1.14,0.81,-0.38,1.04,1005.94
2.851,0.02,1.06,-0.24,-0.05,-0.08,1.14,0.81,-0.38,1.04,1005.94
2.852,0.02,1.06,-0.24,-0.05,-0.08,1.14,1.00,-0.27,1.09,1005.94
2.853,0.02,1.06,-0.24,-1.95,1.11,0.45,1.00,-0.27,1.09,1005.94
2.905,0.18,1.10,-0.27,-1.95,1.11,0.45,1.00,-0.27,1.09,1005.94
2.907,0.18,1.15,-0.20,-1.95,1.11,0.45,1.00,-0.27,1.09,1005.94
2.907,0.00,1.16,-0.13,-1.95,1.11,0.45,1.00,-0.27,1.09,1005.94
2.908,0.00,1.16,-0.13,-1.95,1.11,0.45,1.36,0.02,1.26,1005.94
2.908,0.00,1.16,-0.13,-1.86,2.39,1.04,1.36,0.02,1.26,1005.94
2.926,0.00,1.16,-0.13,-1.86,2.39,1.04,1.36,0.02,1.26,1005.93
2.964,-0.11,1.19,-0.12,-1.86,2.39,1.04,1.36,0.02,1.26,1005.93
2.966,-0.13,1.34,-0.08,-1.86,2.39,1.04,1.36,0.02,1.26,1005.93
2.967,-0.44,1.76,0.07,-1.86,2.39,1.04,1.36,0.02,1.26,1005.93
2.969,-0.44,1.76,0.07,-1.86,2.39,1.04,1.84,-0.17,1.47,1005.93
2.97,-0.44,1.76,0.07,-5.88,5.79,3.46,1.84,-0.17,1.47,1005.93
3.006,-0.44,1.76,0.07,-5.88,5.79,3.46,1.84,-0.17,1.47,1005.93
3.023,-1.11,2.04,0.26,-5.88,5.79,3.46,1.84,-0.17,1.47,1005.93
3.025,-1.10,1.75,0.21,-5.88,5.79,3.46,1.84,-0.17,1.47,1005.93
3.026,-0.18,1.43,-0.03,-5.88,5.79,3.46,1.84,-0.17,1.47,1005.93
3.027,-0.18,1.43,-0.03,-5.88,5.79,3.46,2.22,-0.80,2.22,1005.93
3.028,-0.18,1.43,-0.03,-12.03,9.79,6.36,2.22,-0.80,2.22,1005.93
3.045,-0.18,1.43,-0.03,-12.03,9.79,6.36,2.22,-0.80,2.22,1005.94
3.081,0.82,1.57,-0.45,-12.03,9.79,6.36,2.22,-0.80,2.22,1005.94
3.082,1.39,1.54,-0.35,-12.03,9.79,6.36,2.22,-0.80,2.22,1005.94
3.083,0.92,1.14,-0.44,-12.03,9.79,6.36,2.22,-0.80,2.22,1005.94
3.083,0.92,1.14,-0.44,-12.03,9.79,6.36,2.43,-0.86,3.07,1005.94
3.083,0.92,1.14,-0.44,5.04,8.12,2.03,2.43,-0.86,3.07,1005.94
3.126,0.92,1.14,-0.44,5.04,8.12,2.03,2.43,-0.86,3.07,1005.93
3.139,0.49,0.76,-0.51,5.04,8.12,2.03,2.43,-0.86,3.07,1005.93
3.141,0.41,0.57,-0.44,5.04,8.12,2.03,2.43,-0.86,3.07,1005.93
3.142,0.27,0.35,-0.14,5.04,8.12,2.03,2.43,-0.86,3.07,1005.93
3.143,0.27,0.35,-0.14,5.04,8.12,2.03,0.17,-0.11,0.38,1005.93
3.144,0.27,0.35,-0.14,-1.44,-0.10,2.56,0.17,-0.11,0.38,1005.93
3.197,0.26,0.11,0.04,-1.44,-0.10,2.56,0.17,-0.11,0.38,1005.93
3.198,0.26,0.03,-0.06,-1.44,-0.10,2.56,0.17,-0.11,0.38,1005.93
3.199,0.20,0.12,-0.23,-1.44,-0.10,2.56,0.17,-0.11,0.38,1005.93
3.2,0.20,0.12,-0.23,-1.44,-0.10,2.56,-1.74,0.25,-2.04,1005.93
3.201,0.20,0.12,-0.23,-2.21,-5.81,4.50,-1.74,0.25,-2.04,1005.93
3.207,0.20,0.12,-0.23,-2.21,-5.81,4.50,-1.74,0.25,-2.04,1005.90
3.245,0.20,0.12,-0.23,-2.21,-5.81,4.50,-1.74,0.25,-2.04,1005.94
3.255,0.18,0.24,-0.31,-2.21,-5.81,4.50,-1.74,0.25,-2.04,1005.94
3.256,0.20,0.32,-0.23,-2.21,-5.81,4.50,-1.74,0.25,-2.04,1005.94
3.256,0.22,0.40,-0.11,-2.21,-5.81,4.50,-1.74,0.25,-2.04,1005.94
3.257,0.22,0.40,-0.11,-2.21,-5.81,4.50,-3.23,0.02,-4.02,1005.94
3.257,0.22,0.40,-0.11,-0.80,-5.21,1.76,-3.23,0.02,-4.02,1005.94
3.314,0.17,0.56,-0.13,-0.80,-5.21,1.76,-3.23,0.02,-4.02,1005.94
3.316,0.13,0.90,-0.31,-0.80,-5.21,1.76,-3.23,0.02,-4.02,1005.94
3.317,0.26,1.42,-0.51,-0.80,-5.21,1.76,-3.23,0.02,-4.02,1005.94
3.318,0.26,1.42,-0.51,-0.80,-5.21,1.76,-4.65,-1.04,-5.12,1005.94
3.319,0.26,1.42,-0.51,1.87,-0.08,-1.57,-4.65,-1.04,-5.12,1005.94
3.326,0.26,1.42,-0.51,1.87,-0.08,-1.57,-4.65,-1.04,-5.12,1005.97
3.373,0.55,1.77,-0.78,1.87,-0.08,-1.57,-4.65,-1.04,-5.12,1005.97
3.374,0.70,1.80,-1.09,1.87,-0.08,-1.57,-4.65,-1.04,-5.12,1005.97
3.375,0.99,1.68,-0.99,1.87,-0.08,-1.57,-4.65,-1.04,-5.12,1005.97
3.375,0.99,1.68,-0.99,1.87,-0.08,-1.57,-4.82,-0.56,-4.08,1005.97
3.376,0.99,1.68,-0.99,9.44,7.78,-10.34,-4.82,-0.56,-4.08,1005.97
3.405,0.99,1.68,-0.99,9.44,7.78,-10.34,-4.82,-0.56,-4.08,1005.91
3.432,0.99,1.68,-0.99,13.40,-0.08,-9.81,-4.82,-0.56,-4.08,1005.91
3.434,1.23,1.27,-0.81,13.40,-0.08,-9.81,-4.82,-0.56,-4.08,1005.91
3.435,1.25,0.78,-0.79,13.40,-0.08,-9.81,-4.82,-0.56,-4.08,1005.91
3.436,0.76,0.65,-0.78,13.40,-0.08,-9.81,-4.82,-0.56,-4.08,1005.91
3.437,0.76,0.65,-0.78,13.40,-0.08,-9.81,-2.67,1.34,-1.43,1005.91
3.445,0.76,0.65,-0.78,13.40,-0.08,-9.81,-2.67,1.34,-1.43,1005.87
3.49,0.43,0.76,-0.72,13.40,-0.08,-9.81,-2.67,1.34,-1.43,1005.87
3.493,0.31,1.09,-1.05,13.40,-0.08,-9.81,-2.67,1.34,-1.43,1005.87
3.493,-1.12,1.79,1.12,13.40,-0.08,-9.81,-2.67,1.34,-1.43,1005.87
3.494,-1.12,1.79,1.12,1.28,2.78,-3.61,-2.67,1.34,-1.43,1005.87
3.495,-1.12,1.79,1.12,1.28,2.78,-3.61,0.18,2.32,1.05,1005.87
3.526,-1.12,1.79,1.12,1.28,2.78,-3.61,0.18,2.32,1.05,1005.88
3.553,-1.90,2.25,0.25,1.28,2.78,-3.61,0.18,2.32,1.05,1005.88
3.556,-0.15,1.58,-1.47,1.28,2.78,-3.61,0.18,2.32,1.05,1005.88
3.559,0.22,0.77,0.15,1.28,2.78,-3.61,0.18,2.32,1.05,1005.88
3.56,0.22,0.77,0.15,1.28,2.78,-3.61,1.29,1.77,1.19,1005.88
3.56,0.22,0.77,0.15,-3.93,5.56,-4.01,1.29,1.77,1.19,1005.88
3.606,-0.24,0.49,0.14,-3.93,5.56,-4.01,1.29,1.77,1.19,1005.88
3.611,0.12,0.89,0.12,-3.93,5.56,-4.01,1.29,1.77,1.19,1005.88
3.612,0.38,1.19,-0.13,-3.93,5.56,-4.01,1.29,1.77,1.19,1005.88
3.613,0.38,1.19,-0.13,-3.93,5.56,-4.01,0.77,-0.31,1.62,1005.88
3.614,0.38,1.19,-0.13,1.97,-1.24,0.34,0.77,-0.31,1.62,1005.88
3.615,0.38,1.19,-0.13,1.97,-1.24,0.34,0.77,-0.31,1.62,1005.93
3.646,0.38,1.19,-0.13,1.97,-1.24,0.34,0.77,-0.31,1.62,1005.92
3.663,0.36,1.09,-0.16,1.97,-1.24,0.34,0.77,-0.31,1.62,1005.92
3.664,-0.07,0.95,-0.07,1.97,-1.24,0.34,0.77,-0.31,1.62,1005.92
3.665,-0.21,1.00,-0.07,1.97,-1.24,0.34,0.77,-0.31,1.62,1005.92
3.665,-0.21,1.00,-0.07,1.97,-1.24,0.34,0.48,0.13,0.78,1005.92
3.666,-0.21,1.00,-0.07,0.93,0.25,-0.76,0.48,0.13,0.78,1005.92
3.723,-0.08,1.07,-0.03,0.93,0.25,-0.76,0.48,0.13,0.78,1005.92
3.725,-0.02,1.00,0.06,0.93,0.25,-0.76,0.48,0.13,0.78,1005.92
3.726,0.05,0.94,0.06,0.93,0.25,-0.76,0.48,0.13,0.78,1005.92
3.727,0.05,0.94,0.06,0.93,0.25,-0.76,0.40,0.02,0.65,1005.92
3.728,0.05,0.94,0.06,0.11,0.16,0.69,0.40,0.02,0.65,1005.92
3.729,0.05,0.94,0.06,0.11,0.16,0.69,0.40,0.02,0.65,1005.91
3.787,0.10,0.98,0.03,0.11,0.16,0.69,0.40,0.02,0.65,1005.91
3.789,0.02,0.99,-0.01,0.11,0.16,0.69,0.40,0.02,0.65,1005.91
3.79,-0.07,0.99,-0.03,0.11,0.16,0.69,0.40,0.02,0.65,1005.91
3.791,-0.07,0.99,-0.03,0.11,0.16,0.69,0.51,-0.25,0.50,1005.91
3.792,-0.07,0.99,-0.03,0.20,0.03,0.67,0.51,-0.25,0.50,1005.91
3.806,-0.07,0.99,-0.03,0.20,0.03,0.67,0.51,-0.25,0.50,1005.92
3.84,-0.04,0.99,-0.12,0.20,0.03,0.67,0.51,-0.25,0.50,1005.92
3.842,0.04,0.97,-0.08,0.20,0.03,0.67,0.51,-0.25,0.50,1005.92
3.843,0.09,0.96,-0.06,0.20,0.03,0.67,0.51,-0.25,0.50,1005.92
3.844,0.09,0.96,-0.06,0.20,0.03,0.67,0.57,-0.43,0.47,1005.92
3.844,0.09,0.96,-0.06,0.06,-0.09,0.16,0.57,-0.43,0.47,1005.92
3.846,0.09,0.96,-0.06,0.06,-0.09,0.16,0.57,-0.43,0.47,1005.92
3.901,0.09,0.96,-0.06,-0.04,0.00,0.02,0.57,-0.43,0.47,1005.92
3.903,0.06,0.94,-0.14,-0.04,0.00,0.02,0.57,-0.43,0.47,1005.92
3.904,0.04,0.95,-0.15,-0.04,0.00,0.02,0.57,-0.43,0.47,1005.92
3.904,0.01,1.04,-0.11,-0.04,0.00,0.02,0.57,-0.43,0.47,1005.92
3.905,0.01,1.04,-0.11,-0.04,0.00,0.02,0.56,-0.63,0.40,1005.92
3.926,0.01,1.04,-0.11,-0.04,0.00,0.02,0.56,-0.63,0.40,1005.93
3.955,-0.17,1.12,-0.10,-0.04,0.00,0.02,0.56,-0.63,0.40,1005.93
3.956,-0.33,1.19,-0.09,-0.04,0.00,0.02,0.56,-0.63,0.40,1005.93
3.957,-0.39,1.26,-0.12,-0.04,0.00,0.02,0.56,-0.63,0.40,1005.93
3.957,-0.39,1.26,-0.12,-0.04,0.00,0.02,0.56,-1.56,0.58,1005.93
3.958,-0.39,1.26,-0.12,-3.45,2.12,0.64,0.56,-1.56,0.58,1005.93
4.011,-0.39,1.26,-0.12,-3.45,2.12,0.64,0.56,-1.56,0.58,1005.93
4.016,-0.49,1.41,-0.09,-3.45,2.12,0.64,0.56,-1.56,0.58,1005.93
4.017,-0.42,1.52,-0.08,-3.45,2.12,0.64,0.56,-1.56,0.58,1005.93
4.019,-0.16,1.54,-0.23,-3.45,2.12,0.64,0.56,-1.56,0.58,1005.93
4.019,-0.16,1.54,-0.23,-3.45,2.12,0.64,0.39,-2.87,1.51,1005.93
4.02,-0.16,1.54,-0.23,-4.48,5.06,0.71,0.39,-2.87,1.51,1005.93
4.046,-0.16,1.54,-0.23,-4.48,5.06,0.71,0.39,-2.87,1.51,1005.95
4.078,0.20,1.24,-0.46,-4.48,5.06,0.71,0.39,-2.87,1.51,1005.95
4.08,0.61,0.90,-0.55,-4.48,5.06,0.71,0.39,-2.87,1.51,1005.95
4.081,0.75,0.79,-0.29,-4.48,5.06,0.71,0.39,-2.87,1.51,1005.95
4.082,0.75,0.79,-0.29,-4.48,5.06,0.71,-0.60,-4.60,2.09,1005.95
4.083,0.75,0.79,-0.29,3.42,0.13,-2.16,-0.60,-4.60,2.09,1005.95
4.127,0.75,0.79,-0.29,3.42,0.13,-2.16,-0.60,-4.60,2.09,1005.93
4.131,0.44,0.63,-0.32,3.42,0.13,-2.16,-0.60,-4.60,2.09,1005.93
4.132,0.10,0.51,-0.52,3.42,0.13,-2.16,-0.60,-4.60,2.09,1005.93
4.133,-0.19,0.49,-0.76,3.42,0.13,-2.16,-0.60,-4.60,2.09,1005.93
4.135,-0.19,0.49,-0.76,3.42,0.13,-2.16,-2.08,-6.40,1.42,1005.93
4.136,-0.19,0.49,-0.76,-0.58,-4.11,-3.58,-2.08,-6.40,1.42,1005.93
4.191,-0.37,0.46,-1.01,-0.58,-4.11,-3.58,-2.08,-6.40,1.42,1005.93
4.192,-0.28,0.51,-1.19,-0.58,-4.11,-3.58,-2.08,-6.40,1.42,1005.93
4.193,-0.10,0.55,-1.16,-0.58,-4.11,-3.58,-2.08,-6.40,1.42,1005.93
4.194,-0.10,0.55,-1.16,-0.58,-4.11,-3.58,-1.51,-7.16,1.46,1005.93
4.195,-0.10,0.55,-1.16,-4.29,-4.36,-9.27,-1.51,-7.16,1.46,1005.93
4.206,-0.10,0.55,-1.16,-4.29,-4.36,-9.27,-1.51,-7.16,1.46,1005.92
4.246,-0.10,0.55,-1.16,-4.29,-4.36,-9.27,-1.51,-7.16,1.46,1005.93
4.247,-0.02,0.59,-0.97,-4.29,-4.36,-9.27,-1.51,-7.16,1.46,1005.93
4.248,-0.03,0.62,-0.79,-4.29,-4.36,-9.27,-1.51,-7.16,1.46,1005.93
4.248,-0.11,0.67,-0.64,-4.29,-4.36,-9.27,-1.51,-7.16,1.46,1005.93
4.249,-0.11,0.67,-0.64,-4.29,-4.36,-9.27,-0.96,-5.10,0.44,1005.93
4.249,-0.11,0.67,-0.64,-2.03,-3.22,-6.03,-0.96,-5.10,0.44,1005.93
4.305,-0.20,0.73,-0.54,-2.03,-3.22,-6.03,-0.96,-5.10,0.44,1005.93
4.305,-0.23,0.83,-0.42,-2.03,-3.22,-6.03,-0.96,-5.10,0.44,1005.93
4.306,-0.22,0.91,-0.35,-2.03,-3.22,-6.03,-0.96,-5.10,0.44,1005.93
4.306,-0.22,0.91,-0.35,-2.03,-3.22,-6.03,-0.69,-4.37,-0.85,1005.93
4.306,-0.22,0.91,-0.35,-2.67,-1.37,-2.55,-0.69,-4.37,-0.85,1005.93
4.327,-0.22,0.91,-0.35,-2.67,-1.37,-2.55,-0.69,-4.37,-0.85,1005.92
4.364,-0.18,0.99,-0.33,-2.67,-1.37,-2.55,-0.69,-4.37,-0.85,1005.92
4.366,-0.11,1.10,-0.30,-2.67,-1.37,-2.55,-0.69,-4.37,-0.85,1005.92
4.367,-0.02,1.15,-0.30,-2.67,-1.37,-2.55,-0.69,-4.37,-0.85,1005.92
4.368,-0.02,1.15,-0.30,-2.67,-1.37,-2.55,-0.46,-4.98,-1.15,1005.92
4.369,-0.02,1.15,-0.30,-0.47,1.08,-1.52,-0.46,-4.98,-1.15,1005.92
4.405,-0.02,1.15,-0.30,-0.47,1.08,-1.52,-0.46,-4.98,-1.15,1005.91
4.423,0.03,1.13,-0.26,-0.47,1.08,-1.52,-0.46,-4.98,-1.15,1005.91
4.424,0.04,1.08,-0.25,-0.47,1.08,-1.52,-0.46,-4.98,-1.15,1005.91
4.425,0.14,1.04,-0.27,-0.47,1.08,-1.52,-0.46,-4.98,-1.15,1005.91
4.426,0.14,1.04,-0.27,-0.47,1.08,-1.52,-0.31,-4.97,-0.86,1005.91
4.427,0.14,1.04,-0.27,2.06,1.09,-1.48,-0.31,-4.97,-0.86,1005.91
4.45,0.14,1.04,-0.27,2.06,1.09,-1.48,-0.31,-4.97,-0.86,1005.91
4.48,0.33,1.00,-0.23,2.06,1.09,-1.48,-0.31,-4.97,-0.86,1005.91
4.482,0.39,0.98,-0.23,2.06,1.09,-1.48,-0.31,-4.97,-0.86,1005.91
4.483,0.55,0.83,-0.30,2.06,1.09,-1.48,-0.31,-4.97,-0.86,1005.91
4.484,0.55,0.83,-0.30,2.06,1.09,-1.48,0.07,-4.29,-0.06,1005.91
4.485,0.55,0.83,-0.30,5.68,-0.33,-1.74,0.07,-4.29,-0.06,1005.91
4.527,0.55,0.83,-0.30,5.68,-0.33,-1.74,0.07,-4.29,-0.06,1005.91
4.538,0.69,0.66,-0.22,5.68,-0.33,-1.74,0.07,-4.29,-0.06,1005.91
4.541,0.83,0.60,-0.43,5.68,-0.33,-1.74,0.07,-4.29,-0.06,1005.91
4.542,0.83,0.78,-0.32,5.68,-0.33,-1.74,0.07,-4.29,-0.06,1005.91
4.543,0.83,0.78,-0.32,5.68,-0.33,-1.74,0.43,-2.70,0.74,1005.91
4.545,0.83,0.78,-0.32,8.76,-2.79,-2.38,0.43,-2.70,0.74,1005.91
4.598,0.52,1.27,0.30,8.76,-2.79,-2.38,0.43,-2.70,0.74,1005.91
4.6,-0.38,2.46,1.34,8.76,-2.79,-2.38,0.43,-2.70,0.74,1005.91
4.601,-0.57,2.17,-0.01,8.76,-2.79,-2.38,0.43,-2.70,0.74,1005.91
4.601,-0.57,2.17,-0.01,8.76,-2.79,-2.38,-0.59,0.95,0.74,1005.91
4.601,-0.57,2.17,-0.01,-0.75,9.56,5.76,-0.59,0.95,0.74,1005.91
4.607,-0.57,2.17,-0.01,-0.75,9.56,5.76,-0.59,0.95,0.74,1005.91
4.646,-0.57,2.17,-0.01,-0.75,9.56,5.76,-0.59,0.95,0.74,1005.92
4.655,-0.47,0.39,-0.30,-0.75,9.56,5.76,-0.59,0.95,0.74,1005.92
4.656,0.23,0.38,-0.23,-0.75,9.56,5.76,-0.59,0.95,0.74,1005.92
4.657,0.51,1.09,-0.23,-0.75,9.56,5.76,-0.59,0.95,0.74,1005.92
4.657,0.51,1.09,-0.23,-0.75,9.56,5.76,0.57,-0.42,1.73,1005.92
4.658,0.51,1.09,-0.23,0.53,-3.59,-1.72,0.57,-0.42,1.73,1005.92
4.714,0.52,1.29,0.06,0.53,-3.59,-1.72,0.57,-0.42,1.73,1005.92
4.716,0.37,1.01,-0.01,0.53,-3.59,-1.72,0.57,-0.42,1.73,1005.92
4.717,0.07,0.96,-0.16,0.53,-3.59,-1.72,0.57,-0.42,1.73,1005.92
4.718,0.07,0.96,-0.16,0.53,-3.59,-1.72,0.04,-0.32,0.86,1005.92
4.719,0.07,0.96,-0.16,2.30,1.00,0.45,0.04,-0.32,0.86,1005.92
4.726,0.07,0.96,-0.16,2.30,1.00,0.45,0.04,-0.32,0.86,1005.91
4.775,-0.02,1.08,-0.22,2.30,1.00,0.45,0.04,-0.32,0.86,1005.91
4.777,-0.04,1.07,-0.12,2.30,1.00,0.45,0.04,-0.32,0.86,1005.91
4.778,-0.06,0.99,0.01,2.30,1.00,0.45,0.04,-0.32,0.86,1005.91
4.779,-0.06,0.99,0.01,-1.49,0.64,-0.24,0.04,-0.32,0.86,1005.91
4.78,-0.06,0.99,0.01,-1.49,0.64,-0.24,0.06,0.03,0.50,1005.91
4.808,-0.06,0.99,0.01,-1.49,0.64,-0.24,0.06,0.03,0.50,1005.92
4.83,0.02,0.98,0.03,-1.49,0.64,-0.24,0.06,0.03,0.50,1005.92
4.831,0.18,0.98,0.02,-1.49,0.64,-0.24,0.06,0.03,0.50,1005.92
4.832,0.21,0.94,0.02,-1.49,0.64,-0.24,0.06,0.03,0.50,1005.92
4.832,0.21,0.94,0.02,-1.49,0.64,-0.24,0.27,-0.22,0.72,1005.92
4.832,0.21,0.94,0.02,-0.14,-0.08,1.20,0.27,-0.22,0.72,1005.92
4.85,0.21,0.94,0.02,-0.14,-0.08,1.20,0.27,-0.22,0.72,1005.92
4.891,0.21,0.94,0.02,-0.61,0.25,0.75,0.27,-0.22,0.72,1005.92
4.893,0.16,0.96,-0.00,-0.61,0.25,0.75,0.27,-0.22,0.72,1005.92
4.894,0.11,1.00,-0.06,-0.61,0.25,0.75,0.27,-0.22,0.72,1005.92
4.895,0.10,1.01,-0.07,-0.61,0.25,0.75,0.27,-0.22,0.72,1005.92
4.896,0.10,1.01,-0.07,-0.61,0.25,0.75,0.41,-0.12,0.67,1005.92
4.928,0.10,1.01,-0.07,-0.61,0.25,0.75,0.41,-0.12,0.67,1005.93
4.949,0.15,0.99,-0.07,-0.61,0.25,0.75,0.41,-0.12,0.67,1005.93
4.95,0.18,0.97,-0.10,-0.61,0.25,0.75,0.41,-0.12,0.67,1005.93
4.951,0.16,0.99,-0.08,-0.61,0.25,0.75,0.41,-0.12,0.67,1005.93
4.951,0.16,0.99,-0.08,-0.61,0.25,0.75,0.54,0.01,0.77,1005.93
4.952,0.16,0.99,-0.08,-0.62,0.31,0.67,0.54,0.01,0.77,1005.93
5.012,0.14,1.00,-0.12,-0.62,0.31,0.67,0.54,0.01,0.77,1005.93
5.014,0.21,1.05,-0.16,-0.62,0.31,0.67,0.54,0.01,0.77,1005.93
5.015,0.22,1.08,-0.16,-0.62,0.31,0.67,0.54,0.01,0.77,1005.93
5.02,0.22,1.08,-0.16,-0.62,0.31,0.67,0.60,-0.27,0.83,1005.93
5.021,0.22,1.08,-0.16,-0.77,1.05,0.43,0.60,-0.27,0.83,1005.93
5.022,0.22,1.08,-0.16,-0.77,1.05,0.43,0.60,-0.27,0.83,1005.92
5.048,0.22,1.08,-0.16,-0.77,1.05,0.43,0.60,-0.27,0.83,1005.93
5.063,0.12,1.06,-0.11,-0.77,1.05,0.43,0.60,-0.27,0.83,1005.93
5.065,0.09,1.11,-0.06,-0.77,1.05,0.43,0.60,-0.27,0.83,1005.93
5.066,0.05,1.18,-0.02,-0.77,1.05,0.43,0.60,-0.27,0.83,1005.93
5.066,0.05,1.18,-0.02,-0.77,1.05,0.43,0.79,-0.32,1.00,1005.93
5.067,0.05,1.18,-0.02,-2.24,2.03,1.70,0.79,-0.32,1.00,1005.93
5.123,-0.07,1.26,-0.02,-2.24,2.03,1.70,0.79,-0.32,1.00,1005.93
5.125,-0.19,1.28,-0.02,-2.24,2.03,1.70,0.79,-0.32,1.00,1005.93
5.126,-0.20,1.31,-0.10,-2.24,2.03,1.70,0.79,-0.32,1.00,1005.93
5.128,-0.20,1.31,-0.10,-2.24,2.03,1.70,1.48,-0.93,1.64,1005.93
5.129,-0.20,1.31,-0.10,-5.20,4.18,2.72,1.48,-0.93,1.64,1005.93
5.13,-0.20,1.31,-0.10,-5.20,4.18,2.72,1.48,-0.93,1.64,1005.93
5.181,-0.25,1.56,-0.13,-5.20,4.18,2.72,1.48,-0.93,1.64,1005.93
5.182,-0.55,1.98,0.02,-5.20,4.18,2.72,1.48,-0.93,1.64,1005.93
5.184,-1.07,2.07,0.18,-5.20,4.18,2.72,1.48,-0.93,1.64,1005.93
5.186,-1.07,2.07,0.18,-5.20,4.18,2.72,2.34,-0.97,2.23,1005.93
5.187,-1.07,2.07,0.18,-10.44,10.78,4.68,2.34,-0.97,2.23,1005.93
5.206,-1.07,2.07,0.18,-10.44,10.78,4.68,2.34,-0.97,2.23,1005.94
5.238,-1.25,1.77,0.30,-10.44,10.78,4.68,2.34,-0.97,2.23,1005.94
5.24,-0.23,1.32,-0.14,-10.44,10.78,4.68,2.34,-0.97,2.23,1005.94
5.241,0.96,1.42,-0.47,-10.44,10.78,4.68,2.34,-0.97,2.23,1005.94
5.242,0.96,1.42,-0.47,-10.44,10.78,4.68,2.35,-2.12,3.24,1005.94
5.243,0.96,1.42,-0.47,-6.55,8.61,4.84,2.35,-2.12,3.24,1005.94
5.247,0.96,1.42,-0.47,-6.55,8.61,4.84,2.35,-2.12,3.24,1005.94
5.297,1.56,1.31,-0.44,-6.55,8.61,4.84,2.35,-2.12,3.24,1005.94
5.299,1.08,0.89,-0.80,-6.55,8.61,4.84,2.35,-2.12,3.24,1005.94
5.3,0.51,0.67,-0.78,-6.55,8.61,4.84,2.35,-2.12,3.24,1005.94
5.301,0.51,0.67,-0.78,-6.55,8.61,4.84,1.56,-0.53,2.14,1005.94
5.302,0.51,0.67,-0.78,4.86,4.40,-0.11,1.56,-0.53,2.14,1005.94
5.326,0.51,0.67,-0.78,4.86,4.40,-0.11,1.56,-0.53,2.14,1005.92
5.355,0.25,0.42,-0.53,4.86,4.40,-0.11,1.56,-0.53,2.14,1005.92
5.356,0.04,0.21,-0.18,4.86,4.40,-0.11,1.56,-0.53,2.14,1005.92
5.357,0.06,0.02,0.12,4.86,4.40,-0.11,1.56,-0.53,2.14,1005.92
5.358,0.06,0.02,0.12,4.86,4.40,-0.11,-1.92,0.68,-0.53,1005.92
5.358,0.06,0.02,0.12,-4.29,-3.65,3.70,-1.92,0.68,-0.53,1005.92
5.407,0.06,0.02,0.12,-4.29,-3.65,3.70,-1.92,0.68,-0.53,1005.88
5.413,0.04,0.07,-0.02,-4.29,-3.65,3.70,-1.92,0.68,-0.53,1005.88
5.415,0.05,0.26,-0.31,-4.29,-3.65,3.70,-1.92,0.68,-0.53,1005.88
5.416,0.09,0.36,-0.34,-4.29,-3.65,3.70,-1.92,0.68,-0.53,1005.88
5.417,0.09,0.36,-0.34,-4.29,-3.65,3.70,-3.00,0.04,-2.51,1005.88
5.418,0.09,0.36,-0.34,-3.83,-5.02,2.22,-3.00,0.04,-2.51,1005.88
5.446,0.09,0.36,-0.34,-3.83,-5.02,2.22,-3.00,0.04,-2.51,1005.94
5.472,0.05,0.42,-0.30,-3.83,-5.02,2.22,-3.00,0.04,-2.51,1005.94
5.474,0.03,0.51,-0.20,-3.83,-5.02,2.22,-3.00,0.04,-2.51,1005.94
5.475,0.04,0.66,-0.23,-3.83,-5.02,2.22,-3.00,0.04,-2.51,1005.94
5.476,0.04,0.66,-0.23,-3.83,-5.02,2.22,-4.29,-1.21,-3.99,1005.94
5.478,0.04,0.66,-0.23,-1.82,-3.74,0.20,-4.29,-1.21,-3.99,1005.94
5.527,0.04,0.66,-0.23,-1.82,-3.74,0.20,-4.29,-1.21,-3.99,1005.98
5.532,0.05,0.87,-0.24,-1.82,-3.74,0.20,-4.29,-1.21,-3.99,1005.98
5.534,0.06,1.28,-0.46,-1.82,-3.74,0.20,-4.29,-1.21,-3.99,1005.98
5.535,0.25,1.94,-0.80,-1.82,-3.74,0.20,-4.29,-1.21,-3.99,1005.98
5.536,0.25,1.94,-0.80,-1.82,-3.74,0.20,-5.10,-2.23,-4.50,1005.98
5.537,0.25,1.94,-0.80,1.55,3.77,-4.87,-5.10,-2.23,-4.50,1005.98
5.598,0.67,2.08,-0.99,1.55,3.77,-4.87,-5.10,-2.23,-4.50,1005.98
5.6,0.90,1.71,-1.08,1.55,3.77,-4.87,-5.10,-2.23,-4.50,1005.98
5.601,1.09,1.07,-0.87,1.55,3.77,-4.87,-5.10,-2.23,-4.50,1005.98
5.602,1.09,1.07,-0.87,1.55,3.77,-4.87,-4.79,-0.47,-3.31,1005.98
5.603,1.09,1.07,-0.87,10.69,6.78,-12.06,-4.79,-0.47,-3.31,1005.98
5.626,1.09,1.07,-0.87,10.69,6.78,-12.06,-4.79,-0.47,-3.31,1005.95
5.646,1.09,1.07,-0.87,10.69,6.78,-12.06,-4.79,-0.47,-3.31,1005.88
5.647,1.14,0.82,-0.89,10.69,6.78,-12.06,-4.79,-0.47,-3.31,1005.88
5.648,1.13,0.74,-1.08,10.69,6.78,-12.06,-4.79,-0.47,-3.31,1005.88
5.648,0.93,0.82,-1.00,10.69,6.78,-12.06,-4.79,-0.47,-3.31,1005.88
5.65,0.93,0.82,-1.00,10.69,6.78,-12.06,-0.82,2.52,-0.10,1005.88
5.651,0.93,0.82,-1.00,12.67,-1.16,-12.01,-0.82,2.52,-0.10,1005.88
5.705,0.38,1.54,-0.70,12.67,-1.16,-12.01,-0.82,2.52,-0.10,1005.88
5.706,-1.70,1.97,1.72,12.67,-1.16,-12.01,-0.82,2.52,-0.10,1005.88
5.707,-2.01,1.92,0.46,12.67,-1.16,-12.01,-0.82,2.52,-0.10,1005.88
5.707,-2.01,1.92,0.46,12.67,-1.16,-12.01,0.65,3.23,0.52,1005.88
5.708,-2.01,1.92,0.46,-8.41,8.52,3.25,0.65,3.23,0.52,1005.88
5.726,-2.01,1.92,0.46,-8.41,8.52,3.25,0.65,3.23,0.52,1005.87
5.764,-0.30,1.46,-2.00,-8.41,8.52,3.25,0.65,3.23,0.52,1005.87
5.765,0.10,0.69,-0.02,-8.41,8.52,3.25,0.65,3.23,0.52,1005.87
5.766,0.57,0.49,0.01,-8.41,8.52,3.25,0.65,3.23,0.52,1005.87
5.767,0.57,0.49,0.01,-8.41,8.52,3.25,2.03,-0.06,3.05,1005.87
5.768,0.57,0.49,0.01,1.95,-1.01,-6.92,2.03,-0.06,3.05,1005.87
5.808,0.57,0.49,0.01,1.95,-1.01,-6.92,2.03,-0.06,3.05,1005.89
5.822,0.51,0.80,0.22,1.95,-1.01,-6.92,2.03,-0.06,3.05,1005.89
5.823,0.38,1.08,-0.10,1.95,-1.01,-6.92,2.03,-0.06,3.05,1005.89
5.824,0.29,1.08,-0.11,1.95,-1.01,-6.92,2.03,-0.06,3.05,1005.89
5.824,0.29,1.08,-0.11,1.95,-1.01,-6.92,0.85,-0.38,1.69,1005.89
5.825,0.29,1.08,-0.11,3.61,0.02,0.16,0.85,-0.38,1.69,1005.89
5.846,0.29,1.08,-0.11,3.61,0.02,0.16,0.85,-0.38,1.69,1005.98
5.881,0.07,1.07,-0.10,3.61,0.02,0.16,0.85,-0.38,1.69,1005.98
5.883,-0.00,1.07,-0.05,3.61,0.02,0.16,0.85,-0.38,1.69,1005.98
5.884,0.09,0.98,0.03,3.61,0.02,0.16,0.85,-0.38,1.69,1005.98
5.885,0.09,0.98,0.03,3.61,0.02,0.16,0.55,-0.03,0.96,1005.98
5.886,0.09,0.98,0.03,-0.26,0.55,0.03,0.55,-0.03,0.96,1005.98
5.927,0.09,0.98,0.03,-0.26,0.55,0.03,0.55,-0.03,0.96,1005.97
5.939,0.23,0.97,0.05,-0.26,0.55,0.03,0.55,-0.03,0.96,1005.97
5.94,0.12,1.00,-0.02,-0.26,0.55,0.03,0.55,-0.03,0.96,1005.97
5.941,-0.01,0.99,-0.02,-0.26,0.55,0.03,0.55,-0.03,0.96,1005.97
5.941,-0.01,0.99,-0.02,-0.26,0.55,0.03,0.59,0.02,0.79,1005.97
5.941,-0.01,0.99,-0.02,-0.11,0.14,0.83,0.59,0.02,0.79,1005.97
5.999,-0.04,0.99,0.00,-0.11,0.14,0.83,0.59,0.02,0.79,1005.97
6.001,0.20,1.01,-0.10,-0.11,0.14,0.83,0.59,0.02,0.79,1005.97
6.002,0.18,1.03,-0.10,-0.11,0.14,0.83,0.59,0.02,0.79,1005.97
6.004,0.18,1.03,-0.10,-0.11,0.14,0.83,0.71,-0.26,0.88,1005.97
6.005,0.18,1.03,-0.10,-0.58,0.44,0.54,0.71,-0.26,0.88,1005.97
6.009,0.18,1.03,-0.10,-0.58,0.44,0.54,0.71,-0.26,0.88,1005.95
6.046,0.18,1.03,-0.10,-0.58,0.44,0.54,0.71,-0.26,0.88,1005.94
6.055,0.12,1.01,-0.11,-0.58,0.44,0.54,0.71,-0.26,0.88,1005.94
6.055,0.08,1.00,-0.11,-0.58,0.44,0.54,0.71,-0.26,0.88,1005.94
6.056,0.07,1.01,-0.10,-0.58,0.44,0.54,0.71,-0.26,0.88,1005.94
6.057,0.07,1.01,-0.10,-0.58,0.44,0.54,0.81,-0.10,0.88,1005.94
6.057,0.07,1.01,-0.10,-1.24,0.56,0.58,0.81,-0.10,0.88,1005.94
6.113,0.14,0.99,-0.13,-1.24,0.56,0.58,0.81,-0.10,0.88,1005.94
6.115,0.18,1.00,-0.13,-1.24,0.56,0.58,0.81,-0.10,0.88,1005.94
6.115,0.16,1.01,-0.15,-1.24,0.56,0.58,0.81,-0.10,0.88,1005.94
6.116,0.16,1.01,-0.15,-1.24,0.56,0.58,0.86,-0.45,1.13,1005.94
6.116,0.16,1.01,-0.15,-1.11,0.74,0.80,0.86,-0.45,1.13,1005.94
6.127,0.16,1.01,-0.15,-1.11,0.74,0.80,0.86,-0.45,1.13,1005.92
6.171,0.10,1.02,-0.19,-1.11,0.74,0.80,0.86,-0.45,1.13,1005.92
6.174,0.08,1.03,-0.20,-1.11,0.74,0.80,0.86,-0.45,1.13,1005.92
6.174,0.15,1.11,-0.18,-1.11,0.74,0.80,0.86,-0.45,1.13,1005.92
6.175,0.15,1.11,-0.18,-1.11,0.74,0.80,1.10,-0.44,1.29,1005.92
6.175,0.15,1.11,-0.18,-2.16,1.63,0.92,1.10,-0.44,1.29,1005.92
6.207,0.15,1.11,-0.18,-2.16,1.63,0.92,1.10,-0.44,1.29,1005.92
6.23,0.10,1.19,-0.11,-2.16,1.63,0.92,1.10,-0.44,1.29,1005.92
6.231,-0.07,1.27,-0.04,-2.16,1.63,0.92,1.10,-0.44,1.29,1005.92
6.232,-0.35,1.46,0.05,-2.16,1.63,0.92,1.10,-0.44,1.29,1005.92
6.232,-0.35,1.46,0.05,-2.16,1.63,0.92,1.61,-0.11,1.53,1005.92
6.233,-0.35,1.46,0.05,-4.92,4.65,3.18,1.61,-0.11,1.53,1005.92
6.25,-0.35,1.46,0.05,-4.92,4.65,3.18,1.61,-0.11,1.53,1005.92
6.289,-0.74,1.80,0.14,-4.92,4.65,3.18,1.61,-0.11,1.53,1005.92
6.291,-1.29,2.08,0.14,-4.92,4.65,3.18,1.61,-0.11,1.53,1005.92
6.292,-1.18,1.79,0.06,-4.92,4.65,3.18,1.61,-0.11,1.53,1005.92
6.293,-1.18,1.79,0.06,-4.92,4.65,3.18,2.19,-1.26,2.18,1005.92
6.294,-1.18,1.79,0.06,-14.77,11.27,5.78,2.19,-1.26,2.18,1005.92
6.327,-1.18,1.79,0.06,-14.77,11.27,5.78,2.19,-1.26,2.18,1005.91
6.349,-0.04,1.29,-0.25,-14.77,11.27,5.78,2.19,-1.26,2.18,1005.91
6.352,0.99,1.44,-0.65,-14.77,11.27,5.78,2.19,-1.26,2.18,1005.91
6.354,1.63,1.36,-0.33,-14.77,11.27,5.78,2.19,-1.26,2.18,1005.91
6.355,1.63,1.36,-0.33,-14.77,11.27,5.78,2.44,-2.22,3.59,1005.91
6.357,1.63,1.36,-0.33,3.43,7.72,2.16,2.44,-2.22,3.59,1005.91
6.406,1.30,0.95,-0.55,3.43,7.72,2.16,2.44,-2.22,3.59,1005.91
6.407,0.67,0.62,-0.78,3.43,7.72,2.16,2.44,-2.22,3.59,1005.91
6.407,0.41,0.54,-0.43,3.43,7.72,2.16,2.44,-2.22,3.59,1005.91
6.408,0.41,0.54,-0.43,3.43,7.72,2.16,0.78,-0.01,0.56,1005.91
6.408,0.41,0.54,-0.43,2.55,1.66,0.68,0.78,-0.01,0.56,1005.91
6.409,0.41,0.54,-0.43,2.55,1.66,0.68,0.78,-0.01,0.56,1005.90
6.447,0.41,0.54,-0.43,2.55,1.66,0.68,0.78,-0.01,0.56,1005.88
6.464,0.27,0.26,0.12,2.55,1.66,0.68,0.78,-0.01,0.56,1005.88
6.466,0.26,0.05,0.29,2.55,1.66,0.68,0.78,-0.01,0.56,1005.88
6.467,0.09,0.05,0.11,2.55,1.66,0.68,0.78,-0.01,0.56,1005.88
6.468,0.09,0.05,0.11,-2.69,-5.13,7.25,0.78,-0.01,0.56,1005.88
6.469,0.09,0.05,0.11,-2.69,-5.13,7.25,-1.79,0.43,-1.89,1005.88
6.521,0.15,0.20,-0.08,-2.69,-5.13,7.25,-1.79,0.43,-1.89,1005.88
6.522,0.37,0.37,-0.22,-2.69,-5.13,7.25,-1.79,0.43,-1.89,1005.88
6.523,0.43,0.50,-0.27,-2.69,-5.13,7.25,-1.79,0.43,-1.89,1005.88
6.523,0.43,0.50,-0.27,-2.69,-5.13,7.25,-2.75,-0.48,-3.52,1005.88
6.523,0.43,0.50,-0.27,0.01,-4.37,2.62,-2.75,-0.48,-3.52,1005.88
6.527,0.43,0.50,-0.27,0.01,-4.37,2.62,-2.75,-0.48,-3.52,1005.95
6.58,0.30,0.61,-0.21,0.01,-4.37,2.62,-2.75,-0.48,-3.52,1005.95
6.582,0.34,0.70,-0.14,0.01,-4.37,2.62,-2.75,-0.48,-3.52,1005.95
6.583,0.40,0.94,-0.24,0.01,-4.37,2.62,-2.75,-0.48,-3.52,1005.95
6.584,0.40,0.94,-0.24,0.01,-4.37,2.62,-4.51,-0.14,-4.70,1005.95
6.585,0.40,0.94,-0.24,2.70,-1.91,0.28,-4.51,-0.14,-4.70,1005.95
6.608,0.40,0.94,-0.24,2.70,-1.91,0.28,-4.51,-0.14,-4.70,1005.99
6.638,0.38,1.42,-0.40,2.70,-1.91,0.28,-4.51,-0.14,-4.70,1005.99
6.639,0.47,1.80,-0.71,2.70,-1.91,0.28,-4.51,-0.14,-4.70,1005.99
6.64,0.60,1.72,-0.87,2.70,-1.91,0.28,-4.51,-0.14,-4.70,1005.99
6.64,0.60,1.72,-0.87,2.70,-1.91,0.28,-5.30,-0.12,-4.57,1005.99
6.64,0.60,1.72,-0.87,6.42,6.72,-7.06,-5.30,-0.12,-4.57,1005.99
6.647,0.60,1.72,-0.87,6.42,6.72,-7.06,-5.30,-0.12,-4.57,1005.93
6.698,0.88,1.56,-0.72,6.42,6.72,-7.06,-5.30,-0.12,-4.57,1005.93
6.699,1.11,1.27,-0.63,6.42,6.72,-7.06,-5.30,-0.12,-4.57,1005.93
6.7,1.00,0.89,-0.70,6.42,6.72,-7.06,-5.30,-0.12,-4.57,1005.93
6.7,1.00,0.89,-0.70,6.42,6.72,-7.06,-3.92,1.29,-2.45,1005.93
6.7,1.00,0.89,-0.70,12.68,3.33,-8.99,-3.92,1.29,-2.45,1005.93
6.727,1.00,0.89,-0.70,12.68,3.33,-8.99,-3.92,1.29,-2.45,1005.88
6.755,0.62,0.65,-0.69,12.68,3.33,-8.99,-3.92,1.29,-2.45,1005.88
6.756,0.42,0.70,-0.51,12.68,3.33,-8.99,-3.92,1.29,-2.45,1005.88
6.757,0.35,0.89,-0.75,12.68,3.33,-8.99,-3.92,1.29,-2.45,1005.88
6.757,0.35,0.89,-0.75,12.68,3.33,-8.99,-0.35,2.45,0.54,1005.88
6.758,0.35,0.89,-0.75,7.38,-1.52,-8.28,-0.35,2.45,0.54,1005.88
6.807,0.35,0.89,-0.75,7.38,-1.52,-8.28,-0.35,2.45,0.54,1005.88
6.815,-0.38,1.45,-0.19,7.38,-1.52,-8.28,-0.35,2.45,0.54,1005.88
6.816,-2.13,1.63,0.97,7.38,-1.52,-8.28,-0.35,2.45,0.54,1005.88
6.817,-1.71,2.32,-0.18,7.38,-1.52,-8.28,-0.35,2.45,0.54,1005.88
6.818,-1.71,2.32,-0.18,7.38,-1.52,-8.28,0.43,3.12,0.16,1005.88
6.819,-1.71,2.32,-0.18,-10.56,8.60,0.81,0.43,3.12,0.16,1005.88
6.848,-1.71,2.32,-0.18,-10.56,8.60,0.81,0.43,3.12,0.16,1005.89
6.872,0.30,1.73,-1.48,-10.56,8.60,0.81,0.43,3.12,0.16,1005.89
6.876,0.62,0.67,0.29,-10.56,8.60,0.81,0.43,3.12,0.16,1005.89
6.877,-0.15,0.36,0.24,-10.56,8.60,0.81,0.43,3.12,0.16,1005.89
6.878,-0.15,0.36,0.24,-10.56,8.60,0.81,1.45,0.85,2.85,1005.89
6.879,-0.15,0.36,0.24,4.19,-0.51,-3.29,1.45,0.85,2.85,1005.89
6.927,-0.15,0.36,0.24,4.19,-0.51,-3.29,1.45,0.85,2.85,1005.96
6.931,-0.15,0.36,0.24,3.80,1.08,-1.71,1.45,0.85,2.85,1005.96
6.932,0.13,0.81,-0.01,3.80,1.08,-1.71,1.45,0.85,2.85,1005.96
6.933,0.38,1.25,-0.26,3.80,1.08,-1.71,1.45,0.85,2.85,1005.96
6.934,0.41,1.21,-0.30,3.80,1.08,-1.71,1.45,0.85,2.85,1005.96
6.934,0.41,1.21,-0.30,3.80,1.08,-1.71,0.60,-0.44,1.45,1005.96
6.989,-0.06,0.97,-0.13,3.80,1.08,-1.71,0.60,-0.44,1.45,1005.96
6.991,-0.20,0.98,-0.04,3.80,1.08,-1.71,0.60,-0.44,1.45,1005.96
6.992,-0.06,1.06,0.05,3.80,1.08,-1.71,0.60,-0.44,1.45,1005.96
6.993,-0.06,1.06,0.05,3.80,1.08,-1.71,0.15,0.11,0.45,1005.96
6.994,-0.06,1.06,0.05,-0.50,0.21,-0.12,0.15,0.11,0.45,1005.96
7.007,-0.06,1.06,0.05,-0.50,0.21,-0.12,0.15,0.11,0.45,1005.96
7.047,-0.07,1.00,0.14,-0.50,0.21,-0.12,0.15,0.11,0.45,1005.96
7.048,-0.10,0.94,0.17,-0.50,0.21,-0.12,0.15,0.11,0.45,1005.96
7.049,-0.02,1.01,0.11,-0.50,0.21,-0.12,0.15,0.11,0.45,1005.96
7.049,-0.02,1.01,0.11,-0.50,0.21,-0.12,0.22,-0.25,0.43,1005.96
7.05,-0.02,1.01,0.11,-0.50,0.21,-0.12,0.22,-0.25,0.43,1005.93
7.05,-0.02,1.01,0.11,-0.32,-0.01,1.71,0.22,-0.25,0.43,1005.93
7.11,-0.02,1.01,0.11,-0.68,0.04,0.91,0.22,-0.25,0.43,1005.93
7.112,-0.00,1.02,0.02,-0.68,0.04,0.91,0.22,-0.25,0.43,1005.93
7.113,-0.10,0.97,0.02,-0.68,0.04,0.91,0.22,-0.25,0.43,1005.93
7.114,-0.14,0.98,0.07,-0.68,0.04,0.91,0.22,-0.25,0.43,1005.93
7.115,-0.14,0.98,0.07,-0.68,0.04,0.91,0.40,-0.46,0.45,1005.93
7.131,-0.14,0.98,0.07,-0.68,0.04,0.91,0.40,-0.46,0.45,1005.93
7.164,-0.08,0.97,0.11,-0.68,0.04,0.91,0.40,-0.46,0.45,1005.93
7.165,-0.03,0.97,0.13,-0.68,0.04,0.91,0.40,-0.46,0.45,1005.93
7.166,-0.06,1.00,0.07,-0.68,0.04,0.91,0.40,-0.46,0.45,1005.93
7.166,-0.06,1.00,0.07,-0.80,0.03,1.88,0.40,-0.46,0.45,1005.93
7.167,-0.06,1.00,0.07,-0.80,0.03,1.88,0.71,-0.58,0.64,1005.93
7.207,-0.06,1.00,0.07,-0.80,0.03,1.88,0.71,-0.58,0.64,1005.92
7.225,-0.07,1.00,-0.00,-0.80,0.03,1.88,0.71,-0.58,0.64,1005.92
7.227,-0.10,1.04,-0.07,-0.80,0.03,1.88,0.71,-0.58,0.64,1005.92
7.229,-0.06,1.07,-0.11,-0.80,0.03,1.88,0.71,-0.58,0.64,1005.92
7.229,-0.06,1.07,-0.11,-0.80,0.03,1.88,0.98,-0.65,0.86,1005.92
7.23,-0.06,1.07,-0.11,-1.41,0.63,0.86,0.98,-0.65,0.86,1005.92
7.248,-0.06,1.07,-0.11,-1.41,0.63,0.86,0.98,-0.65,0.86,1005.93
7.28,0.04,1.04,-0.02,-1.41,0.63,0.86,0.98,-0.65,0.86,1005.93
7.282,0.09,0.96,0.13,-1.41,0.63,0.86,0.98,-0.65,0.86,1005.93
7.283,-0.01,1.07,0.14,-1.41,0.63,0.86,0.98,-0.65,0.86,1005.93
7.284,-0.01,1.07,0.14,-1.41,0.63,0.86,1.02,-1.31,1.17,1005.93
7.285,-0.01,1.07,0.14,-0.74,0.64,2.87,1.02,-1.31,1.17,1005.93
7.328,-0.01,1.07,0.14,-0.74,0.64,2.87,1.02,-1.31,1.17,1005.93
7.339,-0.17,1.36,0.10,-0.74,0.64,2.87,1.02,-1.31,1.17,1005.93
7.34,-0.30,1.48,-0.03,-0.74,0.64,2.87,1.02,-1.31,1.17,1005.93
7.341,-0.25,1.35,-0.41,-0.74,0.64,2.87,1.02,-1.31,1.17,1005.93
7.341,-0.25,1.35,-0.41,-4.22,4.51,1.50,1.02,-1.31,1.17,1005.93
7.342,-0.25,1.35,-0.41,-4.22,4.51,1.50,0.59,-3.04,2.19,1005.93
7.401,0.05,1.22,-0.65,-4.22,4.51,1.50,0.59,-3.04,2.19,1005.93
7.403,0.50,1.06,-0.57,-4.22,4.51,1.50,0.59,-3.04,2.19,1005.93
7.404,0.65,0.92,-0.52,-4.22,4.51,1.50,0.59,-3.04,2.19,1005.93
7.405,0.65,0.92,-0.52,-4.22,4.51,1.50,-0.87,-4.95,3.27,1005.93
7.406,0.65,0.92,-0.52,1.14,1.57,-2.82,-0.87,-4.95,3.27,1005.93
7.429,0.65,0.92,-0.52,1.14,1.57,-2.82,-0.87,-4.95,3.27,1005.94
7.446,0.65,0.92,-0.52,1.14,1.57,-2.82,-0.87,-4.95,3.27,1005.92
7.455,0.33,0.84,-0.51,1.14,1.57,-2.82,-0.87,-4.95,3.27,1005.92
7.456,0.00,0.72,-0.56,1.14,1.57,-2.82,-0.87,-4.95,3.27,1005.92
7.456,-0.26,0.66,-0.64,1.14,1.57,-2.82,-0.87,-4.95,3.27,1005.92
7.457,-0.26,0.66,-0.64,1.14,1.57,-2.82,-2.75,-5.72,2.58,1005.92
7.457,-0.26,0.66,-0.64,-2.94,-1.60,-3.08,-2.75,-5.72,2.58,1005.92
7.514,-0.42,0.64,-0.73,-2.94,-1.60,-3.08,-2.75,-5.72,2.58,1005.92
7.516,-0.49,0.66,-0.82,-2.94,-1.60,-3.08,-2.75,-5.72,2.58,1005.92
7.517,-0.59,0.66,-0.83,-2.94,-1.60,-3.08,-2.75,-5.72,2.58,1005.92
7.518,-0.59,0.66,-0.83,-2.94,-1.60,-3.08,-2.85,-6.60,1.89,1005.92
7.519,-0.59,0.66,-0.83,-7.95,-2.45,-5.42,-2.85,-6.60,1.89,1005.92
7.53,-0.59,0.66,-0.83,-7.95,-2.45,-5.42,-2.85,-6.60,1.89,1005.92
7.573,-0.78,0.54,-0.70,-7.95,-2.45,-5.42,-2.85,-6.60,1.89,1005.92
7.574,-0.74,0.59,-0.76,-7.95,-2.45,-5.42,-2.85,-6.60,1.89,1005.92
7.574,-0.63,0.78,-0.86,-7.95,-2.45,-5.42,-2.85,-6.60,1.89,1005.92
7.575,-0.63,0.78,-0.86,-7.95,-2.45,-5.42,-2.33,-6.99,0.17,1005.92
7.576,-0.63,0.78,-0.86,-9.05,-2.86,-5.25,-2.33,-6.99,0.17,1005.92
7.607,-0.63,0.78,-0.86,-9.05,-2.86,-5.25,-2.33,-6.99,0.17,1005.93
7.631,-0.46,0.86,-0.78,-9.05,-2.86,-5.25,-2.33,-6.99,0.17,1005.93
7.632,-0.30,0.86,-0.70,-9.05,-2.86,-5.25,-2.33,-6.99,0.17,1005.93
7.633,-0.20,0.92,-0.65,-9.05,-2.86,-5.25,-2.33,-6.99,0.17,1005.93
7.634,-0.20,0.92,-0.65,-9.05,-2.86,-5.25,-2.24,-5.34,-1.37,1005.93
7.634,-0.20,0.92,-0.65,-3.74,-0.80,-5.26,-2.24,-5.34,-1.37,1005.93
7.647,-0.20,0.92,-0.65,-3.74,-0.80,-5.26,-2.24,-5.34,-1.37,1005.94
7.687,-0.14,1.03,-0.52,-3.74,-0.80,-5.26,-2.24,-5.34,-1.37,1005.94
7.689,-0.09,1.15,-0.44,-3.74,-0.80,-5.26,-2.24,-5.34,-1.37,1005.94
7.689,0.03,1.25,-0.33,-3.74,-0.80,-5.26,-2.24,-5.34,-1.37,1005.94
7.69,0.03,1.25,-0.33,0.36,1.63,-3.76,-2.24,-5.34,-1.37,1005.94
7.69,0.03,1.25,-0.33,0.36,1.63,-3.76,-2.31,-3.08,-2.58,1005.94
7.727,0.03,1.25,-0.33,0.36,1.63,-3.76,-2.31,-3.08,-2.58,1005.94
7.747,0.06,1.25,-0.19,0.36,1.63,-3.76,-2.31,-3.08,-2.58,1005.94
7.748,-0.03,1.22,-0.10,0.36,1.63,-3.76,-2.31,-3.08,-2.58,1005.94
7.748,-0.06,1.25,-0.01,0.36,1.63,-3.76,-2.31,-3.08,-2.58,1005.94
7.749,-0.06,1.25,-0.01,0.36,1.63,-3.76,-1.67,-1.91,-2.50,1005.94
7.749,-0.06,1.25,-0.01,2.25,2.82,-1.58,-1.67,-1.91,-2.50,1005.94
7.804,-0.02,1.15,-0.01,2.25,2.82,-1.58,-1.67,-1.91,-2.50,1005.94
7.805,0.04,1.04,0.02,2.25,2.82,-1.58,-1.67,-1.91,-2.50,1005.94
7.805,0.11,0.99,-0.02,2.25,2.82,-1.58,-1.67,-1.91,-2.50,1005.94
7.806,0.11,0.99,-0.02,2.25,2.82,-1.58,-0.23,-2.56,-1.30,1005.94
7.806,0.11,0.99,-0.02,3.29,1.23,-1.17,-0.23,-2.56,-1.30,1005.94
7.807,0.11,0.99,-0.02,3.29,1.23,-1.17,-0.23,-2.56,-1.30,1005.93
7.846,0.11,0.99,-0.02,3.29,1.23,-1.17,-0.23,-2.56,-1.30,1005.93
7.862,0.26,0.95,-0.09,3.29,1.23,-1.17,-0.23,-2.56,-1.30,1005.93
7.863,0.41,0.89,-0.11,3.29,1.23,-1.17,-0.23,-2.56,-1.30,1005.93
7.863,0.49,0.83,-0.05,3.29,1.23,-1.17,-0.23,-2.56,-1.30,1005.93
7.864,0.49,0.83,-0.05,3.29,1.23,-1.17,0.96,-2.47,0.49,1005.93
7.864,0.49,0.83,-0.05,6.12,-0.56,-1.82,0.96,-2.47,0.49,1005.93
7.921,0.43,0.80,0.01,6.12,-0.56,-1.82,0.96,-2.47,0.49,1005.93
7.922,0.41,0.78,0.03,6.12,-0.56,-1.82,0.96,-2.47,0.49,1005.93
7.923,0.43,0.67,-0.00,6.12,-0.56,-1.82,0.96,-2.47,0.49,1005.93
7.923,0.43,0.67,-0.00,6.12,-0.56,-1.82,1.18,-1.20,1.26,1005.93
7.924,0.43,0.67,-0.00,5.64,-2.09,-0.36,1.18,-1.20,1.26,1005.93
7.94,0.43,0.67,-0.00,5.64,-2.09,-0.36,1.18,-1.20,1.26,1005.93
7.981,0.29,0.57,-0.14,5.64,-2.09,-0.36,1.18,-1.20,1.26,1005.93
7.983,-0.18,1.14,0.38,5.64,-2.09,-0.36,1.18,-1.20,1.26,1005.93
7.984,-0.30,2.78,0.70,5.64,-2.09,-0.36,1.18,-1.20,1.26,1005.93
7.985,-0.30,2.78,0.70,5.64,-2.09,-0.36,-0.14,0.05,1.00,1005.93
7.986,-0.30,2.78,0.70,0.32,5.07,2.48,-0.14,0.05,1.00,1005.93
8.007,-0.30,2.78,0.70,0.32,5.07,2.48,-0.14,0.05,1.00,1005.93
8.039,-0.54,1.95,-0.02,0.32,5.07,2.48,-0.14,0.05,1.00,1005.93
8.041,-0.38,0.33,-0.46,0.32,5.07,2.48,-0.14,0.05,1.00,1005.93
8.041,0.05,0.57,-0.53,0.32,5.07,2.48,-0.14,0.05,1.00,1005.93
8.042,0.05,0.57,-0.53,0.32,5.07,2.48,0.95,0.51,1.42,1005.93
8.042,0.05,0.57,-0.53,-2.69,-0.36,-3.26,0.95,0.51,1.42,1005.93
8.05,0.05,0.57,-0.53,-2.69,-0.36,-3.26,0.95,0.51,1.42,1005.93
8.098,0.20,1.11,0.01,-2.69,-0.36,-3.26,0.95,0.51,1.42,1005.93
8.1,0.39,1.19,0.25,-2.69,-0.36,-3.26,0.95,0.51,1.42,1005.93
8.101,0.38,1.01,0.08,-2.69,-0.36,-3.26,0.95,0.51,1.42,1005.93
8.102,0.38,1.01,0.08,2.58,1.14,1.08,0.95,0.51,1.42,1005.93
8.103,0.38,1.01,0.08,2.58,1.14,1.08,-0.04,-0.31,1.27,1005.93
8.127,0.38,1.01,0.08,2.58,1.14,1.08,-0.04,-0.31,1.27,1005.91
8.155,0.07,0.97,0.00,2.58,1.14,1.08,-0.04,-0.31,1.27,1005.91
8.156,0.01,1.03,-0.10,2.58,1.14,1.08,-0.04,-0.31,1.27,1005.91
8.157,0.12,1.07,-0.09,2.58,1.14,1.08,-0.04,-0.31,1.27,1005.91
8.157,0.12,1.07,-0.09,2.58,1.14,1.08,0.17,-0.39,0.63,1005.91
8.158,0.12,1.07,-0.09,-0.30,0.38,-0.48,0.17,-0.39,0.63,1005.91
8.206,0.12,1.07,-0.09,-0.30,0.38,-0.48,0.17,-0.39,0.63,1005.93
8.216,0.17,1.00,0.02,-0.30,0.38,-0.48,0.17,-0.39,0.63,1005.93
8.217,0.12,0.97,0.06,-0.30,0.38,-0.48,0.17,-0.39,0.63,1005.93
8.217,0.10,1.01,0.06,-0.30,0.38,-0.48,0.17,-0.39,0.63,1005.93
8.217,0.10,1.01,0.06,0.05,0.11,0.64,0.17,-0.39,0.63,1005.93
8.218,0.10,1.01,0.06,0.05,0.11,0.64,0.12,-0.32,0.51,1005.93
8.247,0.10,1.01,0.06,0.05,0.11,0.64,0.12,-0.32,0.51,1005.93
8.272,0.11,0.98,0.09,0.05,0.11,0.64,0.12,-0.32,0.51,1005.93
8.273,0.10,0.99,0.06,0.05,0.11,0.64,0.12,-0.32,0.51,1005.93
8.273,0.09,0.99,0.03,0.05,0.11,0.64,0.12,-0.32,0.51,1005.93
8.274,0.09,0.99,0.03,0.05,0.11,0.64,0.26,-0.45,0.54,1005.93
8.274,0.09,0.99,0.03,-0.51,0.10,0.91,0.26,-0.45,0.54,1005.93
8.329,0.09,0.99,0.03,-0.51,0.10,0.91,0.26,-0.45,0.54,1005.95
8.332,0.11,1.01,0.02,-0.51,0.10,0.91,0.26,-0.45,0.54,1005.95
8.333,0.09,1.01,-0.03,-0.51,0.10,0.91,0.26,-0.45,0.54,1005.95
8.333,0.12,0.98,-0.02,-0.51,0.10,0.91,0.26,-0.45,0.54,1005.95
8.334,0.12,0.98,-0.02,-0.51,0.10,0.91,0.38,-0.43,0.66,1005.95
8.334,0.12,0.98,-0.02,-0.78,0.30,0.48,0.38,-0.43,0.66,1005.95
8.389,0.23,0.98,-0.01,-0.78,0.30,0.48,0.38,-0.43,0.66,1005.95
8.39,0.22,1.01,-0.05,-0.78,0.30,0.48,0.38,-0.43,0.66,1005.95
8.39,0.20,1.02,-0.05,-0.78,0.30,0.48,0.38,-0.43,0.66,1005.95
8.391,0.20,1.02,-0.05,-0.78,0.30,0.48,0.44,-0.44,0.76,1005.95
8.391,0.20,1.02,-0.05,-0.13,0.42,0.50,0.44,-0.44,0.76,1005.95
8.407,0.20,1.02,-0.05,-0.13,0.42,0.50,0.44,-0.44,0.76,1005.94
8.448,0.15,1.04,-0.07,-0.13,0.42,0.50,0.44,-0.44,0.76,1005.94
8.449,0.10,1.06,-0.08,-0.13,0.42,0.50,0.44,-0.44,0.76,1005.94
8.449,0.17,1.06,-0.04,-0.13,0.42,0.50,0.44,-0.44,0.76,1005.94
8.45,0.17,1.06,-0.04,-0.13,0.42,0.50,0.51,-0.42,0.83,1005.94
8.45,0.17,1.06,-0.04,-0.13,0.42,0.50,0.51,-0.42,0.83,1005.94
8.451,0.17,1.06,-0.04,-1.27,1.06,0.56,0.51,-0.42,0.83,1005.94
8.509,0.11,1.07,0.02,-1.27,1.06,0.56,0.51,-0.42,0.83,1005.94
8.51,-0.02,1.09,0.02,-1.27,1.06,0.56,0.51,-0.42,0.83,1005.94
8.51,0.04,1.15,-0.08,-1.27,1.06,0.56,0.51,-0.42,0.83,1005.94
8.51,0.04,1.15,-0.08,-2.82,1.80,1.54,0.51,-0.42,0.83,1005.94
8.511,0.04,1.15,-0.08,-2.82,1.80,1.54,0.76,-0.52,1.24,1005.94
8.529,0.04,1.15,-0.08,-2.82,1.80,1.54,0.76,-0.52,1.24,1005.93
8.562,0.08,1.20,-0.14,-2.82,1.80,1.54,0.76,-0.52,1.24,1005.93
8.564,0.03,1.22,-0.11,-2.82,1.80,1.54,0.76,-0.52,1.24,1005.93
8.565,-0.04,1.23,-0.13,-2.82,1.80,1.54,0.76,-0.52,1.24,1005.93
8.565,-0.04,1.23,-0.13,-3.73,3.37,1.17,0.76,-0.52,1.24,1005.93
8.566,-0.04,1.23,-0.13,-3.73,3.37,1.17,1.23,-0.65,1.73,1005.93
8.606,-0.04,1.23,-0.13,-3.73,3.37,1.17,1.23,-0.65,1.73,1005.93
8.621,-0.11,1.34,-0.13,-3.73,3.37,1.17,1.23,-0.65,1.73,1005.93
8.622,-0.43,1.75,0.07,-3.73,3.37,1.17,1.23,-0.65,1.73,1005.93
8.622,-1.24,2.04,0.27,-3.73,3.37,1.17,1.23,-0.65,1.73,1005.93
8.623,-1.24,2.04,0.27,-3.73,3.37,1.17,1.63,-0.86,1.91,1005.93
8.623,-1.24,2.04,0.27,-10.35,8.81,4.01,1.63,-0.86,1.91,1005.93
8.646,-1.24,2.04,0.27,-10.35,8.81,4.01,1.63,-0.86,1.91,1005.92
8.68,-1.41,1.69,0.29,-10.35,8.81,4.01,1.63,-0.86,1.91,1005.92
8.681,-0.39,1.27,-0.04,-10.35,8.81,4.01,1.63,-0.86,1.91,1005.92
8.681,0.68,1.51,-0.57,-10.35,8.81,4.01,1.63,-0.86,1.91,1005.92
8.682,0.68,1.51,-0.57,-10.35,8.81,4.01,1.92,-2.36,3.29,1005.92
8.682,0.68,1.51,-0.57,-8.86,7.94,3.72,1.92,-2.36,3.29,1005.92
8.726,0.68,1.51,-0.57,-8.86,7.94,3.72,1.92,-2.36,3.29,1005.92
8.737,1.29,1.65,-0.47,-8.86,7.94,3.72,1.92,-2.36,3.29,1005.92
8.738,1.06,1.07,-0.67,-8.86,7.94,3.72,1.92,-2.36,3.29,1005.92
8.738,0.55,0.84,-0.72,-8.86,7.94,3.72,1.92,-2.36,3.29,1005.92
8.738,0.55,0.84,-0.72,-8.86,7.94,3.72,1.77,-1.41,2.76,1005.92
8.738,0.55,0.84,-0.72,3.65,6.29,-0.23,1.77,-1.41,2.76,1005.92
8.797,0.39,0.72,-0.51,3.65,6.29,-0.23,1.77,-1.41,2.76,1005.92
8.798,0.30,0.34,-0.08,3.65,6.29,-0.23,1.77,-1.41,2.76,1005.92
8.799,0.20,0.03,0.05,3.65,6.29,-0.23,1.77,-1.41,2.76,1005.92
8.799,0.20,0.03,0.05,3.65,6.29,-0.23,-1.43,-0.18,-0.11,1005.92
8.799,0.20,0.03,0.05,-2.73,-2.25,3.63,-1.43,-0.18,-0.11,1005.92
8.807,0.20,0.03,0.05,-2.73,-2.25,3.63,-1.43,-0.18,-0.11,1005.92
8.847,0.20,0.03,0.05,-2.73,-2.25,3.63,-1.43,-0.18,-0.11,1005.89
8.854,0.04,-0.01,-0.05,-2.73,-2.25,3.63,-1.43,-0.18,-0.11,1005.89
8.855,0.04,0.15,-0.20,-2.73,-2.25,3.63,-1.43,-0.18,-0.11,1005.89
8.856,0.14,0.34,-0.27,-2.73,-2.25,3.63,-1.43,-0.18,-0.11,1005.89
8.856,0.14,0.34,-0.27,-2.73,-2.25,3.63,-2.55,-0.52,-2.68,1005.89
8.857,0.14,0.34,-0.27,-3.69,-5.71,2.83,-2.55,-0.52,-2.68,1005.89
8.921,0.14,0.42,-0.31,-3.69,-5.71,2.83,-2.55,-0.52,-2.68,1005.89
8.923,0.03,0.50,-0.25,-3.69,-5.71,2.83,-2.55,-0.52,-2.68,1005.89
8.924,0.05,0.64,-0.12,-3.69,-5.71,2.83,-2.55,-0.52,-2.68,1005.89
8.925,0.05,0.64,-0.12,-3.69,-5.71,2.83,-4.13,-1.27,-4.23,1005.89
8.926,0.05,0.64,-0.12,-1.38,-3.81,0.58,-4.13,-1.27,-4.23,1005.89
8.95,0.05,0.64,-0.12,-1.38,-3.81,0.58,-4.13,-1.27,-4.23,1005.96
8.971,0.11,0.86,-0.19,-1.38,-3.81,0.58,-4.13,-1.27,-4.23,1005.96
8.974,0.19,1.27,-0.39,-1.38,-3.81,0.58,-4.13,-1.27,-4.23,1005.96
8.974,0.35,1.94,-0.64,-1.38,-3.81,0.58,-4.13,-1.27,-4.23,1005.96
8.975,0.35,1.94,-0.64,-1.38,-3.81,0.58,-5.47,-1.88,-4.86,1005.96
8.975,0.35,1.94,-0.64,2.80,3.69,-4.06,-5.47,-1.88,-4.86,1005.96
9.006,0.35,1.94,-0.64,2.80,3.69,-4.06,-5.47,-1.88,-4.86,1005.99
9.038,0.35,1.94,-0.64,8.38,9.45,-10.51,-5.47,-1.88,-4.86,1005.99
9.04,0.43,2.37,-0.84,8.38,9.45,-10.51,-5.47,-1.88,-4.86,1005.99
9.04,0.51,1.91,-0.88,8.38,9.45,-10.51,-5.47,-1.88,-4.86,1005.99
9.041,0.75,1.31,-0.66,8.38,9.45,-10.51,-5.47,-1.88,-4.86,1005.99
9.041,0.75,1.31,-0.66,8.38,9.45,-10.51,-5.36,0.13,-4.25,1005.99
9.049,0.75,1.31,-0.66,8.38,9.45,-10.51,-5.36,0.13,-4.25,1005.91
9.088,0.98,0.94,-0.71,8.38,9.45,-10.51,-5.36,0.13,-4.25,1005.91
9.089,1.03,0.78,-0.76,8.38,9.45,-10.51,-5.36,0.13,-4.25,1005.91
9.089,0.64,0.77,-0.53,8.38,9.45,-10.51,-5.36,0.13,-4.25,1005.91
9.09,0.64,0.77,-0.53,8.38,9.45,-10.51,-2.15,2.13,-1.27,1005.91
9.09,0.64,0.77,-0.53,12.36,-0.05,-9.71,-2.15,2.13,-1.27,1005.91
9.126,0.64,0.77,-0.53,12.36,-0.05,-9.71,-2.15,2.13,-1.27,1005.89
9.148,0.41,0.78,-0.31,12.36,-0.05,-9.71,-2.15,2.13,-1.27,1005.89
9.148,0.46,0.88,-0.43,12.36,-0.05,-9.71,-2.15,2.13,-1.27,1005.89
9.149,0.41,1.44,-0.71,12.36,-0.05,-9.71,-2.15,2.13,-1.27,1005.89
9.149,0.41,1.44,-0.71,12.36,-0.05,-9.71,1.21,2.64,2.07,1005.89
9.15,0.41,1.44,-0.71,7.12,1.34,-6.65,1.21,2.64,2.07,1005.89
9.205,-1.45,1.83,1.21,7.12,1.34,-6.65,1.21,2.64,2.07,1005.89
9.207,-2.63,1.84,0.63,7.12,1.34,-6.65,1.21,2.64,2.07,1005.89
9.208,-0.68,1.94,-0.93,7.12,1.34,-6.65,1.21,2.64,2.07,1005.89
9.209,-0.68,1.94,-0.93,7.12,1.34,-6.65,0.89,2.90,0.38,1005.89
9.21,-0.68,1.94,-0.93,-12.33,9.22,1.96,0.89,2.90,0.38,1005.89
9.212,-0.68,1.94,-0.93,-12.33,9.22,1.96,0.89,2.90,0.38,1005.90
9.248,-0.68,1.94,-0.93,-12.33,9.22,1.96,0.89,2.90,0.38,1005.90
9.263,0.38,0.89,-0.90,-12.33,9.22,1.96,0.89,2.90,0.38,1005.90
9.264,0.49,0.50,0.09,-12.33,9.22,1.96,0.89,2.90,0.38,1005.90
9.264,0.51,0.64,0.36,-12.33,9.22,1.96,0.89,2.90,0.38,1005.90
9.265,0.51,0.64,0.36,-12.33,9.22,1.96,1.12,0.17,3.22,1005.90
9.265,0.51,0.64,0.36,5.88,-2.91,-1.81,1.12,0.17,3.22,1005.90
9.323,0.42,1.00,0.12,5.88,-2.91,-1.81,1.12,0.17,3.22,1005.90
9.324,0.23,1.14,-0.31,5.88,-2.91,-1.81,1.12,0.17,3.22,1005.90
9.324,0.05,1.13,-0.30,5.88,-2.91,-1.81,1.12,0.17,3.22,1005.90
9.325,0.05,1.13,-0.30,5.88,-2.91,-1.81,0.72,-0.13,1.23,1005.90
9.325,0.05,1.13,-0.30,2.93,1.08,-1.53,0.72,-0.13,1.23,1005.90
9.328,0.05,1.13,-0.30,2.93,1.08,-1.53,0.72,-0.13,1.23,1005.89
9.381,-0.18,1.14,-0.25,2.93,1.08,-1.53,0.72,-0.13,1.23,1005.89
9.382,-0.15,1.01,-0.07,2.93,1.08,-1.53,0.72,-0.13,1.23,1005.89
9.382,-0.00,0.98,0.02,2.93,1.08,-1.53,0.72,-0.13,1.23,1005.89
9.382,-0.00,0.98,0.02,-0.81,0.58,-0.70,0.72,-0.13,1.23,1005.89
9.383,-0.00,0.98,0.02,-0.81,0.58,-0.70,0.28,0.15,0.68,1005.89
9.408,-0.00,0.98,0.02,-0.81,0.58,-0.70,0.28,0.15,0.68,1005.91
9.439,-0.02,1.04,0.04,-0.81,0.58,-0.70,0.28,0.15,0.68,1005.91
9.44,-0.19,1.03,0.11,-0.81,0.58,-0.70,0.28,0.15,0.68,1005.91
9.441,-0.13,0.90,0.13,-0.81,0.58,-0.70,0.28,0.15,0.68,1005.91
9.442,-0.13,0.90,0.13,-0.81,0.58,-0.70,0.38,-0.01,0.68,1005.91
9.443,-0.13,0.90,0.13,-1.22,0.05,1.37,0.38,-0.01,0.68,1005.91
9.456,-0.13,0.90,0.13,-1.22,0.05,1.37,0.38,-0.01,0.68,1005.91
9.497,0.03,0.93,0.05,-1.22,0.05,1.37,0.38,-0.01,0.68,1005.91
9.498,0.12,1.00,-0.02,-1.22,0.05,1.37,0.38,-0.01,0.68,1005.91
9.5,0.06,1.01,-0.01,-1.22,0.05,1.37,0.38,-0.01,0.68,1005.91
9.501,0.06,1.01,-0.01,-1.22,0.05,1.37,0.55,-0.31,0.92,1005.91
9.502,0.06,1.01,-0.01,0.09,0.01,0.86,0.55,-0.31,0.92,1005.91
9.527,0.06,1.01,-0.01,0.09,0.01,0.86,0.55,-0.31,0.92,1005.91
9.556,-0.09,1.01,0.03,0.09,0.01,0.86,0.55,-0.31,0.92,1005.91
9.556,-0.10,0.99,0.03,0.09,0.01,0.86,0.55,-0.31,0.92,1005.91
9.557,0.03,1.00,-0.04,0.09,0.01,0.86,0.55,-0.31,0.92,1005.91
9.557,0.03,1.00,-0.04,0.09,0.01,0.86,0.81,-0.06,1.01,1005.91
9.558,0.03,1.00,-0.04,-1.66,0.33,1.26,0.81,-0.06,1.01,1005.91
9.608,0.03,1.00,-0.04,-1.66,0.33,1.26,0.81,-0.06,1.01,1005.92
9.613,0.07,1.07,-0.14,-1.66,0.33,1.26,0.81,-0.06,1.01,1005.92
9.614,0.03,1.10,-0.19,-1.66,0.33,1.26,0.81,-0.06,1.01,1005.92
9.614,0.11,1.08,-0.17,-1.66,0.33,1.26,0.81,-0.06,1.01,1005.92
9.614,0.11,1.08,-0.17,-1.66,0.33,1.26,0.94,-0.33,1.30,1005.92
9.615,0.11,1.08,-0.17,-1.12,1.25,0.12,0.94,-0.33,1.30,1005.92
9.647,0.11,1.08,-0.17,-1.12,1.25,0.12,0.94,-0.33,1.30,1005.93
9.672,0.11,1.08,-0.17,-2.70,1.90,1.40,0.94,-0.33,1.30,1005.93
9.673,0.04,1.04,-0.13,-2.70,1.90,1.40,0.94,-0.33,1.30,1005.93
9.674,-0.10,1.11,-0.10,-2.70,1.90,1.40,0.94,-0.33,1.30,1005.93
9.674,-0.00,1.19,-0.09,-2.70,1.90,1.40,0.94,-0.33,1.30,1005.93
9.674,-0.00,1.19,-0.09,-2.70,1.90,1.40,1.24,-0.26,1.45,1005.93
9.727,-0.00,1.19,-0.09,-2.70,1.90,1.40,1.24,-0.26,1.45,1005.94
9.73,0.16,1.18,-0.14,-2.70,1.90,1.40,1.24,-0.26,1.45,1005.94
9.73,0.05,1.14,-0.16,-2.70,1.90,1.40,1.24,-0.26,1.45,1005.94
9.731,-0.13,1.30,-0.11,-2.70,1.90,1.40,1.24,-0.26,1.45,1005.94
9.731,-0.13,1.30,-0.11,-2.70,1.90,1.40,1.74,-0.43,1.60,1005.94
9.732,-0.13,1.30,-0.11,-2.95,3.29,2.01,1.74,-0.43,1.60,1005.94
9.788,-0.38,1.68,0.02,-2.95,3.29,2.01,1.74,-0.43,1.60,1005.94
9.79,-1.03,1.79,0.37,-2.95,3.29,2.01,1.74,-0.43,1.60,1005.94
9.791,-1.03,1.37,0.33,-2.95,3.29,2.01,1.74,-0.43,1.60,1005.94
9.792,-1.03,1.37,0.33,-2.95,3.29,2.01,2.27,-0.95,1.52,1005.94
9.793,-1.03,1.37,0.33,-11.47,7.97,6.83,2.27,-0.95,1.52,1005.94
9.808,-1.03,1.37,0.33,-11.47,7.97,6.83,2.27,-0.95,1.52,1005.94
9.846,-0.14,1.28,0.10,-11.47,7.97,6.83,2.27,-0.95,1.52,1005.94
9.848,0.53,1.60,-0.45,-11.47,7.97,6.83,2.27,-0.95,1.52,1005.94
9.849,1.09,1.67,-0.34,-11.47,7.97,6.83,2.27,-0.95,1.52,1005.94
9.849,1.09,1.67,-0.34,-11.47,7.97,6.83,2.43,-1.64,3.32,1005.94
9.85,1.09,1.67,-0.34,0.45,8.38,3.58,2.43,-1.64,3.32,1005.94
9.851,1.09,1.67,-0.34,0.45,8.38,3.58,2.43,-1.64,3.32,1005.93
9.906,1.03,1.13,-0.45,0.45,8.38,3.58,2.43,-1.64,3.32,1005.93
9.908,0.50,0.85,-0.49,0.45,8.38,3.58,2.43,-1.64,3.32,1005.93
9.909,0.27,0.69,-0.46,0.45,8.38,3.58,2.43,-1.64,3.32,1005.93
9.91,0.27,0.69,-0.46,0.90,3.08,1.66,2.43,-1.64,3.32,1005.93
9.911,0.27,0.69,-0.46,0.90,3.08,1.66,1.45,0.17,1.52,1005.93
9.928,0.27,0.69,-0.46,0.90,3.08,1.66,1.45,0.17,1.52,1005.94
9.962,0.20,0.43,-0.29,0.90,3.08,1.66,1.45,0.17,1.52,1005.94
9.963,0.17,0.27,-0.19,0.90,3.08,1.66,1.45,0.17,1.52,1005.94
9.963,0.17,0.19,-0.06,0.90,3.08,1.66,1.45,0.17,1.52,1005.94
9.964,0.17,0.19,-0.06,0.90,3.08,1.66,-0.98,0.41,-0.24,1005.94
9.964,0.17,0.19,-0.06,-3.23,-3.07,3.96,-0.98,0.41,-0.24,1005.94
10.007,0.17,0.19,-0.06,-3.23,-3.07,3.96,-0.98,0.41,-0.24,1005.93
10.022,0.22,0.20,-0.16,-3.23,-3.07,3.96,-0.98,0.41,-0.24,1005.93
10.024,0.24,0.27,-0.24,-3.23,-3.07,3.96,-0.98,0.41,-0.24,1005.93
10.025,0.18,0.33,-0.28,-3.23,-3.07,3.96,-0.98,0.41,-0.24,1005.93
10.026,0.18,0.33,-0.28,-3.23,-3.07,3.96,-2.72,-0.26,-2.16,1005.93
10.027,0.18,0.33,-0.28,-1.96,-4.68,2.46,-2.72,-0.26,-2.16,1005.93
10.047,0.18,0.33,-0.28,-1.96,-4.68,2.46,-2.72,-0.26,-2.16,1005.98
10.08,0.12,0.41,-0.26,-1.96,-4.68,2.46,-2.72,-0.26,-2.16,1005.98
10.081,0.07,0.52,-0.25,-1.96,-4.68,2.46,-2.72,-0.26,-2.16,1005.98
10.081,0.05,0.67,-0.18,-1.96,-4.68,2.46,-2.72,-0.26,-2.16,1005.98
10.082,0.05,0.67,-0.18,-1.96,-4.68,2.46,-4.52,-0.96,-3.78,1005.98
10.082,0.05,0.67,-0.18,-1.19,-3.68,0.44,-4.52,-0.96,-3.78,1005.98
10.127,0.05,0.67,-0.18,-1.19,-3.68,0.44,-4.52,-0.96,-3.78,1005.97
10.141,0.01,0.90,-0.28,-1.19,-3.68,0.44,-4.52,-0.96,-3.78,1005.97
10.143,-0.10,1.46,-0.62,-1.19,-3.68,0.44,-4.52,-0.96,-3.78,1005.97
10.144,0.16,2.20,-0.88,-1.19,-3.68,0.44,-4.52,-0.96,-3.78,1005.97
10.145,0.16,2.20,-0.88,-1.19,-3.68,0.44,-5.46,-1.78,-4.35,1005.97
10.146,0.16,2.20,-0.88,0.70,5.34,-5.91,-5.46,-1.78,-4.35,1005.97
10.196,0.53,1.93,-1.17,0.70,5.34,-5.91,-5.46,-1.78,-4.35,1005.97
10.197,0.83,1.43,-1.32,0.70,5.34,-5.91,-5.46,-1.78,-4.35,1005.97
10.197,1.11,1.08,-1.00,0.70,5.34,-5.91,-5.46,-1.78,-4.35,1005.97
10.198,1.11,1.08,-1.00,0.70,5.34,-5.91,-4.40,-1.00,-2.95,1005.97
10.198,1.11,1.08,-1.00,9.92,5.39,-13.76,-4.40,-1.00,-2.95,1005.97
10.207,1.11,1.08,-1.00,9.92,5.39,-13.76,-4.40,-1.00,-2.95,1005.94
10.246,1.11,1.08,-1.00,9.92,5.39,-13.76,-4.40,-1.00,-2.95,1005.89
10.253,1.22,0.79,-0.96,9.92,5.39,-13.76,-4.40,-1.00,-2.95,1005.89
10.254,0.88,0.63,-0.94,9.92,5.39,-13.76,-4.40,-1.00,-2.95,1005.89
10.254,0.53,0.79,-0.95,9.92,5.39,-13.76,-4.40,-1.00,-2.95,1005.89
10.254,0.53,0.79,-0.95,10.57,-1.71,-11.67,-4.40,-1.00,-2.95,1005.89
10.255,0.53,0.79,-0.95,10.57,-1.71,-11.67,-0.73,1.39,-0.21,1005.89
10.315,0.12,1.57,-0.61,10.57,-1.71,-11.67,-0.73,1.39,-0.21,1005.89
10.317,-1.77,2.00,1.85,10.57,-1.71,-11.67,-0.73,1.39,-0.21,1005.89
10.318,-1.25,1.75,0.01,10.57,-1.71,-11.67,-0.73,1.39,-0.21,1005.89
10.32,-1.25,1.75,0.01,-7.12,8.19,2.31,-0.73,1.39,-0.21,1005.89
10.321,-1.25,1.75,0.01,-7.12,8.19,2.31,0.44,2.96,0.26,1005.89
10.328,-1.25,1.75,0.01,-7.12,8.19,2.31,0.44,2.96,0.26,1005.88
10.373,-0.06,1.22,-1.38,-7.12,8.19,2.31,0.44,2.96,0.26,1005.88
10.374,0.14,0.72,0.47,-7.12,8.19,2.31,0.44,2.96,0.26,1005.88
10.374,-0.02,0.74,-0.07,-7.12,8.19,2.31,0.44,2.96,0.26,1005.88
10.375,-0.02,0.74,-0.07,-7.12,8.19,2.31,1.48,0.50,1.99,1005.88
10.375,-0.02,0.74,-0.07,1.45,-0.72,-4.05,1.48,0.50,1.99,1005.88
10.409,-0.02,0.74,-0.07,1.45,-0.72,-4.05,1.48,0.50,1.99,1005.91
10.432,0.32,1.10,-0.02,1.45,-0.72,-4.05,1.48,0.50,1.99,1005.91
10.432,0.43,1.12,-0.15,1.45,-0.72,-4.05,1.48,0.50,1.99,1005.91
10.433,0.10,0.99,-0.05,1.45,-0.72,-4.05,1.48,0.50,1.99,1005.91
10.433,0.10,0.99,-0.05,1.45,-0.72,-4.05,0.61,-0.35,1.07,1005.91
10.433,0.10,0.99,-0.05,3.39,0.92,-1.23,0.61,-0.35,1.07,1005.91
10.449,0.10,0.99,-0.05,3.39,0.92,-1.23,0.61,-0.35,1.07,1005.95
10.489,-0.07,0.98,0.01,3.39,0.92,-1.23,0.61,-0.35,1.07,1005.95
10.49,-0.06,1.02,-0.03,3.39,0.92,-1.23,0.61,-0.35,1.07,1005.95
10.491,-0.03,1.03,0.03,3.39,0.92,-1.23,0.61,-0.35,1.07,1005.95
10.491,-0.03,1.03,0.03,3.39,0.92,-1.23,0.31,0.39,0.42,1005.95
10.492,-0.03,1.03,0.03,-0.13,0.27,-0.29,0.31,0.39,0.42,1005.95
10.528,-0.03,1.03,0.03,-0.13,0.27,-0.29,0.31,0.39,0.42,1005.94
10.546,0.00,0.97,0.04,-0.13,0.27,-0.29,0.31,0.39,0.42,1005.94
10.547,-0.03,0.99,0.12,-0.13,0.27,-0.29,0.31,0.39,0.42,1005.94
10.548,-0.07,1.02,0.15,-0.13,0.27,-0.29,0.31,0.39,0.42,1005.94
10.548,-0.07,1.02,0.15,-0.10,0.09,0.80,0.31,0.39,0.42,1005.94
10.548,-0.07,1.02,0.15,-0.10,0.09,0.80,0.21,-0.06,0.34,1005.94
10.606,-0.05,0.99,0.09,-0.10,0.09,0.80,0.21,-0.06,0.34,1005.94
10.607,-0.08,0.99,0.06,-0.10,0.09,0.80,0.21,-0.06,0.34,1005.94
10.608,-0.12,1.00,0.02,-0.10,0.09,0.80,0.21,-0.06,0.34,1005.94
10.608,-0.12,1.00,0.02,-0.10,0.09,0.80,0.42,-0.13,0.35,1005.94
10.609,-0.12,1.00,0.02,-0.78,0.09,0.54,0.42,-0.13,0.35,1005.94
10.609,-0.12,1.00,0.02,-0.78,0.09,0.54,0.42,-0.13,0.35,1005.94
10.649,-0.12,1.00,0.02,-0.78,0.09,0.54,0.42,-0.13,0.35,1005.94
10.663,-0.02,0.97,-0.00,-0.78,0.09,0.54,0.42,-0.13,0.35,1005.94
10.664,0.08,0.98,0.00,-0.78,0.09,0.54,0.42,-0.13,0.35,1005.94
10.664,0.09,1.01,0.04,-0.78,0.09,0.54,0.42,-0.13,0.35,1005.94
10.664,0.09,1.01,0.04,-0.78,0.09,0.54,0.46,-0.49,0.44,1005.94
10.664,0.09,1.01,0.04,0.28,0.06,0.39,0.46,-0.49,0.44,1005.94
10.722,0.03,0.99,0.05,0.28,0.06,0.39,0.46,-0.49,0.44,1005.94
10.722,-0.14,1.02,0.11,0.28,0.06,0.39,0.46,-0.49,0.44,1005.94
10.723,-0.38,1.07,0.20,0.28,0.06,0.39,0.46,-0.49,0.44,1005.94
10.723,-0.38,1.07,0.20,0.28,0.06,0.39,0.63,-0.64,0.40,1005.94
10.723,-0.38,1.07,0.20,-2.00,0.45,1.79,0.63,-0.64,0.40,1005.94
10.728,-0.38,1.07,0.20,-2.00,0.45,1.79,0.63,-0.64,0.40,1005.94
10.78,-0.55,1.13,0.20,-2.00,0.45,1.79,0.63,-0.64,0.40,1005.94
10.782,-0.75,1.41,0.03,-2.00,0.45,1.79,0.63,-0.64,0.40,1005.94
10.783,-0.83,1.61,-0.15,-2.00,0.45,1.79,0.63,-0.64,0.40,1005.94
10.783,-0.83,1.61,-0.15,-2.00,0.45,1.79,1.31,-2.00,1.44,1005.94
10.783,-0.83,1.61,-0.15,-7.91,4.00,1.63,1.31,-2.00,1.44,1005.94
10.806,-0.83,1.61,-0.15,-7.91,4.00,1.63,1.31,-2.00,1.44,1005.94
10.837,-0.47,1.70,-0.42,-7.91,4.00,1.63,1.31,-2.00,1.44,1005.94
10.846,0.13,1.59,-0.56,-7.91,4.00,1.63,1.31,-2.00,1.44,1005.94
10.846,0.27,1.06,-0.82,-7.91,4.00,1.63,1.31,-2.00,1.44,1005.94
10.847,0.27,1.06,-0.82,-7.91,4.00,1.63,0.45,-4.08,2.75,1005.94
10.847,0.27,1.06,-0.82,-2.25,4.86,-3.81,0.45,-4.08,2.75,1005.94
10.848,0.27,1.06,-0.82,-2.25,4.86,-3.81,0.45,-4.08,2.75,1005.94
10.896,0.18,0.61,-0.84,-2.25,4.86,-3.81,0.45,-4.08,2.75,1005.94
10.897,0.43,0.45,-0.65,-2.25,4.86,-3.81,0.45,-4.08,2.75,1005.94
10.898,0.54,0.40,-0.61,-2.25,4.86,-3.81,0.45,-4.08,2.75,1005.94
10.898,0.54,0.40,-0.61,-2.25,4.86,-3.81,-1.17,-5.00,2.42,1005.94
10.899,0.54,0.40,-0.61,1.09,-4.28,-4.64,-1.17,-5.00,2.42,1005.94
10.928,0.54,0.40,-0.61,1.09,-4.28,-4.64,-1.17,-5.00,2.42,1005.93
10.954,0.28,0.47,-0.59,1.09,-4.28,-4.64,-1.17,-5.00,2.42,1005.93
10.955,-0.07,0.45,-0.55,1.09,-4.28,-4.64,-1.17,-5.00,2.42,1005.93
10.956,-0.64,0.45,-0.55,1.09,-4.28,-4.64,-1.17,-5.00,2.42,1005.93
10.956,-0.64,0.45,-0.55,1.09,-4.28,-4.64,-2.79,-6.01,1.13,1005.93
10.956,-0.64,0.45,-0.55,-3.93,-4.68,-3.79,-2.79,-6.01,1.13,1005.93
11.008,-0.64,0.45,-0.55,-3.93,-4.68,-3.79,-2.79,-6.01,1.13,1005.92
11.013,-0.88,0.60,-0.72,-3.93,-4.68,-3.79,-2.79,-6.01,1.13,1005.92
11.013,-0.76,0.71,-0.90,-3.93,-4.68,-3.79,-2.79,-6.01,1.13,1005.92
11.014,-0.52,0.71,-1.01,-3.93,-4.68,-3.79,-2.79,-6.01,1.13,1005.92
11.014,-0.52,0.71,-1.01,-8.78,-2.72,-7.00,-2.79,-6.01,1.13,1005.92
11.015,-0.52,0.71,-1.01,-8.78,-2.72,-7.00,-2.47,-8.48,0.27,1005.92
11.051,-0.52,0.71,-1.01,-8.78,-2.72,-7.00,-2.47,-8.48,0.27,1005.93
11.072,-0.35,0.76,-1.05,-8.78,-2.72,-7.00,-2.47,-8.48,0.27,1005.93
11.073,-0.21,0.82,-0.90,-8.78,-2.72,-7.00,-2.47,-8.48,0.27,1005.93
11.073,-0.14,0.89,-0.79,-8.78,-2.72,-7.00,-2.47,-8.48,0.27,1005.93
11.074,-0.14,0.89,-0.79,-8.78,-2.72,-7.00,-2.13,-7.07,-1.00,1005.93
11.074,-0.14,0.89,-0.79,-2.88,-1.45,-7.83,-2.13,-7.07,-1.00,1005.93
11.127,-0.14,0.89,-0.79,-2.88,-1.45,-7.83,-2.13,-7.07,-1.00,1005.93
11.128,-0.09,0.95,-0.64,-2.88,-1.45,-7.83,-2.13,-7.07,-1.00,1005.93
11.128,-0.08,1.10,-0.54,-2.88,-1.45,-7.83,-2.13,-7.07,-1.00,1005.93
11.129,-0.03,1.29,-0.40,-2.88,-1.45,-7.83,-2.13,-7.07,-1.00,1005.93
11.129,-0.03,1.29,-0.40,-2.88,-1.45,-7.83,-2.30,-3.71,-2.69,1005.93
11.13,-0.03,1.29,-0.40,0.40,1.40,-5.25,-2.30,-3.71,-2.69,1005.93
11.187,0.13,1.34,-0.29,0.40,1.40,-5.25,-2.30,-3.71,-2.69,1005.93
11.187,0.09,1.28,-0.02,0.40,1.40,-5.25,-2.30,-3.71,-2.69,1005.93
11.188,0.03,1.21,0.22,0.40,1.40,-5.25,-2.30,-3.71,-2.69,1005.93
11.188,0.03,1.21,0.22,0.40,1.40,-5.25,-1.71,-1.73,-2.55,1005.93
11.189,0.03,1.21,0.22,3.12,3.22,-1.46,-1.71,-1.73,-2.55,1005.93
11.208,0.03,1.21,0.22,3.12,3.22,-1.46,-1.71,-1.73,-2.55,1005.91
11.246,0.13,1.15,0.21,3.12,3.22,-1.46,-1.71,-1.73,-2.55,1005.91
11.247,0.09,1.11,0.14,3.12,3.22,-1.46,-1.71,-1.73,-2.55,1005.91
11.247,0.15,0.99,0.06,3.12,3.22,-1.46,-1.71,-1.73,-2.55,1005.91
11.247,0.15,0.99,0.06,3.12,3.22,-1.46,-0.35,-2.82,-1.36,1005.91
11.248,0.15,0.99,0.06,3.12,3.22,-1.46,-0.35,-2.82,-1.36,1005.91
11.248,0.15,0.99,0.06,3.93,1.57,-0.46,-0.35,-2.82,-1.36,1005.91
11.305,0.18,0.93,0.04,3.93,1.57,-0.46,-0.35,-2.82,-1.36,1005.91
11.306,0.25,0.85,0.02,3.93,1.57,-0.46,-0.35,-2.82,-1.36,1005.91
11.307,0.42,0.85,-0.03,3.93,1.57,-0.46,-0.35,-2.82,-1.36,1005.91
11.307,0.42,0.85,-0.03,4.96,-0.63,-1.47,-0.35,-2.82,-1.36,1005.91
11.308,0.42,0.85,-0.03,4.96,-0.63,-1.47,1.09,-2.53,0.37,1005.91
11.327,0.42,0.85,-0.03,4.96,-0.63,-1.47,1.09,-2.53,0.37,1005.93
11.364,0.52,0.91,-0.06,4.96,-0.63,-1.47,1.09,-2.53,0.37,1005.93
11.365,0.51,0.96,-0.10,4.96,-0.63,-1.47,1.09,-2.53,0.37,1005.93
11.365,0.27,0.87,0.28,4.96,-0.63,-1.47,1.09,-2.53,0.37,1005.93
11.366,0.27,0.87,0.28,4.96,-0.63,-1.47,1.29,-0.53,1.24,1005.93
11.366,0.27,0.87,0.28,5.62,-0.50,-0.54,1.29,-0.53,1.24,1005.93
11.409,0.27,0.87,0.28,5.62,-0.50,-0.54,1.29,-0.53,1.24,1005.92
11.422,-0.30,0.82,0.89,5.62,-0.50,-0.54,1.29,-0.53,1.24,1005.92
11.423,-0.44,1.47,0.95,5.62,-0.50,-0.54,1.29,-0.53,1.24,1005.92
11.424,-0.24,1.97,-0.20,5.62,-0.50,-0.54,1.29,-0.53,1.24,1005.92
11.424,-0.24,1.97,-0.20,-2.23,4.35,4.41,1.29,-0.53,1.24,1005.92
11.425,-0.24,1.97,-0.20,-2.23,4.35,4.41,-0.00,0.51,0.84,1005.92
11.448,-0.24,1.97,-0.20,-2.23,4.35,4.41,-0.00,0.51,0.84,1005.91
11.478,-0.04,0.99,-0.29,-2.23,4.35,4.41,-0.00,0.51,0.84,1005.91
11.479,-0.01,0.63,-0.28,-2.23,4.35,4.41,-0.00,0.51,0.84,1005.91
11.48,-0.04,1.22,-0.33,-2.23,4.35,4.41,-0.00,0.51,0.84,1005.91
11.48,-0.04,1.22,-0.33,-2.23,4.35,4.41,0.65,-0.23,1.42,1005.91
11.481,-0.04,1.22,-0.33,-0.13,-0.37,-3.46,0.65,-0.23,1.42,1005.91
11.528,-0.04,1.22,-0.33,-0.13,-0.37,-3.46,0.65,-0.23,1.42,1005.91
11.538,0.23,1.21,-0.04,-0.13,-0.37,-3.46,0.65,-0.23,1.42,1005.91
11.539,0.26,0.92,0.13,-0.13,-0.37,-3.46,0.65,-0.23,1.42,1005.91
11.539,0.06,0.97,0.10,-0.13,-0.37,-3.46,0.65,-0.23,1.42,1005.91
11.54,0.06,0.97,0.10,1.38,0.48,0.19,0.65,-0.23,1.42,1005.91
11.54,0.06,0.97,0.10,1.38,0.48,0.19,0.21,0.23,0.96,1005.91
11.595,-0.02,1.01,0.09,1.38,0.48,0.19,0.21,0.23,0.96,1005.91
11.597,0.01,1.02,0.03,1.38,0.48,0.19,0.21,0.23,0.96,1005.91
11.597,0.08,1.00,0.08,1.38,0.48,0.19,0.21,0.23,0.96,1005.91
11.598,0.08,1.00,0.08,1.38,0.48,0.19,0.22,-0.27,0.69,1005.91
11.598,0.08,1.00,0.08,-0.54,0.30,0.38,0.22,-0.27,0.69,1005.91
11.61,0.08,1.00,0.08,-0.54,0.30,0.38,0.22,-0.27,0.69,1005.89
11.65,0.08,1.00,0.08,-0.54,0.30,0.38,0.22,-0.27,0.69,1005.89
11.655,0.02,1.02,0.13,-0.54,0.30,0.38,0.22,-0.27,0.69,1005.89
11.656,-0.00,1.03,0.06,-0.54,0.30,0.38,0.22,-0.27,0.69,1005.89
11.656,0.17,0.98,0.08,-0.54,0.30,0.38,0.22,-0.27,0.69,1005.89
11.656,0.17,0.98,0.08,-0.54,0.30,0.38,0.37,-0.13,0.71,1005.89
11.657,0.17,0.98,0.08,-0.54,0.29,0.80,0.37,-0.13,0.71,1005.89
11.713,0.15,0.95,0.10,-0.54,0.29,0.80,0.37,-0.13,0.71,1005.89
11.714,0.13,1.02,0.03,-0.54,0.29,0.80,0.37,-0.13,0.71,1005.89
11.715,0.09,1.04,0.03,-0.54,0.29,0.80,0.37,-0.13,0.71,1005.89
11.715,0.09,1.04,0.03,-0.54,0.29,0.80,0.51,-0.08,0.66,1005.89
11.715,0.09,1.04,0.03,-0.29,0.27,0.70,0.51,-0.08,0.66,1005.89
11.728,0.09,1.04,0.03,-0.29,0.27,0.70,0.51,-0.08,0.66,1005.89
11.771,0.10,1.04,-0.05,-0.29,0.27,0.70,0.51,-0.08,0.66,1005.89
11.773,0.01,1.02,0.02,-0.29,0.27,0.70,0.51,-0.08,0.66,1005.89
11.773,0.17,1.00,-0.01,-0.29,0.27,0.70,0.51,-0.08,0.66,1005.89
11.773,0.17,1.00,-0.01,-0.29,0.27,0.70,0.59,-0.09,0.73,1005.89
11.774,0.17,1.00,-0.01,-1.02,0.52,0.35,0.59,-0.09,0.73,1005.89
11.807,0.17,1.00,-0.01,-1.02,0.52,0.35,0.59,-0.09,0.73,1005.90
11.83,0.17,1.00,-0.01,-1.02,0.88,0.67,0.59,-0.09,0.73,1005.90
11.832,0.19,1.03,-0.04,-1.02,0.88,0.67,0.59,-0.09,0.73,1005.90
11.832,0.11,1.05,-0.00,-1.02,0.88,0.67,0.59,-0.09,0.73,1005.90
11.832,0.12,1.05,-0.03,-1.02,0.88,0.67,0.59,-0.09,0.73,1005.90
11.833,0.12,1.05,-0.03,-1.02,0.88,0.67,0.65,-0.32,0.90,1005.90
11.849,0.12,1.05,-0.03,-1.02,0.88,0.67,0.65,-0.32,0.90,1005.91
11.89,0.25,1.08,-0.11,-1.02,0.88,0.67,0.65,-0.32,0.90,1005.91
11.891,0.18,1.06,-0.04,-1.02,0.88,0.67,0.65,-0.32,0.90,1005.91
11.892,-0.06,1.06,0.07,-1.02,0.88,0.67,0.65,-0.32,0.90,1005.91
11.892,-0.06,1.06,0.07,-1.02,0.88,0.67,0.70,-0.50,1.08,1005.91
11.892,-0.06,1.06,0.07,-1.72,1.30,1.09,0.70,-0.50,1.08,1005.91
11.927,-0.06,1.06,0.07,-1.72,1.30,1.09,0.70,-0.50,1.08,1005.92
11.946,-0.04,1.15,0.06,-1.72,1.30,1.09,0.70,-0.50,1.08,1005.92
11.947,0.15,1.21,0.01,-1.72,1.30,1.09,0.70,-0.50,1.08,1005.92
11.947,0.07,1.26,-0.02,-1.72,1.30,1.09,0.70,-0.50,1.08,1005.92
11.948,0.07,1.26,-0.02,-1.72,1.30,1.09,1.21,-0.58,1.58,1005.92
11.948,0.07,1.26,-0.02,-3.04,3.02,2.20,1.21,-0.58,1.58,1005.92
12.003,-0.22,1.34,-0.05,-3.04,3.02,2.20,1.21,-0.58,1.58,1005.92
12.004,-0.37,1.39,-0.01,-3.04,3.02,2.20,1.21,-0.58,1.58,1005.92
12.004,-0.56,1.59,0.11,-3.04,3.02,2.20,1.21,-0.58,1.58,1005.92
12.005,-0.56,1.59,0.11,-8.05,5.97,3.36,1.21,-0.58,1.58,1005.92
12.005,-0.56,1.59,0.11,-8.05,5.97,3.36,1.85,-1.11,2.00,1005.92
12.008,-0.56,1.59,0.11,-8.05,5.97,3.36,1.85,-1.11,2.00,1005.93
12.047,-0.56,1.59,0.11,-8.05,5.97,3.36,1.85,-1.11,2.00,1005.93
12.062,-1.27,1.99,0.32,-8.05,5.97,3.36,1.85,-1.11,2.00,1005.93
12.063,-1.65,1.99,0.34,-8.05,5.97,3.36,1.85,-1.11,2.00,1005.93
12.064,-0.74,1.59,0.07,-8.05,5.97,3.36,1.85,-1.11,2.00,1005.93
12.064,-0.74,1.59,0.07,-8.05,5.97,3.36,2.40,-1.92,2.58,1005.93
12.065,-0.74,1.59,0.07,-16.64,11.12,6.98,2.40,-1.92,2.58,1005.93
12.122,0.59,1.65,-0.47,-16.64,11.12,6.98,2.40,-1.92,2.58,1005.93
12.123,1.55,1.64,-0.25,-16.64,11.12,6.98,2.40,-1.92,2.58,1005.93
12.123,1.59,1.05,-0.67,-16.64,11.12,6.98,2.40,-1.92,2.58,1005.93
12.124,1.59,1.05,-0.67,6.54,8.92,1.46,2.40,-1.92,2.58,1005.93
12.124,1.59,1.05,-0.67,6.54,8.92,1.46,2.32,-1.92,4.03,1005.93
12.128,1.59,1.05,-0.67,6.54,8.92,1.46,2.32,-1.92,4.03,1005.93
12.182,0.80,0.88,-0.94,6.54,8.92,1.46,2.32,-1.92,4.03,1005.93
12.183,0.31,0.63,-0.75,6.54,8.92,1.46,2.32,-1.92,4.03,1005.93
12.183,0.00,0.22,-0.38,6.54,8.92,1.46,2.32,-1.92,4.03,1005.93
12.184,0.00,0.22,-0.38,-2.26,0.36,-0.97,2.32,-1.92,4.03,1005.93
12.184,0.00,0.22,-0.38,-2.26,0.36,-0.97,-0.46,0.36,0.44,1005.93
12.211,0.00,0.22,-0.38,-2.26,0.36,-0.97,-0.46,0.36,0.44,1005.91
12.237,-0.05,-0.09,-0.11,-2.26,0.36,-0.97,-0.46,0.36,0.44,1005.91
12.238,0.05,-0.11,-0.07,-2.26,0.36,-0.97,-0.46,0.36,0.44,1005.91
12.238,0.01,0.06,-0.23,-2.26,0.36,-0.97,-0.46,0.36,0.44,1005.91
12.239,0.01,0.06,-0.23,-2.26,0.36,-0.97,-3.21,0.16,-2.26,1005.91
12.239,0.01,0.06,-0.23,-4.99,-7.33,3.18,-3.21,0.16,-2.26,1005.91
12.249,0.01,0.06,-0.23,-4.99,-7.33,3.18,-3.21,0.16,-2.26,1005.90
12.297,-0.08,0.23,-0.40,-4.99,-7.33,3.18,-3.21,0.16,-2.26,1005.90
12.298,-0.07,0.37,-0.45,-4.99,-7.33,3.18,-3.21,0.16,-2.26,1005.90
12.298,-0.04,0.53,-0.48,-4.99,-7.33,3.18,-3.21,0.16,-2.26,1005.90
12.299,-0.04,0.53,-0.48,-4.99,-7.33,3.18,-4.35,-1.10,-4.25,1005.90
12.299,-0.04,0.53,-0.48,-3.39,-4.99,-1.57,-4.35,-1.10,-4.25,1005.90
12.329,-0.04,0.53,-0.48,-3.39,-4.99,-1.57,-4.35,-1.10,-4.25,1005.97
12.358,0.00,0.70,-0.33,-3.39,-4.99,-1.57,-4.35,-1.10,-4.25,1005.97
12.36,-0.02,1.00,-0.46,-3.39,-4.99,-1.57,-4.35,-1.10,-4.25,1005.97
12.361,0.15,1.57,-0.91,-3.39,-4.99,-1.57,-4.35,-1.10,-4.25,1005.97
12.362,0.15,1.57,-0.91,-3.39,-4.99,-1.57,-5.16,-1.78,-5.37,1005.97
12.363,0.15,1.57,-0.91,0.74,1.14,-5.33,-5.16,-1.78,-5.37,1005.97
12.408,0.15,1.57,-0.91,0.74,1.14,-5.33,-5.16,-1.78,-5.37,1005.95
12.411,0.64,2.09,-1.19,0.74,1.14,-5.33,-5.16,-1.78,-5.37,1005.95
12.412,1.02,1.84,-1.27,0.74,1.14,-5.33,-5.16,-1.78,-5.37,1005.95
12.412,1.23,1.40,-0.95,0.74,1.14,-5.33,-5.16,-1.78,-5.37,1005.95
12.412,1.23,1.40,-0.95,0.74,1.14,-5.33,-4.73,0.08,-4.60,1005.95
12.413,1.23,1.40,-0.95,12.04,8.43,-13.23,-4.73,0.08,-4.60,1005.95
12.448,1.23,1.40,-0.95,12.04,8.43,-13.23,-4.73,0.08,-4.60,1005.92
12.471,1.10,1.03,-0.58,12.04,8.43,-13.23,-4.73,0.08,-4.60,1005.92
12.472,1.12,0.79,-0.74,12.04,8.43,-13.23,-4.73,0.08,-4.60,1005.92
12.472,0.81,0.83,-0.34,12.04,8.43,-13.23,-4.73,0.08,-4.60,1005.92
12.473,0.81,0.83,-0.34,12.04,8.43,-13.23,-1.63,2.16,-1.50,1005.92
12.473,0.81,0.83,-0.34,13.33,0.18,-7.80,-1.63,2.16,-1.50,1005.92
12.528,0.81,0.83,-0.34,13.33,0.18,-7.80,-1.63,2.16,-1.50,1005.90
12.529,0.46,1.01,-0.43,13.33,0.18,-7.80,-1.63,2.16,-1.50,1005.90
12.529,-0.12,1.61,0.38,13.33,0.18,-7.80,-1.63,2.16,-1.50,1005.90
12.53,-2.00,1.80,1.67,13.33,0.18,-7.80,-1.63,2.16,-1.50,1005.90
12.531,-2.00,1.80,1.67,13.33,0.18,-7.80,0.44,1.83,1.28,1005.90
12.532,-2.00,1.80,1.67,-2.35,5.54,3.42,0.44,1.83,1.28,1005.90
12.588,-1.37,2.14,-0.35,-2.35,5.54,3.42,0.44,1.83,1.28,1005.90
12.589,0.38,1.51,-1.57,-2.35,5.54,3.42,0.44,1.83,1.28,1005.90
12.589,0.29,0.60,-0.34,-2.35,5.54,3.42,0.44,1.83,1.28,1005.90
12.589,0.29,0.60,-0.34,-0.46,4.42,-7.95,0.44,1.83,1.28,1005.90
12.59,0.29,0.60,-0.34,-0.46,4.42,-7.95,2.05,0.50,2.46,1005.90
12.607,0.29,0.60,-0.34,-0.46,4.42,-7.95,2.05,0.50,2.46,1005.92
12.645,0.42,0.54,0.29,-0.46,4.42,-7.95,2.05,0.50,2.46,1005.92
12.646,0.47,0.83,0.23,-0.46,4.42,-7.95,2.05,0.50,2.46,1005.92
12.646,0.29,1.10,-0.02,-0.46,4.42,-7.95,2.05,0.50,2.46,1005.92
12.646,0.29,1.10,-0.02,-0.46,4.42,-7.95,0.80,0.15,1.89,1005.92
12.647,0.29,1.10,-0.02,4.55,-1.49,1.50,0.80,0.15,1.89,1005.92
12.647,0.29,1.10,-0.02,4.55,-1.49,1.50,0.80,0.15,1.89,1005.90
12.705,0.15,1.11,-0.13,4.55,-1.49,1.50,0.80,0.15,1.89,1005.90
12.706,-0.07,1.06,-0.09,4.55,-1.49,1.50,0.80,0.15,1.89,1005.90
12.706,-0.20,1.09,-0.12,4.55,-1.49,1.50,0.80,0.15,1.89,1005.90
12.706,-0.20,1.09,-0.12,4.55,-1.49,1.50,0.56,-0.08,0.90,1005.90
12.706,-0.20,1.09,-0.12,-0.20,1.04,-0.92,0.56,-0.08,0.90,1005.90
12.728,-0.20,1.09,-0.12,-0.20,1.04,-0.92,0.56,-0.08,0.90,1005.93
12.762,-0.03,1.02,-0.10,-0.20,1.04,-0.92,0.56,-0.08,0.90,1005.93
12.763,0.18,1.00,0.01,-0.20,1.04,-0.92,0.56,-0.08,0.90,1005.93
12.763,0.06,0.99,0.04,-0.20,1.04,-0.92,0.56,-0.08,0.90,1005.93
12.763,0.06,0.99,0.04,-0.20,1.04,-0.92,0.46,0.10,0.81,1005.93
12.763,0.06,0.99,0.04,0.41,0.22,0.29,0.46,0.10,0.81,1005.93
12.81,0.06,0.99,0.04,0.41,0.22,0.29,0.46,0.10,0.81,1005.94
12.821,-0.10,0.93,0.08,0.41,0.22,0.29,0.46,0.10,0.81,1005.94
12.822,-0.03,0.97,0.10,0.41,0.22,0.29,0.46,0.10,0.81,1005.94
12.822,0.06,1.01,-0.02,0.41,0.22,0.29,0.46,0.10,0.81,1005.94
12.823,0.06,1.01,-0.02,0.41,0.22,0.29,0.49,-0.23,0.81,1005.94
12.823,0.06,1.01,-0.02,-0.92,-0.06,1.25,0.49,-0.23,0.81,1005.94
12.848,0.06,1.01,-0.02,-0.92,-0.06,1.25,0.49,-0.23,0.81,1005.94
12.878,0.05,1.00,-0.05,-0.92,-0.06,1.25,0.49,-0.23,0.81,1005.94
12.879,0.08,0.98,-0.06,-0.92,-0.06,1.25,0.49,-0.23,0.81,1005.94
12.879,0.15,0.98,-0.08,-0.92,-0.06,1.25,0.49,-0.23,0.81,1005.94
12.88,0.15,0.98,-0.08,-0.92,-0.06,1.25,0.64,-0.49,0.95,1005.94
12.88,0.15,0.98,-0.08,-0.29,0.19,0.50,0.64,-0.49,0.95,1005.94
12.928,0.15,0.98,-0.08,-0.29,0.19,0.50,0.64,-0.49,0.95,1005.94
12.94,0.11,1.00,-0.09,-0.29,0.19,0.50,0.64,-0.49,0.95,1005.94
12.942,0.04,1.00,-0.07,-0.29,0.19,0.50,0.64,-0.49,0.95,1005.94
12.943,0.00,0.99,-0.04,-0.29,0.19,0.50,0.64,-0.49,0.95,1005.94
12.944,0.00,0.99,-0.04,-0.29,0.19,0.50,0.78,-0.47,0.96,1005.94
12.945,0.00,0.99,-0.04,-1.14,0.42,0.88,0.78,-0.47,0.96,1005.94
12.995,0.01,1.00,-0.02,-1.14,0.42,0.88,0.78,-0.47,0.96,1005.94
12.996,0.10,1.03,-0.06,-1.14,0.42,0.88,0.78,-0.47,0.96,1005.94
12.997,0.12,1.09,-0.13,-1.14,0.42,0.88,0.78,-0.47,0.96,1005.94
12.997,0.12,1.09,-0.13,-1.14,0.42,0.88,1.16,-0.53,1.26,1005.94
12.998,0.12,1.09,-0.13,-1.52,1.09,1.52,1.16,-0.53,1.26,1005.94
13.007,0.12,1.09,-0.13,-1.52,1.09,1.52,1.16,-0.53,1.26,1005.93
13.05,0.12,1.09,-0.13,-1.52,1.09,1.52,1.16,-0.53,1.26,1005.94
13.057,0.06,1.12,-0.18,-1.52,1.09,1.52,1.16,-0.53,1.26,1005.94
13.059,0.04,1.12,-0.18,-1.52,1.09,1.52,1.16,-0.53,1.26,1005.94
13.059,-0.06,1.18,-0.17,-1.52,1.09,1.52,1.16,-0.53,1.26,1005.94
13.06,-0.06,1.18,-0.17,-1.52,1.09,1.52,1.60,-0.42,1.45,1005.94
13.06,-0.06,1.18,-0.17,-2.79,2.54,1.36,1.60,-0.42,1.45,1005.94
13.112,-0.31,1.39,-0.04,-2.79,2.54,1.36,1.60,-0.42,1.45,1005.94
13.113,-0.60,1.66,-0.02,-2.79,2.54,1.36,1.60,-0.42,1.45,1005.94
13.113,-0.87,1.87,0.01,-2.79,2.54,1.36,1.60,-0.42,1.45,1005.94
13.113,-0.87,1.87,0.01,-2.79,2.54,1.36,2.24,-0.63,1.84,1005.94
13.114,-0.87,1.87,0.01,-9.31,8.09,4.05,2.24,-0.63,1.84,1005.94
13.128,-0.87,1.87,0.01,-9.31,8.09,4.05,2.24,-0.63,1.84,1005.94
13.17,-1.12,1.93,0.07,-9.31,8.09,4.05,2.24,-0.63,1.84,1005.94
13.171,-0.46,1.51,0.13,-9.31,8.09,4.05,2.24,-0.63,1.84,1005.94
13.172,0.57,1.46,-0.42,-9.31,8.09,4.05,2.24,-0.63,1.84,1005.94
13.172,0.57,1.46,-0.42,-9.31,8.09,4.05,2.54,-1.40,2.69,1005.94
13.173,0.57,1.46,-0.42,-7.44,9.21,4.82,2.54,-1.40,2.69,1005.94
13.208,0.57,1.46,-0.42,-7.44,9.21,4.82,2.54,-1.40,2.69,1005.93
13.229,1.44,1.48,-0.34,-7.44,9.21,4.82,2.54,-1.40,2.69,1005.93
13.23,1.57,1.09,-0.43,-7.44,9.21,4.82,2.54,-1.40,2.69,1005.93
13.23,0.79,0.77,-0.54,-7.44,9.21,4.82,2.54,-1.40,2.69,1005.93
13.231,0.79,0.77,-0.54,-7.44,9.21,4.82,2.24,0.23,2.41,1005.93
13.231,0.79,0.77,-0.54,7.21,5.47,1.97,2.24,0.23,2.41,1005.93
13.247,0.79,0.77,-0.54,7.21,5.47,1.97,2.24,0.23,2.41,1005.92
13.287,0.41,0.46,-0.43,7.21,5.47,1.97,2.24,0.23,2.41,1005.92
13.288,0.25,0.28,-0.19,7.21,5.47,1.97,2.24,0.23,2.41,1005.92
13.289,0.15,0.13,0.11,7.21,5.47,1.97,2.24,0.23,2.41,1005.92
13.289,0.15,0.13,0.11,7.21,5.47,1.97,-0.41,0.82,-0.84,1005.92
13.29,0.15,0.13,0.11,-2.48,-2.96,4.10,-0.41,0.82,-0.84,1005.92
13.327,0.15,0.13,0.11,-2.48,-2.96,4.10,-0.41,0.82,-0.84,1005.90
13.354,0.18,0.06,0.19,-2.48,-2.96,4.10,-0.41,0.82,-0.84,1005.90
13.356,0.29,0.12,0.04,-2.48,-2.96,4.10,-0.41,0.82,-0.84,1005.90
13.357,0.38,0.20,-0.12,-2.48,-2.96,4.10,-0.41,0.82,-0.84,1005.90
13.358,0.38,0.20,-0.12,-1.44,-5.74,5.31,-0.41,0.82,-0.84,1005.90
13.359,0.38,0.20,-0.12,-1.44,-5.74,5.31,-1.83,0.19,-2.61,1005.90
13.405,0.33,0.25,-0.17,-1.44,-5.74,5.31,-1.83,0.19,-2.61,1005.90
13.406,0.20,0.35,-0.11,-1.44,-5.74,5.31,-1.83,0.19,-2.61,1005.90
13.406,0.21,0.53,-0.04,-1.44,-5.74,5.31,-1.83,0.19,-2.61,1005.90
13.407,0.21,0.53,-0.04,-1.44,-5.74,5.31,-3.37,-0.46,-4.32,1005.90
13.407,0.21,0.53,-0.04,0.28,-4.87,2.41,-3.37,-0.46,-4.32,1005.90
13.407,0.21,0.53,-0.04,0.28,-4.87,2.41,-3.37,-0.46,-4.32,1005.96
13.448,0.21,0.53,-0.04,0.28,-4.87,2.41,-3.37,-0.46,-4.32,1005.99
13.463,0.26,0.84,-0.21,0.28,-4.87,2.41,-3.37,-0.46,-4.32,1005.99
13.463,0.33,1.28,-0.37,0.28,-4.87,2.41,-3.37,-0.46,-4.32,1005.99
13.464,0.59,1.83,-0.58,0.28,-4.87,2.41,-3.37,-0.46,-4.32,1005.99
13.465,0.59,1.83,-0.58,0.28,-4.87,2.41,-4.78,-0.84,-4.91,1005.99
13.465,0.59,1.83,-0.58,4.37,3.42,-2.83,-4.78,-0.84,-4.91,1005.99
13.522,0.74,1.88,-0.71,4.37,3.42,-2.83,-4.78,-0.84,-4.91,1005.99
13.523,0.76,1.74,-0.71,4.37,3.42,-2.83,-4.78,-0.84,-4.91,1005.99
13.524,0.94,1.54,-0.44,4.37,3.42,-2.83,-4.78,-0.84,-4.91,1005.99
13.525,0.94,1.54,-0.44,4.37,3.42,-2.83,-4.95,0.19,-3.82,1005.99
13.526,0.94,1.54,-0.44,10.43,7.75,-7.62,-4.95,0.19,-3.82,1005.99
13.529,0.94,1.54,-0.44,10.43,7.75,-7.62,-4.95,0.19,-3.82,1005.95
13.578,0.94,1.19,-0.71,10.43,7.75,-7.62,-4.95,0.19,-3.82,1005.95
13.58,0.80,0.82,-0.87,10.43,7.75,-7.62,-4.95,0.19,-3.82,1005.95
13.58,0.60,0.69,-0.61,10.43,7.75,-7.62,-4.95,0.19,-3.82,1005.95
13.58,0.60,0.69,-0.61,10.54,0.10,-9.44,-4.95,0.19,-3.82,1005.95
13.581,0.60,0.69,-0.61,10.54,0.10,-9.44,-2.15,1.38,-0.86,1005.95
13.608,0.60,0.69,-0.61,10.54,0.10,-9.44,-2.15,1.38,-0.86,1005.89
13.637,0.59,0.76,-0.72,10.54,0.10,-9.44,-2.15,1.38,-0.86,1005.89
13.638,0.19,1.18,-0.83,10.54,0.10,-9.44,-2.15,1.38,-0.86,1005.89
13.638,-1.50,1.26,0.74,10.54,0.10,-9.44,-2.15,1.38,-0.86,1005.89
13.639,-1.50,1.26,0.74,10.54,0.10,-9.44,0.36,3.66,1.07,1005.89
13.639,-1.50,1.26,0.74,0.37,1.47,-4.06,0.36,3.66,1.07,1005.89
13.648,-1.50,1.26,0.74,0.37,1.47,-4.06,0.36,3.66,1.07,1005.89
13.696,-2.29,1.73,0.07,0.37,1.47,-4.06,0.36,3.66,1.07,1005.89
13.697,-0.38,2.33,-1.10,0.37,1.47,-4.06,0.36,3.66,1.07,1005.89
13.697,0.66,1.03,-0.06,0.37,1.47,-4.06,0.36,3.66,1.07,1005.89
13.697,0.66,1.03,-0.06,0.37,1.47,-4.06,0.93,2.11,1.17,1005.89
13.698,0.66,1.03,-0.06,-4.21,7.30,-4.11,0.93,2.11,1.17,1005.89
13.728,0.66,1.03,-0.06,-4.21,7.30,-4.11,0.93,2.11,1.17,1005.93
13.754,-0.23,0.33,0.21,-4.21,7.30,-4.11,0.93,2.11,1.17,1005.93
13.755,0.03,0.73,0.06,-4.21,7.30,-4.11,0.93,2.11,1.17,1005.93
13.756,0.30,1.17,-0.03,-4.21,7.30,-4.11,0.93,2.11,1.17,1005.93
13.756,0.30,1.17,-0.03,-4.21,7.30,-4.11,0.67,-0.17,1.57,1005.93
13.756,0.30,1.17,-0.03,1.77,-2.17,0.59,0.67,-0.17,1.57,1005.93
13.809,0.30,1.17,-0.03,1.77,-2.17,0.59,0.67,-0.17,1.57,1005.94
13.814,0.21,1.21,-0.14,1.77,-2.17,0.59,0.67,-0.17,1.57,1005.94
13.815,-0.16,0.93,0.01,1.77,-2.17,0.59,0.67,-0.17,1.57,1005.94
13.816,-0.32,0.98,0.00,1.77,-2.17,0.59,0.67,-0.17,1.57,1005.94
13.817,-0.32,0.98,0.00,1.77,-2.17,0.59,0.40,0.24,0.78,1005.94
13.818,-0.32,0.98,0.00,0.14,0.67,-0.36,0.40,0.24,0.78,1005.94
13.848,-0.32,0.98,0.00,0.14,0.67,-0.36,0.40,0.24,0.78,1005.95
13.871,-0.12,1.07,0.03,0.14,0.67,-0.36,0.40,0.24,0.78,1005.95
13.872,0.06,0.95,0.08,0.14,0.67,-0.36,0.40,0.24,0.78,1005.95
13.872,0.07,0.92,0.05,0.14,0.67,-0.36,0.40,0.24,0.78,1005.95
13.872,0.07,0.92,0.05,0.59,0.02,0.75,0.40,0.24,0.78,1005.95
13.873,0.07,0.92,0.05,0.59,0.02,0.75,0.36,-0.05,0.75,1005.95
13.929,0.07,0.92,0.05,0.59,0.02,0.75,0.36,-0.05,0.75,1005.95
13.931,0.07,0.92,0.05,0.08,0.16,0.70,0.36,-0.05,0.75,1005.95
13.931,0.01,1.00,0.03,0.08,0.16,0.70,0.36,-0.05,0.75,1005.95
13.931,-0.03,0.99,0.05,0.08,0.16,0.70,0.36,-0.05,0.75,1005.95
13.932,-0.05,0.99,-0.00,0.08,0.16,0.70,0.36,-0.05,0.75,1005.95
13.932,-0.05,0.99,-0.00,0.08,0.16,0.70,0.40,-0.19,0.54,1005.95
13.988,-0.09,1.01,-0.03,0.08,0.16,0.70,0.40,-0.19,0.54,1005.95
13.989,-0.09,1.02,0.04,0.08,0.16,0.70,0.40,-0.19,0.54,1005.95
13.989,-0.06,1.03,0.11,0.08,0.16,0.70,0.40,-0.19,0.54,1005.95
13.99,-0.06,1.03,0.11,0.08,0.16,0.70,0.57,-0.13,0.57,1005.95
13.991,-0.06,1.03,0.11,-0.78,0.39,1.15,0.57,-0.13,0.57,1005.95
14.008,-0.06,1.03,0.11,-0.78,0.39,1.15,0.57,-0.13,0.57,1005.94
14.046,-0.12,1.01,0.11,-0.78,0.39,1.15,0.57,-0.13,0.57,1005.94
14.047,-0.12,0.97,-0.01,-0.78,0.39,1.15,0.57,-0.13,0.57,1005.94
14.048,-0.05,0.95,-0.09,-0.78,0.39,1.15,0.57,-0.13,0.57,1005.94
14.048,-0.05,0.95,-0.09,-0.78,0.39,1.15,0.95,-0.34,0.81,1005.94
14.049,-0.05,0.95,-0.09,-1.39,0.06,1.31,0.95,-0.34,0.81,1005.94
14.049,-0.05,0.95,-0.09,-1.39,0.06,1.31,0.95,-0.34,0.81,1005.94
14.105,0.03,0.95,-0.13,-1.39,0.06,1.31,0.95,-0.34,0.81,1005.94
14.106,0.15,0.97,-0.15,-1.39,0.06,1.31,0.95,-0.34,0.81,1005.94
14.106,0.18,1.02,-0.07,-1.39,0.06,1.31,0.95,-0.34,0.81,1005.94
14.107,0.18,1.02,-0.07,-1.39,0.06,1.31,0.94,-1.03,1.02,1005.94
14.107,0.18,1.02,-0.07,0.27,0.22,0.65,0.94,-1.03,1.02,1005.94
14.127,0.18,1.02,-0.07,0.27,0.22,0.65,0.94,-1.03,1.02,1005.94
14.163,0.07,1.05,0.05,0.27,0.22,0.65,0.94,-1.03,1.02,1005.94
14.164,-0.15,1.13,0.02,0.27,0.22,0.65,0.94,-1.03,1.02,1005.94
14.164,-0.24,1.36,0.05,0.27,0.22,0.65,0.94,-1.03,1.02,1005.94
14.164,-0.24,1.36,0.05,0.27,0.22,0.65,1.01,-1.28,1.14,1005.94
14.165,-0.24,1.36,0.05,-2.37,2.37,2.79,1.01,-1.28,1.14,1005.94
14.208,-0.24,1.36,0.05,-2.37,2.37,2.79,1.01,-1.28,1.14,1005.94
14.221,-0.16,1.63,0.01,-2.37,2.37,2.79,1.01,-1.28,1.14,1005.94
14.221,-0.11,1.67,-0.12,-2.37,2.37,2.79,1.01,-1.28,1.14,1005.94
14.222,-0.07,1.36,-0.44,-2.37,2.37,2.79,1.01,-1.28,1.14,1005.94
14.222,-0.07,1.36,-0.44,-2.37,2.37,2.79,0.53,-2.36,2.17,1005.94
14.223,-0.07,1.36,-0.44,-3.16,6.18,1.08,0.53,-2.36,2.17,1005.94
14.248,-0.07,1.36,-0.44,-3.16,6.18,1.08,0.53,-2.36,2.17,1005.95
14.278,0.35,1.08,-0.36,-3.16,6.18,1.08,0.53,-2.36,2.17,1005.95
14.279,0.70,1.01,-0.26,-3.16,6.18,1.08,0.53,-2.36,2.17,1005.95
14.279,0.49,0.81,-0.27,-3.16,6.18,1.08,0.53,-2.36,2.17,1005.95
14.28,0.49,0.81,-0.27,2.26,0.64,0.04,0.53,-2.36,2.17,1005.95
14.28,0.49,0.81,-0.27,2.26,0.64,0.04,-1.11,-4.60,2.81,1005.95
14.329,0.49,0.81,-0.27,2.26,0.64,0.04,-1.11,-4.60,2.81,1005.95
14.338,0.02,0.57,-0.30,2.26,0.64,0.04,-1.11,-4.60,2.81,1005.95
14.338,-0.37,0.51,-0.56,2.26,0.64,0.04,-1.11,-4.60,2.81,1005.95
14.339,-0.57,0.59,-0.95,2.26,0.64,0.04,-1.11,-4.60,2.81,1005.95
14.339,-0.57,0.59,-0.95,2.26,0.64,0.04,-2.90,-6.33,2.09,1005.95
14.34,-0.57,0.59,-0.95,-5.71,-3.44,-3.34,-2.90,-6.33,2.09,1005.95
14.397,-0.70,0.54,-1.09,-5.71,-3.44,-3.34,-2.90,-6.33,2.09,1005.95
14.398,-0.68,0.49,-1.16,-5.71,-3.44,-3.34,-2.90,-6.33,2.09,1005.95
14.398,-0.65,0.56,-1.14,-5.71,-3.44,-3.34,-2.90,-6.33,2.09,1005.95
14.399,-0.65,0.56,-1.14,-5.71,-3.44,-3.34,-2.67,-6.69,1.66,1005.95
14.399,-0.65,0.56,-1.14,-9.13,-3.77,-8.73,-2.67,-6.69,1.66,1005.95
14.409,-0.65,0.56,-1.14,-9.13,-3.77,-8.73,-2.67,-6.69,1.66,1005.95
14.449,-0.65,0.56,-1.14,-9.13,-3.77,-8.73,-2.67,-6.69,1.66,1005.94
14.455,-0.53,0.59,-1.08,-9.13,-3.77,-8.73,-2.67,-6.69,1.66,1005.94
14.455,-0.47,0.65,-0.98,-9.13,-3.77,-8.73,-2.67,-6.69,1.66,1005.94
14.456,-0.41,0.73,-0.90,-9.13,-3.77,-8.73,-2.67,-6.69,1.66,1005.94
14.456,-0.41,0.73,-0.90,-9.13,-3.77,-8.73,-2.05,-5.93,0.21,1005.94
14.457,-0.41,0.73,-0.90,-6.34,-2.70,-7.50,-2.05,-5.93,0.21,1005.94
14.515,-0.41,0.73,-0.90,-3.01,-0.71,-5.22,-2.05,-5.93,0.21,1005.94
14.517,-0.33,0.79,-0.82,-3.01,-0.71,-5.22,-2.05,-5.93,0.21,1005.94
14.517,-0.25,0.87,-0.68,-3.01,-0.71,-5.22,-2.05,-5.93,0.21,1005.94
14.518,-0.22,1.01,-0.61,-3.01,-0.71,-5.22,-2.05,-5.93,0.21,1005.94
14.518,-0.22,1.01,-0.61,-3.01,-0.71,-5.22,-1.71,-5.07,-1.31,1005.94
14.528,-0.22,1.01,-0.61,-3.01,-0.71,-5.22,-1.71,-5.07,-1.31,1005.93
14.572,-0.13,1.12,-0.63,-3.01,-0.71,-5.22,-1.71,-5.07,-1.31,1005.93
14.573,-0.01,1.18,-0.58,-3.01,-0.71,-5.22,-1.71,-5.07,-1.31,1005.93
14.573,0.03,1.21,-0.45,-3.01,-0.71,-5.22,-1.71,-5.07,-1.31,1005.93
14.574,0.03,1.21,-0.45,-3.01,-0.71,-5.22,-1.28,-4.28,-1.94,1005.93
14.574,0.03,1.21,-0.45,0.62,1.96,-4.43,-1.28,-4.28,-1.94,1005.93
14.608,0.03,1.21,-0.45,0.62,1.96,-4.43,-1.28,-4.28,-1.94,1005.94
14.63,0.07,1.22,-0.33,0.62,1.96,-4.43,-1.28,-4.28,-1.94,1005.94
14.63,0.21,1.22,-0.26,0.62,1.96,-4.43,-1.28,-4.28,-1.94,1005.94
14.631,0.36,1.17,-0.10,0.62,1.96,-4.43,-1.28,-4.28,-1.94,1005.94
14.631,0.36,1.17,-0.10,0.62,1.96,-4.43,-0.95,-3.00,-1.48,1005.94
14.631,0.36,1.17,-0.10,3.94,2.38,-2.01,-0.95,-3.00,-1.48,1005.94
14.648,0.36,1.17,-0.10,3.94,2.38,-2.01,-0.95,-3.00,-1.48,1005.94
14.69,0.36,1.17,-0.10,4.53,-0.52,-0.11,-0.95,-3.00,-1.48,1005.94
14.691,0.33,1.04,0.02,4.53,-0.52,-0.11,-0.95,-3.00,-1.48,1005.94
14.691,0.22,0.89,0.03,4.53,-0.52,-0.11,-0.95,-3.00,-1.48,1005.94
14.692,0.22,0.78,0.01,4.53,-0.52,-0.11,-0.95,-3.00,-1.48,1005.94
14.692,0.22,0.78,0.01,4.53,-0.52,-0.11,-0.35,-3.07,-0.53,1005.94
14.731,0.22,0.78,0.01,4.53,-0.52,-0.11,-0.35,-3.07,-0.53,1005.92
14.745,0.37,0.76,-0.16,4.53,-0.52,-0.11,-0.35,-3.07,-0.53,1005.92
14.746,0.57,0.76,-0.37,4.53,-0.52,-0.11,-0.35,-3.07,-0.53,1005.92
14.747,0.76,0.67,-0.54,4.53,-0.52,-0.11,-0.35,-3.07,-0.53,1005.92
14.747,0.76,0.67,-0.54,4.53,-0.52,-0.11,0.35,-3.58,0.89,1005.92
14.747,0.76,0.67,-0.54,6.90,-2.26,-3.92,0.35,-3.58,0.89,1005.92
14.804,0.81,0.83,-0.34,6.90,-2.26,-3.92,0.35,-3.58,0.89,1005.92
14.805,0.27,1.53,0.94,6.90,-2.26,-3.92,0.35,-3.58,0.89,1005.92
14.805,-0.18,2.16,1.39,6.90,-2.26,-3.92,0.35,-3.58,0.89,1005.92
14.805,-0.18,2.16,1.39,6.90,-2.26,-3.92,-0.60,-0.24,0.74,1005.92
14.806,-0.18,2.16,1.39,3.82,5.21,5.61,-0.60,-0.24,0.74,1005.92
14.808,-0.18,2.16,1.39,3.82,5.21,5.61,-0.60,-0.24,0.74,1005.92
14.849,-0.18,2.16,1.39,3.82,5.21,5.61,-0.60,-0.24,0.74,1005.92
14.862,-0.48,1.38,-0.47,3.82,5.21,5.61,-0.60,-0.24,0.74,1005.92
14.863,-0.68,0.71,-0.26,3.82,5.21,5.61,-0.60,-0.24,0.74,1005.92
14.863,-0.07,0.74,0.18,3.82,5.21,5.61,-0.60,-0.24,0.74,1005.92
14.864,-0.07,0.74,0.18,3.82,5.21,5.61,0.79,0.36,1.27,1005.92
14.864,-0.07,0.74,0.18,-3.80,-0.38,-2.21,0.79,0.36,1.27,1005.92
14.922,0.24,1.06,0.11,-3.80,-0.38,-2.21,0.79,0.36,1.27,1005.92
14.923,0.49,1.15,0.10,-3.80,-0.38,-2.21,0.79,0.36,1.27,1005.92
14.923,0.42,0.94,-0.02,-3.80,-0.38,-2.21,0.79,0.36,1.27,1005.92
14.924,0.42,0.94,-0.02,-3.80,-0.38,-2.21,0.33,-0.68,1.32,1005.92
14.924,0.42,0.94,-0.02,3.17,0.68,0.39,0.33,-0.68,1.32,1005.92
14.93,0.42,0.94,-0.02,3.17,0.68,0.39,0.33,-0.68,1.32,1005.94
14.981,0.14,0.98,-0.06,3.17,0.68,0.39,0.33,-0.68,1.32,1005.94
14.982,0.06,1.08,-0.09,3.17,0.68,0.39,0.33,-0.68,1.32,1005.94
14.983,0.09,1.07,-0.06,3.17,0.68,0.39,0.33,-0.68,1.32,1005.94
14.984,0.09,1.07,-0.06,3.17,0.68,0.39,0.19,-0.41,0.48,1005.94
14.984,0.09,1.07,-0.06,0.09,0.61,-0.78,0.19,-0.41,0.48,1005.94
15.011,0.09,1.07,-0.06,0.09,0.61,-0.78,0.19,-0.41,0.48,1005.95
15.038,0.05,0.99,0.06,0.09,0.61,-0.78,0.19,-0.41,0.48,1005.95
15.04,0.07,0.99,0.07,0.09,0.61,-0.78,0.19,-0.41,0.48,1005.95
15.04,0.13,0.99,0.11,0.09,0.61,-0.78,0.19,-0.41,0.48,1005.95
15.04,0.13,0.99,0.11,0.09,0.61,-0.78,0.17,-0.13,0.39,1005.95
15.041,0.13,0.99,0.11,-0.22,0.11,0.78,0.17,-0.13,0.39,1005.95
15.047,0.13,0.99,0.11,-0.22,0.11,0.78,0.17,-0.13,0.39,1005.95
15.097,0.13,0.99,0.11,-1.16,0.28,0.76,0.17,-0.13,0.39,1005.95
15.098,0.08,0.97,0.09,-1.16,0.28,0.76,0.17,-0.13,0.39,1005.95
15.098,0.02,1.01,0.06,-1.16,0.28,0.76,0.17,-0.13,0.39,1005.95
15.099,-0.07,1.03,0.02,-1.16,0.28,0.76,0.17,-0.13,0.39,1005.95
15.099,-0.07,1.03,0.02,-1.16,0.28,0.76,0.32,-0.16,0.40,1005.95
15.13,-0.07,1.03,0.02,-1.16,0.28,0.76,0.32,-0.16,0.40,1005.94
15.155,-0.04,1.02,0.04,-1.16,0.28,0.76,0.32,-0.16,0.40,1005.94
15.156,0.15,1.00,0.04,-1.16,0.28,0.76,0.32,-0.16,0.40,1005.94
15.156,0.19,0.98,-0.00,-1.16,0.28,0.76,0.32,-0.16,0.40,1005.94
15.156,0.19,0.98,-0.00,-1.16,0.28,0.76,0.51,-0.25,0.74,1005.94
15.157,0.19,0.98,-0.00,-0.69,0.32,0.75,0.51,-0.25,0.74,1005.94
15.208,0.19,0.98,-0.00,-0.69,0.32,0.75,0.51,-0.25,0.74,1005.93
15.211,0.13,1.00,-0.01,-0.69,0.32,0.75,0.51,-0.25,0.74,1005.93
15.212,0.02,1.04,-0.05,-0.69,0.32,0.75,0.51,-0.25,0.74,1005.93
15.212,0.05,1.05,-0.07,-0.69,0.32,0.75,0.51,-0.25,0.74,1005.93
15.215,0.05,1.05,-0.07,-0.69,0.32,0.75,0.60,-0.32,0.83,1005.93
15.216,0.05,1.05,-0.07,-1.45,0.67,0.40,0.60,-0.32,0.83,1005.93
15.248,0.05,1.05,-0.07,-1.45,0.67,0.40,0.60,-0.32,0.83,1005.93
15.271,0.17,1.01,-0.11,-1.45,0.67,0.40,0.60,-0.32,0.83,1005.93
15.272,0.17,1.02,-0.10,-1.45,0.67,0.40,0.60,-0.32,0.83,1005.93
15.273,0.16,1.05,-0.06,-1.45,0.67,0.40,0.60,-0.32,0.83,1005.93
15.274,0.16,1.05,-0.06,-1.45,0.67,0.40,0.68,-0.55,1.09,1005.93
15.275,0.16,1.05,-0.06,-0.99,0.85,0.38,0.68,-0.55,1.09,1005.93
15.328,0.16,1.05,-0.06,-0.99,0.85,0.38,0.68,-0.55,1.09,1005.94
15.329,0.12,1.10,-0.01,-0.99,0.85,0.38,0.68,-0.55,1.09,1005.94
15.33,-0.01,1.17,0.01,-0.99,0.85,0.38,0.68,-0.55,1.09,1005.94
15.33,-0.03,1.22,-0.02,-0.99,0.85,0.38,0.68,-0.55,1.09,1005.94
15.33,-0.03,1.22,-0.02,-0.99,0.85,0.38,1.00,-0.37,1.37,1005.94
15.331,-0.03,1.22,-0.02,-3.01,2.44,1.76,1.00,-0.37,1.37,1005.94
15.386,0.04,1.22,-0.08,-3.01,2.44,1.76,1.00,-0.37,1.37,1005.94
15.387,0.07,1.18,-0.21,-3.01,2.44,1.76,1.00,-0.37,1.37,1005.94
15.388,-0.01,1.18,-0.25,-3.01,2.44,1.76,1.00,-0.37,1.37,1005.94
15.388,-0.01,1.18,-0.25,-3.01,2.44,1.76,1.41,-0.78,1.87,1005.94
15.388,-0.01,1.18,-0.25,-3.68,3.28,0.95,1.41,-0.78,1.87,1005.94
15.408,-0.01,1.18,-0.25,-3.68,3.28,0.95,1.41,-0.78,1.87,1005.94
15.446,-0.27,1.32,-0.12,-3.68,3.28,0.95,1.41,-0.78,1.87,1005.94
15.448,-0.69,1.72,0.12,-3.68,3.28,0.95,1.41,-0.78,1.87,1005.94
15.449,-1.31,1.96,0.25,-3.68,3.28,0.95,1.41,-0.78,1.87,1005.94
15.45,-1.31,1.96,0.25,-3.68,3.28,0.95,1.65,-1.25,2.00,1005.94
15.451,-1.31,1.96,0.25,-11.97,8.62,4.54,1.65,-1.25,2.00,1005.94
15.452,-1.31,1.96,0.25,-11.97,8.62,4.54,1.65,-1.25,2.00,1005.93
15.505,-1.03,1.56,0.15,-11.97,8.62,4.54,1.65,-1.25,2.00,1005.93
15.51,0.10,1.22,-0.35,-11.97,8.62,4.54,1.65,-1.25,2.00,1005.93
15.511,1.07,1.51,-0.63,-11.97,8.62,4.54,1.65,-1.25,2.00,1005.93
15.512,1.07,1.51,-0.63,-11.97,8.62,4.54,1.97,-2.85,3.54,1005.93
15.513,1.07,1.51,-0.63,-4.70,7.69,2.60,1.97,-2.85,3.54,1005.93
15.532,1.07,1.51,-0.63,-4.70,7.69,2.60,1.97,-2.85,3.54,1005.93
15.563,1.47,1.34,-0.44,-4.70,7.69,2.60,1.97,-2.85,3.54,1005.93
15.564,0.87,0.91,-0.54,-4.70,7.69,2.60,1.97,-2.85,3.54,1005.93
15.564,0.57,0.62,-0.84,-4.70,7.69,2.60,1.97,-2.85,3.54,1005.93
15.565,0.57,0.62,-0.84,-4.70,7.69,2.60,1.46,-1.02,2.12,1005.93
15.565,0.57,0.62,-0.84,3.95,4.13,0.15,1.46,-1.02,2.12,1005.93
15.608,0.57,0.62,-0.84,3.95,4.13,0.15,1.46,-1.02,2.12,1005.92
15.621,0.35,0.52,-0.63,3.95,4.13,0.15,1.46,-1.02,2.12,1005.92
15.622,0.23,0.26,-0.28,3.95,4.13,0.15,1.46,-1.02,2.12,1005.92
15.622,0.03,0.01,0.07,3.95,4.13,0.15,1.46,-1.02,2.12,1005.92
15.623,0.03,0.01,0.07,3.95,4.13,0.15,-1.81,0.36,-0.53,1005.92
15.623,0.03,0.01,0.07,-3.46,-3.38,2.63,-1.81,0.36,-0.53,1005.92
15.65,0.03,0.01,0.07,-3.46,-3.38,2.63,-1.81,0.36,-0.53,1005.89
15.68,-0.13,-0.01,0.03,-3.46,-3.38,2.63,-1.81,0.36,-0.53,1005.89
15.681,-0.16,0.22,-0.24,-3.46,-3.38,2.63,-1.81,0.36,-0.53,1005.89
15.682,-0.08,0.46,-0.43,-3.46,-3.38,2.63,-1.81,0.36,-0.53,1005.89
15.682,-0.08,0.46,-0.43,-3.46,-3.38,2.63,-2.83,-0.67,-2.70,1005.89
15.683,-0.08,0.46,-0.43,-5.30,-5.26,2.28,-2.83,-0.67,-2.70,1005.89
15.729,-0.08,0.46,-0.43,-5.30,-5.26,2.28,-2.83,-0.67,-2.70,1005.96
15.737,-0.04,0.57,-0.50,-5.30,-5.26,2.28,-2.83,-0.67,-2.70,1005.96
15.738,-0.04,0.66,-0.46,-5.30,-5.26,2.28,-2.83,-0.67,-2.70,1005.96
15.738,-0.00,0.76,-0.46,-5.30,-5.26,2.28,-2.83,-0.67,-2.70,1005.96
15.739,-0.00,0.76,-0.46,-5.30,-5.26,2.28,-4.04,-2.07,-3.84,1005.96
15.739,-0.00,0.76,-0.46,-2.05,-2.42,-1.84,-4.04,-2.07,-3.84,1005.96
15.799,0.08,0.94,-0.47,-2.05,-2.42,-1.84,-4.04,-2.07,-3.84,1005.96
15.8,0.22,1.28,-0.64,-2.05,-2.42,-1.84,-4.04,-2.07,-3.84,1005.96
15.801,0.58,1.71,-0.91,-2.05,-2.42,-1.84,-4.04,-2.07,-3.84,1005.96
15.801,0.58,1.71,-0.91,-2.05,-2.42,-1.84,-4.84,-1.35,-4.01,1005.96
15.802,0.58,1.71,-0.91,3.35,3.30,-6.26,-4.84,-1.35,-4.01,1005.96
15.829,0.58,1.71,-0.91,3.35,3.30,-6.26,-4.84,-1.35,-4.01,1005.98
15.849,0.58,1.71,-0.91,3.35,3.30,-6.26,-4.84,-1.35,-4.01,1005.94
15.854,0.80,1.63,-0.95,3.35,3.30,-6.26,-4.84,-1.35,-4.01,1005.94
15.854,0.67,1.39,-0.65,3.35,3.30,-6.26,-4.84,-1.35,-4.01,1005.94
15.855,0.63,1.25,-0.61,3.35,3.30,-6.26,-4.84,-1.35,-4.01,1005.94
15.855,0.63,1.25,-0.61,3.35,3.30,-6.26,-4.41,0.90,-3.98,1005.94
15.855,0.63,1.25,-0.61,9.44,4.92,-9.04,-4.41,0.90,-3.98,1005.94
15.912,0.79,1.14,-0.46,9.44,4.92,-9.04,-4.41,0.90,-3.98,1005.94
15.913,0.77,0.94,-0.47,9.44,4.92,-9.04,-4.41,0.90,-3.98,1005.94
15.913,0.68,0.82,-0.54,9.44,4.92,-9.04,-4.41,0.90,-3.98,1005.94
15.913,0.68,0.82,-0.54,9.44,4.92,-9.04,-1.72,1.53,-1.25,1005.94
15.914,0.68,0.82,-0.54,10.56,0.84,-7.07,-1.72,1.53,-1.25,1005.94
15.927,0.68,0.82,-0.54,10.56,0.84,-7.07,-1.72,1.53,-1.25,1005.89
15.971,0.58,0.79,-0.54,10.56,0.84,-7.07,-1.72,1.53,-1.25,1005.89
15.973,0.46,1.01,-0.65,10.56,0.84,-7.07,-1.72,1.53,-1.25,1005.89
15.974,-0.32,1.51,0.06,10.56,0.84,-7.07,-1.72,1.53,-1.25,1005.89
15.974,-0.32,1.51,0.06,5.08,1.81,-5.07,-1.72,1.53,-1.25,1005.89
15.975,-0.32,1.51,0.06,5.08,1.81,-5.07,0.61,2.64,1.41,1005.89
16.011,-0.32,1.51,0.06,5.08,1.81,-5.07,0.61,2.64,1.41,1005.91
16.035,-2.22,1.53,1.17,5.08,1.81,-5.07,0.61,2.64,1.41,1005.91
16.036,-1.75,1.73,-0.02,5.08,1.81,-5.07,0.61,2.64,1.41,1005.91
16.037,0.23,1.57,-0.90,5.08,1.81,-5.07,0.61,2.64,1.41,1005.91
16.037,0.23,1.57,-0.90,5.08,1.81,-5.07,0.66,2.02,0.58,1005.91
16.037,0.23,1.57,-0.90,-9.50,6.56,0.08,0.66,2.02,0.58,1005.91
16.048,0.23,1.57,-0.90,-9.50,6.56,0.08,0.66,2.02,0.58,1005.92
16.088,0.53,0.98,-0.50,-9.50,6.56,0.08,0.66,2.02,0.58,1005.92
16.089,0.19,0.59,0.37,-9.50,6.56,0.08,0.66,2.02,0.58,1005.92
16.09,0.21,0.77,0.39,-9.50,6.56,0.08,0.66,2.02,0.58,1005.92
16.09,0.21,0.77,0.39,-9.50,6.56,0.08,0.68,0.03,2.37,1005.92
16.091,0.21,0.77,0.39,4.36,-1.87,0.46,0.68,0.03,2.37,1005.92
16.132,0.21,0.77,0.39,4.36,-1.87,0.46,0.68,0.03,2.37,1005.97
16.145,0.16,1.07,0.11,4.36,-1.87,0.46,0.68,0.03,2.37,1005.97
16.146,0.10,1.07,-0.19,4.36,-1.87,0.46,0.68,0.03,2.37,1005.97
16.147,0.01,1.07,-0.12,4.36,-1.87,0.46,0.68,0.03,2.37,1005.97
16.147,0.01,1.07,-0.12,4.36,-1.87,0.46,0.67,-0.28,1.14,1005.97
16.148,0.01,1.07,-0.12,1.56,0.90,-0.64,0.67,-0.28,1.14,1005.97
16.207,0.01,1.07,-0.12,-0.36,0.14,-0.09,0.67,-0.28,1.14,1005.97
16.208,-0.15,1.04,-0.05,-0.36,0.14,-0.09,0.67,-0.28,1.14,1005.97
16.209,-0.08,0.96,-0.05,-0.36,0.14,-0.09,0.67,-0.28,1.14,1005.97
16.212,0.05,0.99,-0.01,-0.36,0.14,-0.09,0.67,-0.28,1.14,1005.97
16.213,0.05,0.99,-0.01,-0.36,0.14,-0.09,0.45,0.12,0.76,1005.97
16.213,0.05,0.99,-0.01,-0.36,0.14,-0.09,0.45,0.12,0.76,1005.97
16.249,0.05,0.99,-0.01,-0.36,0.14,-0.09,0.45,0.12,0.76,1005.95
16.262,-0.04,1.03,0.06,-0.36,0.14,-0.09,0.45,0.12,0.76,1005.95
16.262,-0.15,0.96,0.07,-0.36,0.14,-0.09,0.45,0.12,0.76,1005.95
16.263,-0.09,0.97,0.12,-0.36,0.14,-0.09,0.45,0.12,0.76,1005.95
16.263,-0.09,0.97,0.12,-0.36,0.14,-0.09,0.49,0.10,0.77,1005.95
16.264,-0.09,0.97,0.12,-1.09,0.07,1.30,0.49,0.10,0.77,1005.95
16.32,-0.04,1.01,0.05,-1.09,0.07,1.30,0.49,0.10,0.77,1005.95
16.321,0.02,1.02,-0.00,-1.09,0.07,1.30,0.49,0.10,0.77,1005.95
16.321,0.06,0.97,-0.03,-1.09,0.07,1.30,0.49,0.10,0.77,1005.95
16.322,0.06,0.97,-0.03,-1.09,0.07,1.30,0.74,-0.17,1.02,1005.95
16.322,0.06,0.97,-0.03,-0.59,0.26,0.96,0.74,-0.17,1.02,1005.95
16.328,0.06,0.97,-0.03,-0.59,0.26,0.96,0.74,-0.17,1.02,1005.94
16.379,0.02,0.97,-0.08,-0.59,0.26,0.96,0.74,-0.17,1.02,1005.94
16.38,0.06,0.97,-0.11,-0.59,0.26,0.96,0.74,-0.17,1.02,1005.94
16.38,0.12,1.00,-0.14,-0.59,0.26,0.96,0.74,-0.17,1.02,1005.94
16.381,0.12,1.00,-0.14,-0.59,0.26,0.96,0.87,-0.25,1.09,1005.94
16.381,0.12,1.00,-0.14,-0.62,0.17,0.33,0.87,-0.25,1.09,1005.94
16.409,0.12,1.00,-0.14,-0.62,0.17,0.33,0.87,-0.25,1.09,1005.94
16.438,0.10,1.03,-0.18,-0.62,0.17,0.33,0.87,-0.25,1.09,1005.94
16.439,0.06,1.07,-0.19,-0.62,0.17,0.33,0.87,-0.25,1.09,1005.94
16.439,0.10,1.01,-0.21,-0.62,0.17,0.33,0.87,-0.25,1.09,1005.94
16.44,0.10,1.01,-0.21,-0.62,0.17,0.33,0.90,-0.39,1.13,1005.94
16.44,0.10,1.01,-0.21,-0.96,0.90,0.01,0.90,-0.39,1.13,1005.94
16.454,0.10,1.01,-0.21,-0.96,0.90,0.01,0.90,-0.39,1.13,1005.94
16.498,0.10,1.01,-0.21,-1.40,1.34,0.68,0.90,-0.39,1.13,1005.94
16.499,0.10,1.03,-0.20,-1.40,1.34,0.68,0.90,-0.39,1.13,1005.94
16.499,0.11,1.05,-0.20,-1.40,1.34,0.68,0.90,-0.39,1.13,1005.94
16.5,0.11,1.08,-0.15,-1.40,1.34,0.68,0.90,-0.39,1.13,1005.94
16.5,0.11,1.08,-0.15,-1.40,1.34,0.68,1.09,-0.11,1.19,1005.94
16.528,0.11,1.08,-0.15,-1.40,1.34,0.68,1.09,-0.11,1.19,1005.94
16.553,0.05,1.12,-0.10,-1.40,1.34,0.68,1.09,-0.11,1.19,1005.94
16.554,-0.02,1.19,-0.07,-1.40,1.34,0.68,1.09,-0.11,1.19,1005.94
16.554,-0.13,1.26,-0.03,-1.40,1.34,0.68,1.09,-0.11,1.19,1005.94
16.554,-0.13,1.26,-0.03,-1.40,1.34,0.68,1.50,-0.15,1.39,1005.94
16.555,-0.13,1.26,-0.03,-3.39,3.08,2.61,1.50,-0.15,1.39,1005.94
16.609,-0.13,1.26,-0.03,-3.39,3.08,2.61,1.50,-0.15,1.39,1005.93
16.613,-0.22,1.35,-0.10,-3.39,3.08,2.61,1.50,-0.15,1.39,1005.93
16.613,-0.46,1.68,-0.08,-3.39,3.08,2.61,1.50,-0.15,1.39,1005.93
16.614,-1.06,1.99,0.07,-3.39,3.08,2.61,1.50,-0.15,1.39,1005.93
16.614,-1.06,1.99,0.07,-3.39,3.08,2.61,2.08,-0.51,1.78,1005.93
16.614,-1.06,1.99,0.07,-9.34,8.52,3.90,2.08,-0.51,1.78,1005.93
16.649,-1.06,1.99,0.07,-9.34,8.52,3.90,2.08,-0.51,1.78,1005.94
16.67,-1.20,1.82,0.22,-9.34,8.52,3.90,2.08,-0.51,1.78,1005.94
16.671,-0.21,1.34,0.05,-9.34,8.52,3.90,2.08,-0.51,1.78,1005.94
16.671,0.67,1.41,-0.56,-9.34,8.52,3.90,2.08,-0.51,1.78,1005.94
16.672,0.67,1.41,-0.56,-6.66,8.22,4.64,2.08,-0.51,1.78,1005.94
16.672,0.67,1.41,-0.56,-6.66,8.22,4.64,2.32,-1.63,2.84,1005.94
16.73,1.37,1.36,-0.36,-6.66,8.22,4.64,2.32,-1.63,2.84,1005.94
16.731,1.22,0.99,-0.43,-6.66,8.22,4.64,2.32,-1.63,2.84,1005.94
16.731,0.51,0.66,-0.55,-6.66,8.22,4.64,2.32,-1.63,2.84,1005.94
16.731,0.51,0.66,-0.55,-6.66,8.22,4.64,1.72,-0.32,2.19,1005.94
16.732,0.51,0.66,-0.55,-6.66,8.22,4.64,1.72,-0.32,2.19,1005.92
16.732,0.51,0.66,-0.55,5.12,4.24,1.85,1.72,-0.32,2.19,1005.92
16.788,0.28,0.48,-0.54,5.12,4.24,1.85,1.72,-0.32,2.19,1005.92
16.789,0.21,0.31,-0.30,5.12,4.24,1.85,1.72,-0.32,2.19,1005.92
16.789,0.16,0.18,-0.02,5.12,4.24,1.85,1.72,-0.32,2.19,1005.92
16.79,0.16,0.18,-0.02,5.12,4.24,1.85,-0.86,0.36,-0.46,1005.92
16.79,0.16,0.18,-0.02,-2.79,-2.80,2.97,-0.86,0.36,-0.46,1005.92
16.808,0.16,0.18,-0.02,-2.79,-2.80,2.97,-0.86,0.36,-0.46,1005.91
16.845,0.15,0.13,0.04,-2.79,-2.80,2.97,-0.86,0.36,-0.46,1005.91
16.846,0.14,0.17,-0.06,-2.79,-2.80,2.97,-0.86,0.36,-0.46,1005.91
16.847,0.18,0.28,-0.22,-2.79,-2.80,2.97,-0.86,0.36,-0.46,1005.91
16.847,0.18,0.28,-0.22,-2.79,-2.80,2.97,-2.56,-0.11,-2.34,1005.91
16.847,0.18,0.28,-0.22,-2.39,-5.36,3.96,-2.56,-0.11,-2.34,1005.91
16.848,0.18,0.28,-0.22,-2.39,-5.36,3.96,-2.56,-0.11,-2.34,1005.91
16.904,0.16,0.42,-0.36,-2.39,-5.36,3.96,-2.56,-0.11,-2.34,1005.91
16.906,0.05,0.54,-0.27,-2.39,-5.36,3.96,-2.56,-0.11,-2.34,1005.91
16.906,0.06,0.67,-0.09,-2.39,-5.36,3.96,-2.56,-0.11,-2.34,1005.91
16.907,0.06,0.67,-0.09,-2.39,-5.36,3.96,-4.04,-0.88,-3.70,1005.91
16.907,0.06,0.67,-0.09,-1.09,-3.45,0.65,-4.04,-0.88,-3.70,1005.91
16.937,0.06,0.67,-0.09,-1.09,-3.45,0.65,-4.04,-0.88,-3.70,1005.97
16.963,0.09,0.90,-0.38,-1.09,-3.45,0.65,-4.04,-0.88,-3.70,1005.97
16.964,0.17,1.28,-0.47,-1.09,-3.45,0.65,-4.04,-0.88,-3.70,1005.97
16.964,0.28,1.86,-0.62,-1.09,-3.45,0.65,-4.04,-0.88,-3.70,1005.97
16.964,0.28,1.86,-0.62,-1.09,-3.45,0.65,-5.03,-1.58,-4.36,1005.97
16.965,0.28,1.86,-0.62,2.24,3.66,-4.36,-5.03,-1.58,-4.36,1005.97
17.008,0.28,1.86,-0.62,2.24,3.66,-4.36,-5.03,-1.58,-4.36,1005.96
17.025,0.41,1.89,-0.85,2.24,3.66,-4.36,-5.03,-1.58,-4.36,1005.96
17.026,0.62,1.62,-0.79,2.24,3.66,-4.36,-5.03,-1.58,-4.36,1005.96
17.026,0.86,1.35,-0.63,2.24,3.66,-4.36,-5.03,-1.58,-4.36,1005.96
17.026,0.86,1.35,-0.63,2.24,3.66,-4.36,-4.80,-0.56,-3.54,1005.96
17.027,0.86,1.35,-0.63,8.43,6.81,-9.52,-4.80,-0.56,-3.54,1005.96
17.05,0.86,1.35,-0.63,8.43,6.81,-9.52,-4.80,-0.56,-3.54,1005.92
17.079,0.85,1.16,-0.69,8.43,6.81,-9.52,-4.80,-0.56,-3.54,1005.92
17.08,0.67,0.88,-0.75,8.43,6.81,-9.52,-4.80,-0.56,-3.54,1005.92
17.08,0.53,0.72,-0.60,8.43,6.81,-9.52,-4.80,-0.56,-3.54,1005.92
17.081,0.53,0.72,-0.60,8.43,6.81,-9.52,-1.98,0.96,-1.18,1005.92
17.081,0.53,0.72,-0.60,9.55,0.43,-9.46,-1.98,0.96,-1.18,1005.92
17.13,0.53,0.72,-0.60,9.55,0.43,-9.46,-1.98,0.96,-1.18,1005.89
17.138,0.57,0.80,-0.50,9.55,0.43,-9.46,-1.98,0.96,-1.18,1005.89
17.139,0.52,1.05,-0.83,9.55,0.43,-9.46,-1.98,0.96,-1.18,1005.89
17.14,-0.50,1.48,0.13,9.55,0.43,-9.46,-1.98,0.96,-1.18,1005.89
17.14,-0.50,1.48,0.13,9.55,0.43,-9.46,0.62,2.63,1.36,1005.89
17.14,-0.50,1.48,0.13,4.38,1.91,-5.85,0.62,2.63,1.36,1005.89
17.204,-2.37,1.45,1.12,4.38,1.91,-5.85,0.62,2.63,1.36,1005.89
17.205,-1.42,1.82,-0.28,4.38,1.91,-5.85,0.62,2.63,1.36,1005.89
17.205,0.22,1.44,-1.00,4.38,1.91,-5.85,0.62,2.63,1.36,1005.89
17.206,0.22,1.44,-1.00,4.38,1.91,-5.85,0.94,2.58,0.51,1005.89
17.206,0.22,1.44,-1.00,-9.04,6.21,-1.57,0.94,2.58,0.51,1005.89
17.209,0.22,1.44,-1.00,-9.04,6.21,-1.57,0.94,2.58,0.51,1005.90
17.248,0.22,1.44,-1.00,-9.04,6.21,-1.57,0.94,2.58,0.51,1005.92
17.254,0.29,0.81,0.36,-9.04,6.21,-1.57,0.94,2.58,0.51,1005.92
17.255,-0.05,0.58,0.17,-9.04,6.21,-1.57,0.94,2.58,0.51,1005.92
17.256,0.12,0.90,0.11,-9.04,6.21,-1.57,0.94,2.58,0.51,1005.92
17.256,0.12,0.90,0.11,2.68,-1.96,1.58,0.94,2.58,0.51,1005.92
17.256,0.12,0.90,0.11,2.68,-1.96,1.58,0.97,0.15,1.92,1005.92
17.313,0.12,0.90,0.11,2.33,1.06,-1.85,0.97,0.15,1.92,1005.92
17.314,0.27,1.16,-0.21,2.33,1.06,-1.85,0.97,0.15,1.92,1005.92
17.315,0.28,1.08,-0.19,2.33,1.06,-1.85,0.97,0.15,1.92,1005.92
17.315,-0.12,1.01,-0.10,2.33,1.06,-1.85,0.97,0.15,1.92,1005.92
17.315,-0.12,1.01,-0.10,2.33,1.06,-1.85,0.54,-0.06,1.04,1005.92
17.329,-0.12,1.01,-0.10,2.33,1.06,-1.85,0.54,-0.06,1.04,1005.93
17.371,-0.24,1.04,-0.05,2.33,1.06,-1.85,0.54,-0.06,1.04,1005.93
17.372,-0.09,1.01,0.07,2.33,1.06,-1.85,0.54,-0.06,1.04,1005.93
17.373,-0.05,0.96,0.16,2.33,1.06,-1.85,0.54,-0.06,1.04,1005.93
17.373,-0.05,0.96,0.16,2.33,1.06,-1.85,0.29,0.22,0.64,1005.93
17.374,-0.05,0.96,0.16,-0.68,0.26,0.56,0.29,0.22,0.64,1005.93
17.408,-0.05,0.96,0.16,-0.68,0.26,0.56,0.29,0.22,0.64,1005.94
17.432,-0.04,0.95,0.10,-0.68,0.26,0.56,0.29,0.22,0.64,1005.94
17.433,-0.03,1.01,0.07,-0.68,0.26,0.56,0.29,0.22,0.64,1005.94
17.433,-0.01,1.00,-0.01,-0.68,0.26,0.56,0.29,0.22,0.64,1005.94
17.433,-0.01,1.00,-0.01,-0.68,0.26,0.56,0.41,-0.23,0.65,1005.94
17.434,-0.01,1.00,-0.01,-0.07,0.06,0.69,0.41,-0.23,0.65,1005.94
17.448,-0.01,1.00,-0.01,-0.07,0.06,0.69,0.41,-0.23,0.65,1005.92
17.488,-0.00,0.99,-0.03,-0.07,0.06,0.69,0.41,-0.23,0.65,1005.92
17.49,-0.01,0.99,0.00,-0.07,0.06,0.69,0.41,-0.23,0.65,1005.92
17.491,0.07,0.96,-0.01,-0.07,0.06,0.69,0.41,-0.23,0.65,1005.92
17.492,0.07,0.96,-0.01,-0.07,0.06,0.69,0.51,-0.15,0.58,1005.92
17.493,0.07,0.96,-0.01,0.05,0.02,0.33,0.51,-0.15,0.58,1005.92
17.53,0.07,0.96,-0.01,0.05,0.02,0.33,0.51,-0.15,0.58,1005.92
17.546,0.14,0.95,-0.05,0.05,0.02,0.33,0.51,-0.15,0.58,1005.92
17.547,0.07,0.98,-0.11,0.05,0.02,0.33,0.51,-0.15,0.58,1005.92
17.547,-0.03,0.99,-0.14,0.05,0.02,0.33,0.51,-0.15,0.58,1005.92
17.55,-0.03,0.99,-0.14,0.05,0.02,0.33,0.48,-0.00,0.41,1005.92
17.55,-0.03,0.99,-0.14,0.21,0.02,-0.22,0.48,-0.00,0.41,1005.92
17.603,-0.09,1.01,-0.08,0.21,0.02,-0.22,0.48,-0.00,0.41,1005.92
17.604,-0.08,1.05,-0.04,0.21,0.02,-0.22,0.48,-0.00,0.41,1005.92
17.605,-0.01,1.03,-0.03,0.21,0.02,-0.22,0.48,-0.00,0.41,1005.92
17.605,-0.01,1.03,-0.03,0.21,0.02,-0.22,0.45,-0.35,0.49,1005.92
17.606,-0.01,1.03,-0.03,-1.22,0.56,0.51,0.45,-0.35,0.49,1005.92
17.63,-0.01,1.03,-0.03,-1.22,0.56,0.51,0.45,-0.35,0.49,1005.92
17.649,-0.01,1.03,-0.03,-1.22,0.56,0.51,0.45,-0.35,0.49,1005.93
17.663,-0.01,1.01,-0.01,-1.22,0.56,0.51,0.45,-0.35,0.49,1005.93
17.663,-0.13,1.02,0.03,-1.22,0.56,0.51,0.45,-0.35,0.49,1005.93
17.664,-0.38,1.14,0.10,-1.22,0.56,0.51,0.45,-0.35,0.49,1005.93
17.664,-0.38,1.14,0.10,-1.22,0.56,0.51,0.77,-1.08,0.75,1005.93
17.664,-0.38,1.14,0.10,-2.60,0.90,1.83,0.77,-1.08,0.75,1005.93
17.721,-0.55,1.32,0.11,-2.60,0.90,1.83,0.77,-1.08,0.75,1005.93
17.721,-0.45,1.44,0.01,-2.60,0.90,1.83,0.77,-1.08,0.75,1005.93
17.721,-0.22,1.64,0.01,-2.60,0.90,1.83,0.77,-1.08,0.75,1005.93
17.722,-0.22,1.64,0.01,-2.60,0.90,1.83,1.13,-2.67,1.80,1005.93
17.722,-0.22,1.64,0.01,-5.49,5.07,2.59,1.13,-2.67,1.80,1005.93
17.729,-0.22,1.64,0.01,-5.49,5.07,2.59,1.13,-2.67,1.80,1005.95
17.78,0.14,1.59,-0.18,-5.49,5.07,2.59,1.13,-2.67,1.80,1005.95
17.781,0.32,1.17,-0.48,-5.49,5.07,2.59,1.13,-2.67,1.80,1005.95
17.781,0.46,0.90,-0.43,-5.49,5.07,2.59,1.13,-2.67,1.80,1005.95
17.782,0.46,0.90,-0.43,-5.49,5.07,2.59,0.28,-4.12,2.83,1005.95
17.782,0.46,0.90,-0.43,0.59,3.00,-0.73,0.28,-4.12,2.83,1005.95
17.809,0.46,0.90,-0.43,0.59,3.00,-0.73,0.28,-4.12,2.83,1005.94
17.838,0.75,0.74,-0.30,0.59,3.00,-0.73,0.28,-4.12,2.83,1005.94
17.838,0.62,0.55,-0.33,0.59,3.00,-0.73,0.28,-4.12,2.83,1005.94
17.839,0.17,0.49,-0.37,0.59,3.00,-0.73,0.28,-4.12,2.83,1005.94
17.839,0.17,0.49,-0.37,0.59,3.00,-0.73,-1.67,-4.76,2.46,1005.94
17.839,0.17,0.49,-0.37,2.10,-3.03,-0.54,-1.67,-4.76,2.46,1005.94
17.855,0.17,0.49,-0.37,2.10,-3.03,-0.54,-1.67,-4.76,2.46,1005.94
17.896,-0.20,0.50,-0.48,2.10,-3.03,-0.54,-1.67,-4.76,2.46,1005.94
17.897,-0.47,0.57,-0.64,2.10,-3.03,-0.54,-1.67,-4.76,2.46,1005.94
17.898,-0.70,0.63,-0.60,2.10,-3.03,-0.54,-1.67,-4.76,2.46,1005.94
17.898,-0.70,0.63,-0.60,-7.16,-3.39,-3.30,-1.67,-4.76,2.46,1005.94
17.898,-0.70,0.63,-0.60,-7.16,-3.39,-3.30,-2.52,-5.14,1.24,1005.94
17.928,-0.70,0.63,-0.60,-7.16,-3.39,-3.30,-2.52,-5.14,1.24,1005.93
17.957,-0.80,0.60,-0.71,-7.16,-3.39,-3.30,-2.52,-5.14,1.24,1005.93
17.958,-0.59,0.61,-0.86,-7.16,-3.39,-3.30,-2.52,-5.14,1.24,1005.93
17.958,-0.41,0.70,-0.92,-7.16,-3.39,-3.30,-2.52,-5.14,1.24,1005.93
17.958,-0.41,0.70,-0.92,-7.16,-3.39,-3.30,-2.23,-6.54,0.50,1005.93
17.959,-0.41,0.70,-0.92,-7.88,-2.85,-5.94,-2.23,-6.54,0.50,1005.93
18.009,-0.41,0.70,-0.92,-7.88,-2.85,-5.94,-2.23,-6.54,0.50,1005.93
18.012,-0.31,0.78,-0.94,-7.88,-2.85,-5.94,-2.23,-6.54,0.50,1005.93
18.013,-0.27,0.86,-0.86,-7.88,-2.85,-5.94,-2.23,-6.54,0.50,1005.93
18.013,-0.20,0.94,-0.75,-7.88,-2.85,-5.94,-2.23,-6.54,0.50,1005.93
18.014,-0.20,0.94,-0.75,-7.88,-2.85,-5.94,-1.96,-5.31,-0.70,1005.93
18.014,-0.20,0.94,-0.75,-3.49,-0.95,-6.62,-1.96,-5.31,-0.70,1005.93
18.049,-0.20,0.94,-0.75,-3.49,-0.95,-6.62,-1.96,-5.31,-0.70,1005.91
18.07,-0.18,1.01,-0.61,-3.49,-0.95,-6.62,-1.96,-5.31,-0.70,1005.91
18.071,-0.26,1.07,-0.51,-3.49,-0.95,-6.62,-1.96,-5.31,-0.70,1005.91
18.071,-0.28,1.10,-0.42,-3.49,-0.95,-6.62,-1.96,-5.31,-0.70,1005.91
18.072,-0.28,1.10,-0.42,-3.49,-0.95,-6.62,-1.67,-3.74,-1.64,1005.91
18.072,-0.28,1.10,-0.42,-2.06,0.85,-4.04,-1.67,-3.74,-1.64,1005.91
18.129,-0.17,1.14,-0.37,-2.06,0.85,-4.04,-1.67,-3.74,-1.64,1005.91
18.13,-0.03,1.17,-0.32,-2.06,0.85,-4.04,-1.67,-3.74,-1.64,1005.91
18.13,0.05,1.18,-0.24,-2.06,0.85,-4.04,-1.67,-3.74,-1.64,1005.91
18.13,0.05,1.18,-0.24,-2.06,0.85,-4.04,-1.06,-3.45,-1.47,1005.91
18.13,0.05,1.18,-0.24,0.72,1.84,-2.74,-1.06,-3.45,-1.47,1005.91
18.131,0.05,1.18,-0.24,0.72,1.84,-2.74,-1.06,-3.45,-1.47,1005.92
18.188,0.04,1.11,-0.15,0.72,1.84,-2.74,-1.06,-3.45,-1.47,1005.92
18.189,-0.08,1.02,-0.11,0.72,1.84,-2.74,-1.06,-3.45,-1.47,1005.92
18.19,-0.09,1.00,-0.17,0.72,1.84,-2.74,-1.06,-3.45,-1.47,1005.92
18.19,-0.09,1.00,-0.17,0.72,1.84,-2.74,-0.14,-3.06,-1.04,1005.92
18.19,-0.09,1.00,-0.17,1.35,0.75,-1.43,-0.14,-3.06,-1.04,1005.92
18.209,-0.09,1.00,-0.17,1.35,0.75,-1.43,-0.14,-3.06,-1.04,1005.92
18.245,0.09,0.95,-0.23,1.35,0.75,-1.43,-0.14,-3.06,-1.04,1005.92
18.246,0.31,0.90,-0.18,1.35,0.75,-1.43,-0.14,-3.06,-1.04,1005.92
18.247,0.50,0.82,-0.08,1.35,0.75,-1.43,-0.14,-3.06,-1.04,1005.92
18.247,0.50,0.82,-0.08,1.35,0.75,-1.43,0.54,-2.55,0.08,1005.92
18.247,0.50,0.82,-0.08,4.60,-0.72,-1.59,0.54,-2.55,0.08,1005.92
18.249,0.50,0.82,-0.08,4.60,-0.72,-1.59,0.54,-2.55,0.08,1005.92
18.305,0.48,0.75,-0.00,4.60,-0.72,-1.59,0.54,-2.55,0.08,1005.92
18.305,0.52,0.69,-0.02,4.60,-0.72,-1.59,0.54,-2.55,0.08,1005.92
18.306,0.58,0.69,-0.06,4.60,-0.72,-1.59,0.54,-2.55,0.08,1005.92
18.306,0.58,0.69,-0.06,4.60,-0.72,-1.59,0.64,-1.80,0.66,1005.92
18.306,0.58,0.69,-0.06,6.34,-2.54,-0.06,0.64,-1.80,0.66,1005.92
18.329,0.58,0.69,-0.06,6.34,-2.54,-0.06,0.64,-1.80,0.66,1005.93
18.363,0.34,1.05,0.18,6.34,-2.54,-0.06,0.64,-1.80,0.66,1005.93
18.364,-0.07,2.19,1.11,6.34,-2.54,-0.06,0.64,-1.80,0.66,1005.93
18.364,-0.25,2.03,0.01,6.34,-2.54,-0.06,0.64,-1.80,0.66,1005.93
18.364,-0.25,2.03,0.01,6.34,-2.54,-0.06,-0.51,-0.28,0.83,1005.93
18.365,-0.25,2.03,0.01,0.77,7.59,4.07,-0.51,-0.28,0.83,1005.93
18.409,-0.25,2.03,0.01,0.77,7.59,4.07,-0.51,-0.28,0.83,1005.94
18.432,-0.34,0.53,-0.39,0.77,7.59,4.07,-0.51,-0.28,0.83,1005.94
18.433,-0.10,0.63,-0.55,0.77,7.59,4.07,-0.51,-0.28,0.83,1005.94
18.433,0.21,1.18,-0.23,0.77,7.59,4.07,-0.51,-0.28,0.83,1005.94
18.433,0.21,1.18,-0.23,-0.77,-2.01,-3.73,-0.51,-0.28,0.83,1005.94
18.433,0.21,1.18,-0.23,-0.77,-2.01,-3.73,0.37,-0.17,1.31,1005.94
18.454,0.21,1.18,-0.23,-0.77,-2.01,-3.73,0.37,-0.17,1.31,1005.93
18.479,0.50,1.12,0.25,-0.77,-2.01,-3.73,0.37,-0.17,1.31,1005.93
18.48,0.32,0.97,0.23,-0.77,-2.01,-3.73,0.37,-0.17,1.31,1005.93
18.48,-0.06,1.01,0.06,-0.77,-2.01,-3.73,0.37,-0.17,1.31,1005.93
18.481,-0.06,1.01,0.06,-0.77,-2.01,-3.73,-0.14,0.13,0.76,1005.93
18.481,-0.06,1.01,0.06,2.00,0.51,1.75,-0.14,0.13,0.76,1005.93
18.53,-0.06,1.01,0.06,2.00,0.51,1.75,-0.14,0.13,0.76,1005.92
18.538,-0.17,1.05,-0.01,2.00,0.51,1.75,-0.14,0.13,0.76,1005.92
18.539,0.04,1.02,0.01,2.00,0.51,1.75,-0.14,0.13,0.76,1005.92
18.54,0.17,1.02,0.04,2.00,0.51,1.75,-0.14,0.13,0.76,1005.92
18.54,0.17,1.02,0.04,2.00,0.51,1.75,0.11,-0.29,0.57,1005.92
18.541,0.17,1.02,0.04,-0.66,0.48,0.20,0.11,-0.29,0.57,1005.92
18.595,0.11,1.00,0.10,-0.66,0.48,0.20,0.11,-0.29,0.57,1005.92
18.596,0.06,1.02,0.09,-0.66,0.48,0.20,0.11,-0.29,0.57,1005.92
18.596,-0.01,0.99,0.10,-0.66,0.48,0.20,0.11,-0.29,0.57,1005.92
18.597,-0.01,0.99,0.10,-0.66,0.48,0.20,0.27,0.10,0.50,1005.92
18.597,-0.01,0.99,0.10,-0.55,0.22,1.14,0.27,0.10,0.50,1005.92
18.609,-0.01,0.99,0.10,-0.55,0.22,1.14,0.27,0.10,0.50,1005.91
18.65,-0.01,0.99,0.10,-0.55,0.22,1.14,0.27,0.10,0.50,1005.91
18.654,0.02,0.96,0.10,-0.55,0.22,1.14,0.27,0.10,0.50,1005.91
18.657,0.09,1.00,0.06,-0.55,0.22,1.14,0.27,0.10,0.50,1005.91
18.657,0.04,1.03,0.01,-0.55,0.22,1.14,0.27,0.10,0.50,1005.91
18.657,0.04,1.03,0.01,-0.55,0.22,1.14,0.44,-0.08,0.69,1005.91
18.658,0.04,1.03,0.01,-0.92,0.22,0.97,0.44,-0.08,0.69,1005.91
18.713,-0.01,1.01,-0.05,-0.92,0.22,0.97,0.44,-0.08,0.69,1005.91
18.713,0.06,0.99,-0.01,-0.92,0.22,0.97,0.44,-0.08,0.69,1005.91
18.714,0.12,1.03,0.10,-0.92,0.22,0.97,0.44,-0.08,0.69,1005.91
18.714,0.12,1.03,0.10,-0.92,0.22,0.97,0.61,-0.09,0.92,1005.91
18.714,0.12,1.03,0.10,-1.37,0.48,0.91,0.61,-0.09,0.92,1005.91
18.729,0.12,1.03,0.10,-1.37,0.48,0.91,0.61,-0.09,0.92,1005.91
18.773,0.18,1.02,0.01,-1.37,0.48,0.91,0.61,-0.09,0.92,1005.91
18.773,0.22,1.06,-0.06,-1.37,0.48,0.91,0.61,-0.09,0.92,1005.91
18.774,0.16,1.08,-0.09,-1.37,0.48,0.91,0.61,-0.09,0.92,1005.91
18.774,0.16,1.08,-0.09,-1.37,0.48,0.91,0.74,-0.24,1.10,1005.91
18.774,0.16,1.08,-0.09,-0.66,1.05,0.70,0.74,-0.24,1.10,1005.91
18.81,0.16,1.08,-0.09,-0.66,1.05,0.70,0.74,-0.24,1.10,1005.92
18.829,0.18,1.07,-0.04,-0.66,1.05,0.70,0.74,-0.24,1.10,1005.92
18.83,0.18,1.08,-0.03,-0.66,1.05,0.70,0.74,-0.24,1.10,1005.92
18.83,0.12,1.07,-0.14,-0.66,1.05,0.70,0.74,-0.24,1.10,1005.92
